	SID	date	sex	session	handedness	scanner	onset	duration	repetition	rating	body_site	keys	temperature	conditionrt	mouseclick	biopac_channel	condition	rt	value
0	2570	2023_Feb_04_1701	F	01	R	MH SP	2.774210199713707	5.001844869460911								19	Instructions		
1	2570	2023_Feb_04_1701	F	01	R	MH SP	8.49844399979338	2.0157396499998868								6	Cue		
2	2570	2023_Feb_04_1701	F	01	R	MH SP	10.50998909957707	3.9932726696133614								7	Pre-Jitter		
3	2570	2023_Feb_04_1701	F	01	R	MH SP	14.536673299968243	15.006741410121322			Right Leg		48.0			16	Heat-Stimulation		
4	2570	2023_Feb_04_1701	F	01	R	MH SP	29.620799199678004	7.005328220315278								8	Mid-Jitter		
5	2570	2023_Feb_04_1701	F	01	R	MH SP	36.64391839969903	5.009273840114474								20	PainBinary	0.9333756002597511	1.0
6	2570	2023_Feb_04_1701	F	01	R	MH SP	41.677484599873424	5.008931339718401								21	IntensityRating	2.2000008998438716	48.086419753086425
7	2570	2023_Feb_04_1701	F	01	R	MH SP	46.70701269991696	4.999985139816999								22	ToleranceRating	0.684156300034374	-1.0
8	2570	2023_Feb_04_1701	F	01	R	MH SP	51.712464899756014	7.005878070369363								9	Post-Q-Jitter		
9	2570	2023_Feb_04_1701	F	01	R	MH SP	59.48566259955987	2.0089672901667655								6	Cue		
10	2570	2023_Feb_04_1701	F	01	R	MH SP	61.49196849996224	5.997021870221943								7	Pre-Jitter		
11	2570	2023_Feb_04_1701	F	01	R	MH SP	67.53606519987807	15.009038280230016			Right Leg		47.5			16	Heat-Stimulation		
12	2570	2023_Feb_04_1701	F	01	R	MH SP	82.62115989997983	9.005732120014727								8	Mid-Jitter		
13	2570	2023_Feb_04_1701	F	01	R	MH SP	91.64560569962487	5.007060640025884								20	PainBinary	0.733298399951309	1.0
14	2570	2023_Feb_04_1701	F	01	R	MH SP	96.67686769971624	5.011274140328169								21	IntensityRating	2.7835079999640584	40.06172839506172
15	2570	2023_Feb_04_1701	F	01	R	MH SP	101.70820059999824	4.998708839993924								22	ToleranceRating	3.3026181999593973	1.0
16	2570	2023_Feb_04_1701	F	01	R	MH SP	106.71278229961172	9.006356870289892								9	Post-Q-Jitter		
17	2570	2023_Feb_04_1701	F	01	R	MH SP	116.359214999713	1.996484530158341								6	Cue		
18	2570	2023_Feb_04_1701	F	01	R	MH SP	118.35922159999609	5.997042669914663								7	Pre-Jitter		
19	2570	2023_Feb_04_1701	F	01	R	MH SP	124.39612739998847	15.006764210294932			Right Leg		47.5			16	Heat-Stimulation		
20	2570	2023_Feb_04_1701	F	01	R	MH SP	139.4862925997004	7.009963319636881								8	Mid-Jitter		
21	2570	2023_Feb_04_1701	F	01	R	MH SP	146.51157209975645	5.009586439933628								20	PainBinary	1.1999420998618007	1.0
22	2570	2023_Feb_04_1701	F	01	R	MH SP	151.54383109975606	5.011800940148532								21	IntensityRating	3.0500763999298215	36.11111111111111
23	2570	2023_Feb_04_1701	F	01	R	MH SP	156.57458569994196	5.000401140190661								22	ToleranceRating	2.7836548001505435	1.0
24	2570	2023_Feb_04_1701	F	01	R	MH SP	161.57971749966964	7.006928269285709								9	Post-Q-Jitter		
25	2570	2023_Feb_04_1701	F	01	R	MH SP	169.24212879966944	1.9983631996437907								6	Cue		
26	2570	2023_Feb_04_1701	F	01	R	MH SP	171.243291599676	3.9966280702501535								7	Pre-Jitter		
27	2570	2023_Feb_04_1701	F	01	R	MH SP	175.30503819976002	15.006633950397372			Right Leg		47.5			16	Heat-Stimulation		
28	2570	2023_Feb_04_1701	F	01	R	MH SP	190.38740609958768	5.008754719980061								8	Mid-Jitter		
29	2570	2023_Feb_04_1701	F	01	R	MH SP	195.4119879999198	5.00976934004575								20	PainBinary	1.2834040001034737	1.0
30	2570	2023_Feb_04_1701	F	01	R	MH SP	200.44454979989678	5.011412640102208								21	IntensityRating	1.8666897001676261	38.82716049382716
31	2570	2023_Feb_04_1701	F	01	R	MH SP	205.47536999965087	4.999866739381105								22	ToleranceRating	1.4836544999852777	-1.0
32	2570	2023_Feb_04_1701	F	01	R	MH SP	210.48100769985467	5.005358071066439								9	Post-Q-Jitter		
33	2570	2023_Feb_04_1701	F	01	R	MH SP	216.13915829965845	2.0052974997088313								6	Cue		
34	2570	2023_Feb_04_1701	F	01	R	MH SP	218.14339539967477	7.997451869305223								7	Pre-Jitter		
35	2570	2023_Feb_04_1701	F	01	R	MH SP	226.197670399677	15.005767580121756			Right Leg		47.0			16	Heat-Stimulation		
36	2570	2023_Feb_04_1701	F	01	R	MH SP	241.2858438999392	7.012886120006442								8	Mid-Jitter		
37	2570	2023_Feb_04_1701	F	01	R	MH SP	248.31360939983279	5.007500340230763								20	PainBinary	0.9833526001311839	1.0
38	2570	2023_Feb_04_1701	F	01	R	MH SP	253.34444359969348	4.996071540284902								21	IntensityRating	2.1008716002106667	33.95061728395062
39	2570	2023_Feb_04_1701	F	01	R	MH SP	258.35974709969014	4.998936539981514								22	ToleranceRating	1.9003023002296686	1.0
40	2570	2023_Feb_04_1701	F	01	R	MH SP	263.364654999692	7.005896170157939								9	Post-Q-Jitter		
41	2570	2023_Feb_04_1701	F	01	R	MH SP	271.7855683998205	2.013032920192927								6	Cue		
42	2570	2023_Feb_04_1701	F	01	R	MH SP	273.79427099972963	7.996803869958967								7	Pre-Jitter		
43	2570	2023_Feb_04_1701	F	01	R	MH SP	281.8430080995895	14.999512479640543			Right Leg		47.0			16	Heat-Stimulation		
44	2570	2023_Feb_04_1701	F	01	R	MH SP	296.91861459985375	9.015281919855624								8	Mid-Jitter		
45	2570	2023_Feb_04_1701	F	01	R	MH SP	305.94731489988044	5.008101239800453								20	PainBinary	1.1500599002465606	1.0
46	2570	2023_Feb_04_1701	F	01	R	MH SP	310.9787801997736	5.011834939941764								21	IntensityRating	2.7000576998107135	37.592592592592595
47	2570	2023_Feb_04_1701	F	01	R	MH SP	316.0126030999236	5.010997040197253								22	ToleranceRating	1.0499459002166986	1.0
48	2570	2023_Feb_04_1701	F	01	R	MH SP	321.03120969980955	9.007275870535523								9	Post-Q-Jitter		
49	2570	2023_Feb_04_1701	F	01	R	MH SP	330.705258899834	2.008784470614046								6	Cue		
50	2570	2023_Feb_04_1701	F	01	R	MH SP	332.7119665998034	3.995947470422834								7	Pre-Jitter		
51	2570	2023_Feb_04_1701	F	01	R	MH SP	336.75309899961576	15.013817279599607			Right Leg		47.0			16	Heat-Stimulation		
52	2570	2023_Feb_04_1701	F	01	R	MH SP	351.83684469992295	5.013202819507569								8	Mid-Jitter		
53	2570	2023_Feb_04_1701	F	01	R	MH SP	356.8645257996395	5.008009240031242								20	PainBinary	1.2341168001294136	1.0
54	2570	2023_Feb_04_1701	F	01	R	MH SP	361.89622829994187	5.01136784022674								21	IntensityRating	4.0667799999937415	36.66666666666667
55	2570	2023_Feb_04_1701	F	01	R	MH SP	366.92657249979675	5.000772939994931								22	ToleranceRating	1.0337065998464823	1.0
56	2570	2023_Feb_04_1701	F	01	R	MH SP	371.9316651998088	5.007373569533229								9	Post-Q-Jitter		
57	2570	2023_Feb_04_1701	F	01	R	MH SP	376.97116919979453	4.26191740995273								26	ComfortRating	4.233892799820751	-8.76543209876543
58	2570	2023_Feb_04_1701	F	01	R	MH SP	381.25042669987306	3.5367278400808573								24	ValenceRating	3.516635799780488	75.92592592592592
59	2570	2023_Feb_04_1701	F	01	R	MH SP	384.8108081999235	3.966033539734781								26	IntensityRating	3.935791799798608	80.18518518518518
60	2570	2023_Feb_04_1701	F	01	R	MH SP	388.7964756996371	3.028169540222734								27	AvoidanceRating	3.000007899943739	42.46913580246911
61	2570	2023_Feb_04_1701	F	01	R	MH SP	391.8426870997064	3.652451940346509								28	RelaxationRating	3.6336374999955297	56.54320987654321
62	2570	2023_Feb_04_1701	F	01	R	MH SP	395.5131035000086	3.478396140038967								29	AttentionRating	3.450091800186783	73.58024691358024
63	2570	2023_Feb_04_1701	F	01	R	MH SP	399.00961409974843	3.1520937401801348								30	BoredomRating	3.133668700233102	44.50617283950618
64	2570	2023_Feb_04_1701	F	01	R	MH SP	402.17731299996376	3.716780740302056								31	AlertnessRating	3.68594709970057	-31.851851851851848
65	2570	2023_Feb_04_1701	F	01	R	MH SP	405.9115286995657	4.69844753947109								32	PosThxRating	4.684187299571931	30.987654320987644
66	2570	2023_Feb_04_1701	F	01	R	MH SP	410.6285839998163	3.464416939765215								33	NegThxRating	3.419363500084728	-17.530864197530875
67	2570	2023_Feb_04_1701	F	01	R	MH SP	414.11130539979786	2.749040139839053								34	SelfRating	2.7336749001406133	18.395061728395063
68	2570	2023_Feb_04_1701	F	01	R	MH SP	416.87844669958577	3.714794439729303								35	OtherRating	3.700315900146961	26.419753086419746
69	2570	2023_Feb_04_1701	F	01	R	MH SP	420.6128969998099	3.7459632395766675								32	ImageryRating	3.716783400159329	23.456790123456784
70	2570	2023_Feb_04_1701	F	01	R	MH SP	424.3806600999087	2.7772050402127206								37	PresentRating	2.750086000189185	30.864197530864203
