	SID	date	sex	session	handedness	scanner	onset	duration	repetition	rating	body_site	keys	temperature	conditionrt	mouseclick	biopac_channel	condition	rt	value
0	2570	2023_Feb_04_1701	F	01	R	MH SP	2.774302799720317	5.004333478864282								19	Instructions		
1	2570	2023_Feb_04_1701	F	01	R	MH SP	8.439033300150186	2.00581380026415								6	Cue		
2	2570	2023_Feb_04_1701	F	01	R	MH SP	10.453348000068218	3.99437806988135								7	Pre-Jitter		
3	2570	2023_Feb_04_1701	F	01	R	MH SP	14.48659300012514	14.994734010193497			Chest		48.0			17	Heat-Stimulation		
4	2570	2023_Feb_04_1701	F	01	R	MH SP	29.56006160005927	9.014677520375699								8	Mid-Jitter		
5	2570	2023_Feb_04_1701	F	01	R	MH SP	38.588011799845845	5.008977239951491								20	PainBinary	0.9500492997467518	1.0
6	2570	2023_Feb_04_1701	F	01	R	MH SP	43.62038519978523	5.011003340128809								21	IntensityRating	2.7000842997804284	37.77777777777778
7	2570	2023_Feb_04_1701	F	01	R	MH SP	48.650542200077325	5.000814239960164								22	ToleranceRating	2.366990900132805	1.0
8	2570	2023_Feb_04_1701	F	01	R	MH SP	53.65613259980455	9.00643517030403								9	Post-Q-Jitter		
9	2570	2023_Feb_04_1701	F	01	R	MH SP	63.296835999935865	2.0079966303892434								6	Cue		
10	2570	2023_Feb_04_1701	F	01	R	MH SP	65.30380949983373	5.994605369865894								7	Pre-Jitter		
11	2570	2023_Feb_04_1701	F	01	R	MH SP	71.3264419999905	15.01612790999934			Chest		48.5			17	Heat-Stimulation		
12	2570	2023_Feb_04_1701	F	01	R	MH SP	86.4137607999146	5.008333719801158								8	Mid-Jitter		
13	2570	2023_Feb_04_1701	F	01	R	MH SP	91.43919740011916	5.007599640171975								20	PainBinary	2.516691400203854	1.0
14	2570	2023_Feb_04_1701	F	01	R	MH SP	96.47081970004365	5.011119139846414								21	IntensityRating	2.769317999947816	34.074074074074076
15	2570	2023_Feb_04_1701	F	01	R	MH SP	101.5010001999326	5.000925639644265								22	ToleranceRating	2.4029521998018026	1.0
16	2570	2023_Feb_04_1701	F	01	R	MH SP	106.50650070002303	5.0066903699189425								9	Post-Q-Jitter		
17	2570	2023_Feb_04_1701	F	01	R	MH SP	112.16982770012692	2.012966299895197								6	Cue		
18	2570	2023_Feb_04_1701	F	01	R	MH SP	114.18667079973966	5.9965513702481985								7	Pre-Jitter		
19	2570	2023_Feb_04_1701	F	01	R	MH SP	120.23099800013006	15.008134980686009			Chest		48.5			17	Heat-Stimulation		
20	2570	2023_Feb_04_1701	F	01	R	MH SP	135.31284190015867	5.011300320271403								8	Mid-Jitter		
21	2570	2023_Feb_04_1701	F	01	R	MH SP	140.33850649977103	5.010115040000528								20	PainBinary	1.6171070002019405	1.0
22	2570	2023_Feb_04_1701	F	01	R	MH SP	145.37126789987087	5.011364039964974								21	IntensityRating	2.5833322000689805	38.95061728395062
23	2570	2023_Feb_04_1701	F	01	R	MH SP	150.40175670012832	5.000449939630926								22	ToleranceRating	2.4003463997505605	1.0
24	2570	2023_Feb_04_1701	F	01	R	MH SP	155.40753099974245	5.005684869829565								9	Post-Q-Jitter		
25	2570	2023_Feb_04_1701	F	01	R	MH SP	161.05378190008923	2.012853730004281								6	Cue		
26	2570	2023_Feb_04_1701	F	01	R	MH SP	163.07055839989334	7.996591170318425								7	Pre-Jitter		
27	2570	2023_Feb_04_1701	F	01	R	MH SP	171.13333790004253	15.004564450122416			Chest		48.5			17	Heat-Stimulation		
28	2570	2023_Feb_04_1701	F	01	R	MH SP	186.21546979993582	5.007126720156521								8	Mid-Jitter		
29	2570	2023_Feb_04_1701	F	01	R	MH SP	191.2401271997951	5.007901239674538								20	PainBinary	1.9667660999111831	1.0
30	2570	2023_Feb_04_1701	F	01	R	MH SP	196.2718516997993	5.011221939697862								21	IntensityRating	3.366628000047058	35.98765432098765
31	2570	2023_Feb_04_1701	F	01	R	MH SP	201.30272179981694	4.999560940079391								22	ToleranceRating	3.267041699960828	1.0
32	2570	2023_Feb_04_1701	F	01	R	MH SP	206.30760170007125	5.006580670829862								9	Post-Q-Jitter		
33	2570	2023_Feb_04_1701	F	01	R	MH SP	211.9601138997823	2.0012042303569615								6	Cue		
34	2570	2023_Feb_04_1701	F	01	R	MH SP	213.97128089983016	5.9961222698912024								7	Pre-Jitter		
35	2570	2023_Feb_04_1701	F	01	R	MH SP	220.03333920007572	15.005423049908131			Chest		48.5			17	Heat-Stimulation		
36	2570	2023_Feb_04_1701	F	01	R	MH SP	235.11542729986832	7.008134020026773								8	Mid-Jitter		
37	2570	2023_Feb_04_1701	F	01	R	MH SP	242.14061049977317	5.0079763401299715								20	PainBinary	1.4499896997585893	-1.0
38	2570	2023_Feb_04_1701	F	01	R	MH SP	257.163013599813	7.005711939651519								9	Post-Q-Jitter		
39	2570	2023_Feb_04_1701	F	01	R	MH SP	264.8104662997648	2.001532129943371								6	Cue		
40	2570	2023_Feb_04_1701	F	01	R	MH SP	266.8217389001511	5.996201570145786								7	Pre-Jitter		
41	2570	2023_Feb_04_1701	F	01	R	MH SP	272.85491639981046	14.996717410162091			Chest		48.5			17	Heat-Stimulation		
42	2570	2023_Feb_04_1701	F	01	R	MH SP	287.932685600128	9.008083320222795								8	Mid-Jitter		
43	2570	2023_Feb_04_1701	F	01	R	MH SP	296.9572755000554	5.009107939898968								20	PainBinary	1.817018700297922	1.0
44	2570	2023_Feb_04_1701	F	01	R	MH SP	301.99027119996026	5.009895939845592								21	IntensityRating	1.7167410999536514	43.08641975308642
45	2570	2023_Feb_04_1701	F	01	R	MH SP	307.0198224000633	5.000907440204173								22	ToleranceRating	2.0027776998467743	-1.0
46	2570	2023_Feb_04_1701	F	01	R	MH SP	312.0256527001038	9.00603607064113								9	Post-Q-Jitter		
47	2570	2023_Feb_04_1701	F	01	R	MH SP	321.70538670010865	2.0128288702107966								6	Cue		
48	2570	2023_Feb_04_1701	F	01	R	MH SP	323.7230627001263	7.994807969778776								7	Pre-Jitter		
49	2570	2023_Feb_04_1701	F	01	R	MH SP	331.7808777000755	15.012680749874562			Chest		48.0			17	Heat-Stimulation		
50	2570	2023_Feb_04_1701	F	01	R	MH SP	346.86357259983197	9.014157919678837								8	Mid-Jitter		
51	2570	2023_Feb_04_1701	F	01	R	MH SP	355.891695600003	5.008118340279907								20	PainBinary	1.2166301002725959	1.0
52	2570	2023_Feb_04_1701	F	01	R	MH SP	360.92310100002214	5.012094039935619								21	IntensityRating	2.3336914000101388	40.30864197530864
53	2570	2023_Feb_04_1701	F	01	R	MH SP	365.9545276998542	4.999345839954913								22	ToleranceRating	1.285427900031209	-1.0
54	2570	2023_Feb_04_1701	F	01	R	MH SP	370.9593532998115	9.006562869995832								9	Post-Q-Jitter		
55	2570	2023_Feb_04_1701	F	01	R	MH SP	379.99881110014394	4.3445545099675655								26	ComfortRating	4.317179300356656	-9.876543209876544
56	2570	2023_Feb_04_1701	F	01	R	MH SP	384.36106299981475	3.3200885402038693								24	ValenceRating	3.300042700022459	63.76543209876543
57	2570	2023_Feb_04_1701	F	01	R	MH SP	387.70506209973246	2.61549673974514								26	IntensityRating	2.6004409003071487	51.97530864197532
58	2570	2023_Feb_04_1701	F	01	R	MH SP	390.3398160999641	3.4794165403582156								27	AvoidanceRating	3.4500973001122475	21.35802469135804
59	2570	2023_Feb_04_1701	F	01	R	MH SP	393.8365589999594	3.9860176402144134								28	RelaxationRating	3.967033699620515	73.02469135802468
60	2570	2023_Feb_04_1701	F	01	R	MH SP	397.8395595997572	3.4300364404916763								29	AttentionRating	3.399965400341898	65.24691358024691
61	2570	2023_Feb_04_1701	F	01	R	MH SP	401.2881585001014	3.3828870402649045								30	BoredomRating	3.3671412002295256	38.82716049382716
62	2570	2023_Feb_04_1701	F	01	R	MH SP	404.68802689993754	3.516600539442152								31	AlertnessRating	3.5003202999942005	-38.88888888888889
63	2570	2023_Feb_04_1701	F	01	R	MH SP	408.22261090017855	3.9475584402680397								32	PosThxRating	3.9345983997918665	25.061728395061735
64	2570	2023_Feb_04_1701	F	01	R	MH SP	412.18974839989096	2.2633490399457514								33	NegThxRating	2.250805600080639	-18.271604938271608
65	2570	2023_Feb_04_1701	F	01	R	MH SP	414.4715517000295	2.6664234404452145								34	SelfRating	2.650401100050658	26.543209876543216
66	2570	2023_Feb_04_1701	F	01	R	MH SP	417.15491869999096	2.6163733401335776								35	OtherRating	2.600328200031072	-11.604938271604937
67	2570	2023_Feb_04_1701	F	01	R	MH SP	419.7900946000591	2.1293951398693025								32	ImageryRating	2.099991099908948	22.222222222222214
68	2570	2023_Feb_04_1701	F	01	R	MH SP	421.9405776001513	4.311828239820898								37	PresentRating	4.283407000359148	21.851851851851862
