	SID	date	sex	session	handedness	scanner	onset	duration	repetition	rating	body_site	keys	temperature	conditionrt	mouseclick	biopac_channel	condition	rt	value
0	2570	2023_Feb_04_1701	F	01	R	MH SP	2.7747128000482917	5.012317719869316								19	Instructions		
1	2570	2023_Feb_04_1701	F	01	R	MH SP	8.44657350005582	2.0149048697203398								6	Cue		
2	2570	2023_Feb_04_1701	F	01	R	MH SP	10.465524900238961	5.994286870118231								7	Pre-Jitter		
3	2570	2023_Feb_04_1701	F	01	R	MH SP	16.51546959998086	14.994592680130154			Left Arm		48.0			13	Heat-Stimulation		
4	2570	2023_Feb_04_1701	F	01	R	MH SP	31.591889900155365	5.008519120048732								8	Mid-Jitter		
5	2570	2023_Feb_04_1701	F	01	R	MH SP	36.61598370037973	5.010449840221554								20	PainBinary	1.2833334999158978	1.0
6	2570	2023_Feb_04_1701	F	01	R	MH SP	41.64979810034856	5.009696840308607								21	IntensityRating	3.667437800206244	37.03703703703704
7	2570	2023_Feb_04_1701	F	01	R	MH SP	46.679219600278884	5.000960040371865								22	ToleranceRating	1.8170429999008775	1.0
8	2570	2023_Feb_04_1701	F	01	R	MH SP	51.684999900404364	5.006157570052892								9	Post-Q-Jitter		
9	2570	2023_Feb_04_1701	F	01	R	MH SP	57.336949800141156	2.001847529783845								6	Cue		
10	2570	2023_Feb_04_1701	F	01	R	MH SP	59.3483053999953	5.996375969611108								7	Pre-Jitter		
11	2570	2023_Feb_04_1701	F	01	R	MH SP	65.37848260020837	15.002869610209018			Left Arm		48.5			13	Heat-Stimulation		
12	2570	2023_Feb_04_1701	F	01	R	MH SP	80.46046270010993	7.0057784197852015								8	Mid-Jitter		
13	2570	2023_Feb_04_1701	F	01	R	MH SP	87.48516150005162	5.006565839983523								20	PainBinary	2.518601699732244	1.0
14	2570	2023_Feb_04_1701	F	01	R	MH SP	92.51620180020109	5.011242140084505								21	IntensityRating	2.2334417002275586	35.06172839506173
15	2570	2023_Feb_04_1701	F	01	R	MH SP	97.54797240020707	4.9978183400817215								22	ToleranceRating	2.28366219997406	1.0
16	2570	2023_Feb_04_1701	F	01	R	MH SP	102.5518892002292	7.006787870079279								9	Post-Q-Jitter		
17	2570	2023_Feb_04_1701	F	01	R	MH SP	110.20163510041311	2.006927430164069								6	Cue		
18	2570	2023_Feb_04_1701	F	01	R	MH SP	112.21576549997553	7.995902169495821								7	Pre-Jitter		
19	2570	2023_Feb_04_1701	F	01	R	MH SP	120.28218700038269	14.996571850497276			Left Arm		48.5			13	Heat-Stimulation		
20	2570	2023_Feb_04_1701	F	01	R	MH SP	135.36070200009272	5.006408919580281								8	Mid-Jitter		
21	2570	2023_Feb_04_1701	F	01	R	MH SP	140.3852347000502	5.007501740008593								20	PainBinary	2.0666888998821378	1.0
22	2570	2023_Feb_04_1701	F	01	R	MH SP	145.41744079999626	5.009868039749563								21	IntensityRating	3.0195269999094307	38.33333333333333
23	2570	2023_Feb_04_1701	F	01	R	MH SP	150.44753730017692	4.999750640243292								22	ToleranceRating	2.469176800455898	1.0
24	2570	2023_Feb_04_1701	F	01	R	MH SP	155.45244290027767	5.006722370162606								9	Post-Q-Jitter		
25	2570	2023_Feb_04_1701	F	01	R	MH SP	162.0477297003381	1.9983514198102057								6	Cue		
26	2570	2023_Feb_04_1701	F	01	R	MH SP	164.04954970022663	7.996040970552713								7	Pre-Jitter		
27	2570	2023_Feb_04_1701	F	01	R	MH SP	172.0899634002708	15.015457079745829			Left Arm		48.5			13	Heat-Stimulation		
28	2570	2023_Feb_04_1701	F	01	R	MH SP	187.17755310004577	5.007144220173359								8	Mid-Jitter		
29	2570	2023_Feb_04_1701	F	01	R	MH SP	192.2022975999862	5.007804839871824								20	PainBinary	1.0166294001974165	1.0
30	2570	2023_Feb_04_1701	F	01	R	MH SP	197.23380720010027	5.01158204022795								21	IntensityRating	2.7000243002548814	40.925925925925924
31	2570	2023_Feb_04_1701	F	01	R	MH SP	202.2642051000148	5.000856339931488								22	ToleranceRating	2.7003288995474577	1.0
32	2570	2023_Feb_04_1701	F	01	R	MH SP	207.27000640006736	5.005959470290691								9	Post-Q-Jitter		
33	2570	2023_Feb_04_1701	F	01	R	MH SP	212.9277862003073	2.0066887997090816								6	Cue		
34	2570	2023_Feb_04_1701	F	01	R	MH SP	214.93350390018895	5.995862370356917								7	Pre-Jitter		
35	2570	2023_Feb_04_1701	F	01	R	MH SP	220.9787333002314	15.005556580144912			Left Arm		48.5			13	Heat-Stimulation		
36	2570	2023_Feb_04_1701	F	01	R	MH SP	236.05859490018338	7.012708520051092								8	Mid-Jitter		
37	2570	2023_Feb_04_1701	F	01	R	MH SP	243.086029200349	5.008031039964408								20	PainBinary	0.7527471999637783	1.0
38	2570	2023_Feb_04_1701	F	01	R	MH SP	248.11778180021793	5.0112844398245215								21	IntensityRating	2.9167220001108944	40.123456790123456
39	2570	2023_Feb_04_1701	F	01	R	MH SP	253.1489017000422	4.999134940095246								22	ToleranceRating	3.552941100206226	1.0
40	2570	2023_Feb_04_1701	F	01	R	MH SP	258.1532711000182	7.007228069938719								9	Post-Q-Jitter		
41	2570	2023_Feb_04_1701	F	01	R	MH SP	265.7931256000884	2.01046943012625								6	Cue		
42	2570	2023_Feb_04_1701	F	01	R	MH SP	267.80011670012027	3.9970016703009605								7	Pre-Jitter		
43	2570	2023_Feb_04_1701	F	01	R	MH SP	271.82957260031253	15.004932810086757			Left Arm		48.5			13	Heat-Stimulation		
44	2570	2023_Feb_04_1701	F	01	R	MH SP	286.90838860021904	7.014162820298225								8	Mid-Jitter		
45	2570	2023_Feb_04_1701	F	01	R	MH SP	293.93562590004876	5.009894339833409								20	PainBinary	1.150007599964738	1.0
46	2570	2023_Feb_04_1701	F	01	R	MH SP	298.96906909998506	5.009786939714104								21	IntensityRating	2.335473900195211	43.76543209876543
47	2570	2023_Feb_04_1701	F	01	R	MH SP	303.9986718003638	5.0006396397948265								22	ToleranceRating	0.8337557003833354	-1.0
48	2570	2023_Feb_04_1701	F	01	R	MH SP	309.00436670007184	7.006038770079613								9	Post-Q-Jitter		
49	2570	2023_Feb_04_1701	F	01	R	MH SP	316.654200500343	2.006002630572766								6	Cue		
50	2570	2023_Feb_04_1701	F	01	R	MH SP	318.66815680032596	5.995323070324957								7	Pre-Jitter		
51	2570	2023_Feb_04_1701	F	01	R	MH SP	324.7070581000298	15.001066510565579			Left Arm		48.0			13	Heat-Stimulation		
52	2570	2023_Feb_04_1701	F	01	R	MH SP	339.7949266000651	5.008838720154017								8	Mid-Jitter		
53	2570	2023_Feb_04_1701	F	01	R	MH SP	344.8205238999799	5.007809140253812								20	PainBinary	0.9834352000616491	1.0
54	2570	2023_Feb_04_1701	F	01	R	MH SP	349.85238700034097	5.0108444397337735								21	IntensityRating	2.216753200162202	44.567901234567906
55	2570	2023_Feb_04_1701	F	01	R	MH SP	354.88225820008665	5.001195039600134								22	ToleranceRating	1.2669873000122607	-1.0
56	2570	2023_Feb_04_1701	F	01	R	MH SP	359.8878158000298	5.006860469933599								9	Post-Q-Jitter		
57	2570	2023_Feb_04_1701	F	01	R	MH SP	364.92727590026334	5.661479909904301								26	ComfortRating	5.633720600046217	-9.012345679012356
58	2570	2023_Feb_04_1701	F	01	R	MH SP	370.60654970025644	5.336393340025097								24	ValenceRating	5.316734899766743	75.0
59	2570	2023_Feb_04_1701	F	01	R	MH SP	375.96679510036483	2.96596154011786								26	IntensityRating	2.950311299879104	89.87654320987653
60	2570	2023_Feb_04_1701	F	01	R	MH SP	378.95251730037853	3.744592340197414								27	AvoidanceRating	3.701860800385475	44.44444444444443
61	2570	2023_Feb_04_1701	F	01	R	MH SP	382.71455819997936	3.4872634396888316								28	RelaxationRating	3.4670386002399027	69.38271604938272
62	2570	2023_Feb_04_1701	F	01	R	MH SP	386.21838750038296	4.313007039949298								29	AttentionRating	4.2833521999418736	64.93827160493827
63	2570	2023_Feb_04_1701	F	01	R	MH SP	390.54882290028036	3.1188763403333724								30	BoredomRating	3.1003519003279507	41.419753086419746
64	2570	2023_Feb_04_1701	F	01	R	MH SP	393.68354010023177	4.2995506399311125								31	AlertnessRating	4.283688299823552	-39.382716049382715
65	2570	2023_Feb_04_1701	F	01	R	MH SP	398.0009126001969	4.798222039826214								32	PosThxRating	4.784137799870223	33.580246913580226
66	2570	2023_Feb_04_1701	F	01	R	MH SP	402.8181867999956	2.9470819397829473								33	NegThxRating	2.934246300254017	-33.08641975308642
67	2570	2023_Feb_04_1701	F	01	R	MH SP	405.7835979000665	2.866290539968759								34	SelfRating	2.850352699868381	4.691358024691368
68	2570	2023_Feb_04_1701	F	01	R	MH SP	408.6679816003889	2.83095523994416								35	OtherRating	2.817847399972379	13.58024691358024
69	2570	2023_Feb_04_1701	F	01	R	MH SP	411.5177060002461	3.78157793963328								32	ImageryRating	3.750040099956095	29.75308641975306
70	2570	2023_Feb_04_1701	F	01	R	MH SP	415.3196557001211	3.0444041402079165								37	PresentRating	3.0166269997134805	38.641975308641975
