	SID	biopac_channel	body_site	condition	correct	date	duration	handedness	mouseclick	onset	rt	scanner	score	session	sex	skin_site	temperature	value
0	2428	51	Left Leg	Expectancy		2023_Jan_09_1611	5.008083530701697	r		3.297698499634862		MS MH		2	m	3		47.098765432098766
1	2428	44	Left Leg	0-back Instruction		2023_Jan_09_1611	5.005076200235635	r		8.7343653999269		MS MH		2	m	3		
2	2428	7	Left Leg	Pre-Trial Jitter		2023_Jan_09_1611	9.012365399859846	r		13.747541300021112		MS MH		2	m	3		
3	2428	44.0	Left Leg	pretrialfixation		2023_Jan_09_1611	1.0056245001032948	r		23.050923599861562		MS MH		2	m	3		
4	2428		Left Leg	0-back	1.0	2023_Jan_09_1611	1.9966501002199948	r	0.0	24.063818200025707	1.0468619000166655	MS MH	12.5	2	m	3	47.5	
5	2428		Left Leg	0-back	1.0	2023_Jan_09_1611	1.9875414003618062	r	0.0	26.06840719981119	0.496749599929899	MS MH	25.0	2	m	3	47.5	
6	2428		Left Leg	0-back	1.0	2023_Jan_09_1611	1.988568200264126	r	0.0	28.067875599954277	0.6507041999138892	MS MH	37.5	2	m	3	47.5	
7	2428		Left Leg	0-back	1.0	2023_Jan_09_1611	1.9889063998125494	r	0.0	30.06772099994123	0.5175354001112282	MS MH	50.0	2	m	3	47.5	
8	2428		Left Leg	0-back	1.0	2023_Jan_09_1611	1.9888801998458803	r	0.0	32.067766699939966	0.5639634002000093	MS MH	62.5	2	m	3	47.5	
9	2428		Left Leg	0-back	1.0	2023_Jan_09_1611	1.9891933002509177	r	0.0	34.067631599958986	0.45064380019903183	MS MH	75.0	2	m	3	47.5	
10	2428		Left Leg	0-back	1.0	2023_Jan_09_1611	1.9888627002947032	r	0.0	36.06783359963447	0.5842945999465883	MS MH	87.5	2	m	3	47.5	
11	2428		Left Leg	0-back	1.0	2023_Jan_09_1611	1.9884925005026162	r	0.0	38.0680296998471	0.4305064999498427	MS MH	100.0	2	m	3	47.5	
12	2428	48.0	Left Leg	ScoreReport		2023_Jan_09_1611	5.001997500192374	r		40.07796219969168		MS MH		2	m	3		
13	2428	8	Left Leg	Post-Trial Jitter		2023_Jan_09_1611	9.008774299640208	r		45.14132389985025		MS MH		2	m	3		
14	2428	20	Left Leg	PainBinary		2023_Jan_09_1611	5.001997400075197	r		54.16980359982699	2.500414399895817	MS MH		2	m	3		1.0
15	2428	21	Left Leg	IntensityRating		2023_Jan_09_1611	5.013609500136226	r		59.189082299824804		MS MH		2	m	3		37.28395061728395
16	2428	23	Left Leg	DistractBinary		2023_Jan_09_1611	5.0065171997994184	r		64.21761019993573	3.8837431999854743	MS MH		2	m	3		0.0
17	2428	9	Left Leg	Post-Q-Jitter		2023_Jan_09_1611	8.994913400150836	r		69.22349749971181		MS MH		2	m	3		
18	2428	51	Left Leg	Expectancy		2023_Jan_09_1611	5.007941402029246	r		79.32526359986514	4.033670799806714	MS MH		2	m	3		39.38271604938272
19	2428	44	Left Leg	0-back Instruction		2023_Jan_09_1611	5.0024858000688255	r		84.72814060002565		MS MH		2	m	3		
20	2428	7	Left Leg	Pre-Trial Jitter		2023_Jan_09_1611	5.0056150001473725	r		89.74332529958338		MS MH		2	m	3		
21	2428	44.0	Left Leg	pretrialfixation		2023_Jan_09_1611	1.000734900124371	r		95.05408249981701		MS MH		2	m	3		
22	2428		Left Leg	0-back	1.0	2023_Jan_09_1611	1.987985500600189	r	0.0	96.06052949978039	0.896686099935323	MS MH	12.5	2	m	3	47.5	
23	2428		Left Leg	0-back	1.0	2023_Jan_09_1611	1.988352700136602	r	0.0	98.0686865998432	0.6304240003228188	MS MH	25.0	2	m	3	47.5	
24	2428		Left Leg	0-back	1.0	2023_Jan_09_1611	1.9893114999867976	r	0.0	100.06823939969763	0.6468847999349236	MS MH	37.5	2	m	3	47.5	
25	2428		Left Leg	0-back	1.0	2023_Jan_09_1611	1.9888200000859797	r	0.0	102.0685049998574	0.43049059994518757	MS MH	50.0	2	m	3	47.5	
26	2428		Left Leg	0-back	1.0	2023_Jan_09_1611	1.9886724003590643	r	0.0	104.06860259966925	0.45048419991508126	MS MH	62.5	2	m	3	47.5	
27	2428		Left Leg	0-back	1.0	2023_Jan_09_1611	1.9886711998842657	r	0.0	106.06860859971493	0.4138293997384608	MS MH	75.0	2	m	3	47.5	
28	2428		Left Leg	0-back	1.0	2023_Jan_09_1611	1.9891598005779088	r	0.0	108.06839709961787	0.3470274000428617	MS MH	87.5	2	m	3	47.5	
29	2428		Left Leg	0-back	1.0	2023_Jan_09_1611	1.989204099867493	r	0.0	110.06840559979901	0.3472878998145461	MS MH	100.0	2	m	3	47.5	
30	2428	48.0	Left Leg	ScoreReport		2023_Jan_09_1611	5.003782799933106	r		112.07779899984598		MS MH		2	m	3		
31	2428	8	Left Leg	Post-Trial Jitter		2023_Jan_09_1611	5.003351700026542	r		117.13642379967496		MS MH		2	m	3		
32	2428	20	Left Leg	PainBinary		2023_Jan_09_1611	5.001947400160134	r		122.15380659978837	2.2004203000105917	MS MH		2	m	3		1.0
33	2428	21	Left Leg	IntensityRating		2023_Jan_09_1611	4.997590399347246	r		127.17269119992852	2.0696073002181947	MS MH		2	m	3		43.641975308641975
34	2428	23	Left Leg	DistractBinary		2023_Jan_09_1611	5.005403699818999	r		132.18552079983056	3.702922699972987	MS MH		2	m	3		1.0
35	2428	9	Left Leg	Post-Q-Jitter		2023_Jan_09_1611	4.99486740026623	r		137.19085409957916		MS MH		2	m	3		
36	2428	43	Left Leg	2-back Instruction		2023_Jan_09_1611	5.008142899721861	r		142.20925349975005		MS MH		2	m	3		
37	2428	7	Left Leg	Pre-trial Jitter		2023_Jan_09_1611	9.003671399783343	r		147.2282026000321		MS MH		2	m	3		
38	2428	44.0	Left Leg	pretrialfixation		2023_Jan_09_1611	1.0046164011582732	r		156.49443819979206		MS MH		2	m	3		
39	2428		Left Leg	2-back	1.0	2023_Jan_09_1611	1.9868592005223036	r		157.51169779989868		MS MH	12.5	2	m	3	32.0	
40	2428		Left Leg	2-back	0.0	2023_Jan_09_1611	1.986763400491327	r	0	159.52009020000696	0.5304681002162397	MS MH	12.5	2	m	3	32.0	
41	2428		Left Leg	2-back	1.0	2023_Jan_09_1611	1.9874543002806604	r	2	161.51978129986674	0.5634726998396218	MS MH	25.0	2	m	3	32.0	
42	2428		Left Leg	2-back	1.0	2023_Jan_09_1611	1.987585199996829	r	2	163.51973909977823	0.4471741998568177	MS MH	37.5	2	m	3	32.0	
43	2428		Left Leg	2-back	1.0	2023_Jan_09_1611	1.9872360001318157	r	0	165.51990949967876	0.44718230003491044	MS MH	50.0	2	m	3	32.0	
44	2428		Left Leg	2-back	1.0	2023_Jan_09_1611	1.9877773001790047	r	2	167.51966759981588	0.6972827999852598	MS MH	62.5	2	m	3	32.0	
45	2428		Left Leg	2-back	1.0	2023_Jan_09_1611	1.987376400269568	r	0	169.5198830999434	0.7139008999802172	MS MH	75.0	2	m	3	32.0	
46	2428		Left Leg	2-back	1.0	2023_Jan_09_1611	1.987178500276059	r	2	171.51999519998208	0.6305510001257062	MS MH	87.5	2	m	3	32.0	
47	2428	48.0	Left Leg	ScoreReport		2023_Jan_09_1611	5.008946999907494	r		173.5341207999736		MS MH		2	m	3		
48	2428	8	Left Leg	Post-trial Jitter		2023_Jan_09_1611	8.99980719992891	r		178.58873920002952		MS MH		2	m	3		
49	2428	43	Left Leg	2-back Instruction		2023_Jan_09_1611	5.007936699781567	r		187.60982039989904		MS MH		2	m	3		
50	2428	7	Left Leg	Pre-trial Jitter		2023_Jan_09_1611	5.000532600097358	r		192.6302496995777		MS MH		2	m	3		
51	2428	44.0	Left Leg	pretrialfixation		2023_Jan_09_1611	0.9963884009048343	r		197.89063539961353		MS MH		2	m	3		
52	2428		Left Leg	2-back	0.0	2023_Jan_09_1611	1.9892269000411034	r	0.0	198.8942684996873	0.6799943000078201	MS MH	0.0	2	m	3	32.0	
53	2428		Left Leg	2-back	0.0	2023_Jan_09_1611	1.988297099713236	r	0.0	200.90307579981163	0.5970315998420119	MS MH	0.0	2	m	3	32.0	
54	2428		Left Leg	2-back	1.0	2023_Jan_09_1611	1.9890867001377046	r	0.0	202.90270469989628	0.5638117999769747	MS MH	12.5	2	m	3	32.0	
55	2428		Left Leg	2-back	1.0	2023_Jan_09_1611	1.98924870043993	r	2.0	204.90266749961302	0.8301702002063394	MS MH	25.0	2	m	3	32.0	
56	2428		Left Leg	2-back	1.0	2023_Jan_09_1611	1.9886532006785274	r	0.0	206.90298159979284	0.3675154000520706	MS MH	37.5	2	m	3	32.0	
57	2428		Left Leg	2-back	1.0	2023_Jan_09_1611	1.9894232996739447	r	2.0	208.90260209981352	0.7634411002509296	MS MH	50.0	2	m	3	32.0	
58	2428		Left Leg	2-back	0.0	2023_Jan_09_1611	1.9883659998886287	r	0.0	210.90316519979388	0.5804526000283659	MS MH	50.0	2	m	3	32.0	
59	2428		Left Leg	2-back	1.0	2023_Jan_09_1611	1.9890425000339746	r	2.0	212.9028240996413	1.0472183004021645	MS MH	62.5	2	m	3	32.0	
60	2428	50.0	Left Leg	ScoreReport		2023_Jan_09_1611	5.012855100445449	r		214.91596869984642		MS MH		2	m	3		
61	2428	8	Left Leg	Post-trial Jitter		2023_Jan_09_1611	9.005423600319773	r		219.96975529985502		MS MH		2	m	3		
62	2428	51	Left Leg	Expectancy		2023_Jan_09_1611	5.014703400898725	r		229.28186819981784		MS MH		2	m	3		53.58024691358024
63	2428	45	Left Leg	2-back Instruction		2023_Jan_09_1611	5.000946500338614	r		234.68040920002386		MS MH		2	m	3		
64	2428	7	Left Leg	Pre-trial Jitter		2023_Jan_09_1611	5.001091200392693	r		239.69708879990503		MS MH		2	m	3		
65	2428	44.0	Left Leg	pretrialfixation		2023_Jan_09_1611	1.0006469003856182	r		245.00564590003341		MS MH		2	m	3		
66	2428		Left Leg	2-back	1.0	2023_Jan_09_1611	1.9900877000764012	r		246.01097109960392		MS MH	12.5	2	m	3	47.5	
67	2428		Left Leg	2-back	1.0	2023_Jan_09_1611	1.9873616006225348	r		248.02069679973647		MS MH	25.0	2	m	3	47.5	
68	2428		Left Leg	2-back	1.0	2023_Jan_09_1611	1.9879956999793649	r	0	250.0204073996283	0.480413599871099	MS MH	37.5	2	m	3	47.5	
69	2428		Left Leg	2-back	1.0	2023_Jan_09_1611	1.986825400032103	r	2	252.02099709957838	0.6138828000985086	MS MH	50.0	2	m	3	47.5	
70	2428		Left Leg	2-back	1.0	2023_Jan_09_1611	1.9881371003575623	r	2	254.02035949984565	0.5676947003230453	MS MH	62.5	2	m	3	47.5	
71	2428		Left Leg	2-back	1.0	2023_Jan_09_1611	1.987036899663508	r	2	256.020931399893	0.5304559003561735	MS MH	75.0	2	m	3	47.5	
72	2428		Left Leg	2-back	1.0	2023_Jan_09_1611	1.9877361999824643	r	2	258.02061619982123	0.4971960997208953	MS MH	87.5	2	m	3	47.5	
73	2428		Left Leg	2-back	1.0	2023_Jan_09_1611	1.9872713005170226	r	2	260.0208574999124	0.6472259000875056	MS MH	100.0	2	m	3	47.5	
74	2428	48.0	Left Leg	ScoreReport		2023_Jan_09_1611	5.001228800509125	r		262.03058379981667		MS MH		2	m	3		
75	2428	8	Left Leg	Post-trial Jitter		2023_Jan_09_1611	5.0010979999788105	r		267.0890258997679		MS MH		2	m	3		
76	2428	20	Left Leg	PainBinary		2023_Jan_09_1611	5.001390399876982	r		272.10561319999397	1.950377699919045	MS MH		2	m	3		1.0
77	2428	21	Left Leg	IntensityRating		2023_Jan_09_1611	5.011038699653	r		277.12581979995593	4.4356807000003755	MS MH		2	m	3		43.7037037037037
78	2428	23	Left Leg	DistractBinary		2023_Jan_09_1611	5.003232900053263	r		282.15477999998257	2.033788400236517	MS MH		2	m	3		1.0
79	2428	9	Left Leg	Post-Q-Jitter		2023_Jan_09_1611	5.0054307002574205	r		287.16205889964476		MS MH		2	m	3		
80	2428	51	Left Leg	Expectancy		2023_Jan_09_1611	5.003873602021486	r		293.2710992996581	3.6003568000160158	MS MH		2	m	3		45.49382716049382
81	2428	45	Left Leg	2-back Instruction		2023_Jan_09_1611	5.015828801319003	r		298.66525969980285		MS MH		2	m	3		
82	2428	7	Left Leg	Pre-trial Jitter		2023_Jan_09_1611	9.002033799886703	r		303.6806055996567		MS MH		2	m	3		
83	2428	44.0	Left Leg	pretrialfixation		2023_Jan_09_1611	0.9935904005542397	r		312.993172199931		MS MH		2	m	3		
84	2428		Left Leg	2-back	1.0	2023_Jan_09_1611	1.9868375002406538	r		313.99660249985754		MS MH	12.5	2	m	3	47.5	
85	2428		Left Leg	2-back	1.0	2023_Jan_09_1611	1.9874738999642432	r		316.00465669995174		MS MH	25.0	2	m	3	47.5	
86	2428		Left Leg	2-back	1.0	2023_Jan_09_1611	1.988245700020343	r	0	318.0042950999923	0.847046300303191	MS MH	37.5	2	m	3	47.5	
87	2428		Left Leg	2-back	1.0	2023_Jan_09_1611	1.9880378996022046	r	2	320.004410199821	0.5172565998509526	MS MH	50.0	2	m	3	47.5	
88	2428		Left Leg	2-back	0.0	2023_Jan_09_1611	1.9872609004378319	r	0	322.0048165000044	0.6174074001610279	MS MH	50.0	2	m	3	47.5	
89	2428		Left Leg	2-back	1.0	2023_Jan_09_1611	1.9880976998247206	r	2	324.0043833996169	0.5468959999270737	MS MH	62.5	2	m	3	47.5	
90	2428		Left Leg	2-back	0.0	2023_Jan_09_1611	1.9880997999571264	r	2	326.0044370996766	0.6301049999892712	MS MH	62.5	2	m	3	47.5	
91	2428		Left Leg	2-back	1.0	2023_Jan_09_1611	1.9878561003133655	r	0	328.0045970999636	0.7304849000647664	MS MH	75.0	2	m	3	47.5	
92	2428	48.0	Left Leg	ScoreReport		2023_Jan_09_1611	5.011652200017124	r		330.01773129962385		MS MH		2	m	3		
93	2428	8	Left Leg	Post-trial Jitter		2023_Jan_09_1611	4.997324400115758	r		335.0749345999211		MS MH		2	m	3		
94	2428	20	Left Leg	PainBinary		2023_Jan_09_1611	5.0011695004068315	r		340.08973310003057	1.4504029001109302	MS MH		2	m	3		1.0
95	2428	21	Left Leg	IntensityRating		2023_Jan_09_1611	5.010732499882579	r		345.1100059999153	3.6002746000885963	MS MH		2	m	3		43.4567901234568
96	2428	23	Left Leg	DistractBinary		2023_Jan_09_1611	5.004340600222349	r		350.1382434996776	1.6336762001737952	MS MH		2	m	3		1.0
97	2428	9	Left Leg	Post-Q-Jitter		2023_Jan_09_1611	5.008772300090641	r		355.1444047000259		MS MH		2	m	3		
98	2428	51	Left Leg	Expectancy		2023_Jan_09_1611	5.005323402117938	r		361.3460610997863	4.167095500044525	MS MH		2	m	3		43.7037037037037
99	2428	44	Left Leg	0-back Instruction		2023_Jan_09_1611	5.013526300899684	r		366.7504407996312		MS MH		2	m	3		
100	2428	7	Left Leg	Pre-Trial Jitter		2023_Jan_09_1611	9.002820299938321	r		371.76424499973655		MS MH		2	m	3		
101	2428	44.0	Left Leg	pretrialfixation		2023_Jan_09_1611	1.01362070068717	r		381.06719379965216		MS MH		2	m	3		
102	2428		Left Leg	0-back	1.0	2023_Jan_09_1611	1.9879297004081309	r	0.0	382.0801401999779	0.6469487003050745	MS MH	12.5	2	m	3	47.5	
103	2428		Left Leg	0-back	1.0	2023_Jan_09_1611	1.987558000255376	r	0.0	384.08864420000464	0.5471291001886129	MS MH	25.0	2	m	3	47.5	
104	2428		Left Leg	0-back	1.0	2023_Jan_09_1611	1.9889845005236566	r	0.0	386.0879408996552	0.4138539000414312	MS MH	37.5	2	m	3	47.5	
105	2428		Left Leg	0-back	1.0	2023_Jan_09_1611	1.9887010003440082	r	0.0	388.08805999998003	0.43039700016379356	MS MH	50.0	2	m	3	47.5	
106	2428		Left Leg	0-back	1.0	2023_Jan_09_1611	1.9891698001883924	r	0.0	390.0879016998224	0.4637188003398478	MS MH	62.5	2	m	3	47.5	
107	2428		Left Leg	0-back	1.0	2023_Jan_09_1611	1.989276600535959	r	0.0	392.087859199848	0.41387780010700226	MS MH	75.0	2	m	3	47.5	
108	2428		Left Leg	0-back	1.0	2023_Jan_09_1611	1.9886068999767303	r	0.0	394.08820839971304	0.513839399907738	MS MH	87.5	2	m	3	47.5	
109	2428		Left Leg	0-back	1.0	2023_Jan_09_1611	1.9888054002076387	r	0.0	396.0881323996	0.5344048999249935	MS MH	100.0	2	m	3	47.5	
110	2428	48.0	Left Leg	ScoreReport		2023_Jan_09_1611	5.004433900117874	r		398.09704409958795		MS MH		2	m	3		
111	2428	8	Left Leg	Post-Trial Jitter		2023_Jan_09_1611	9.003113000188023	r		403.15609119972214		MS MH		2	m	3		
112	2428	20	Left Leg	PainBinary		2023_Jan_09_1611	5.002883899956942	r		412.17295349994674	1.867081900127232	MS MH		2	m	3		1.0
113	2428	21	Left Leg	IntensityRating		2023_Jan_09_1611	5.013514599762857	r		417.1927021997981	3.733577100094408	MS MH		2	m	3		42.59259259259259
114	2428	23	Left Leg	DistractBinary		2023_Jan_09_1611	5.0030339998193085	r		422.2229659999721	2.4337349999696016	MS MH		2	m	3		-1.0
115	2428	9	Left Leg	Post-Q-Jitter		2023_Jan_09_1611	8.994440800044686	r		427.2273714998737		MS MH		2	m	3		
116	2428	51	Left Leg	Expectancy		2023_Jan_09_1611	5.008090300485492	r		436.5205962997861	2.666882000397891	MS MH		2	m	3		43.02469135802469
117	2428	44	Left Leg	0-back Instruction		2023_Jan_09_1611	5.00320180086419	r		441.9147143997252		MS MH		2	m	3		
118	2428	7	Left Leg	Pre-Trial Jitter		2023_Jan_09_1611	5.002353500109166	r		446.93190039973706		MS MH		2	m	3		
119	2428	44.0	Left Leg	pretrialfixation		2023_Jan_09_1611	1.0011151009239256	r		452.2408280996606		MS MH		2	m	3		
120	2428		Left Leg	0-back	1.0	2023_Jan_09_1611	1.9881928004324436	r	0.0	453.24735299963504	1.2303506000898778	MS MH	12.5	2	m	3	47.5	
121	2428		Left Leg	0-back	1.0	2023_Jan_09_1611	1.9882385008968413	r	0.0	455.25568149983883	0.6470912001095712	MS MH	25.0	2	m	3	47.5	
122	2428		Left Leg	0-back	1.0	2023_Jan_09_1611	1.9892588001675904	r	0.0	457.2551992996596	0.43046840000897646	MS MH	37.5	2	m	3	47.5	
123	2428		Left Leg	0-back	1.0	2023_Jan_09_1611	1.9892423003911972	r	0.0	459.2551737995818	0.49683360010385513	MS MH	50.0	2	m	3	47.5	
124	2428		Left Leg	0-back	1.0	2023_Jan_09_1611	1.9893143004737794	r	0.0	461.255191499833	0.5805025002919137	MS MH	62.5	2	m	3	47.5	
125	2428		Left Leg	0-back	1.0	2023_Jan_09_1611	1.9893322004936635	r	0.0	463.25521289976314	0.5139716002158821	MS MH	75.0	2	m	3	47.5	
126	2428		Left Leg	0-back	1.0	2023_Jan_09_1611	1.9887646003626287	r	0.0	465.25555229978636	0.4971393998712301	MS MH	87.5	2	m	3	47.5	
127	2428		Left Leg	0-back	1.0	2023_Jan_09_1611	1.9895451003685594	r	0.0	467.2551575000398	0.5471903998404741	MS MH	100.0	2	m	3	47.5	
128	2428	48.0	Left Leg	ScoreReport		2023_Jan_09_1611	5.004317499697208	r		469.26445310004056		MS MH		2	m	3		
129	2428	8	Left Leg	Post-Trial Jitter		2023_Jan_09_1611	8.999800500459969	r		474.325116999913		MS MH		2	m	3		
130	2428	20	Left Leg	PainBinary		2023_Jan_09_1611	5.001855000387877	r		483.3408496999182	3.433659200090915	MS MH		2	m	3		1.0
131	2428	21	Left Leg	IntensityRating		2023_Jan_09_1611	5.0121563002467155	r		488.3607520996593	2.6168886995874345	MS MH		2	m	3		43.641975308641975
132	2428	23	Left Leg	DistractBinary		2023_Jan_09_1611	5.003981600049883	r		493.38989909971133	1.1670306003652513	MS MH		2	m	3		1.0
133	2428	9	Left Leg	Post-Q-Jitter		2023_Jan_09_1611	8.993663300294429	r		498.3951256996952		MS MH		2	m	3		
134	2428	42	Left Leg	0-back Instruction		2023_Jan_09_1611	5.007682899944484	r		507.41317399963737		MS MH		2	m	3		
135	2428	7	Left Leg	Pre-Trial Jitter		2023_Jan_09_1611	5.002438599709421	r		512.4325087997131		MS MH		2	m	3		
136	2428	44.0	Left Leg	pretrialfixation		2023_Jan_09_1611	1.0030480003915727	r		517.6988923000172		MS MH		2	m	3		
137	2428		Left Leg	0-back	1.0	2023_Jan_09_1611	1.9879750004038215	r	0.0	518.7148080999032	0.547093799803406	MS MH	12.5	2	m	3	32.0	
138	2428		Left Leg	0-back	1.0	2023_Jan_09_1611	1.9877230003476143	r	0.0	520.7232768000104	0.41747070010751486	MS MH	25.0	2	m	3	32.0	
139	2428		Left Leg	0-back	1.0	2023_Jan_09_1611	1.9891850003041327	r	0.0	522.7225680998527	0.3968926998786628	MS MH	37.5	2	m	3	32.0	
140	2428		Left Leg	0-back	1.0	2023_Jan_09_1611	1.988816600292921	r	0.0	524.722784999758	0.446989799849689	MS MH	50.0	2	m	3	32.0	
141	2428		Left Leg	0-back	1.0	2023_Jan_09_1611	1.9887452996335924	r	0.0	526.722821299918	0.41377960005775094	MS MH	62.5	2	m	3	32.0	
142	2428		Left Leg	0-back	1.0	2023_Jan_09_1611	1.9889509002678096	r	0.0	528.7227261997759	0.44710420025512576	MS MH	75.0	2	m	3	32.0	
143	2428		Left Leg	0-back	1.0	2023_Jan_09_1611	1.989303800277412	r	0.0	530.7225396996364	0.347161500249058	MS MH	87.5	2	m	3	32.0	
144	2428		Left Leg	0-back	1.0	2023_Jan_09_1611	1.988948100246489	r	0.0	532.722773199901	0.2804018002934754	MS MH	100.0	2	m	3	32.0	
145	2428	48.0	Left Leg	ScoreReport		2023_Jan_09_1611	5.005016800481826	r		534.7314476999454		MS MH		2	m	3		
146	2428	8	Left Leg	Post-Trial Jitter		2023_Jan_09_1611	8.998426099773496	r		539.7931372998282		MS MH		2	m	3		
147	2428	42	Left Leg	0-back Instruction		2023_Jan_09_1611	5.008202099706978	r		548.8133286000229		MS MH		2	m	3		
148	2428	7	Left Leg	Pre-Trial Jitter		2023_Jan_09_1611	5.000374000053853	r		553.8339629997499		MS MH		2	m	3		
149	2428	44.0	Left Leg	pretrialfixation		2023_Jan_09_1611	1.0117008010856807	r		559.1032850998454		MS MH		2	m	3		
150	2428		Left Leg	0-back	1.0	2023_Jan_09_1611	1.9884047997184098	r	0.0	560.1149951997213	0.7797939996235073	MS MH	12.5	2	m	3	32.0	
151	2428		Left Leg	0-back	1.0	2023_Jan_09_1611	1.988334100227803	r	0.0	562.12339159986	0.41382370004430413	MS MH	25.0	2	m	3	32.0	
152	2428		Left Leg	0-back	1.0	2023_Jan_09_1611	1.989455500151962	r	0.0	564.1228497996926	0.347064099740237	MS MH	37.5	2	m	3	32.0	
153	2428		Left Leg	0-back	1.0	2023_Jan_09_1611	1.9888301002793014	r	0.0	566.1231882995926	0.38040110003203154	MS MH	50.0	2	m	3	32.0	
154	2428		Left Leg	0-back	1.0	2023_Jan_09_1611	1.98937960062176	r	0.0	568.1229135999456	0.3470676001161337	MS MH	62.5	2	m	3	32.0	
155	2428		Left Leg	0-back	1.0	2023_Jan_09_1611	1.9895290001295507	r	0.0	570.1228783000261	0.33058040030300617	MS MH	75.0	2	m	3	32.0	
156	2428		Left Leg	0-back	1.0	2023_Jan_09_1611	1.9890958000905812	r	0.0	572.1231379997917	0.28036900004372	MS MH	87.5	2	m	3	32.0	
157	2428		Left Leg	0-back	1.0	2023_Jan_09_1611	1.989226599689573	r	0.0	574.1230775997974	0.2839922998100519	MS MH	100.0	2	m	3	32.0	
158	2428	48.0	Left Leg	ScoreReport		2023_Jan_09_1611	5.005047300364822	r		576.131843699608		MS MH		2	m	3		
159	2428	8	Left Leg	Post-Trial Jitter		2023_Jan_09_1611	7.000489399768412	r		581.1925214999355		MS MH		2	m	3		
160	2428	51	Left Leg	Expectancy		2023_Jan_09_1611	5.006078701000661	r		588.5064157997258	3.0336992000229657	MS MH		2	m	3		43.888888888888886
161	2428	45	Left Leg	2-back Instruction		2023_Jan_09_1611	5.004449400585145	r		593.8989468999207		MS MH		2	m	3		
162	2428	7	Left Leg	Pre-trial Jitter		2023_Jan_09_1611	7.001223400235176	r		598.9173377999105		MS MH		2	m	3		
163	2428	44.0	Left Leg	pretrialfixation		2023_Jan_09_1611	0.9982937006279826	r		606.2438331996091		MS MH		2	m	3		
164	2428		Left Leg	2-back	1.0	2023_Jan_09_1611	1.988782700151205	r		607.2486445000395		MS MH	12.5	2	m	3	47.5	
165	2428		Left Leg	2-back	1.0	2023_Jan_09_1611	1.9870592998340726	r		609.2578435996547		MS MH	25.0	2	m	3	47.5	
166	2428		Left Leg	2-back	1.0	2023_Jan_09_1611	1.988451600074768	r	0	611.2571541997604	0.5804163999855518	MS MH	37.5	2	m	3	47.5	
167	2428		Left Leg	2-back	1.0	2023_Jan_09_1611	1.9874610998667777	r	2	613.2576787997968	0.7137210997752845	MS MH	50.0	2	m	3	47.5	
168	2428		Left Leg	2-back	1.0	2023_Jan_09_1611	1.9874835005030036	r	2	615.2577008996159	0.4467768999747932	MS MH	62.5	2	m	3	47.5	
169	2428		Left Leg	2-back	1.0	2023_Jan_09_1611	1.9872208000160754	r	2	617.2578480998054	0.6470566000789404	MS MH	75.0	2	m	3	47.5	
170	2428		Left Leg	2-back	1.0	2023_Jan_09_1611	1.9874784001149237	r	0	619.257729199715	0.5635726996697485	MS MH	87.5	2	m	3	47.5	
171	2428		Left Leg	2-back	1.0	2023_Jan_09_1611	1.9875798001885414	r	2	621.2576454998925	0.7970714997500181	MS MH	100.0	2	m	3	47.5	
172	2428	48.0	Left Leg	ScoreReport		2023_Jan_09_1611	5.001492800656706	r		623.2674777000211		MS MH		2	m	3		
173	2428	8	Left Leg	Post-trial Jitter		2023_Jan_09_1611	8.999772999901325	r		628.3267200998962		MS MH		2	m	3		
174	2428	20	Left Leg	PainBinary		2023_Jan_09_1611	5.0003673997707665	r		637.3431527996436	2.100373299792409	MS MH		2	m	3		-1.0
175	2428	21	Left Leg	IntensityRating		2023_Jan_09_1611	5.011554799973965	r		642.362656199839		MS MH		2	m	3		25.308641975308642
176	2428	9	Left Leg	Post-Q-Jitter		2023_Jan_09_1611	8.993746700230986	r		647.3799157999456		MS MH		2	m	3		
177	2428	51	Left Leg	Expectancy		2023_Jan_09_1611	5.000326200388372	r		656.651678299997	4.050123299937695	MS MH		2	m	3		32.71604938271605
178	2428	45	Left Leg	2-back Instruction		2023_Jan_09_1611	5.0012053004466	r		662.0512945000082		MS MH		2	m	3		
179	2428	7	Left Leg	Pre-trial Jitter		2023_Jan_09_1611	5.001746600493789	r		667.0677894996479		MS MH		2	m	3		
180	2428	44.0	Left Leg	pretrialfixation		2023_Jan_09_1611	1.0042440006509423	r		672.3915228997357		MS MH		2	m	3		
181	2428		Left Leg	2-back	1.0	2023_Jan_09_1611	1.9889710005372763	r		673.3992077996954		MS MH	12.5	2	m	3	47.5	
182	2428		Left Leg	2-back	1.0	2023_Jan_09_1611	1.9866620004177094	r		675.4087263997644		MS MH	25.0	2	m	3	47.5	
183	2428		Left Leg	2-back	1.0	2023_Jan_09_1611	1.9880113005638123	r	2	677.4080571997911	0.5635898998007178	MS MH	37.5	2	m	3	47.5	
184	2428		Left Leg	2-back	1.0	2023_Jan_09_1611	1.9875599998049438	r	2	679.4082973999903	0.6803152002394199	MS MH	50.0	2	m	3	47.5	
185	2428		Left Leg	2-back	1.0	2023_Jan_09_1611	1.9874028000049293	r	0	681.4083987995982	0.7138469000346959	MS MH	62.5	2	m	3	47.5	
186	2428		Left Leg	2-back	1.0	2023_Jan_09_1611	1.9871729002334177	r	2	683.4085295996629	0.5971462000161409	MS MH	75.0	2	m	3	47.5	
187	2428		Left Leg	2-back	1.0	2023_Jan_09_1611	1.9877368998713791	r	0	685.4083177000284	0.6137463999912143	MS MH	87.5	2	m	3	47.5	
188	2428		Left Leg	2-back	1.0	2023_Jan_09_1611	1.986752700060606	r	2	687.4087961995974	0.8973487000912428	MS MH	100.0	2	m	3	47.5	
189	2428	48.0	Left Leg	ScoreReport		2023_Jan_09_1611	5.001008099876344	r		689.4183651995845		MS MH		2	m	3		
190	2428	8	Left Leg	Post-trial Jitter		2023_Jan_09_1611	9.000349000096321	r		694.477085699793		MS MH		2	m	3		
191	2428	20	Left Leg	PainBinary		2023_Jan_09_1611	5.001857399474829	r		703.4930716999806	1.8837195001542568	MS MH		2	m	3		1.0
192	2428	21	Left Leg	IntensityRating		2023_Jan_09_1611	5.011864700354636	r		708.5131234996952	4.1668636999093	MS MH		2	m	3		33.02469135802469
193	2428	23	Left Leg	DistractBinary		2023_Jan_09_1611	5.004429100081325	r		713.541903599631	1.6670689000748098	MS MH		2	m	3		1.0
194	2428	9	Left Leg	Post-Q-Jitter		2023_Jan_09_1611	9.0106914001517	r		718.5471814996563		MS MH		2	m	3		
195	2428	26	Left Leg	ComfortRating		2023_Jan_09_1611	5.559331899508834	r		727.5813336996362	5.533680200111121	MS MH		2	m	3		16.049382716049394
196	2428	24	Left Leg	ValenceRating		2023_Jan_09_1611	2.801984400022775	r		733.1683848998509	2.7834895998239517	MS MH		2	m	3		41.97530864197531
197	2428	26	Left Leg	IntensityRating		2023_Jan_09_1611	4.56001459993422	r		735.9977298998274	4.533530000131577	MS MH		2	m	3		48.45679012345679
198	2428	27	Left Leg	AvoidanceRating		2023_Jan_09_1611	3.4921997995115817	r		740.5816748999059	3.4669566000811756	MS MH		2	m	3		58.765432098765416
199	2428	28	Left Leg	RelaxationRating		2023_Jan_09_1611	3.5489475997164845	r		744.0950054996647	3.5337882000021636	MS MH		2	m	3		41.419753086419746
200	2428	29	Left Leg	AttentionRating		2023_Jan_09_1611	3.455068300012499	r		747.6669727996923	3.433528400026262	MS MH		2	m	3		63.08641975308642
201	2428	30	Left Leg	BoredomRating		2023_Jan_09_1611	2.3979556001722813	r		751.1455633998848	2.3841789001598954	MS MH		2	m	3		31.666666666666664
202	2428	31	Left Leg	AlertnessRating		2023_Jan_09_1611	2.8617779999040067	r		753.5636738999747	2.8335565999150276	MS MH		2	m	3		39.87654320987656
203	2428	32	Left Leg	PosThxRating		2023_Jan_09_1611	4.0462172999978065	r		756.4464920996688	4.016891799867153	MS MH		2	m	3		-28.765432098765444
204	2428	33	Left Leg	NegThxRating		2023_Jan_09_1611	2.7757540000602603	r		760.5151050998829	2.750196900218725	MS MH		2	m	3		24.320987654320987
205	2428	34	Left Leg	SelfRating		2023_Jan_09_1611	4.143464400433004	r		763.3146057999693	4.116833799984306	MS MH		2	m	3		-3.827160493827151
206	2428	35	Left Leg	OtherRating		2023_Jan_09_1611	1.3267958997748792	r		767.4813091997057	1.3001606999896467	MS MH		2	m	3		-1.1111111111111143
207	2428	32	Left Leg	ImageryRating		2023_Jan_09_1611	2.4899021997116506	r		768.8331221998669	2.466872099786997	MS MH		2	m	3		39.25925925925927
208	2428	37	Left Leg	PresentRating		2023_Jan_09_1611	3.954703100491315	r		771.3507564999163	3.933596800081432	MS MH		2	m	3		25.432098765432116
