square,location,corrAns,trials_2.thisRepN,trials_2.thisTrialN,trials_2.thisN,trials_2.thisIndex,fixation_1.started,fixation_1.stopped,response_2.x,response_2.y,response_2.leftButton,grid_lines_2.started,grid_lines_2.stopped,target_square_2.started,target_square_2.stopped,fixation_3.started,fixation_3.stopped,response_2.click,response_2.corr,response_2.started,response_2.stopped,ScoreReportText.started,ScoreReportText.stopped,ScoreReportResponse.keys,ScoreReportResponse.started,ScoreReportResponse.stopped,BodySiteInstructionText.started,BodySiteImg.started,BodySiteImg.stopped,BodySiteInstructionRead.keys,BodySiteInstructionRead.rt,BodySiteInstructionRead.started,BodySiteInstructionRead.stopped,IntensityRating.response,IntensityRating.rt,IntensityRating.started,IntensityRating.stopped,fixation_rest.started,fixation_rest.stopped,subject number,gender,distractMap first- or second-half (1 or 2),session,handedness,scanner,bodysite1 temp,bodysite2 temp,date,psychopyVersion,expName,frameRate,body_site_order,
6,"[0.2, 0]",None,0,0,0,0,94.27237749999767,None,None,None,"[0, 0, 0]",95.28906289999577,None,95.28906289999577,96.28906270000152,96.27239939999708,97.27240670000174,"[0, 0, 0]",1,95.28906289999577,None,,,,,,,,,,,,,,,,,,,8,f,1,17,r,MS,49,49,2022_Jul_14_1330,2020.2.10,distractmap1,60.009601537749994,"['Left Face', 'Chest', 'Left Face', 'Chest']",
7,"[-0.2, -0.2]",None,0,1,1,1,,,None,None,"[0, 0, 0]",97.28907420000178,99.2890933000017,97.28907420000178,98.28896420000092,98.27240209999582,99.27240639999945,"[0, 0, 0]",1,97.28907420000178,99.2890933000017,,,,,,,,,,,,,,,,,,,8,f,1,17,r,MS,49,49,2022_Jul_14_1330,2020.2.10,distractmap1,60.009601537749994,"['Left Face', 'Chest', 'Left Face', 'Chest']",
6,"[0.2, 0]",1,0,2,2,2,,,None,None,"[0, 0, 0]",99.30575999999564,101.3057719999997,99.30575999999564,100.305772599997,100.28909089999797,101.28910139999789,"[0, 0, 0]",1,99.30575999999564,101.3057719999997,,,,,,,,,,,,,,,,,,,8,f,1,17,r,MS,49,49,2022_Jul_14_1330,2020.2.10,distractmap1,60.009601537749994,"['Left Face', 'Chest', 'Left Face', 'Chest']",
2,"[0, 0.2]",0,0,3,3,3,,,None,None,"[0, 0, 0]",101.32244039999932,103.32244730000093,101.32244039999932,102.32243880000169,102.3057719999997,103.30582879999565,"[0, 0, 0]",1,101.32244039999932,103.32244730000093,,,,,,,,,,,,,,,,,,,8,f,1,17,r,MS,49,49,2022_Jul_14_1330,2020.2.10,distractmap1,60.009601537749994,"['Left Face', 'Chest', 'Left Face', 'Chest']",
5,"[0, 0]",0,0,4,4,4,,,None,None,"[0, 0, 0]",103.33911509999598,105.33913010000106,103.33911509999598,104.33913400000165,104.32245929999772,105.32247300000017,"[0, 0, 0]",1,103.33911509999598,105.33913010000106,,,,,,,,,,,,,,,,,,,8,f,1,17,r,MS,49,49,2022_Jul_14_1330,2020.2.10,distractmap1,60.009601537749994,"['Left Face', 'Chest', 'Left Face', 'Chest']",
4,"[-0.2, 0]",0,0,5,5,5,,,None,None,"[0, 0, 0]",105.35579770000186,107.35582070000237,105.35579770000186,106.35580920000211,106.33914409999852,107.33913509999547,"[0, 0, 0]",1,105.35579770000186,107.35582070000237,,,,,,,,,,,,,,,,,,,8,f,1,17,r,MS,49,49,2022_Jul_14_1330,2020.2.10,distractmap1,60.009601537749994,"['Left Face', 'Chest', 'Left Face', 'Chest']",
4,"[-0.2, 0]",0,0,6,6,6,,,None,None,"[0, 0, 0]",107.37250189999759,109.37250849999691,107.37250189999759,108.372497999997,108.35582240000076,109.35579839999991,"[0, 0, 0]",1,107.37250189999759,109.37250849999691,,,,,,,,,,,,,,,,,,,8,f,1,17,r,MS,49,49,2022_Jul_14_1330,2020.2.10,distractmap1,60.009601537749994,"['Left Face', 'Chest', 'Left Face', 'Chest']",
7,"[-0.2, -0.2]",0,0,7,7,7,,,None,None,"[0, 0, 0]",109.38919059999898,111.38918479999847,109.38919059999898,110.3891702999972,110.37251829999877,111.37251069999911,"[0, 0, 0]",1,109.38919059999898,111.38918479999847,,,,,,,,,,,,,,,,,,,8,f,1,17,r,MS,49,49,2022_Jul_14_1330,2020.2.10,distractmap1,60.009601537749994,"['Left Face', 'Chest', 'Left Face', 'Chest']",
4,"[-0.2, 0]",1,0,8,8,8,,,None,None,"[0, 0, 0]",111.40587070000038,113.40587419999792,111.40587070000038,112.40585879999708,112.38919429999805,113.38920890000009,"[0, 0, 0]",1,111.40587070000038,113.40587419999792,,,,,,,,,,,,,,,,,,,8,f,1,17,r,MS,49,49,2022_Jul_14_1330,2020.2.10,distractmap1,60.009601537749994,"['Left Face', 'Chest', 'Left Face', 'Chest']",
3,"[0.2, 0.2]",0,0,9,9,9,,,None,None,"[0, 0, 0]",113.42252709999593,115.42254639999737,113.42252709999593,114.42253450000135,114.40588959999877,115.40587740000046,"[0, 0, 0]",1,113.42252709999593,115.42254639999737,,,,,,,,,,,,,,,,,,,8,f,1,17,r,MS,49,49,2022_Jul_14_1330,2020.2.10,distractmap1,60.009601537749994,"['Left Face', 'Chest', 'Left Face', 'Chest']",
5,"[0, 0]",0,0,10,10,10,,,None,None,"[0, 0, 0]",115.43921959999716,117.4392252999969,115.43921959999716,116.4392286000002,116.42252670000016,117.4225757000022,"[0, 0, 0]",1,115.43921959999716,117.4392252999969,,,,,,,,,,,,,,,,,,,8,f,1,17,r,MS,49,49,2022_Jul_14_1330,2020.2.10,distractmap1,60.009601537749994,"['Left Face', 'Chest', 'Left Face', 'Chest']",
3,"[0.2, 0.2]",1,0,11,11,11,,,None,None,"[0, 0, 0]",117.45590229999652,119.45590970000194,117.45590229999652,118.45593039999949,118.43924739999784,119.43924339999649,"[0, 0, 0]",1,117.45590229999652,119.45590970000194,,,,,,,,,,,,,,,,,,,8,f,1,17,r,MS,49,49,2022_Jul_14_1330,2020.2.10,distractmap1,60.009601537749994,"['Left Face', 'Chest', 'Left Face', 'Chest']",
1,"[-0.2, 0.2]",0,0,12,12,12,,,None,None,"[0, 0, 0]",119.47259340000164,121.4725782999958,119.47259340000164,120.47258850000071,120.4559298000022,121.45594169999822,"[0, 0, 0]",1,119.47259340000164,121.4725782999958,,,,,,,,,,,,,,,,,,,8,f,1,17,r,MS,49,49,2022_Jul_14_1330,2020.2.10,distractmap1,60.009601537749994,"['Left Face', 'Chest', 'Left Face', 'Chest']",
9,"[0.2, -0.2]",0,0,13,13,13,,,None,None,"[0, 0, 0]",121.48925910000253,123.48928819999855,121.48925910000253,122.48927710000135,122.47263519999979,123.47261550000258,"[0, 0, 0]",1,121.48925910000253,123.48928819999855,,,,,,,,,,,,,,,,,,,8,f,1,17,r,MS,49,49,2022_Jul_14_1330,2020.2.10,distractmap1,60.009601537749994,"['Left Face', 'Chest', 'Left Face', 'Chest']",
9,"[0.2, -0.2]",0,0,14,14,14,,,None,None,"[0, 0, 0]",123.50595719999546,125.50595909999538,123.50595719999546,124.50596019999648,124.48928629999864,125.48928850000084,"[0, 0, 0]",0,123.50595719999546,125.50595909999538,,,,,,,,,,,,,,,,,,,8,f,1,17,r,MS,49,49,2022_Jul_14_1330,2020.2.10,distractmap1,60.009601537749994,"['Left Face', 'Chest', 'Left Face', 'Chest']",
8,"[0, -0.2]",0,0,15,15,15,,,None,None,"[0, 0, 0]",125.52262920000067,127.52265729999635,125.52262920000067,126.52263729999686,126.50598660000105,127.50598439999885,"[0, 0, 0]",1,125.52262920000067,127.52265729999635,,,,,,,,,,,,,,,,,,,8,f,1,17,r,MS,49,49,2022_Jul_14_1330,2020.2.10,distractmap1,60.009601537749994,"['Left Face', 'Chest', 'Left Face', 'Chest']",
6,"[0.2, 0]",0,0,16,16,16,,,None,None,"[0, 0, 0]",127.53931999999622,129.53933479999978,127.53931999999622,128.53937259999657,128.52266419999796,129.52266539999982,"[0, 0, 0]",1,127.53931999999622,129.53933479999978,,,,,,,,,,,,,,,,,,,8,f,1,17,r,MS,49,49,2022_Jul_14_1330,2020.2.10,distractmap1,60.009601537749994,"['Left Face', 'Chest', 'Left Face', 'Chest']",
3,"[0.2, 0.2]",0,0,17,17,17,,,None,None,"[0, 0, 0]",129.5559973999989,131.5560125999982,129.5559973999989,130.55601279999973,130.53934289999597,131.53935939999792,"[0, 0, 0]",1,129.5559973999989,131.5560125999982,,,,,,,,,,,,,,,,,,,8,f,1,17,r,MS,49,49,2022_Jul_14_1330,2020.2.10,distractmap1,60.009601537749994,"['Left Face', 'Chest', 'Left Face', 'Chest']",
6,"[0.2, 0]",1,0,18,18,18,,,None,None,"[0, 0, 0]",131.57268730000214,133.57268610000028,131.57268730000214,132.57268610000028,132.55602519999957,133.55604250000033,"[0, 0, 0]",1,131.57268730000214,133.57268610000028,,,,,,,,,,,,,,,,,,,8,f,1,17,r,MS,49,49,2022_Jul_14_1330,2020.2.10,distractmap1,60.009601537749994,"['Left Face', 'Chest', 'Left Face', 'Chest']",
5,"[0, 0]",0,0,19,19,19,,,None,None,"[0, 0, 0]",133.58937270000024,135.58938869999838,133.58937270000024,134.58938160000253,134.57270379999682,135.5727259999985,"[0, 0, 0]",1,133.58937270000024,135.58938869999838,,,,,,,,,,,,,,,,,,,8,f,1,17,r,MS,49,49,2022_Jul_14_1330,2020.2.10,distractmap1,60.009601537749994,"['Left Face', 'Chest', 'Left Face', 'Chest']",
7,"[-0.2, -0.2]",0,0,20,20,20,,,None,None,"[0, 0, 0]",135.60605409999698,137.6060765000002,135.60605409999698,136.60607419999724,136.5893941999966,137.58939829999872,"[0, 0, 0]",1,135.60605409999698,137.6060765000002,,,,,,,,,,,,,,,,,,,8,f,1,17,r,MS,49,49,2022_Jul_14_1330,2020.2.10,distractmap1,60.009601537749994,"['Left Face', 'Chest', 'Left Face', 'Chest']",
5,"[0, 0]",1,0,21,21,21,,,None,None,"[0, 0, 0]",137.62273129999812,139.622752999996,137.62273129999812,138.62274510000134,138.6060778999963,139.60609999999724,"[0, 0, 0]",1,137.62273129999812,139.622752999996,,,,,,,,,,,,,,,,,,,8,f,1,17,r,MS,49,49,2022_Jul_14_1330,2020.2.10,distractmap1,60.009601537749994,"['Left Face', 'Chest', 'Left Face', 'Chest']",
1,"[-0.2, 0.2]",0,0,22,22,22,,,None,None,"[0, 0, 0]",139.63941209999757,141.63943840000138,139.63941209999757,140.63942549999774,140.62275699999736,141.6227665999977,"[0, 0, 0]",1,139.63941209999757,141.63943840000138,,,,,,,,,,,,,,,,,,,8,f,1,17,r,MS,49,49,2022_Jul_14_1330,2020.2.10,distractmap1,60.009601537749994,"['Left Face', 'Chest', 'Left Face', 'Chest']",
7,"[-0.2, -0.2]",0,0,23,23,23,,,None,None,"[0, 0, 0]",141.6561075999998,143.65612300000066,141.6561075999998,142.65611250000075,142.63943940000172,143.63945830000011,"[0, 0, 0]",1,141.6561075999998,143.65612300000066,,,,,,,,,,,,,,,,,,,8,f,1,17,r,MS,49,49,2022_Jul_14_1330,2020.2.10,distractmap1,60.009601537749994,"['Left Face', 'Chest', 'Left Face', 'Chest']",
9,"[0.2, -0.2]",0,0,24,24,24,,,None,None,"[0, 0, 0]",143.67278919999808,145.67281009999715,143.67278919999808,144.67279089999647,144.65613740000117,145.6561314999999,"[0, 0, 0]",1,143.67278919999808,145.67281009999715,,,,,,,,,,,,,,,,,,,8,f,1,17,r,MS,49,49,2022_Jul_14_1330,2020.2.10,distractmap1,60.009601537749994,"['Left Face', 'Chest', 'Left Face', 'Chest']",
3,"[0.2, 0.2]",0,0,25,25,25,,,None,None,"[0, 0, 0]",145.68946940000023,147.68947130000015,145.68946940000023,146.68947409999964,146.67279559999588,147.67281479999656,"[0, 0, 0]",1,145.68946940000023,147.68947130000015,,,,,,,,,,,,,,,,,,,8,f,1,17,r,MS,49,49,2022_Jul_14_1330,2020.2.10,distractmap1,60.009601537749994,"['Left Face', 'Chest', 'Left Face', 'Chest']",
9,"[0.2, -0.2]",1,0,26,26,26,,,None,None,"[0, 0, 0]",147.70615669999825,149.70616840000002,147.70615669999825,148.70615669999825,148.68949550000252,149.68950349999795,"[0, 0, 0]",1,147.70615669999825,149.70616840000002,,,,,,,,,,,,,,,,,,,8,f,1,17,r,MS,49,49,2022_Jul_14_1330,2020.2.10,distractmap1,60.009601537749994,"['Left Face', 'Chest', 'Left Face', 'Chest']",
6,"[0.2, 0]",0,0,27,27,27,,,None,None,"[0, 0, 0]",149.72283269999753,151.72284519999812,149.72283269999753,150.72283759999846,150.70625499999733,151.70617299999867,"[0, 0, 0]",1,149.72283269999753,151.72284519999812,,,,,,,,,,,,,,,,,,,8,f,1,17,r,MS,49,49,2022_Jul_14_1330,2020.2.10,distractmap1,60.009601537749994,"['Left Face', 'Chest', 'Left Face', 'Chest']",
2,"[0, 0.2]",0,0,28,28,28,,,None,None,"[0, 0, 0]",151.7395080999995,153.73954090000188,151.7395080999995,152.73952360000112,152.72285869999905,153.7228608000005,"[0, 0, 0]",0,151.7395080999995,153.73954090000188,,,,,,,,,,,,,,,,,,,8,f,1,17,r,MS,49,49,2022_Jul_14_1330,2020.2.10,distractmap1,60.009601537749994,"['Left Face', 'Chest', 'Left Face', 'Chest']",
5,"[0, 0]",0,0,29,29,29,,,None,None,"[0, 0, 0]",153.75620199999685,155.75621249999676,153.75620199999685,154.75620139999955,154.73953510000138,155.73954029999732,"[0, 0, 0]",1,153.75620199999685,155.75621249999676,,,,,,,,,,,,,,,,,,,8,f,1,17,r,MS,49,49,2022_Jul_14_1330,2020.2.10,distractmap1,60.009601537749994,"['Left Face', 'Chest', 'Left Face', 'Chest']",
,,,,,,,,,,,,,,,,,,,,,,155.77288070000213,None,space,155.77288070000213,None,,,,,,,,,,,,,,8,f,1,17,r,MS,49,49,2022_Jul_14_1330,2020.2.10,distractmap1,60.009601537749994,"['Left Face', 'Chest', 'Left Face', 'Chest']",
3,"[0.2, 0.2]",None,0,0,0,0,292.32401939999545,None,None,None,"[0, 0, 0]",295.3240670000014,297.32406400000036,295.3240670000014,296.32404300000053,296.32404300000053,297.32406400000036,"[0, 0, 0]",1,295.3240670000014,297.32406400000036,,,,,,185.0400709999958,185.0400709999958,None,space,83.41234160000022,185.0400709999958,None,,,,,,,8,f,1,17,r,MS,49,49,2022_Jul_14_1330,2020.2.10,distractmap1,60.009601537749994,"['Left Face', 'Chest', 'Left Face', 'Chest']",
3,"[0.2, 0.2]",None,0,1,1,1,,,None,None,"[0, 0, 0]",297.3407348999972,299.34074249999685,297.3407348999972,298.3407395999966,298.32406869999977,299.32407959999546,"[0, 0, 0]",1,297.3407348999972,299.34074249999685,,,,,,,,,,,,,,,,,,,8,f,1,17,r,MS,49,49,2022_Jul_14_1330,2020.2.10,distractmap1,60.009601537749994,"['Left Face', 'Chest', 'Left Face', 'Chest']",
5,"[0, 0]",0,0,2,2,2,,,None,None,"[0, 0, 0]",299.35740229999647,301.35733909999544,299.35740229999647,300.357411099998,300.3407514999999,301.34074610000243,"[0, 0, 0]",1,299.35740229999647,301.35733909999544,,,,,,,,,,,,,,,,,,,8,f,1,17,r,MS,49,49,2022_Jul_14_1330,2020.2.10,distractmap1,60.009601537749994,"['Left Face', 'Chest', 'Left Face', 'Chest']",
1,"[-0.2, 0.2]",0,0,3,3,3,,,None,None,"[0, 0, 0]",301.3740969999999,303.37411189999693,301.3740969999999,302.3741003999967,302.3574297000014,303.35742649999884,"[0, 0, 0]",1,301.3740969999999,303.37411189999693,,,,,,,,,,,,,,,,,,,8,f,1,17,r,MS,49,49,2022_Jul_14_1330,2020.2.10,distractmap1,60.009601537749994,"['Left Face', 'Chest', 'Left Face', 'Chest']",
5,"[0, 0]",1,0,4,4,4,,,None,None,"[0, 0, 0]",303.3907670999979,305.39069120000204,303.3907670999979,304.39076770000247,304.37412210000184,305.3741203999962,"[0, 0, 0]",1,303.3907670999979,305.39069120000204,,,,,,,,,,,,,,,,,,,8,f,1,17,r,MS,49,49,2022_Jul_14_1330,2020.2.10,distractmap1,60.009601537749994,"['Left Face', 'Chest', 'Left Face', 'Chest']",
8,"[0, -0.2]",0,0,5,5,5,,,None,None,"[0, 0, 0]",305.40742930000124,307.40747589999955,305.40742930000124,306.4074565999981,306.39080380000087,307.39079079999647,"[0, 0, 0]",1,305.40742930000124,307.40747589999955,,,,,,,,,,,,,,,,,,,8,f,1,17,r,MS,49,49,2022_Jul_14_1330,2020.2.10,distractmap1,60.009601537749994,"['Left Face', 'Chest', 'Left Face', 'Chest']",
5,"[0, 0]",1,0,6,6,6,,,None,None,"[0, 0, 0]",307.4241483000005,309.42416489999596,307.4241483000005,308.42414189999545,308.40747700000065,309.40747929999634,"[0, 0, 0]",1,307.4241483000005,309.42416489999596,,,,,,,,,,,,,,,,,,,8,f,1,17,r,MS,49,49,2022_Jul_14_1330,2020.2.10,distractmap1,60.009601537749994,"['Left Face', 'Chest', 'Left Face', 'Chest']",
7,"[-0.2, -0.2]",0,0,7,7,7,,,None,None,"[0, 0, 0]",309.440814900001,311.4408409000025,309.440814900001,310.44082440000057,310.42415900000196,311.42415900000196,"[0, 0, 0]",1,309.440814900001,311.4408409000025,,,,,,,,,,,,,,,,,,,8,f,1,17,r,MS,49,49,2022_Jul_14_1330,2020.2.10,distractmap1,60.009601537749994,"['Left Face', 'Chest', 'Left Face', 'Chest']",
5,"[0, 0]",1,0,8,8,8,,,None,None,"[0, 0, 0]",311.4575027999963,313.4575141999958,311.4575027999963,312.45749429999705,312.4408423999994,313.44085439999617,"[0, 0, 0]",1,311.4575027999963,313.4575141999958,,,,,,,,,,,,,,,,,,,8,f,1,17,r,MS,49,49,2022_Jul_14_1330,2020.2.10,distractmap1,60.009601537749994,"['Left Face', 'Chest', 'Left Face', 'Chest']",
7,"[-0.2, -0.2]",1,0,9,9,9,,,None,None,"[0, 0, 0]",313.47419989999617,315.4742015000011,313.47419989999617,314.47419190000073,314.45752479999646,315.45750679999765,"[0, 0, 0]",1,313.47419989999617,315.4742015000011,,,,,,,,,,,,,,,,,,,8,f,1,17,r,MS,49,49,2022_Jul_14_1330,2020.2.10,distractmap1,60.009601537749994,"['Left Face', 'Chest', 'Left Face', 'Chest']",
,,,,,,,,,,,,,,,,,,,,,,315.5075305999999,None,,,,,,,,,,,,,,,,,8,f,1,17,r,MS,49,49,2022_Jul_14_1330,2020.2.10,distractmap1,60.009601537749994,"['Left Face', 'Chest', 'Left Face', 'Chest']",
6,"[0.2, 0]",None,0,0,0,0,325.5242922999969,None,None,None,"[0, 0, 0]",330.5243367000003,332.5243257999973,330.5243367000003,331.5243405000001,331.5243405000001,332.5243257999973,"[0, 0, 0]",1,330.5243367000003,332.5243257999973,,,,,,,,,,,,,,,,,,,8,f,1,17,r,MS,49,49,2022_Jul_14_1330,2020.2.10,distractmap1,60.009601537749994,"['Left Face', 'Chest', 'Left Face', 'Chest']",
1,"[-0.2, 0.2]",None,0,1,1,1,,,None,None,"[0, 0, 0]",332.5410322000025,334.5410174999997,332.5410322000025,333.54103100000066,333.5243546999991,334.52436759999546,"[0, 0, 0]",1,332.5410322000025,334.5410174999997,,,,,,,,,,,,,,,,,,,8,f,1,17,r,MS,49,49,2022_Jul_14_1330,2020.2.10,distractmap1,60.009601537749994,"['Left Face', 'Chest', 'Left Face', 'Chest']",
6,"[0.2, 0]",1,0,2,2,2,,,None,None,"[0, 0, 0]",334.5576976000011,336.55771119999554,334.5576976000011,335.55769139999757,335.5410428999967,336.5410602999982,"[0, 0, 0]",1,334.5576976000011,336.55771119999554,,,,,,,,,,,,,,,,,,,8,f,1,17,r,MS,49,49,2022_Jul_14_1330,2020.2.10,distractmap1,60.009601537749994,"['Left Face', 'Chest', 'Left Face', 'Chest']",
4,"[-0.2, 0]",0,0,3,3,3,,,None,None,"[0, 0, 0]",336.5743700000021,338.57440209999913,336.5743700000021,337.5744132999971,337.55773329999647,338.55773190000036,"[0, 0, 0]",1,336.5743700000021,338.57440209999913,,,,,,,,,,,,,,,,,,,8,f,1,17,r,MS,49,49,2022_Jul_14_1330,2020.2.10,distractmap1,60.009601537749994,"['Left Face', 'Chest', 'Left Face', 'Chest']",
1,"[-0.2, 0.2]",0,0,4,4,4,,,None,None,"[0, 0, 0]",338.59109109999554,340.59111909999774,338.59109109999554,339.59108299999934,339.5744066999978,340.57442900000024,"[0, 0, 0]",0,338.59109109999554,340.59111909999774,,,,,,,,,,,,,,,,,,,8,f,1,17,r,MS,49,49,2022_Jul_14_1330,2020.2.10,distractmap1,60.009601537749994,"['Left Face', 'Chest', 'Left Face', 'Chest']",
8,"[0, -0.2]",0,0,5,5,5,,,None,None,"[0, 0, 0]",340.6077451999954,342.60776669999905,340.6077451999954,341.60765539999556,341.5910924999989,342.5910989999975,"[0, 0, 0]",1,340.6077451999954,342.60776669999905,,,,,,,,,,,,,,,,,,,8,f,1,17,r,MS,49,49,2022_Jul_14_1330,2020.2.10,distractmap1,60.009601537749994,"['Left Face', 'Chest', 'Left Face', 'Chest']",
1,"[-0.2, 0.2]",1,0,6,6,6,,,None,None,"[0, 0, 0]",342.6243287999969,344.62442790000205,342.6243287999969,343.62443509999866,343.607769299997,344.6077843999956,"[0, 0, 0]",1,342.6243287999969,344.62442790000205,,,,,,,,,,,,,,,,,,,8,f,1,17,r,MS,49,49,2022_Jul_14_1330,2020.2.10,distractmap1,60.009601537749994,"['Left Face', 'Chest', 'Left Face', 'Chest']",
8,"[0, -0.2]",1,0,7,7,7,,,None,None,"[0, 0, 0]",344.6411279000022,346.6411353000003,344.6411279000022,345.6411617999984,345.6244685999991,346.62445950000256,"[0, 0, 0]",1,344.6411279000022,346.6411353000003,,,,,,,,,,,,,,,,,,,8,f,1,17,r,MS,49,49,2022_Jul_14_1330,2020.2.10,distractmap1,60.009601537749994,"['Left Face', 'Chest', 'Left Face', 'Chest']",
1,"[-0.2, 0.2]",1,0,8,8,8,,,None,None,"[0, 0, 0]",346.6577985999975,348.6578115000011,346.6577985999975,347.65809839999565,347.6411364000014,348.6411515,"[0, 0, 0]",1,346.6577985999975,348.6578115000011,,,,,,,,,,,,,,,,,,,8,f,1,17,r,MS,49,49,2022_Jul_14_1330,2020.2.10,distractmap1,60.009601537749994,"['Left Face', 'Chest', 'Left Face', 'Chest']",
6,"[0.2, 0]",0,0,9,9,9,,,None,None,"[0, 0, 0]",348.6744824999987,350.6744996999987,348.6744824999987,349.6744974999965,349.6578241000025,350.6578251999963,"[0, 0, 0]",1,348.6744824999987,350.6744996999987,,,,,,,,,,,,,,,,,,,8,f,1,17,r,MS,49,49,2022_Jul_14_1330,2020.2.10,distractmap1,60.009601537749994,"['Left Face', 'Chest', 'Left Face', 'Chest']",
,,,,,,,,,,,,,,,,,,,,,,350.6911783999967,None,,,,,,,,,,,,,,,,,8,f,1,17,r,MS,49,49,2022_Jul_14_1330,2020.2.10,distractmap1,60.009601537749994,"['Left Face', 'Chest', 'Left Face', 'Chest']",
7,"[-0.2, -0.2]",None,0,0,0,0,358.7079076000009,None,None,None,"[0, 0, 0]",365.70796189999965,367.7079711999977,365.70796189999965,366.7079536999954,366.6913010999997,367.69131090000155,"[0, 0, 0]",1,365.70796189999965,367.7079711999977,,,,,,,,,,,,,,,,,,,8,f,1,17,r,MS,49,49,2022_Jul_14_1330,2020.2.10,distractmap1,60.009601537749994,"['Left Face', 'Chest', 'Left Face', 'Chest']",
7,"[-0.2, -0.2]",None,0,1,1,1,,,None,None,"[0, 0, 0]",367.72464110000146,369.7246615999975,367.72464110000146,368.7246443999975,368.7079909999957,369.7080360999971,"[0, 0, 0]",1,367.72464110000146,369.7246615999975,,,,,,,,,,,,,,,,,,,8,f,1,17,r,MS,49,49,2022_Jul_14_1330,2020.2.10,distractmap1,60.009601537749994,"['Left Face', 'Chest', 'Left Face', 'Chest']",
7,"[-0.2, -0.2]",1,0,2,2,2,,,None,None,"[0, 0, 0]",369.7413161000004,371.7412417000014,369.7413161000004,370.74131769999804,370.72466419999546,371.72467660000257,"[0, 0, 0]",1,369.7413161000004,371.7412417000014,,,,,,,,,,,,,,,,,,,8,f,1,17,r,MS,49,49,2022_Jul_14_1330,2020.2.10,distractmap1,60.009601537749994,"['Left Face', 'Chest', 'Left Face', 'Chest']",
5,"[0, 0]",0,0,3,3,3,,,None,None,"[0, 0, 0]",371.7580067000017,373.7580383999957,371.7580067000017,372.75802439999825,372.74142330000177,373.7413469000021,"[0, 0, 0]",1,371.7580067000017,373.7580383999957,,,,,,,,,,,,,,,,,,,8,f,1,17,r,MS,49,49,2022_Jul_14_1330,2020.2.10,distractmap1,60.009601537749994,"['Left Face', 'Chest', 'Left Face', 'Chest']",
1,"[-0.2, 0.2]",0,0,4,4,4,,,None,None,"[0, 0, 0]",373.77469479999854,375.77471869999863,373.77469479999854,374.7746038999976,374.758027099997,375.7580424999978,"[0, 0, 0]",1,373.77469479999854,375.77471869999863,,,,,,,,,,,,,,,,,,,8,f,1,17,r,MS,49,49,2022_Jul_14_1330,2020.2.10,distractmap1,60.009601537749994,"['Left Face', 'Chest', 'Left Face', 'Chest']",
6,"[0.2, 0]",0,0,5,5,5,,,None,None,"[0, 0, 0]",375.7913456999959,377.7913830999969,375.7913456999959,376.79137510000146,376.7747109999982,377.77471839999635,"[0, 0, 0]",1,375.7913456999959,377.7913830999969,,,,,,,,,,,,,,,,,,,8,f,1,17,r,MS,49,49,2022_Jul_14_1330,2020.2.10,distractmap1,60.009601537749994,"['Left Face', 'Chest', 'Left Face', 'Chest']",
1,"[-0.2, 0.2]",1,0,6,6,6,,,None,None,"[0, 0, 0]",377.8080700999999,379.80807110000023,377.8080700999999,378.80808049999905,378.791404399999,379.7913908999981,"[0, 0, 0]",1,377.8080700999999,379.80807110000023,,,,,,,,,,,,,,,,,,,8,f,1,17,r,MS,49,49,2022_Jul_14_1330,2020.2.10,distractmap1,60.009601537749994,"['Left Face', 'Chest', 'Left Face', 'Chest']",
7,"[-0.2, -0.2]",0,0,7,7,7,,,None,None,"[0, 0, 0]",379.8247379000022,381.82475500000146,379.8247379000022,380.82474750000256,380.80807359999744,381.80809939999745,"[0, 0, 0]",1,379.8247379000022,381.82475500000146,,,,,,,,,,,,,,,,,,,8,f,1,17,r,MS,49,49,2022_Jul_14_1330,2020.2.10,distractmap1,60.009601537749994,"['Left Face', 'Chest', 'Left Face', 'Chest']",
6,"[0.2, 0]",0,0,8,8,8,,,None,None,"[0, 0, 0]",381.8414313999965,383.8414352999971,381.8414313999965,382.841445500002,382.8247687999974,383.8247850999978,"[0, 0, 0]",1,381.8414313999965,383.8414352999971,,,,,,,,,,,,,,,,,,,8,f,1,17,r,MS,49,49,2022_Jul_14_1330,2020.2.10,distractmap1,60.009601537749994,"['Left Face', 'Chest', 'Left Face', 'Chest']",
7,"[-0.2, -0.2]",1,0,9,9,9,,,None,None,"[0, 0, 0]",383.85810130000027,385.85813600000256,383.85810130000027,384.8581170999969,384.8414578000011,385.8414552999966,"[0, 0, 0]",1,383.85810130000027,385.85813600000256,,,,,,,,,,,,,,,,,,,8,f,1,17,r,MS,49,49,2022_Jul_14_1330,2020.2.10,distractmap1,60.009601537749994,"['Left Face', 'Chest', 'Left Face', 'Chest']",
,,,,,,,,,,,,,,,,,,,,,,385.8747815999959,None,,,,,,,,,,,,,,,,,8,f,1,17,r,MS,49,49,2022_Jul_14_1330,2020.2.10,distractmap1,60.009601537749994,"['Left Face', 'Chest', 'Left Face', 'Chest']",
4,"[-0.2, 0]",None,0,0,0,0,398.2415936999969,None,None,None,"[0, 0, 0]",400.891578499999,402.8916143000024,400.891578499999,401.89161449999665,401.8749177999998,402.8749433999983,"[0, 0, 0]",1,400.891578499999,402.8916143000024,,,,,,,,,,,,,,,,,,,8,f,1,17,r,MS,49,49,2022_Jul_14_1330,2020.2.10,distractmap1,60.009601537749994,"['Left Face', 'Chest', 'Left Face', 'Chest']",
5,"[0, 0]",None,0,1,1,1,,,None,None,"[0, 0, 0]",402.9082727999994,404.9082932999954,402.9082727999994,403.9082935999977,403.8916176999992,404.8916265000007,"[0, 0, 0]",1,402.9082727999994,404.9082932999954,,,,,,,,,,,,,,,,,,,8,f,1,17,r,MS,49,49,2022_Jul_14_1330,2020.2.10,distractmap1,60.009601537749994,"['Left Face', 'Chest', 'Left Face', 'Chest']",
6,"[0.2, 0]",0,0,2,2,2,,,None,None,"[0, 0, 0]",404.924943500002,406.92497419999563,404.924943500002,405.9248993000001,405.9083004999993,406.90829739999754,"[0, 0, 0]",1,404.924943500002,406.92497419999563,,,,,,,,,,,,,,,,,,,8,f,1,17,r,MS,49,49,2022_Jul_14_1330,2020.2.10,distractmap1,60.009601537749994,"['Left Face', 'Chest', 'Left Face', 'Chest']",
1,"[-0.2, 0.2]",0,0,3,3,3,,,None,None,"[0, 0, 0]",406.94168999999965,408.94165749999956,406.94168999999965,407.9416452000005,407.92497159999766,408.9249815000003,"[0, 0, 0]",1,406.94168999999965,408.94165749999956,,,,,,,,,,,,,,,,,,,8,f,1,17,r,MS,49,49,2022_Jul_14_1330,2020.2.10,distractmap1,60.009601537749994,"['Left Face', 'Chest', 'Left Face', 'Chest']",
6,"[0.2, 0]",1,0,4,4,4,,,None,None,"[0, 0, 0]",409.02495869999984,None,409.02495869999984,410.02500029999646,410.0083326000022,None,"[0, 0, 0]",1,409.02495869999984,None,,,,,,,,,,,,,,,,,,,8,f,1,17,r,MS,49,49,2022_Jul_14_1330,2020.2.10,distractmap1,60.009601537749994,"['Left Face', 'Chest', 'Left Face', 'Chest']",
1,"[-0.2, 0.2]",1,0,5,5,5,,,None,None,"[0, 0, 0]",410.97500829999626,412.9750312999968,410.97500829999626,411.9750297999999,411.95861689999583,412.95834269999614,"[0, 0, 0]",1,410.97500829999626,412.9750312999968,,,,,,,,,,,,,,,,,,,8,f,1,17,r,MS,49,49,2022_Jul_14_1330,2020.2.10,distractmap1,60.009601537749994,"['Left Face', 'Chest', 'Left Face', 'Chest']",
2,"[0, 0.2]",0,0,6,6,6,,,None,None,"[0, 0, 0]",412.9916790999996,414.99170869999944,412.9916790999996,413.9916902999976,413.9750356000004,414.97505829999864,"[0, 0, 0]",1,412.9916790999996,414.99170869999944,,,,,,,,,,,,,,,,,,,8,f,1,17,r,MS,49,49,2022_Jul_14_1330,2020.2.10,distractmap1,60.009601537749994,"['Left Face', 'Chest', 'Left Face', 'Chest']",
3,"[0.2, 0.2]",0,0,7,7,7,,,None,None,"[0, 0, 0]",415.00836909999634,417.0083906,415.00836909999634,416.00836990000244,415.99172759999783,416.99173639999935,"[0, 0, 0]",1,415.00836909999634,417.0083906,,,,,,,,,,,,,,,,,,,8,f,1,17,r,MS,49,49,2022_Jul_14_1330,2020.2.10,distractmap1,60.009601537749994,"['Left Face', 'Chest', 'Left Face', 'Chest']",
6,"[0.2, 0]",0,0,8,8,8,,,None,None,"[0, 0, 0]",417.02505050000036,419.02494699999806,417.02505050000036,418.0250711999979,418.00839149999956,419.00840349999635,"[0, 0, 0]",1,417.02505050000036,419.02494699999806,,,,,,,,,,,,,,,,,,,8,f,1,17,r,MS,49,49,2022_Jul_14_1330,2020.2.10,distractmap1,60.009601537749994,"['Left Face', 'Chest', 'Left Face', 'Chest']",
3,"[0.2, 0.2]",1,0,9,9,9,,,None,None,"[0, 0, 0]",419.0417430000016,421.0417471999972,419.0417430000016,420.0417660000021,420.0250931999981,421.02509499999724,"[0, 0, 0]",1,419.0417430000016,421.0417471999972,,,,,,,,,,,,,,,,,,,8,f,1,17,r,MS,49,49,2022_Jul_14_1330,2020.2.10,distractmap1,60.009601537749994,"['Left Face', 'Chest', 'Left Face', 'Chest']",
,,,,,,,,,,,,,,,,,,,,,,421.0583963999961,None,,,,,,,,,,,,,,,,,8,f,1,17,r,MS,49,49,2022_Jul_14_1330,2020.2.10,distractmap1,60.009601537749994,"['Left Face', 'Chest', 'Left Face', 'Chest']",
,,,,,,,,,,,,,,,,,,,,,,,,,,,,,,,,,,16.728395061728396,413.3009820699881,,,,,8,f,1,17,r,MS,49,49,2022_Jul_14_1330,2020.2.10,distractmap1,60.009601537749994,"['Left Face', 'Chest', 'Left Face', 'Chest']",
2,"[0, 0.2]",None,0,0,0,0,438.30874349999795,None,None,None,"[0, 0, 0]",441.1085101999997,None,441.1085101999997,442.1086060000016,442.0919298000008,443.091949499998,"[0, 0, 0]",1,441.1085101999997,None,,,,,,,,,,,,,,,0.013538630009861663,5.0100097300091875,,,8,f,1,17,r,MS,49,49,2022_Jul_14_1330,2020.2.10,distractmap1,60.009601537749994,"['Left Face', 'Chest', 'Left Face', 'Chest']",
5,"[0, 0]",None,0,1,1,1,,,None,None,"[0, 0, 0]",443.10860010000033,445.1086326000004,443.10860010000033,444.10860559999855,444.0919661000007,445.0919883999959,"[0, 0, 0]",1,443.10860010000033,445.1086326000004,,,,,,,,,,,,,,,,,,,8,f,1,17,r,MS,49,49,2022_Jul_14_1330,2020.2.10,distractmap1,60.009601537749994,"['Left Face', 'Chest', 'Left Face', 'Chest']",
6,"[0.2, 0]",0,0,2,2,2,,,None,None,"[0, 0, 0]",445.1252983000013,447.12531379999564,445.1252983000013,446.1252930999981,446.10863830000017,447.1086374000006,"[0, 0, 0]",1,445.1252983000013,447.12531379999564,,,,,,,,,,,,,,,,,,,8,f,1,17,r,MS,49,49,2022_Jul_14_1330,2020.2.10,distractmap1,60.009601537749994,"['Left Face', 'Chest', 'Left Face', 'Chest']",
1,"[-0.2, 0.2]",0,0,3,3,3,,,None,None,"[0, 0, 0]",447.14197779999813,449.14200359999813,447.14197779999813,448.14196699999593,448.12531730000046,449.1253252000024,"[0, 0, 0]",1,447.14197779999813,449.14200359999813,,,,,,,,,,,,,,,,,,,8,f,1,17,r,MS,49,49,2022_Jul_14_1330,2020.2.10,distractmap1,60.009601537749994,"['Left Face', 'Chest', 'Left Face', 'Chest']",
6,"[0.2, 0]",1,0,4,4,4,,,None,None,"[0, 0, 0]",449.20852000000014,None,449.20852000000014,450.20866319999914,450.19201130000147,None,"[0, 0, 0]",1,449.20852000000014,None,,,,,,,,,,,,,,,,,,,8,f,1,17,r,MS,49,49,2022_Jul_14_1330,2020.2.10,distractmap1,60.009601537749994,"['Left Face', 'Chest', 'Left Face', 'Chest']",
6,"[0.2, 0]",0,0,5,5,5,,,None,None,"[0, 0, 0]",451.1753458999956,453.17536459999974,451.1753458999956,452.175356300002,452.15858119999757,453.15868369999953,"[0, 0, 0]",1,451.1753458999956,453.17536459999974,,,,,,,,,,,,,,,,,,,8,f,1,17,r,MS,49,49,2022_Jul_14_1330,2020.2.10,distractmap1,60.009601537749994,"['Left Face', 'Chest', 'Left Face', 'Chest']",
9,"[0.2, -0.2]",0,0,6,6,6,,,None,None,"[0, 0, 0]",453.19203169999673,455.1920555999968,453.19203169999673,454.19206329999724,454.17536819999805,455.1753765999965,"[0, 0, 0]",1,453.19203169999673,455.1920555999968,,,,,,,,,,,,,,,,,,,8,f,1,17,r,MS,49,49,2022_Jul_14_1330,2020.2.10,distractmap1,60.009601537749994,"['Left Face', 'Chest', 'Left Face', 'Chest']",
6,"[0.2, 0]",1,0,7,7,7,,,None,None,"[0, 0, 0]",455.20870529999956,457.2087133000023,455.20870529999956,456.2087117999981,456.1920530999996,457.1920706999954,"[0, 0, 0]",1,455.20870529999956,457.2087133000023,,,,,,,,,,,,,,,,,,,8,f,1,17,r,MS,49,49,2022_Jul_14_1330,2020.2.10,distractmap1,60.009601537749994,"['Left Face', 'Chest', 'Left Face', 'Chest']",
3,"[0.2, 0.2]",0,0,8,8,8,,,None,None,"[0, 0, 0]",457.22539539999707,459.22540819999995,457.22539539999707,458.22539819999656,458.20873279999796,459.2087341000006,"[0, 0, 0]",1,457.22539539999707,459.22540819999995,,,,,,,,,,,,,,,,,,,8,f,1,17,r,MS,49,49,2022_Jul_14_1330,2020.2.10,distractmap1,60.009601537749994,"['Left Face', 'Chest', 'Left Face', 'Chest']",
9,"[0.2, -0.2]",0,0,9,9,9,,,None,None,"[0, 0, 0]",459.2420929,461.2421025000003,459.2420929,460.2423615000007,460.22568959999626,461.2254297999971,"[0, 0, 0]",1,459.2420929,461.2421025000003,,,,,,,,,,,,,,,,,,,8,f,1,17,r,MS,49,49,2022_Jul_14_1330,2020.2.10,distractmap1,60.009601537749994,"['Left Face', 'Chest', 'Left Face', 'Chest']",
,,,,,,,,,,,,,,,,,,,,,,461.2587454000022,None,,,,,,,,,,,,,,,,,8,f,1,17,r,MS,49,49,2022_Jul_14_1330,2020.2.10,distractmap1,60.009601537749994,"['Left Face', 'Chest', 'Left Face', 'Chest']",
,,,,,,,,,,,,,,,,,,,,,,,,,,,,,,,,,,16.54320987654321,448.53522777000035,,,,,8,f,1,17,r,MS,49,49,2022_Jul_14_1330,2020.2.10,distractmap1,60.009601537749994,"['Left Face', 'Chest', 'Left Face', 'Chest']",
3,"[0.2, 0.2]",None,0,0,0,0,474.50916499999585,None,None,None,"[0, 0, 0]",481.29226070000004,483.2922816999999,481.29226070000004,482.2922413999986,482.27560749999975,483.27560559999984,"[0, 0, 0]",1,481.29226070000004,483.2922816999999,,,,,,,,,,,,,,,0.012925830000312999,5.008692930001416,,,8,f,1,17,r,MS,49,49,2022_Jul_14_1330,2020.2.10,distractmap1,60.009601537749994,"['Left Face', 'Chest', 'Left Face', 'Chest']",
9,"[0.2, -0.2]",None,0,1,1,1,,,None,None,"[0, 0, 0]",483.3089525999967,485.3089586999995,483.3089525999967,484.30895629999577,484.29227379999793,485.29229430000123,"[0, 0, 0]",1,483.3089525999967,485.3089586999995,,,,,,,,,,,,,,,,,,,8,f,1,17,r,MS,49,49,2022_Jul_14_1330,2020.2.10,distractmap1,60.009601537749994,"['Left Face', 'Chest', 'Left Face', 'Chest']",
3,"[0.2, 0.2]",1,0,2,2,2,,,None,None,"[0, 0, 0]",485.3256307999982,487.32563479999953,485.3256307999982,486.3256304000024,486.3089835999999,487.308976100001,"[0, 0, 0]",1,485.3256307999982,487.32563479999953,,,,,,,,,,,,,,,,,,,8,f,1,17,r,MS,49,49,2022_Jul_14_1330,2020.2.10,distractmap1,60.009601537749994,"['Left Face', 'Chest', 'Left Face', 'Chest']",
7,"[-0.2, -0.2]",0,0,3,3,3,,,None,None,"[0, 0, 0]",487.3423186,489.34232379999594,487.3423186,488.3426152999964,488.32591539999703,489.3256548999998,"[0, 0, 0]",1,487.3423186,489.34232379999594,,,,,,,,,,,,,,,,,,,8,f,1,17,r,MS,49,49,2022_Jul_14_1330,2020.2.10,distractmap1,60.009601537749994,"['Left Face', 'Chest', 'Left Face', 'Chest']",
8,"[0, -0.2]",0,0,4,4,4,,,None,None,"[0, 0, 0]",489.3926328000016,None,489.3926328000016,490.3923469000001,490.3756810999985,None,"[0, 0, 0]",1,489.3926328000016,None,,,,,,,,,,,,,,,,,,,8,f,1,17,r,MS,49,49,2022_Jul_14_1330,2020.2.10,distractmap1,60.009601537749994,"['Left Face', 'Chest', 'Left Face', 'Chest']",
4,"[-0.2, 0]",0,0,5,5,5,,,None,None,"[0, 0, 0]",491.37568810000084,493.37570009999763,491.37568810000084,492.37568250000186,492.3590131000019,493.3590258999975,"[0, 0, 0]",1,491.37568810000084,493.37570009999763,,,,,,,,,,,,,,,,,,,8,f,1,17,r,MS,49,49,2022_Jul_14_1330,2020.2.10,distractmap1,60.009601537749994,"['Left Face', 'Chest', 'Left Face', 'Chest']",
4,"[-0.2, 0]",0,0,6,6,6,,,None,None,"[0, 0, 0]",493.39236269999674,495.3923749000023,493.39236269999674,494.39225749999605,494.3757112000021,495.3757331000015,"[0, 0, 0]",1,493.39236269999674,495.3923749000023,,,,,,,,,,,,,,,,,,,8,f,1,17,r,MS,49,49,2022_Jul_14_1330,2020.2.10,distractmap1,60.009601537749994,"['Left Face', 'Chest', 'Left Face', 'Chest']",
1,"[-0.2, 0.2]",0,0,7,7,7,,,None,None,"[0, 0, 0]",495.4090489000009,497.4090686999989,495.4090489000009,496.40907329999754,496.3923865999968,497.39239290000114,"[0, 0, 0]",1,495.4090489000009,497.4090686999989,,,,,,,,,,,,,,,,,,,8,f,1,17,r,MS,49,49,2022_Jul_14_1330,2020.2.10,distractmap1,60.009601537749994,"['Left Face', 'Chest', 'Left Face', 'Chest']",
4,"[-0.2, 0]",1,0,8,8,8,,,None,None,"[0, 0, 0]",497.4257179999986,499.42574539999623,497.4257179999986,498.42574890000105,498.4090867999985,499.40909329999704,"[0, 0, 0]",1,497.4257179999986,499.42574539999623,,,,,,,,,,,,,,,,,,,8,f,1,17,r,MS,49,49,2022_Jul_14_1330,2020.2.10,distractmap1,60.009601537749994,"['Left Face', 'Chest', 'Left Face', 'Chest']",
8,"[0, -0.2]",0,0,9,9,9,,,None,None,"[0, 0, 0]",499.44242569999915,501.4424241000015,499.44242569999915,500.44242710000253,500.4257613000009,501.42577309999615,"[0, 0, 0]",1,499.44242569999915,501.4424241000015,,,,,,,,,,,,,,,,,,,8,f,1,17,r,MS,49,49,2022_Jul_14_1330,2020.2.10,distractmap1,60.009601537749994,"['Left Face', 'Chest', 'Left Face', 'Chest']",
,,,,,,,,,,,,,,,,,,,,,,501.45909409999877,None,,,,,,,,,,,,,,,,,8,f,1,17,r,MS,49,49,2022_Jul_14_1330,2020.2.10,distractmap1,60.009601537749994,"['Left Face', 'Chest', 'Left Face', 'Chest']",
,,,,,,,,,,,,,,,,,,,,,,,,,,,,,,,,,,14.197530864197528,493.7019537699962,,,,,8,f,1,17,r,MS,49,49,2022_Jul_14_1330,2020.2.10,distractmap1,60.009601537749994,"['Left Face', 'Chest', 'Left Face', 'Chest']",
,,,,,,,626.4768291,None,,,,,,,,,,,,,,,,,,,,,,,,,,16.97530864197531,615.9519611699943,0.01324453000415815,5.009466330004216,606.4766567999977,None,8,f,1,17,r,MS,49,49,2022_Jul_14_1330,2020.2.10,distractmap1,60.009601537749994,"['Left Face', 'Chest', 'Left Face', 'Chest']",
,,,,,,,661.4938034000006,None,,,,,,,,,,,,,,,,,,,,,,,,,,22.22222222222222,649.7352271700001,0.014271030006057117,5.011464230003185,641.4936368999988,None,8,f,1,17,r,MS,49,49,2022_Jul_14_1330,2020.2.10,distractmap1,60.009601537749994,"['Left Face', 'Chest', 'Left Face', 'Chest']",
,,,,,,,696.5107616999958,None,,,,,,,,,,,,,,,,,,,,,,,,,,15.493827160493826,686.6185059700001,0.014621429996623192,5.012209529995744,676.5105909999984,None,8,f,1,17,r,MS,49,49,2022_Jul_14_1330,2020.2.10,distractmap1,60.009601537749994,"['Left Face', 'Chest', 'Left Face', 'Chest']",
2,"[0, 0.2]",None,0,0,0,0,711.7611225,None,None,None,"[0, 0, 0]",716.5442542000019,718.5442866000012,716.5442542000019,717.5442753000025,717.5442753000025,718.5442866000012,"[0, 0, 0]",1,716.5442542000019,718.5442866000012,,,,,,,,,,,,,,,0.015000029998191167,5.012913630002004,,,8,f,1,17,r,MS,49,49,2022_Jul_14_1330,2020.2.10,distractmap1,60.009601537749994,"['Left Face', 'Chest', 'Left Face', 'Chest']",
5,"[0, 0]",None,0,1,1,1,,,None,None,"[0, 0, 0]",718.560945199999,720.5609632999985,718.560945199999,719.5609700999994,719.544304199997,720.544296,"[0, 0, 0]",1,718.560945199999,720.5609632999985,,,,,,,,,,,,,,,,,,,8,f,1,17,r,MS,49,49,2022_Jul_14_1330,2020.2.10,distractmap1,60.009601537749994,"['Left Face', 'Chest', 'Left Face', 'Chest']",
3,"[0.2, 0.2]",0,0,2,2,2,,,None,None,"[0, 0, 0]",720.5776422999988,722.5776591999966,720.5776422999988,721.5776527999988,721.5609814999989,722.5609932000007,"[0, 0, 0]",1,720.5776422999988,722.5776591999966,,,,,,,,,,,,,,,,,,,8,f,1,17,r,MS,49,49,2022_Jul_14_1330,2020.2.10,distractmap1,60.009601537749994,"['Left Face', 'Chest', 'Left Face', 'Chest']",
5,"[0, 0]",1,0,3,3,3,,,None,None,"[0, 0, 0]",722.5943226000018,724.5943494999956,722.5943226000018,723.5943475000022,723.577670599996,724.5776673,"[0, 0, 0]",1,722.5943226000018,724.5943494999956,,,,,,,,,,,,,,,,,,,8,f,1,17,r,MS,49,49,2022_Jul_14_1330,2020.2.10,distractmap1,60.009601537749994,"['Left Face', 'Chest', 'Left Face', 'Chest']",
2,"[0, 0.2]",0,0,4,4,4,,,None,None,"[0, 0, 0]",724.6276826999965,None,724.6276826999965,725.6276815000019,725.6110273000013,726.611017999996,"[0, 0, 0]",1,724.6276826999965,None,,,,,,,,,,,,,,,,,,,8,f,1,17,r,MS,49,49,2022_Jul_14_1330,2020.2.10,distractmap1,60.009601537749994,"['Left Face', 'Chest', 'Left Face', 'Chest']",
8,"[0, -0.2]",0,0,5,5,5,,,None,None,"[0, 0, 0]",726.6276973999993,728.6277040999994,726.6276973999993,727.627702699996,727.6110427000021,728.6110370999959,"[0, 0, 0]",1,726.6276973999993,728.6277040999994,,,,,,,,,,,,,,,,,,,8,f,1,17,r,MS,49,49,2022_Jul_14_1330,2020.2.10,distractmap1,60.009601537749994,"['Left Face', 'Chest', 'Left Face', 'Chest']",
4,"[-0.2, 0]",0,0,6,6,6,,,None,None,"[0, 0, 0]",728.6443900000013,730.644390100002,728.6443900000013,729.6443895999982,729.6277104999972,730.6277298999994,"[0, 0, 0]",1,728.6443900000013,730.644390100002,,,,,,,,,,,,,,,,,,,8,f,1,17,r,MS,49,49,2022_Jul_14_1330,2020.2.10,distractmap1,60.009601537749994,"['Left Face', 'Chest', 'Left Face', 'Chest']",
8,"[0, -0.2]",1,0,7,7,7,,,None,None,"[0, 0, 0]",730.6610546000011,732.6610835999963,730.6610546000011,731.6610690000016,731.6444171999974,732.6444036999965,"[0, 0, 0]",1,730.6610546000011,732.6610835999963,,,,,,,,,,,,,,,,,,,8,f,1,17,r,MS,49,49,2022_Jul_14_1330,2020.2.10,distractmap1,60.009601537749994,"['Left Face', 'Chest', 'Left Face', 'Chest']",
7,"[-0.2, -0.2]",0,0,8,8,8,,,None,None,"[0, 0, 0]",732.6777394000019,734.6777662000022,732.6777394000019,733.6777512999979,733.6611931000007,734.6611107999997,"[0, 0, 0]",1,732.6777394000019,734.6777662000022,,,,,,,,,,,,,,,,,,,8,f,1,17,r,MS,49,49,2022_Jul_14_1330,2020.2.10,distractmap1,60.009601537749994,"['Left Face', 'Chest', 'Left Face', 'Chest']",
8,"[0, -0.2]",1,0,9,9,9,,,None,None,"[0, 0, 0]",734.694430399999,736.6944373000006,734.694430399999,735.6944354000007,735.6777662000022,736.677786100001,"[0, 0, 0]",1,734.694430399999,736.6944373000006,,,,,,,,,,,,,,,,,,,8,f,1,17,r,MS,49,49,2022_Jul_14_1330,2020.2.10,distractmap1,60.009601537749994,"['Left Face', 'Chest', 'Left Face', 'Chest']",
,,,,,,,,,,,,,,,,,,,,,,736.7110446000006,None,,,,,,,,,,,,,,,,,8,f,1,17,r,MS,49,49,2022_Jul_14_1330,2020.2.10,distractmap1,60.009601537749994,"['Left Face', 'Chest', 'Left Face', 'Chest']",
,,,,,,,,,,,,,,,,,,,,,,,,,,,,,,,,,,15.617283950617287,725.0705425699998,,,,,8,f,1,17,r,MS,49,49,2022_Jul_14_1330,2020.2.10,distractmap1,60.009601537749994,"['Left Face', 'Chest', 'Left Face', 'Chest']",
2,"[0, 0.2]",None,0,0,0,0,751.9614691000024,None,None,None,"[0, 0, 0]",756.7279522999961,None,756.7279522999961,757.7279568000013,757.7113242999985,758.7113103000011,"[0, 0, 0]",1,756.7279522999961,None,,,,,,,,,,,,,,,0.013190630001190584,5.009248629998183,,,8,f,1,17,r,MS,49,49,2022_Jul_14_1330,2020.2.10,distractmap1,60.009601537749994,"['Left Face', 'Chest', 'Left Face', 'Chest']",
2,"[0, 0.2]",None,0,1,1,1,,,None,None,"[0, 0, 0]",758.7279790999964,760.7279890999998,758.7279790999964,759.7279808999956,759.7113028999956,760.7113117999979,"[0, 0, 0]",1,758.7279790999964,760.7279890999998,,,,,,,,,,,,,,,,,,,8,f,1,17,r,MS,49,49,2022_Jul_14_1330,2020.2.10,distractmap1,60.009601537749994,"['Left Face', 'Chest', 'Left Face', 'Chest']",
2,"[0, 0.2]",1,0,2,2,2,,,None,None,"[0, 0, 0]",760.7446464000022,762.7446636999957,760.7446464000022,761.7446551999965,761.7279997000005,762.7280059999975,"[0, 0, 0]",1,760.7446464000022,762.7446636999957,,,,,,,,,,,,,,,,,,,8,f,1,17,r,MS,49,49,2022_Jul_14_1330,2020.2.10,distractmap1,60.009601537749994,"['Left Face', 'Chest', 'Left Face', 'Chest']",
8,"[0, -0.2]",0,0,3,3,3,,,None,None,"[0, 0, 0]",762.7613445000025,764.7613559999954,762.7613445000025,763.7613602999991,763.7446732999961,764.7446792999981,"[0, 0, 0]",1,762.7613445000025,764.7613559999954,,,,,,,,,,,,,,,,,,,8,f,1,17,r,MS,49,49,2022_Jul_14_1330,2020.2.10,distractmap1,60.009601537749994,"['Left Face', 'Chest', 'Left Face', 'Chest']",
2,"[0, 0.2]",1,0,4,4,4,,,None,None,"[0, 0, 0]",764.8116923999987,None,764.8116923999987,765.8112790000014,765.7946983000002,None,"[0, 0, 0]",1,764.8116923999987,None,,,,,,,,,,,,,,,,,,,8,f,1,17,r,MS,49,49,2022_Jul_14_1330,2020.2.10,distractmap1,60.009601537749994,"['Left Face', 'Chest', 'Left Face', 'Chest']",
5,"[0, 0]",0,0,5,5,5,,,None,None,"[0, 0, 0]",766.7946988999975,768.7947200999988,766.7946988999975,767.7947081999955,767.7780499,768.7780452000006,"[0, 0, 0]",1,766.7946988999975,768.7947200999988,,,,,,,,,,,,,,,,,,,8,f,1,17,r,MS,49,49,2022_Jul_14_1330,2020.2.10,distractmap1,60.009601537749994,"['Left Face', 'Chest', 'Left Face', 'Chest']",
1,"[-0.2, 0.2]",0,0,6,6,6,,,None,None,"[0, 0, 0]",768.8113998999979,770.8114243000018,768.8113998999979,769.8114032000012,769.7947236999971,770.7947236999971,"[0, 0, 0]",1,768.8113998999979,770.8114243000018,,,,,,,,,,,,,,,,,,,8,f,1,17,r,MS,49,49,2022_Jul_14_1330,2020.2.10,distractmap1,60.009601537749994,"['Left Face', 'Chest', 'Left Face', 'Chest']",
1,"[-0.2, 0.2]",0,0,7,7,7,,,None,None,"[0, 0, 0]",770.8280779999986,772.8280797999978,770.8280779999986,771.8280849000002,771.8114067999995,772.811429100002,"[0, 0, 0]",1,770.8280779999986,772.8280797999978,,,,,,,,,,,,,,,,,,,8,f,1,17,r,MS,49,49,2022_Jul_14_1330,2020.2.10,distractmap1,60.009601537749994,"['Left Face', 'Chest', 'Left Face', 'Chest']",
6,"[0.2, 0]",0,0,8,8,8,,,None,None,"[0, 0, 0]",772.844748800002,774.8447660999955,772.844748800002,773.8447632000025,773.8280902999977,774.8281673999954,"[0, 0, 0]",1,772.844748800002,774.8447660999955,,,,,,,,,,,,,,,,,,,8,f,1,17,r,MS,49,49,2022_Jul_14_1330,2020.2.10,distractmap1,60.009601537749994,"['Left Face', 'Chest', 'Left Face', 'Chest']",
1,"[-0.2, 0.2]",1,0,9,9,9,,,None,None,"[0, 0, 0]",774.8614572000006,776.8614824999968,774.8614572000006,775.8614813000022,775.8447790999999,776.8447842000023,"[0, 0, 0]",1,774.8614572000006,776.8614824999968,,,,,,,,,,,,,,,,,,,8,f,1,17,r,MS,49,49,2022_Jul_14_1330,2020.2.10,distractmap1,60.009601537749994,"['Left Face', 'Chest', 'Left Face', 'Chest']",
,,,,,,,,,,,,,,,,,,,,,,776.878115200001,None,,,,,,,,,,,,,,,,,8,f,1,17,r,MS,49,49,2022_Jul_14_1330,2020.2.10,distractmap1,60.009601537749994,"['Left Face', 'Chest', 'Left Face', 'Chest']",
,,,,,,,,,,,,,,,,,,,,,,,,,,,,,,,,,,17.77777777777778,762.8713158699902,,,,,8,f,1,17,r,MS,49,49,2022_Jul_14_1330,2020.2.10,distractmap1,60.009601537749994,"['Left Face', 'Chest', 'Left Face', 'Chest']",
3,"[0.2, 0.2]",None,0,0,0,0,790.1449877999985,None,None,None,"[0, 0, 0]",796.9116403000007,798.9116481999954,796.9116403000007,797.9116584000003,797.8949657999983,798.8949761999975,"[0, 0, 0]",1,796.9116403000007,798.9116481999954,,,,,,,,,,,,,,,0.012851030005549546,5.00855013000546,,,8,f,1,17,r,MS,49,49,2022_Jul_14_1330,2020.2.10,distractmap1,60.009601537749994,"['Left Face', 'Chest', 'Left Face', 'Chest']",
3,"[0.2, 0.2]",None,0,1,1,1,,,None,None,"[0, 0, 0]",798.9283099999957,800.9283394000013,798.9283099999957,799.9283286999998,799.911666,800.9116748000015,"[0, 0, 0]",1,798.9283099999957,800.9283394000013,,,,,,,,,,,,,,,,,,,8,f,1,17,r,MS,49,49,2022_Jul_14_1330,2020.2.10,distractmap1,60.009601537749994,"['Left Face', 'Chest', 'Left Face', 'Chest']",
5,"[0, 0]",0,0,2,2,2,,,None,None,"[0, 0, 0]",800.9450098000016,802.9450300000026,800.9450098000016,801.9450107000011,801.9283498000004,802.9283547000014,"[0, 0, 0]",1,800.9450098000016,802.9450300000026,,,,,,,,,,,,,,,,,,,8,f,1,17,r,MS,49,49,2022_Jul_14_1330,2020.2.10,distractmap1,60.009601537749994,"['Left Face', 'Chest', 'Left Face', 'Chest']",
1,"[-0.2, 0.2]",0,0,3,3,3,,,None,None,"[0, 0, 0]",802.9616762000005,804.9617031000016,802.9616762000005,803.9616860999959,803.9450321999975,804.9450236999983,"[0, 0, 0]",1,802.9616762000005,804.9617031000016,,,,,,,,,,,,,,,,,,,8,f,1,17,r,MS,49,49,2022_Jul_14_1330,2020.2.10,distractmap1,60.009601537749994,"['Left Face', 'Chest', 'Left Face', 'Chest']",
5,"[0, 0]",1,0,4,4,4,,,None,None,"[0, 0, 0]",805.0119085999977,None,805.0119085999977,806.0117021999977,805.9950496999954,None,"[0, 0, 0]",1,805.0119085999977,None,,,,,,,,,,,,,,,,,,,8,f,1,17,r,MS,49,49,2022_Jul_14_1330,2020.2.10,distractmap1,60.009601537749994,"['Left Face', 'Chest', 'Left Face', 'Chest']",
8,"[0, -0.2]",0,0,5,5,5,,,None,None,"[0, 0, 0]",806.9950460999971,808.9950723000002,806.9950460999971,807.9950578999997,807.9784022000022,808.9784144000005,"[0, 0, 0]",1,806.9950460999971,808.9950723000002,,,,,,,,,,,,,,,,,,,8,f,1,17,r,MS,49,49,2022_Jul_14_1330,2020.2.10,distractmap1,60.009601537749994,"['Left Face', 'Chest', 'Left Face', 'Chest']",
5,"[0, 0]",1,0,6,6,6,,,None,None,"[0, 0, 0]",809.0117471999984,811.0117479999972,809.0117471999984,810.0117444999996,809.9950817999998,810.9950962000003,"[0, 0, 0]",1,809.0117471999984,811.0117479999972,,,,,,,,,,,,,,,,,,,8,f,1,17,r,MS,49,49,2022_Jul_14_1330,2020.2.10,distractmap1,60.009601537749994,"['Left Face', 'Chest', 'Left Face', 'Chest']",
7,"[-0.2, -0.2]",0,0,7,7,7,,,None,None,"[0, 0, 0]",811.0284189000013,813.0284462999989,811.0284189000013,812.0284279999978,812.011757399996,813.011776899999,"[0, 0, 0]",1,811.0284189000013,813.0284462999989,,,,,,,,,,,,,,,,,,,8,f,1,17,r,MS,49,49,2022_Jul_14_1330,2020.2.10,distractmap1,60.009601537749994,"['Left Face', 'Chest', 'Left Face', 'Chest']",
5,"[0, 0]",1,0,8,8,8,,,None,None,"[0, 0, 0]",813.0451055000012,815.0451306999967,813.0451055000012,814.0451115999967,814.0284430999964,815.0284752000007,"[0, 0, 0]",1,813.0451055000012,815.0451306999967,,,,,,,,,,,,,,,,,,,8,f,1,17,r,MS,49,49,2022_Jul_14_1330,2020.2.10,distractmap1,60.009601537749994,"['Left Face', 'Chest', 'Left Face', 'Chest']",
7,"[-0.2, -0.2]",1,0,9,9,9,,,None,None,"[0, 0, 0]",815.0617820999978,817.0618123000022,815.0617820999978,816.0617913000024,816.0451384999978,817.0451232999985,"[0, 0, 0]",1,815.0617820999978,817.0618123000022,,,,,,,,,,,,,,,,,,,8,f,1,17,r,MS,49,49,2022_Jul_14_1330,2020.2.10,distractmap1,60.009601537749994,"['Left Face', 'Chest', 'Left Face', 'Chest']",
,,,,,,,,,,,,,,,,,,,,,,817.0784328000009,None,,,,,,,,,,,,,,,,,8,f,1,17,r,MS,49,49,2022_Jul_14_1330,2020.2.10,distractmap1,60.009601537749994,"['Left Face', 'Chest', 'Left Face', 'Chest']",
,,,,,,,,,,,,,,,,,,,,,,,,,,,,,,,,,,16.11111111111111,807.8374939700007,,,,,8,f,1,17,r,MS,49,49,2022_Jul_14_1330,2020.2.10,distractmap1,60.009601537749994,"['Left Face', 'Chest', 'Left Face', 'Chest']",
,,,,,,,852.0954547000001,None,,,,,,,,,,,,,,,,,,,,,,,,,,16.54320987654321,839.1197565699913,0.013788129996100906,5.010459630000696,832.095275300002,None,8,f,1,17,r,MS,49,49,2022_Jul_14_1330,2020.2.10,distractmap1,60.009601537749994,"['Left Face', 'Chest', 'Left Face', 'Chest']",
,,,,,,,887.112423300001,None,,,,,,,,,,,,,,,,,,,,,,,,,,19.320987654320987,875.953580069996,0.015082830002938863,5.013074729999062,867.1122564999969,None,8,f,1,17,r,MS,49,49,2022_Jul_14_1330,2020.2.10,distractmap1,60.009601537749994,"['Left Face', 'Chest', 'Left Face', 'Chest']",
,,,,,,,922.1293850000002,None,,,,,,,,,,,,,,,,,,,,,,,,,,18.271604938271604,910.3704808699986,0.01490483000088716,5.012693830001808,902.1292068999974,None,8,f,1,17,r,MS,49,49,2022_Jul_14_1330,2020.2.10,distractmap1,60.009601537749994,"['Left Face', 'Chest', 'Left Face', 'Chest']",
6,"[0.2, 0]",None,0,0,0,0,1134.8145836999975,None,None,None,"[0, 0, 0]",1137.5145830999973,1139.5146176999988,1137.5145830999973,1138.5145999000015,1138.5145999000015,1139.5146176999988,"[0, 0, 0]",1,1137.5145830999973,1139.5146176999988,,,,,,999.0969757999992,999.0969757999992,None,space,104.92605539999931,999.0969757999992,None,,,0.014951630000723526,5.012866229997599,,,8,f,1,17,r,MS,49,49,2022_Jul_14_1330,2020.2.10,distractmap1,60.009601537749994,"['Left Face', 'Chest', 'Left Face', 'Chest']",
1,"[-0.2, 0.2]",None,0,1,1,1,,,None,None,"[0, 0, 0]",1139.5312811999975,1141.5313093000004,1139.5312811999975,1140.5312808000017,1140.5146192999964,1141.514628099998,"[0, 0, 0]",1,1139.5312811999975,1141.5313093000004,,,,,,,,,,,,,,,,,,,8,f,1,17,r,MS,49,49,2022_Jul_14_1330,2020.2.10,distractmap1,60.009601537749994,"['Left Face', 'Chest', 'Left Face', 'Chest']",
6,"[0.2, 0]",1,0,2,2,2,,,None,None,"[0, 0, 0]",1141.5479464000018,1143.5479680999997,1141.5479464000018,1142.5479665999956,1142.5313018000015,1143.5312995999993,"[0, 0, 0]",1,1141.5479464000018,1143.5479680999997,,,,,,,,,,,,,,,,,,,8,f,1,17,r,MS,49,49,2022_Jul_14_1330,2020.2.10,distractmap1,60.009601537749994,"['Left Face', 'Chest', 'Left Face', 'Chest']",
4,"[-0.2, 0]",0,0,3,3,3,,,None,None,"[0, 0, 0]",1143.5646399999969,1145.564657099996,1143.5646399999969,1144.5646579999957,1144.5479550000018,1145.5479926999978,"[0, 0, 0]",1,1143.5646399999969,1145.564657099996,,,,,,,,,,,,,,,,,,,8,f,1,17,r,MS,49,49,2022_Jul_14_1330,2020.2.10,distractmap1,60.009601537749994,"['Left Face', 'Chest', 'Left Face', 'Chest']",
1,"[-0.2, 0.2]",0,0,4,4,4,,,None,None,"[0, 0, 0]",1145.6312327999985,None,1145.6312327999985,1146.6313540999981,1146.6313540999981,None,"[0, 0, 0]",0,1145.6312327999985,None,,,,,,,,,,,,,,,,,,,8,f,1,17,r,MS,49,49,2022_Jul_14_1330,2020.2.10,distractmap1,60.009601537749994,"['Left Face', 'Chest', 'Left Face', 'Chest']",
8,"[0, -0.2]",0,0,5,5,5,,,None,None,"[0, 0, 0]",1147.598013099996,1149.5980225000021,1147.598013099996,1148.5980101999958,1148.581288399997,1149.5813801999975,"[0, 0, 0]",1,1147.598013099996,1149.5980225000021,,,,,,,,,,,,,,,,,,,8,f,1,17,r,MS,49,49,2022_Jul_14_1330,2020.2.10,distractmap1,60.009601537749994,"['Left Face', 'Chest', 'Left Face', 'Chest']",
1,"[-0.2, 0.2]",1,0,6,6,6,,,None,None,"[0, 0, 0]",1149.6146946000008,1151.614717299999,1149.6146946000008,1150.614700799997,1150.5983025000023,1151.5980456999969,"[0, 0, 0]",1,1149.6146946000008,1151.614717299999,,,,,,,,,,,,,,,,,,,8,f,1,17,r,MS,49,49,2022_Jul_14_1330,2020.2.10,distractmap1,60.009601537749994,"['Left Face', 'Chest', 'Left Face', 'Chest']",
8,"[0, -0.2]",1,0,7,7,7,,,None,None,"[0, 0, 0]",1151.6313938000021,1153.6314058999997,1151.6313938000021,1152.6313995999953,1152.614725200001,1153.6147262000013,"[0, 0, 0]",1,1151.6313938000021,1153.6314058999997,,,,,,,,,,,,,,,,,,,8,f,1,17,r,MS,49,49,2022_Jul_14_1330,2020.2.10,distractmap1,60.009601537749994,"['Left Face', 'Chest', 'Left Face', 'Chest']",
1,"[-0.2, 0.2]",1,0,8,8,8,,,None,None,"[0, 0, 0]",1153.6480872999964,1155.6480742999993,1153.6480872999964,1154.648061699998,1154.6314177000022,1155.6314423000003,"[0, 0, 0]",1,1153.6480872999964,1155.6480742999993,,,,,,,,,,,,,,,,,,,8,f,1,17,r,MS,49,49,2022_Jul_14_1330,2020.2.10,distractmap1,60.009601537749994,"['Left Face', 'Chest', 'Left Face', 'Chest']",
6,"[0.2, 0]",0,0,9,9,9,,,None,None,"[0, 0, 0]",1155.6647529999973,1157.6647660000017,1155.6647529999973,1156.6647548999972,1156.648028399999,1157.6480969999975,"[0, 0, 0]",1,1155.6647529999973,1157.6647660000017,,,,,,,,,,,,,,,,,,,8,f,1,17,r,MS,49,49,2022_Jul_14_1330,2020.2.10,distractmap1,60.009601537749994,"['Left Face', 'Chest', 'Left Face', 'Chest']",
,,,,,,,,,,,,,,,,,,,,,,1157.681434799997,None,,,,,,,,,,,,,,,,,8,f,1,17,r,MS,49,49,2022_Jul_14_1330,2020.2.10,distractmap1,60.009601537749994,"['Left Face', 'Chest', 'Left Face', 'Chest']",
,,,,,,,,,,,,,,,,,,,,,,,,,,,,,,,,,,28.827160493827158,1146.0405919699988,,,,,8,f,1,17,r,MS,49,49,2022_Jul_14_1330,2020.2.10,distractmap1,60.009601537749994,"['Left Face', 'Chest', 'Left Face', 'Chest']",
7,"[-0.2, -0.2]",None,0,0,0,0,1173.6820238,None,None,None,"[0, 0, 0]",1177.7149293999973,1179.7149468999996,1177.7149293999973,1178.714944200001,1178.6982728000003,1179.6982954999985,"[0, 0, 0]",1,1177.7149293999973,1179.7149468999996,,,,,,,,,,,,,,,0.013582229999883566,5.009947629994713,,,8,f,1,17,r,MS,49,49,2022_Jul_14_1330,2020.2.10,distractmap1,60.009601537749994,"['Left Face', 'Chest', 'Left Face', 'Chest']",
7,"[-0.2, -0.2]",None,0,1,1,1,,,None,None,"[0, 0, 0]",1179.7316237999985,1181.7316433000015,1179.7316237999985,1180.7316652000009,1180.714957600001,1181.7149759999957,"[0, 0, 0]",1,1179.7316237999985,1181.7316433000015,,,,,,,,,,,,,,,,,,,8,f,1,17,r,MS,49,49,2022_Jul_14_1330,2020.2.10,distractmap1,60.009601537749994,"['Left Face', 'Chest', 'Left Face', 'Chest']",
7,"[-0.2, -0.2]",1,0,2,2,2,,,None,None,"[0, 0, 0]",1181.7483043999964,1183.748314299999,1181.7483043999964,1182.7483123999991,1182.7316603,1183.7317146999994,"[0, 0, 0]",1,1181.7483043999964,1183.748314299999,,,,,,,,,,,,,,,,,,,8,f,1,17,r,MS,49,49,2022_Jul_14_1330,2020.2.10,distractmap1,60.009601537749994,"['Left Face', 'Chest', 'Left Face', 'Chest']",
5,"[0, 0]",0,0,3,3,3,,,None,None,"[0, 0, 0]",1183.7649967999969,1185.7650107000009,1183.7649967999969,1184.7649942999997,1184.748339699996,1185.748348699999,"[0, 0, 0]",1,1183.7649967999969,1185.7650107000009,,,,,,,,,,,,,,,,,,,8,f,1,17,r,MS,49,49,2022_Jul_14_1330,2020.2.10,distractmap1,60.009601537749994,"['Left Face', 'Chest', 'Left Face', 'Chest']",
1,"[-0.2, 0.2]",0,0,4,4,4,,,None,None,"[0, 0, 0]",1185.8486619999967,None,1185.8486619999967,1186.848353100002,1186.8150109999988,None,"[0, 0, 0]",1,1185.8486619999967,None,,,,,,,,,,,,,,,,,,,8,f,1,17,r,MS,49,49,2022_Jul_14_1330,2020.2.10,distractmap1,60.009601537749994,"['Left Face', 'Chest', 'Left Face', 'Chest']",
6,"[0.2, 0]",0,0,5,5,5,,,None,None,"[0, 0, 0]",1187.7983669999958,1189.7983927000023,1187.7983669999958,1188.798369899996,1188.7815867999961,1189.7817023000025,"[0, 0, 0]",1,1187.7983669999958,1189.7983927000023,,,,,,,,,,,,,,,,,,,8,f,1,17,r,MS,49,49,2022_Jul_14_1330,2020.2.10,distractmap1,60.009601537749994,"['Left Face', 'Chest', 'Left Face', 'Chest']",
1,"[-0.2, 0.2]",1,0,6,6,6,,,None,None,"[0, 0, 0]",1189.8150490999979,1191.815065900002,1189.8150490999979,1190.815049799996,1190.7983950999987,1191.7983951999995,"[0, 0, 0]",1,1189.8150490999979,1191.815065900002,,,,,,,,,,,,,,,,,,,8,f,1,17,r,MS,49,49,2022_Jul_14_1330,2020.2.10,distractmap1,60.009601537749994,"['Left Face', 'Chest', 'Left Face', 'Chest']",
7,"[-0.2, -0.2]",0,0,7,7,7,,,None,None,"[0, 0, 0]",1191.8317391000019,1193.8317504000006,1191.8317391000019,1192.8317403999972,1192.815074799997,1193.8150603999966,"[0, 0, 0]",1,1191.8317391000019,1193.8317504000006,,,,,,,,,,,,,,,,,,,8,f,1,17,r,MS,49,49,2022_Jul_14_1330,2020.2.10,distractmap1,60.009601537749994,"['Left Face', 'Chest', 'Left Face', 'Chest']",
6,"[0.2, 0]",0,0,8,8,8,,,None,None,"[0, 0, 0]",1193.848435699998,1195.8484346999976,1193.848435699998,1194.8484239999962,1194.8317524000013,1195.8317633999977,"[0, 0, 0]",1,1193.848435699998,1195.8484346999976,,,,,,,,,,,,,,,,,,,8,f,1,17,r,MS,49,49,2022_Jul_14_1330,2020.2.10,distractmap1,60.009601537749994,"['Left Face', 'Chest', 'Left Face', 'Chest']",
7,"[-0.2, -0.2]",1,0,9,9,9,,,None,None,"[0, 0, 0]",1195.8651033999995,1197.8651113000014,1195.8651033999995,1196.8651078999974,1196.8484360000002,1197.8484551000001,"[0, 0, 0]",1,1195.8651033999995,1197.8651113000014,,,,,,,,,,,,,,,,,,,8,f,1,17,r,MS,49,49,2022_Jul_14_1330,2020.2.10,distractmap1,60.009601537749994,"['Left Face', 'Chest', 'Left Face', 'Chest']",
,,,,,,,,,,,,,,,,,,,,,,1197.8817679999993,None,,,,,,,,,,,,,,,,,8,f,1,17,r,MS,49,49,2022_Jul_14_1330,2020.2.10,distractmap1,60.009601537749994,"['Left Face', 'Chest', 'Left Face', 'Chest']",
,,,,,,,,,,,,,,,,,,,,,,,,,,,,,,,,,,32.160493827160494,1185.5579049700027,,,,,8,f,1,17,r,MS,49,49,2022_Jul_14_1330,2020.2.10,distractmap1,60.009601537749994,"['Left Face', 'Chest', 'Left Face', 'Chest']",
4,"[-0.2, 0]",None,0,0,0,0,1213.1321937999965,None,None,None,"[0, 0, 0]",1217.9153401000003,1219.9153030000016,1217.9153401000003,1218.9152983000022,1218.8986423999959,1219.8986413999955,"[0, 0, 0]",1,1217.9153401000003,1219.9153030000016,,,,,,,,,,,,,,,0.01327432999823941,5.009408229998371,,,8,f,1,17,r,MS,49,49,2022_Jul_14_1330,2020.2.10,distractmap1,60.009601537749994,"['Left Face', 'Chest', 'Left Face', 'Chest']",
5,"[0, 0]",None,0,1,1,1,,,None,None,"[0, 0, 0]",1219.9319670999976,1221.9320034999982,1219.9319670999976,1220.9318644000014,1220.9153074999995,1221.915326000002,"[0, 0, 0]",1,1219.9319670999976,1221.9320034999982,,,,,,,,,,,,,,,,,,,8,f,1,17,r,MS,49,49,2022_Jul_14_1330,2020.2.10,distractmap1,60.009601537749994,"['Left Face', 'Chest', 'Left Face', 'Chest']",
6,"[0.2, 0]",0,0,2,2,2,,,None,None,"[0, 0, 0]",1221.9486633999986,1223.9486632999979,1221.9486633999986,1222.9486823999978,1222.9319997999992,1223.9320067000008,"[0, 0, 0]",1,1221.9486633999986,1223.9486632999979,,,,,,,,,,,,,,,,,,,8,f,1,17,r,MS,49,49,2022_Jul_14_1330,2020.2.10,distractmap1,60.009601537749994,"['Left Face', 'Chest', 'Left Face', 'Chest']",
1,"[-0.2, 0.2]",0,0,3,3,3,,,None,None,"[0, 0, 0]",1223.9653327999986,1225.9653869999966,1223.9653327999986,1224.9653470999983,1224.9486762000015,1225.9486897000024,"[0, 0, 0]",1,1223.9653327999986,1225.9653869999966,,,,,,,,,,,,,,,,,,,8,f,1,17,r,MS,49,49,2022_Jul_14_1330,2020.2.10,distractmap1,60.009601537749994,"['Left Face', 'Chest', 'Left Face', 'Chest']",
6,"[0.2, 0]",1,0,4,4,4,,,None,None,"[0, 0, 0]",1226.0152680999963,None,1226.0152680999963,1227.015372199996,1227.015372199996,None,"[0, 0, 0]",1,1226.0152680999963,None,,,,,,,,,,,,,,,,,,,8,f,1,17,r,MS,49,49,2022_Jul_14_1330,2020.2.10,distractmap1,60.009601537749994,"['Left Face', 'Chest', 'Left Face', 'Chest']",
1,"[-0.2, 0.2]",1,0,5,5,5,,,None,None,"[0, 0, 0]",1227.9987013999998,1229.998720800002,1227.9987013999998,1228.9987261999995,1228.9820440999974,1229.9820629999958,"[0, 0, 0]",1,1227.9987013999998,1229.998720800002,,,,,,,,,,,,,,,,,,,8,f,1,17,r,MS,49,49,2022_Jul_14_1330,2020.2.10,distractmap1,60.009601537749994,"['Left Face', 'Chest', 'Left Face', 'Chest']",
2,"[0, 0.2]",0,0,6,6,6,,,None,None,"[0, 0, 0]",1230.0153968000013,1232.015417900002,1230.0153968000013,1231.0154094999962,1230.998727099999,1231.9987445000006,"[0, 0, 0]",1,1230.0153968000013,1232.015417900002,,,,,,,,,,,,,,,,,,,8,f,1,17,r,MS,49,49,2022_Jul_14_1330,2020.2.10,distractmap1,60.009601537749994,"['Left Face', 'Chest', 'Left Face', 'Chest']",
3,"[0.2, 0.2]",0,0,7,7,7,,,None,None,"[0, 0, 0]",1232.0320817999964,1234.032088699998,1232.0320817999964,1233.032082400001,1233.015427899998,1234.0154292000007,"[0, 0, 0]",1,1232.0320817999964,1234.032088699998,,,,,,,,,,,,,,,,,,,8,f,1,17,r,MS,49,49,2022_Jul_14_1330,2020.2.10,distractmap1,60.009601537749994,"['Left Face', 'Chest', 'Left Face', 'Chest']",
6,"[0.2, 0]",0,0,8,8,8,,,None,None,"[0, 0, 0]",1234.0487633000012,1236.0487806999954,1234.0487633000012,1235.0487756000002,1235.0321119,1236.032108899999,"[0, 0, 0]",1,1234.0487633000012,1236.0487806999954,,,,,,,,,,,,,,,,,,,8,f,1,17,r,MS,49,49,2022_Jul_14_1330,2020.2.10,distractmap1,60.009601537749994,"['Left Face', 'Chest', 'Left Face', 'Chest']",
3,"[0.2, 0.2]",1,0,9,9,9,,,None,None,"[0, 0, 0]",1236.0654471000016,1238.0654691000018,1236.0654471000016,1237.0654608999976,1237.0487804000004,1238.0487871000005,"[0, 0, 0]",1,1236.0654471000016,1238.0654691000018,,,,,,,,,,,,,,,,,,,8,f,1,17,r,MS,49,49,2022_Jul_14_1330,2020.2.10,distractmap1,60.009601537749994,"['Left Face', 'Chest', 'Left Face', 'Chest']",
,,,,,,,,,,,,,,,,,,,,,,1238.0821233000024,None,,,,,,,,,,,,,,,,,8,f,1,17,r,MS,49,49,2022_Jul_14_1330,2020.2.10,distractmap1,60.009601537749994,"['Left Face', 'Chest', 'Left Face', 'Chest']",
,,,,,,,,,,,,,,,,,,,,,,,,,,,,,,,,,,32.59259259259259,1229.2086858699986,,,,,8,f,1,17,r,MS,49,49,2022_Jul_14_1330,2020.2.10,distractmap1,60.009601537749994,"['Left Face', 'Chest', 'Left Face', 'Chest']",
2,"[0, 0.2]",None,0,0,0,0,1255.0989539000002,None,None,None,"[0, 0, 0]",1258.098969300001,1260.0989846000011,1258.098969300001,1259.098980499999,1259.098980499999,1260.0989846000011,"[0, 0, 0]",1,1258.098969300001,1260.0989846000011,,,,,,,,,,,,,,,0.012870630001998506,5.008592630001658,,,8,f,1,17,r,MS,49,49,2022_Jul_14_1330,2020.2.10,distractmap1,60.009601537749994,"['Left Face', 'Chest', 'Left Face', 'Chest']",
5,"[0, 0]",None,0,1,1,1,,,None,None,"[0, 0, 0]",1260.1156599000024,1262.1156751000017,1260.1156599000024,1261.115624500002,1261.098984999997,1262.098997299996,"[0, 0, 0]",1,1260.1156599000024,1262.1156751000017,,,,,,,,,,,,,,,,,,,8,f,1,17,r,MS,49,49,2022_Jul_14_1330,2020.2.10,distractmap1,60.009601537749994,"['Left Face', 'Chest', 'Left Face', 'Chest']",
6,"[0.2, 0]",0,0,2,2,2,,,None,None,"[0, 0, 0]",1262.1323553999973,1264.1323551999958,1262.1323553999973,1263.132347400002,1263.1156848999963,1264.1156985999987,"[0, 0, 0]",1,1262.1323553999973,1264.1323551999958,,,,,,,,,,,,,,,,,,,8,f,1,17,r,MS,49,49,2022_Jul_14_1330,2020.2.10,distractmap1,60.009601537749994,"['Left Face', 'Chest', 'Left Face', 'Chest']",
1,"[-0.2, 0.2]",0,0,3,3,3,,,None,None,"[0, 0, 0]",1264.1490099000002,1266.149036900002,1264.1490099000002,1265.1490378000017,1265.1323632999993,1266.1323698999986,"[0, 0, 0]",1,1264.1490099000002,1266.149036900002,,,,,,,,,,,,,,,,,,,8,f,1,17,r,MS,49,49,2022_Jul_14_1330,2020.2.10,distractmap1,60.009601537749994,"['Left Face', 'Chest', 'Left Face', 'Chest']",
6,"[0.2, 0]",1,0,4,4,4,,,None,None,"[0, 0, 0]",1266.1657124999983,1268.1657331000024,1266.1657124999983,1267.1657105999984,1267.1490477999978,1268.1490533999968,"[0, 0, 0]",1,1266.1657124999983,1268.1657331000024,,,,,,,,,,,,,,,,,,,8,f,1,17,r,MS,49,49,2022_Jul_14_1330,2020.2.10,distractmap1,60.009601537749994,"['Left Face', 'Chest', 'Left Face', 'Chest']",
6,"[0.2, 0]",0,0,5,5,5,,,None,None,"[0, 0, 0]",1268.1823952999985,1270.182418999997,1268.1823952999985,1269.1824186000013,1269.1657390999972,1270.165740700002,"[0, 0, 0]",1,1268.1823952999985,1270.182418999997,,,,,,,,,,,,,,,,,,,8,f,1,17,r,MS,49,49,2022_Jul_14_1330,2020.2.10,distractmap1,60.009601537749994,"['Left Face', 'Chest', 'Left Face', 'Chest']",
9,"[0.2, -0.2]",0,0,6,6,6,,,None,None,"[0, 0, 0]",1270.1990736000007,1272.199090299997,1270.1990736000007,1271.1990812000004,1271.1824227999969,1272.1824629999974,"[0, 0, 0]",1,1270.1990736000007,1272.199090299997,,,,,,,,,,,,,,,,,,,8,f,1,17,r,MS,49,49,2022_Jul_14_1330,2020.2.10,distractmap1,60.009601537749994,"['Left Face', 'Chest', 'Left Face', 'Chest']",
6,"[0.2, 0]",1,0,7,7,7,,,None,None,"[0, 0, 0]",1272.215757500002,1274.215783599997,1272.215757500002,1273.2157806999967,1273.1990875999982,1274.1991114999983,"[0, 0, 0]",1,1272.215757500002,1274.215783599997,,,,,,,,,,,,,,,,,,,8,f,1,17,r,MS,49,49,2022_Jul_14_1330,2020.2.10,distractmap1,60.009601537749994,"['Left Face', 'Chest', 'Left Face', 'Chest']",
3,"[0.2, 0.2]",0,0,8,8,8,,,None,None,"[0, 0, 0]",1274.2324594999955,1276.2324587999974,1274.2324594999955,1275.2324804000018,1275.215813900002,1276.2157999999981,"[0, 0, 0]",1,1274.2324594999955,1276.2324587999974,,,,,,,,,,,,,,,,,,,8,f,1,17,r,MS,49,49,2022_Jul_14_1330,2020.2.10,distractmap1,60.009601537749994,"['Left Face', 'Chest', 'Left Face', 'Chest']",
9,"[0.2, -0.2]",0,0,9,9,9,,,None,None,"[0, 0, 0]",1276.2491251999963,1278.2491585000025,1276.2491251999963,1277.2491351999997,1277.2324862000023,1278.232487399997,"[0, 0, 0]",1,1276.2491251999963,1278.2491585000025,,,,,,,,,,,,,,,,,,,8,f,1,17,r,MS,49,49,2022_Jul_14_1330,2020.2.10,distractmap1,60.009601537749994,"['Left Face', 'Chest', 'Left Face', 'Chest']",
,,,,,,,,,,,,,,,,,,,,,,1278.2657156999994,None,,,,,,,,,,,,,,,,,8,f,1,17,r,MS,49,49,2022_Jul_14_1330,2020.2.10,distractmap1,60.009601537749994,"['Left Face', 'Chest', 'Left Face', 'Chest']",
3,"[0.2, 0.2]",None,0,0,0,0,1288.2825954,None,None,None,"[0, 0, 0]",1293.2826487999992,1295.282641699996,1293.2826487999992,1294.282626100001,1294.2659520000016,1295.2659604,"[0, 0, 0]",1,1293.2826487999992,1295.282641699996,,,,,,,,,,,,,,,,,,,8,f,1,17,r,MS,49,49,2022_Jul_14_1330,2020.2.10,distractmap1,60.009601537749994,"['Left Face', 'Chest', 'Left Face', 'Chest']",
9,"[0.2, -0.2]",None,0,1,1,1,,,None,None,"[0, 0, 0]",1295.2992993000007,1297.2993186999956,1295.2992993000007,1296.2993037999986,1296.2826548000012,1297.2826558000015,"[0, 0, 0]",1,1295.2992993000007,1297.2993186999956,,,,,,,,,,,,,,,,,,,8,f,1,17,r,MS,49,49,2022_Jul_14_1330,2020.2.10,distractmap1,60.009601537749994,"['Left Face', 'Chest', 'Left Face', 'Chest']",
3,"[0.2, 0.2]",1,0,2,2,2,,,None,None,"[0, 0, 0]",1297.3159856999991,1299.3159940999976,1297.3159856999991,1298.315978599996,1298.2993197999967,1299.2993235999966,"[0, 0, 0]",1,1297.3159856999991,1299.3159940999976,,,,,,,,,,,,,,,,,,,8,f,1,17,r,MS,49,49,2022_Jul_14_1330,2020.2.10,distractmap1,60.009601537749994,"['Left Face', 'Chest', 'Left Face', 'Chest']",
7,"[-0.2, -0.2]",0,0,3,3,3,,,None,None,"[0, 0, 0]",1299.3326795999965,1301.332691399999,1299.3326795999965,1300.3326772,1300.316007100002,1301.3160199999984,"[0, 0, 0]",1,1299.3326795999965,1301.332691399999,,,,,,,,,,,,,,,,,,,8,f,1,17,r,MS,49,49,2022_Jul_14_1330,2020.2.10,distractmap1,60.009601537749994,"['Left Face', 'Chest', 'Left Face', 'Chest']",
8,"[0, -0.2]",0,0,4,4,4,,,None,None,"[0, 0, 0]",1301.3493536999958,1303.349352600002,1301.3493536999958,1302.3493397999991,1302.3326877,1303.3326951999989,"[0, 0, 0]",1,1301.3493536999958,1303.349352600002,,,,,,,,,,,,,,,,,,,8,f,1,17,r,MS,49,49,2022_Jul_14_1330,2020.2.10,distractmap1,60.009601537749994,"['Left Face', 'Chest', 'Left Face', 'Chest']",
4,"[-0.2, 0]",0,0,5,5,5,,,None,None,"[0, 0, 0]",1303.3660420000015,1305.3660530999987,1303.3660420000015,1304.3660383000024,1304.349375699996,1305.3493928000025,"[0, 0, 0]",1,1303.3660420000015,1305.3660530999987,,,,,,,,,,,,,,,,,,,8,f,1,17,r,MS,49,49,2022_Jul_14_1330,2020.2.10,distractmap1,60.009601537749994,"['Left Face', 'Chest', 'Left Face', 'Chest']",
4,"[-0.2, 0]",0,0,6,6,6,,,None,None,"[0, 0, 0]",1305.382722299997,1307.3827257000012,1305.382722299997,1306.3827325999955,1306.3660629000005,1307.3660661999966,"[0, 0, 0]",1,1305.382722299997,1307.3827257000012,,,,,,,,,,,,,,,,,,,8,f,1,17,r,MS,49,49,2022_Jul_14_1330,2020.2.10,distractmap1,60.009601537749994,"['Left Face', 'Chest', 'Left Face', 'Chest']",
1,"[-0.2, 0.2]",0,0,7,7,7,,,None,None,"[0, 0, 0]",1307.3993990000017,1309.3994229000018,1307.3993990000017,1308.3994101999997,1308.382747800002,1309.3826545999982,"[0, 0, 0]",1,1307.3993990000017,1309.3994229000018,,,,,,,,,,,,,,,,,,,8,f,1,17,r,MS,49,49,2022_Jul_14_1330,2020.2.10,distractmap1,60.009601537749994,"['Left Face', 'Chest', 'Left Face', 'Chest']",
4,"[-0.2, 0]",1,0,8,8,8,,,None,None,"[0, 0, 0]",1309.4160873,1311.4161306999958,1309.4160873,1310.4161029000024,1310.3994327999972,1311.3994402000026,"[0, 0, 0]",1,1309.4160873,1311.4161306999958,,,,,,,,,,,,,,,,,,,8,f,1,17,r,MS,49,49,2022_Jul_14_1330,2020.2.10,distractmap1,60.009601537749994,"['Left Face', 'Chest', 'Left Face', 'Chest']",
8,"[0, -0.2]",0,0,9,9,9,,,None,None,"[0, 0, 0]",1311.4327723999959,1313.432796000001,1311.4327723999959,1312.432780199997,1312.4161142000012,1313.4161273999998,"[0, 0, 0]",1,1311.4327723999959,1313.432796000001,,,,,,,,,,,,,,,,,,,8,f,1,17,r,MS,49,49,2022_Jul_14_1330,2020.2.10,distractmap1,60.009601537749994,"['Left Face', 'Chest', 'Left Face', 'Chest']",
,,,,,,,,,,,,,,,,,,,,,,1313.4494665999955,None,,,,,,,,,,,,,,,,,8,f,1,17,r,MS,49,49,2022_Jul_14_1330,2020.2.10,distractmap1,60.009601537749994,"['Left Face', 'Chest', 'Left Face', 'Chest']",
2,"[0, 0.2]",None,0,0,0,0,1321.466161999997,None,None,None,"[0, 0, 0]",1328.4662525999956,None,1328.4662525999956,1329.4662626999998,1329.4496108999956,1330.4496119999967,"[0, 0, 0]",1,1328.4662525999956,None,,,,,,,,,,,,,,,,,,,8,f,1,17,r,MS,49,49,2022_Jul_14_1330,2020.2.10,distractmap1,60.009601537749994,"['Left Face', 'Chest', 'Left Face', 'Chest']",
5,"[0, 0]",None,0,1,1,1,,,None,None,"[0, 0, 0]",1330.4662634999986,1332.4662717999963,1330.4662634999986,1331.4662673999992,1331.449609700001,1332.4496414000023,"[0, 0, 0]",1,1330.4662634999986,1332.4662717999963,,,,,,,,,,,,,,,,,,,8,f,1,17,r,MS,49,49,2022_Jul_14_1330,2020.2.10,distractmap1,60.009601537749994,"['Left Face', 'Chest', 'Left Face', 'Chest']",
3,"[0.2, 0.2]",0,0,2,2,2,,,None,None,"[0, 0, 0]",1332.4829651999971,1334.4829697000023,1332.4829651999971,1333.4829985999968,1333.466300699998,1334.466301200002,"[0, 0, 0]",1,1332.4829651999971,1334.4829697000023,,,,,,,,,,,,,,,,,,,8,f,1,17,r,MS,49,49,2022_Jul_14_1330,2020.2.10,distractmap1,60.009601537749994,"['Left Face', 'Chest', 'Left Face', 'Chest']",
5,"[0, 0]",1,0,3,3,3,,,None,None,"[0, 0, 0]",1334.4996600000013,1336.499665999996,1334.4996600000013,1335.4996487000026,1335.482975699997,1336.4830371999997,"[0, 0, 0]",1,1334.4996600000013,1336.499665999996,,,,,,,,,,,,,,,,,,,8,f,1,17,r,MS,49,49,2022_Jul_14_1330,2020.2.10,distractmap1,60.009601537749994,"['Left Face', 'Chest', 'Left Face', 'Chest']",
2,"[0, 0.2]",0,0,4,4,4,,,None,None,"[0, 0, 0]",1336.5163315999962,1338.5163410999958,1336.5163315999962,1337.5163299999986,1337.4996742000003,1338.4996885,"[0, 0, 0]",1,1336.5163315999962,1338.5163410999958,,,,,,,,,,,,,,,,,,,8,f,1,17,r,MS,49,49,2022_Jul_14_1330,2020.2.10,distractmap1,60.009601537749994,"['Left Face', 'Chest', 'Left Face', 'Chest']",
8,"[0, -0.2]",0,0,5,5,5,,,None,None,"[0, 0, 0]",1338.5330154999974,1340.533029899998,1338.5330154999974,1339.5330157999997,1339.5163441999975,1340.5163561000008,"[0, 0, 0]",1,1338.5330154999974,1340.533029899998,,,,,,,,,,,,,,,,,,,8,f,1,17,r,MS,49,49,2022_Jul_14_1330,2020.2.10,distractmap1,60.009601537749994,"['Left Face', 'Chest', 'Left Face', 'Chest']",
4,"[-0.2, 0]",0,0,6,6,6,,,None,None,"[0, 0, 0]",1340.5496893000018,1342.5497190000024,1340.5496893000018,1341.5497161000021,1341.5330363999965,1342.533048199999,"[0, 0, 0]",1,1340.5496893000018,1342.5497190000024,,,,,,,,,,,,,,,,,,,8,f,1,17,r,MS,49,49,2022_Jul_14_1330,2020.2.10,distractmap1,60.009601537749994,"['Left Face', 'Chest', 'Left Face', 'Chest']",
8,"[0, -0.2]",1,0,7,7,7,,,None,None,"[0, 0, 0]",1342.566375399998,1344.5663945999986,1342.566375399998,1343.5663868999982,1343.5497140000007,1344.5497307999976,"[0, 0, 0]",1,1342.566375399998,1344.5663945999986,,,,,,,,,,,,,,,,,,,8,f,1,17,r,MS,49,49,2022_Jul_14_1330,2020.2.10,distractmap1,60.009601537749994,"['Left Face', 'Chest', 'Left Face', 'Chest']",
7,"[-0.2, -0.2]",0,0,8,8,8,,,None,None,"[0, 0, 0]",1344.5831222999986,1346.5830867999975,1344.5831222999986,1345.5830729000008,1345.5664080999995,1346.5664116999978,"[0, 0, 0]",1,1344.5831222999986,1346.5830867999975,,,,,,,,,,,,,,,,,,,8,f,1,17,r,MS,49,49,2022_Jul_14_1330,2020.2.10,distractmap1,60.009601537749994,"['Left Face', 'Chest', 'Left Face', 'Chest']",
8,"[0, -0.2]",1,0,9,9,9,,,None,None,"[0, 0, 0]",1346.5997348999954,1348.5997594,1346.5997348999954,1347.6000308000002,1347.5833769999954,1348.583097499999,"[0, 0, 0]",1,1346.5997348999954,1348.5997594,,,,,,,,,,,,,,,,,,,8,f,1,17,r,MS,49,49,2022_Jul_14_1330,2020.2.10,distractmap1,60.009601537749994,"['Left Face', 'Chest', 'Left Face', 'Chest']",
,,,,,,,,,,,,,,,,,,,,,,1348.6163673999981,None,,,,,,,,,,,,,,,,,8,f,1,17,r,MS,49,49,2022_Jul_14_1330,2020.2.10,distractmap1,60.009601537749994,"['Left Face', 'Chest', 'Left Face', 'Chest']",
,,,,,,,1378.6333658000003,None,,,,,,,,,,,,,,,,,,,,,,,,,,34.5679012345679,1370.8394652700008,,,1358.6331768000018,None,8,f,1,17,r,MS,49,49,2022_Jul_14_1330,2020.2.10,distractmap1,60.009601537749994,"['Left Face', 'Chest', 'Left Face', 'Chest']",
,,,,,,,1413.6503311999986,None,,,,,,,,,,,,,,,,,,,,,,,,,,33.14814814814815,1403.7082919699897,0.016636729997117072,5.016117929997563,1393.650146699998,None,8,f,1,17,r,MS,49,49,2022_Jul_14_1330,2020.2.10,distractmap1,60.009601537749994,"['Left Face', 'Chest', 'Left Face', 'Chest']",
,,,,,,,1448.6673018000001,None,,,,,,,,,,,,,,,,,,,,,,,,,,37.901234567901234,1435.2091726699946,0.014807030005613342,5.012451630005671,1428.6671350999968,None,8,f,1,17,r,MS,49,49,2022_Jul_14_1330,2020.2.10,distractmap1,60.009601537749994,"['Left Face', 'Chest', 'Left Face', 'Chest']",
2,"[0, 0.2]",None,0,0,0,0,1552.618483899998,None,None,None,"[0, 0, 0]",1558.7016316000008,1560.7016425999973,1558.7016316000008,1559.701625499998,1559.684962499996,1560.6849663999965,"[0, 0, 0]",1,1558.7016316000008,1560.7016425999973,,,,,,,,,,,,,,,0.014201830003003124,5.011210529999516,1523.6679795000018,None,8,f,1,17,r,MS,49,49,2022_Jul_14_1330,2020.2.10,distractmap1,60.009601537749994,"['Left Face', 'Chest', 'Left Face', 'Chest']",
2,"[0, 0.2]",None,0,1,1,1,,,None,None,"[0, 0, 0]",1560.7182928999973,1562.718318799998,1560.7182928999973,1561.7183175999962,1561.7016427999988,1562.7016548999964,"[0, 0, 0]",1,1560.7182928999973,1562.718318799998,,,,,,,,,,,,,,,,,,,8,f,1,17,r,MS,49,49,2022_Jul_14_1330,2020.2.10,distractmap1,60.009601537749994,"['Left Face', 'Chest', 'Left Face', 'Chest']",
2,"[0, 0.2]",1,0,2,2,2,,,None,None,"[0, 0, 0]",1562.7349710999988,1564.7349748999986,1562.7349710999988,1563.7348914999966,1563.7183203000022,1564.718341599997,"[0, 0, 0]",1,1562.7349710999988,1564.7349748999986,,,,,,,,,,,,,,,,,,,8,f,1,17,r,MS,49,49,2022_Jul_14_1330,2020.2.10,distractmap1,60.009601537749994,"['Left Face', 'Chest', 'Left Face', 'Chest']",
8,"[0, -0.2]",0,0,3,3,3,,,None,None,"[0, 0, 0]",1564.751675499996,1566.751695699997,1564.751675499996,1565.751683800001,1565.735001299996,1566.735022599998,"[0, 0, 0]",1,1564.751675499996,1566.751695699997,,,,,,,,,,,,,,,,,,,8,f,1,17,r,MS,49,49,2022_Jul_14_1330,2020.2.10,distractmap1,60.009601537749994,"['Left Face', 'Chest', 'Left Face', 'Chest']",
2,"[0, 0.2]",1,0,4,4,4,,,None,None,"[0, 0, 0]",1566.8186577000015,None,1566.8186577000015,1567.8183659999995,1567.801690100001,None,"[0, 0, 0]",1,1566.8186577000015,None,,,,,,,,,,,,,,,,,,,8,f,1,17,r,MS,49,49,2022_Jul_14_1330,2020.2.10,distractmap1,60.009601537749994,"['Left Face', 'Chest', 'Left Face', 'Chest']",
5,"[0, 0]",0,0,5,5,5,,,None,None,"[0, 0, 0]",1568.785040900002,1570.7850581999955,1568.785040900002,1569.7850532000011,1569.7683810000017,1570.7683816999997,"[0, 0, 0]",1,1568.785040900002,1570.7850581999955,,,,,,,,,,,,,,,,,,,8,f,1,17,r,MS,49,49,2022_Jul_14_1330,2020.2.10,distractmap1,60.009601537749994,"['Left Face', 'Chest', 'Left Face', 'Chest']",
1,"[-0.2, 0.2]",0,0,6,6,6,,,None,None,"[0, 0, 0]",1570.8017290999996,1572.8017345999979,1570.8017290999996,1571.8017455000008,1571.7850622999977,1572.785085800002,"[0, 0, 0]",1,1570.8017290999996,1572.8017345999979,,,,,,,,,,,,,,,,,,,8,f,1,17,r,MS,49,49,2022_Jul_14_1330,2020.2.10,distractmap1,60.009601537749994,"['Left Face', 'Chest', 'Left Face', 'Chest']",
1,"[-0.2, 0.2]",0,0,7,7,7,,,None,None,"[0, 0, 0]",1572.8183957,1574.8184271999999,1572.8183957,1573.8184495999958,1573.8017904000008,1574.8017688999971,"[0, 0, 0]",1,1572.8183957,1574.8184271999999,,,,,,,,,,,,,,,,,,,8,f,1,17,r,MS,49,49,2022_Jul_14_1330,2020.2.10,distractmap1,60.009601537749994,"['Left Face', 'Chest', 'Left Face', 'Chest']",
6,"[0.2, 0]",0,0,8,8,8,,,None,None,"[0, 0, 0]",1574.8350852000003,1576.8351115999976,1574.8350852000003,1575.8350925999985,1575.818336700002,1576.8184446000014,"[0, 0, 0]",1,1574.8350852000003,1576.8351115999976,,,,,,,,,,,,,,,,,,,8,f,1,17,r,MS,49,49,2022_Jul_14_1330,2020.2.10,distractmap1,60.009601537749994,"['Left Face', 'Chest', 'Left Face', 'Chest']",
1,"[-0.2, 0.2]",1,0,9,9,9,,,None,None,"[0, 0, 0]",1576.851778700002,1578.851782699996,1576.851778700002,1577.8518020999982,1577.835113299996,1578.8351244000005,"[0, 0, 0]",1,1576.851778700002,1578.851782699996,,,,,,,,,,,,,,,,,,,8,f,1,17,r,MS,49,49,2022_Jul_14_1330,2020.2.10,distractmap1,60.009601537749994,"['Left Face', 'Chest', 'Left Face', 'Chest']",
,,,,,,,,,,,,,,,,,,,,,,1578.868453199997,None,,,,,,,,,,,,,,,,,8,f,1,17,r,MS,49,49,2022_Jul_14_1330,2020.2.10,distractmap1,60.009601537749994,"['Left Face', 'Chest', 'Left Face', 'Chest']",
,,,,,,,,,,,,,,,,,,,,,,,,,,,,,,,,,,31.913580246913583,1566.44457236999,,,,,8,f,1,17,r,MS,49,49,2022_Jul_14_1330,2020.2.10,distractmap1,60.009601537749994,"['Left Face', 'Chest', 'Left Face', 'Chest']",
3,"[0.2, 0.2]",None,0,0,0,0,1594.102076199997,None,None,None,"[0, 0, 0]",1598.901969599996,1600.9019800000024,1598.901969599996,1599.9019923000014,1599.8853192000024,1600.8853164999964,"[0, 0, 0]",1,1598.901969599996,1600.9019800000024,,,,,,,,,,,,,,,0.013255130004836246,5.009291830006987,,,8,f,1,17,r,MS,49,49,2022_Jul_14_1330,2020.2.10,distractmap1,60.009601537749994,"['Left Face', 'Chest', 'Left Face', 'Chest']",
3,"[0.2, 0.2]",None,0,1,1,1,,,None,None,"[0, 0, 0]",1600.9186700999999,1602.9187305000014,1600.9186700999999,1601.918673399996,1601.9019981999954,1602.9019075999968,"[0, 0, 0]",1,1600.9186700999999,1602.9187305000014,,,,,,,,,,,,,,,,,,,8,f,1,17,r,MS,49,49,2022_Jul_14_1330,2020.2.10,distractmap1,60.009601537749994,"['Left Face', 'Chest', 'Left Face', 'Chest']",
5,"[0, 0]",0,0,2,2,2,,,None,None,"[0, 0, 0]",1602.9353807000007,1604.9353618999958,1602.9353807000007,1603.9353430999981,1603.9186958999999,1604.9187019999954,"[0, 0, 0]",1,1602.9353807000007,1604.9353618999958,,,,,,,,,,,,,,,,,,,8,f,1,17,r,MS,49,49,2022_Jul_14_1330,2020.2.10,distractmap1,60.009601537749994,"['Left Face', 'Chest', 'Left Face', 'Chest']",
1,"[-0.2, 0.2]",0,0,3,3,3,,,None,None,"[0, 0, 0]",1604.952033499998,1606.9519396999967,1604.952033499998,1605.9520463000008,1605.9353601999974,1606.9353776999997,"[0, 0, 0]",1,1604.952033499998,1606.9519396999967,,,,,,,,,,,,,,,,,,,8,f,1,17,r,MS,49,49,2022_Jul_14_1330,2020.2.10,distractmap1,60.009601537749994,"['Left Face', 'Chest', 'Left Face', 'Chest']",
5,"[0, 0]",1,0,4,4,4,,,None,None,"[0, 0, 0]",1607.0015377000018,None,1607.0015377000018,1608.0019945000022,1608.0019945000022,None,"[0, 0, 0]",1,1607.0015377000018,None,,,,,,,,,,,,,,,,,,,8,f,1,17,r,MS,49,49,2022_Jul_14_1330,2020.2.10,distractmap1,60.009601537749994,"['Left Face', 'Chest', 'Left Face', 'Chest']",
8,"[0, -0.2]",0,0,5,5,5,,,None,None,"[0, 0, 0]",1608.9853987000024,1610.9854190999977,1608.9853987000024,1609.985395399999,1609.9687312999959,1610.9687583999985,"[0, 0, 0]",1,1608.9853987000024,1610.9854190999977,,,,,,,,,,,,,,,,,,,8,f,1,17,r,MS,49,49,2022_Jul_14_1330,2020.2.10,distractmap1,60.009601537749994,"['Left Face', 'Chest', 'Left Face', 'Chest']",
5,"[0, 0]",1,0,6,6,6,,,None,None,"[0, 0, 0]",1611.0020664999975,1613.0021025000024,1611.0020664999975,1612.0020933999986,1611.9854123999976,1612.9854242000001,"[0, 0, 0]",1,1611.0020664999975,1613.0021025000024,,,,,,,,,,,,,,,,,,,8,f,1,17,r,MS,49,49,2022_Jul_14_1330,2020.2.10,distractmap1,60.009601537749994,"['Left Face', 'Chest', 'Left Face', 'Chest']",
7,"[-0.2, -0.2]",0,0,7,7,7,,,None,None,"[0, 0, 0]",1613.0186433999988,1615.0187867999994,1613.0186433999988,1614.018767900001,1614.0020997999964,1615.0021158000018,"[0, 0, 0]",1,1613.0186433999988,1615.0187867999994,,,,,,,,,,,,,,,,,,,8,f,1,17,r,MS,49,49,2022_Jul_14_1330,2020.2.10,distractmap1,60.009601537749994,"['Left Face', 'Chest', 'Left Face', 'Chest']",
5,"[0, 0]",1,0,8,8,8,,,None,None,"[0, 0, 0]",1615.0354361999998,1617.0354771999991,1615.0354361999998,1616.0354574000012,1616.0187968999962,1617.0187957000016,"[0, 0, 0]",1,1615.0354361999998,1617.0354771999991,,,,,,,,,,,,,,,,,,,8,f,1,17,r,MS,49,49,2022_Jul_14_1330,2020.2.10,distractmap1,60.009601537749994,"['Left Face', 'Chest', 'Left Face', 'Chest']",
7,"[-0.2, -0.2]",1,0,9,9,9,,,None,None,"[0, 0, 0]",1617.052125000002,1619.0521432000023,1617.052125000002,1618.0521291999976,1618.0354695999995,1619.035483300002,"[0, 0, 0]",1,1617.052125000002,1619.0521432000023,,,,,,,,,,,,,,,,,,,8,f,1,17,r,MS,49,49,2022_Jul_14_1330,2020.2.10,distractmap1,60.009601537749994,"['Left Face', 'Chest', 'Left Face', 'Chest']",
,,,,,,,,,,,,,,,,,,,,,,1619.0688195999974,None,,,,,,,,,,,,,,,,,8,f,1,17,r,MS,49,49,2022_Jul_14_1330,2020.2.10,distractmap1,60.009601537749994,"['Left Face', 'Chest', 'Left Face', 'Chest']",
,,,,,,,,,,,,,,,,,,,,,,,,,,,,,,,,,,32.407407407407405,1607.31139617,,,,,8,f,1,17,r,MS,49,49,2022_Jul_14_1330,2020.2.10,distractmap1,60.009601537749994,"['Left Face', 'Chest', 'Left Face', 'Chest']",
6,"[0.2, 0]",None,0,0,0,0,1634.3190218000018,None,None,None,"[0, 0, 0]",1639.0856754999986,1641.085687699997,1639.0856754999986,1640.0856604,1640.0690030999976,1641.0690055000014,"[0, 0, 0]",1,1639.0856754999986,1641.085687699997,,,,,,,,,,,,,,,0.01349672999640461,5.009867929991742,,,8,f,1,17,r,MS,49,49,2022_Jul_14_1330,2020.2.10,distractmap1,60.009601537749994,"['Left Face', 'Chest', 'Left Face', 'Chest']",
1,"[-0.2, 0.2]",None,0,1,1,1,,,None,None,"[0, 0, 0]",1641.102347699998,1643.1023797000016,1641.102347699998,1642.1023510000014,1642.0856847999967,1643.0856949000008,"[0, 0, 0]",1,1641.102347699998,1643.1023797000016,,,,,,,,,,,,,,,,,,,8,f,1,17,r,MS,49,49,2022_Jul_14_1330,2020.2.10,distractmap1,60.009601537749994,"['Left Face', 'Chest', 'Left Face', 'Chest']",
6,"[0.2, 0]",1,0,2,2,2,,,None,None,"[0, 0, 0]",1643.119022699997,1645.119048200002,1643.119022699997,1644.1190318000008,1644.1023682000014,1645.1023791999978,"[0, 0, 0]",1,1643.119022699997,1645.119048200002,,,,,,,,,,,,,,,,,,,8,f,1,17,r,MS,49,49,2022_Jul_14_1330,2020.2.10,distractmap1,60.009601537749994,"['Left Face', 'Chest', 'Left Face', 'Chest']",
4,"[-0.2, 0]",0,0,3,3,3,,,None,None,"[0, 0, 0]",1645.1357243999955,1647.135740400001,1645.1357243999955,1646.1359846999985,1646.1193306999994,1647.119054499999,"[0, 0, 0]",1,1645.1357243999955,1647.135740400001,,,,,,,,,,,,,,,,,,,8,f,1,17,r,MS,49,49,2022_Jul_14_1330,2020.2.10,distractmap1,60.009601537749994,"['Left Face', 'Chest', 'Left Face', 'Chest']",
1,"[-0.2, 0.2]",0,0,4,4,4,,,None,None,"[0, 0, 0]",1647.1857636999994,None,1647.1857636999994,1648.1857442999972,1648.169060399996,None,"[0, 0, 0]",0,1647.1857636999994,None,,,,,,,,,,,,,,,,,,,8,f,1,17,r,MS,49,49,2022_Jul_14_1330,2020.2.10,distractmap1,60.009601537749994,"['Left Face', 'Chest', 'Left Face', 'Chest']",
8,"[0, -0.2]",0,0,5,5,5,,,None,None,"[0, 0, 0]",1649.169087000002,1651.1690969999981,1649.169087000002,1650.1690795999966,1650.152427000001,1651.1524391999992,"[0, 0, 0]",1,1649.169087000002,1651.1690969999981,,,,,,,,,,,,,,,,,,,8,f,1,17,r,MS,49,49,2022_Jul_14_1330,2020.2.10,distractmap1,60.009601537749994,"['Left Face', 'Chest', 'Left Face', 'Chest']",
1,"[-0.2, 0.2]",1,0,6,6,6,,,None,None,"[0, 0, 0]",1651.1857631999956,1653.1857605999976,1651.1857631999956,1652.1857693999991,1652.1691133999993,1653.169121400002,"[0, 0, 0]",1,1651.1857631999956,1653.1857605999976,,,,,,,,,,,,,,,,,,,8,f,1,17,r,MS,49,49,2022_Jul_14_1330,2020.2.10,distractmap1,60.009601537749994,"['Left Face', 'Chest', 'Left Face', 'Chest']",
8,"[0, -0.2]",1,0,7,7,7,,,None,None,"[0, 0, 0]",1653.2024710999976,1655.2024775999962,1653.2024710999976,1654.2024537999969,1654.1858051000017,1655.1858072999967,"[0, 0, 0]",1,1653.2024710999976,1655.2024775999962,,,,,,,,,,,,,,,,,,,8,f,1,17,r,MS,49,49,2022_Jul_14_1330,2020.2.10,distractmap1,60.009601537749994,"['Left Face', 'Chest', 'Left Face', 'Chest']",
1,"[-0.2, 0.2]",1,0,8,8,8,,,None,None,"[0, 0, 0]",1655.2191307999965,1657.219151899997,1655.2191307999965,1656.219402900002,1656.2027552,1657.202491600001,"[0, 0, 0]",1,1655.2191307999965,1657.219151899997,,,,,,,,,,,,,,,,,,,8,f,1,17,r,MS,49,49,2022_Jul_14_1330,2020.2.10,distractmap1,60.009601537749994,"['Left Face', 'Chest', 'Left Face', 'Chest']",
6,"[0.2, 0]",0,0,9,9,9,,,None,None,"[0, 0, 0]",1657.2358316999962,1659.2358416999996,1657.2358316999962,1658.2358385999978,1658.219161000001,1659.2191663999984,"[0, 0, 0]",1,1657.2358316999962,1659.2358416999996,,,,,,,,,,,,,,,,,,,8,f,1,17,r,MS,49,49,2022_Jul_14_1330,2020.2.10,distractmap1,60.009601537749994,"['Left Face', 'Chest', 'Left Face', 'Chest']",
,,,,,,,,,,,,,,,,,,,,,,1659.2525079999978,None,,,,,,,,,,,,,,,,,8,f,1,17,r,MS,49,49,2022_Jul_14_1330,2020.2.10,distractmap1,60.009601537749994,"['Left Face', 'Chest', 'Left Face', 'Chest']",
,,,,,,,,,,,,,,,,,,,,,,,,,,,,,,,,,,27.34567901234568,1646.4288877699946,,,,,8,f,1,17,r,MS,49,49,2022_Jul_14_1330,2020.2.10,distractmap1,60.009601537749994,"['Left Face', 'Chest', 'Left Face', 'Chest']",
,,,,,,,1694.2694843999998,None,,,,,,,,,,,,,,,,,,,,,,,,,,39.19753086419753,1679.6773960700011,0.012996630000998266,5.008860829999321,1674.2692954000013,None,8,f,1,17,r,MS,49,49,2022_Jul_14_1330,2020.2.10,distractmap1,60.009601537749994,"['Left Face', 'Chest', 'Left Face', 'Chest']",
,,,,,,,1729.2864598000015,None,,,,,,,,,,,,,,,,,,,,,,,,,,36.851851851851855,1719.3425745700006,0.01480362999427598,5.012470729998313,1709.286286399998,None,8,f,1,17,r,MS,49,49,2022_Jul_14_1330,2020.2.10,distractmap1,60.009601537749994,"['Left Face', 'Chest', 'Left Face', 'Chest']",
,,,,,,,1764.3034327999994,None,,,,,,,,,,,,,,,,,,,,,,,,,,39.876543209876544,1751.4928596699974,0.016649929995764978,5.0161546299932525,1744.3032558999985,None,8,f,1,17,r,MS,49,49,2022_Jul_14_1330,2020.2.10,distractmap1,60.009601537749994,"['Left Face', 'Chest', 'Left Face', 'Chest']",
,,,,,,,2096.2230261000004,None,,,,,,,,,,,,,,,,,,,1889.487901499997,1889.487901499997,None,space,67.84991679999803,1889.487901499997,None,25.432098765432098,2083.347410369992,0.016651029996864963,5.0161641300001065,2076.2228592999963,None,8,f,1,17,r,MS,49,49,2022_Jul_14_1330,2020.2.10,distractmap1,60.009601537749994,"['Left Face', 'Chest', 'Left Face', 'Chest']",
,,,,,,,2131.2400282000017,None,,,,,,,,,,,,,,,,,,,,,,,,,,22.037037037037035,2120.9477030699927,0.015009330003522336,5.012898430002679,2111.239864700001,None,8,f,1,17,r,MS,49,49,2022_Jul_14_1330,2020.2.10,distractmap1,60.009601537749994,"['Left Face', 'Chest', 'Left Face', 'Chest']",
,,,,,,,2166.2569948999953,None,,,,,,,,,,,,,,,,,,,,,,,,,,20.308641975308642,2156.496418669987,0.015095230002771132,5.013088430008793,2146.2567904000025,None,8,f,1,17,r,MS,49,49,2022_Jul_14_1330,2020.2.10,distractmap1,60.009601537749994,"['Left Face', 'Chest', 'Left Face', 'Chest']",
7,"[-0.2, -0.2]",None,0,0,0,0,2181.5077703999996,None,None,None,"[0, 0, 0]",2186.290462899997,2188.2905175999986,2186.290462899997,2187.2905075000017,2187.2738377999995,2188.2738402999967,"[0, 0, 0]",1,2186.290462899997,2188.2905175999986,,,,,,,,,,,,,,,0.01665843000955647,5.0162842300051125,,,8,f,1,17,r,MS,49,49,2022_Jul_14_1330,2020.2.10,distractmap1,60.009601537749994,"['Left Face', 'Chest', 'Left Face', 'Chest']",
7,"[-0.2, -0.2]",None,0,1,1,1,,,None,None,"[0, 0, 0]",2188.3072140000004,2190.3071979000015,2188.3072140000004,2189.3071906999976,2189.2905237000014,2190.2905276999954,"[0, 0, 0]",1,2188.3072140000004,2190.3071979000015,,,,,,,,,,,,,,,,,,,8,f,1,17,r,MS,49,49,2022_Jul_14_1330,2020.2.10,distractmap1,60.009601537749994,"['Left Face', 'Chest', 'Left Face', 'Chest']",
7,"[-0.2, -0.2]",1,0,2,2,2,,,None,None,"[0, 0, 0]",2190.323874599999,2192.323881899996,2190.323874599999,2191.3238933999965,2191.307196199996,2192.3072066000022,"[0, 0, 0]",1,2190.323874599999,2192.323881899996,,,,,,,,,,,,,,,,,,,8,f,1,17,r,MS,49,49,2022_Jul_14_1330,2020.2.10,distractmap1,60.009601537749994,"['Left Face', 'Chest', 'Left Face', 'Chest']",
5,"[0, 0]",0,0,3,3,3,,,None,None,"[0, 0, 0]",2192.340548399996,2194.340570399996,2192.340548399996,2193.340608899998,2193.323891,2194.323787399997,"[0, 0, 0]",1,2192.340548399996,2194.340570399996,,,,,,,,,,,,,,,,,,,8,f,1,17,r,MS,49,49,2022_Jul_14_1330,2020.2.10,distractmap1,60.009601537749994,"['Left Face', 'Chest', 'Left Face', 'Chest']",
1,"[-0.2, 0.2]",0,0,4,4,4,,,None,None,"[0, 0, 0]",2194.4075540999984,None,2194.4075540999984,2195.4072381000005,2195.3905805999966,None,"[0, 0, 0]",1,2194.4075540999984,None,,,,,,,,,,,,,,,,,,,8,f,1,17,r,MS,49,49,2022_Jul_14_1330,2020.2.10,distractmap1,60.009601537749994,"['Left Face', 'Chest', 'Left Face', 'Chest']",
6,"[0.2, 0]",0,0,5,5,5,,,None,None,"[0, 0, 0]",2196.373910399998,2198.3739733999973,2196.373910399998,2197.3739228999984,2197.357258899996,2198.3572530999954,"[0, 0, 0]",1,2196.373910399998,2198.3739733999973,,,,,,,,,,,,,,,,,,,8,f,1,17,r,MS,49,49,2022_Jul_14_1330,2020.2.10,distractmap1,60.009601537749994,"['Left Face', 'Chest', 'Left Face', 'Chest']",
1,"[-0.2, 0.2]",1,0,6,6,6,,,None,None,"[0, 0, 0]",2198.390606699999,2200.390635399999,2198.390606699999,2199.3906053999963,2199.3739521000025,2200.3739337000006,"[0, 0, 0]",1,2198.390606699999,2200.390635399999,,,,,,,,,,,,,,,,,,,8,f,1,17,r,MS,49,49,2022_Jul_14_1330,2020.2.10,distractmap1,60.009601537749994,"['Left Face', 'Chest', 'Left Face', 'Chest']",
7,"[-0.2, -0.2]",0,0,7,7,7,,,None,None,"[0, 0, 0]",2200.4072899999956,2202.4073081000024,2200.4072899999956,2201.407288800001,2201.3906357000014,2202.3906374,"[0, 0, 0]",1,2200.4072899999956,2202.4073081000024,,,,,,,,,,,,,,,,,,,8,f,1,17,r,MS,49,49,2022_Jul_14_1330,2020.2.10,distractmap1,60.009601537749994,"['Left Face', 'Chest', 'Left Face', 'Chest']",
6,"[0.2, 0]",0,0,8,8,8,,,None,None,"[0, 0, 0]",2202.423979899999,2204.423995799996,2202.423979899999,2203.4239796999973,2203.4073113999984,2204.407321300001,"[0, 0, 0]",1,2202.423979899999,2204.423995799996,,,,,,,,,,,,,,,,,,,8,f,1,17,r,MS,49,49,2022_Jul_14_1330,2020.2.10,distractmap1,60.009601537749994,"['Left Face', 'Chest', 'Left Face', 'Chest']",
7,"[-0.2, -0.2]",1,0,9,9,9,,,None,None,"[0, 0, 0]",2204.4406531999994,2206.4406777999975,2204.4406531999994,2205.4406740999984,2205.4239985999957,2206.4240016999975,"[0, 0, 0]",1,2204.4406531999994,2206.4406777999975,,,,,,,,,,,,,,,,,,,8,f,1,17,r,MS,49,49,2022_Jul_14_1330,2020.2.10,distractmap1,60.009601537749994,"['Left Face', 'Chest', 'Left Face', 'Chest']",
,,,,,,,,,,,,,,,,,,,,,,2206.4573460999964,None,,,,,,,,,,,,,,,,,8,f,1,17,r,MS,49,49,2022_Jul_14_1330,2020.2.10,distractmap1,60.009601537749994,"['Left Face', 'Chest', 'Left Face', 'Chest']",
,,,,,,,,,,,,,,,,,,,,,,,,,,,,,,,,,,18.580246913580247,2198.3996648699904,,,,,8,f,1,17,r,MS,49,49,2022_Jul_14_1330,2020.2.10,distractmap1,60.009601537749994,"['Left Face', 'Chest', 'Left Face', 'Chest']",
4,"[-0.2, 0]",None,0,0,0,0,2223.7077768000017,None,None,None,"[0, 0, 0]",2226.4908469,2228.4908701999957,2226.4908469,2227.4908615999957,2227.4741874999963,2228.474194000002,"[0, 0, 0]",1,2226.4908469,2228.4908701999957,,,,,,,,,,,,,,,0.01378163000481436,5.010402930005512,,,8,f,1,17,r,MS,49,49,2022_Jul_14_1330,2020.2.10,distractmap1,60.009601537749994,"['Left Face', 'Chest', 'Left Face', 'Chest']",
5,"[0, 0]",None,0,1,1,1,,,None,None,"[0, 0, 0]",2228.5075436999978,2230.5075584000006,2228.5075436999978,2229.5075381999995,2229.4908727,2230.4908949999954,"[0, 0, 0]",1,2228.5075436999978,2230.5075584000006,,,,,,,,,,,,,,,,,,,8,f,1,17,r,MS,49,49,2022_Jul_14_1330,2020.2.10,distractmap1,60.009601537749994,"['Left Face', 'Chest', 'Left Face', 'Chest']",
6,"[0.2, 0]",0,0,2,2,2,,,None,None,"[0, 0, 0]",2230.524251900002,2232.5242259000006,2230.524251900002,2231.5242236999984,2231.5075702999966,2232.5075756000006,"[0, 0, 0]",1,2230.524251900002,2232.5242259000006,,,,,,,,,,,,,,,,,,,8,f,1,17,r,MS,49,49,2022_Jul_14_1330,2020.2.10,distractmap1,60.009601537749994,"['Left Face', 'Chest', 'Left Face', 'Chest']",
1,"[-0.2, 0.2]",0,0,3,3,3,,,None,None,"[0, 0, 0]",2232.5409033999968,2234.540927000002,2232.5409033999968,2233.5409042999963,2233.5242474999977,2234.524256500001,"[0, 0, 0]",1,2232.5409033999968,2234.540927000002,,,,,,,,,,,,,,,,,,,8,f,1,17,r,MS,49,49,2022_Jul_14_1330,2020.2.10,distractmap1,60.009601537749994,"['Left Face', 'Chest', 'Left Face', 'Chest']",
6,"[0.2, 0]",1,0,4,4,4,,,None,None,"[0, 0, 0]",2234.6078922000015,None,2234.6078922000015,2235.607590200001,2235.590941399998,None,"[0, 0, 0]",1,2234.6078922000015,None,,,,,,,,,,,,,,,,,,,8,f,1,17,r,MS,49,49,2022_Jul_14_1330,2020.2.10,distractmap1,60.009601537749994,"['Left Face', 'Chest', 'Left Face', 'Chest']",
1,"[-0.2, 0.2]",1,0,5,5,5,,,None,None,"[0, 0, 0]",2236.5742714000007,2238.5742889999965,2236.5742714000007,2237.5742820000014,2237.5576023999965,2238.5576229,"[0, 0, 0]",1,2236.5742714000007,2238.5742889999965,,,,,,,,,,,,,,,,,,,8,f,1,17,r,MS,49,49,2022_Jul_14_1330,2020.2.10,distractmap1,60.009601537749994,"['Left Face', 'Chest', 'Left Face', 'Chest']",
2,"[0, 0.2]",0,0,6,6,6,,,None,None,"[0, 0, 0]",2238.590959299996,2240.590971400001,2238.590959299996,2239.590975799998,2239.574289199998,2240.574303100002,"[0, 0, 0]",1,2238.590959299996,2240.590971400001,,,,,,,,,,,,,,,,,,,8,f,1,17,r,MS,49,49,2022_Jul_14_1330,2020.2.10,distractmap1,60.009601537749994,"['Left Face', 'Chest', 'Left Face', 'Chest']",
3,"[0.2, 0.2]",0,0,7,7,7,,,None,None,"[0, 0, 0]",2240.607645199998,2242.6076544000025,2240.607645199998,2241.6076491999993,2241.5909868000017,2242.5910038,"[0, 0, 0]",1,2240.607645199998,2242.6076544000025,,,,,,,,,,,,,,,,,,,8,f,1,17,r,MS,49,49,2022_Jul_14_1330,2020.2.10,distractmap1,60.009601537749994,"['Left Face', 'Chest', 'Left Face', 'Chest']",
6,"[0.2, 0]",0,0,8,8,8,,,None,None,"[0, 0, 0]",2242.624329899998,2244.624337000001,2242.624329899998,2243.624343700001,2243.607661000002,2244.6076732,"[0, 0, 0]",1,2242.624329899998,2244.624337000001,,,,,,,,,,,,,,,,,,,8,f,1,17,r,MS,49,49,2022_Jul_14_1330,2020.2.10,distractmap1,60.009601537749994,"['Left Face', 'Chest', 'Left Face', 'Chest']",
3,"[0.2, 0.2]",1,0,9,9,9,,,None,None,"[0, 0, 0]",2244.6410117999985,2246.6410401999965,2244.6410117999985,2245.6410203999985,2245.6243499999982,2246.6243665,"[0, 0, 0]",1,2244.6410117999985,2246.6410401999965,,,,,,,,,,,,,,,,,,,8,f,1,17,r,MS,49,49,2022_Jul_14_1330,2020.2.10,distractmap1,60.009601537749994,"['Left Face', 'Chest', 'Left Face', 'Chest']",
,,,,,,,,,,,,,,,,,,,,,,2246.6577061999997,None,,,,,,,,,,,,,,,,,8,f,1,17,r,MS,49,49,2022_Jul_14_1330,2020.2.10,distractmap1,60.009601537749994,"['Left Face', 'Chest', 'Left Face', 'Chest']",
,,,,,,,,,,,,,,,,,,,,,,,,,,,,,,,,,,17.28395061728395,2234.900678369995,,,,,8,f,1,17,r,MS,49,49,2022_Jul_14_1330,2020.2.10,distractmap1,60.009601537749994,"['Left Face', 'Chest', 'Left Face', 'Chest']",
2,"[0, 0.2]",None,0,0,0,0,2259.9082854000008,None,None,None,"[0, 0, 0]",2266.6911937999976,2268.6912268000015,2266.6911937999976,2267.6912871999957,2267.674542599998,2268.6745434999975,"[0, 0, 0]",1,2266.6911937999976,2268.6912268000015,,,,,,,,,,,,,,,0.013095730006170925,5.009181630004605,,,8,f,1,17,r,MS,49,49,2022_Jul_14_1330,2020.2.10,distractmap1,60.009601537749994,"['Left Face', 'Chest', 'Left Face', 'Chest']",
5,"[0, 0]",None,0,1,1,1,,,None,None,"[0, 0, 0]",2268.707897399996,2270.707921100002,2268.707897399996,2269.7079005999985,2269.6912319999974,2270.6912443999972,"[0, 0, 0]",1,2268.707897399996,2270.707921100002,,,,,,,,,,,,,,,,,,,8,f,1,17,r,MS,49,49,2022_Jul_14_1330,2020.2.10,distractmap1,60.009601537749994,"['Left Face', 'Chest', 'Left Face', 'Chest']",
6,"[0.2, 0]",0,0,2,2,2,,,None,None,"[0, 0, 0]",2270.7245631999976,2272.724593400002,2270.7245631999976,2271.724570999999,2271.7079314000002,2272.7079308999964,"[0, 0, 0]",1,2270.7245631999976,2272.724593400002,,,,,,,,,,,,,,,,,,,8,f,1,17,r,MS,49,49,2022_Jul_14_1330,2020.2.10,distractmap1,60.009601537749994,"['Left Face', 'Chest', 'Left Face', 'Chest']",
1,"[-0.2, 0.2]",0,0,3,3,3,,,None,None,"[0, 0, 0]",2272.7412705000024,2274.741286700002,2272.7412705000024,2273.7412656000015,2273.724591899998,2274.7245995999983,"[0, 0, 0]",1,2272.7412705000024,2274.741286700002,,,,,,,,,,,,,,,,,,,8,f,1,17,r,MS,49,49,2022_Jul_14_1330,2020.2.10,distractmap1,60.009601537749994,"['Left Face', 'Chest', 'Left Face', 'Chest']",
6,"[0.2, 0]",1,0,4,4,4,,,None,None,"[0, 0, 0]",2274.8080262000003,None,2274.8080262000003,2275.8079432000013,2275.791382399999,None,"[0, 0, 0]",1,2274.8080262000003,None,,,,,,,,,,,,,,,,,,,8,f,1,17,r,MS,49,49,2022_Jul_14_1330,2020.2.10,distractmap1,60.009601537749994,"['Left Face', 'Chest', 'Left Face', 'Chest']",
6,"[0.2, 0]",0,0,5,5,5,,,None,None,"[0, 0, 0]",2276.774628799998,2278.774634399997,2276.774628799998,2277.774632200002,2277.7579865000007,2278.7579991999955,"[0, 0, 0]",1,2276.774628799998,2278.774634399997,,,,,,,,,,,,,,,,,,,8,f,1,17,r,MS,49,49,2022_Jul_14_1330,2020.2.10,distractmap1,60.009601537749994,"['Left Face', 'Chest', 'Left Face', 'Chest']",
9,"[0.2, -0.2]",0,0,6,6,6,,,None,None,"[0, 0, 0]",2278.791309399996,2280.7913334999976,2278.791309399996,2279.7913253000006,2279.774663600001,2280.7746610999966,"[0, 0, 0]",1,2278.791309399996,2280.7913334999976,,,,,,,,,,,,,,,,,,,8,f,1,17,r,MS,49,49,2022_Jul_14_1330,2020.2.10,distractmap1,60.009601537749994,"['Left Face', 'Chest', 'Left Face', 'Chest']",
6,"[0.2, 0]",1,0,7,7,7,,,None,None,"[0, 0, 0]",2280.808001999998,2282.8080109,2280.808001999998,2281.8080069999996,2281.7913377000004,2282.7913513999956,"[0, 0, 0]",1,2280.808001999998,2282.8080109,,,,,,,,,,,,,,,,,,,8,f,1,17,r,MS,49,49,2022_Jul_14_1330,2020.2.10,distractmap1,60.009601537749994,"['Left Face', 'Chest', 'Left Face', 'Chest']",
3,"[0.2, 0.2]",0,0,8,8,8,,,None,None,"[0, 0, 0]",2282.8246765000004,2284.8246956000003,2282.8246765000004,2283.824701400001,2283.8080262000003,2284.808025999999,"[0, 0, 0]",1,2282.8246765000004,2284.8246956000003,,,,,,,,,,,,,,,,,,,8,f,1,17,r,MS,49,49,2022_Jul_14_1330,2020.2.10,distractmap1,60.009601537749994,"['Left Face', 'Chest', 'Left Face', 'Chest']",
9,"[0.2, -0.2]",0,0,9,9,9,,,None,None,"[0, 0, 0]",2284.8413647999987,2286.8413759999967,2284.8413647999987,2285.841370299997,2285.8247137,2286.8247311000014,"[0, 0, 0]",1,2284.8413647999987,2286.8413759999967,,,,,,,,,,,,,,,,,,,8,f,1,17,r,MS,49,49,2022_Jul_14_1330,2020.2.10,distractmap1,60.009601537749994,"['Left Face', 'Chest', 'Left Face', 'Chest']",
,,,,,,,,,,,,,,,,,,,,,,2286.8579341000004,None,,,,,,,,,,,,,,,,,8,f,1,17,r,MS,49,49,2022_Jul_14_1330,2020.2.10,distractmap1,60.009601537749994,"['Left Face', 'Chest', 'Left Face', 'Chest']",
,,,,,,,,,,,,,,,,,,,,,,,,,,,,,,,,,,18.703703703703702,2277.100777569998,,,,,8,f,1,17,r,MS,49,49,2022_Jul_14_1330,2020.2.10,distractmap1,60.009601537749994,"['Left Face', 'Chest', 'Left Face', 'Chest']",
3,"[0.2, 0.2]",None,0,0,0,0,2301.8748576,None,None,None,"[0, 0, 0]",2306.8749018000017,2308.874921499999,2306.8749018000017,2307.8748971999958,2307.8748971999958,2308.874921499999,"[0, 0, 0]",1,2306.8749018000017,2308.874921499999,,,,,,,,,,,,,,,0.013358030002564192,5.009688830003142,,,8,f,1,17,r,MS,49,49,2022_Jul_14_1330,2020.2.10,distractmap1,60.009601537749994,"['Left Face', 'Chest', 'Left Face', 'Chest']",
9,"[0.2, -0.2]",None,0,1,1,1,,,None,None,"[0, 0, 0]",2308.8915831999984,2310.8915949,2308.8915831999984,2309.891584500001,2309.8749248999957,2310.874936399996,"[0, 0, 0]",1,2308.8915831999984,2310.8915949,,,,,,,,,,,,,,,,,,,8,f,1,17,r,MS,49,49,2022_Jul_14_1330,2020.2.10,distractmap1,60.009601537749994,"['Left Face', 'Chest', 'Left Face', 'Chest']",
3,"[0.2, 0.2]",1,0,2,2,2,,,None,None,"[0, 0, 0]",2310.9082598999958,2312.908301299998,2310.9082598999958,2311.9082654000013,2311.8916169000004,2312.8916143000024,"[0, 0, 0]",0,2310.9082598999958,2312.908301299998,,,,,,,,,,,,,,,,,,,8,f,1,17,r,MS,49,49,2022_Jul_14_1330,2020.2.10,distractmap1,60.009601537749994,"['Left Face', 'Chest', 'Left Face', 'Chest']",
7,"[-0.2, -0.2]",0,0,3,3,3,,,None,None,"[0, 0, 0]",2312.9249622999996,2314.924967799998,2312.9249622999996,2313.924965799997,2313.9082858999973,2314.908310699997,"[0, 0, 0]",1,2312.9249622999996,2314.924967799998,,,,,,,,,,,,,,,,,,,8,f,1,17,r,MS,49,49,2022_Jul_14_1330,2020.2.10,distractmap1,60.009601537749994,"['Left Face', 'Chest', 'Left Face', 'Chest']",
