	onset	duration	rt	response	correct	bodySite	temperature	condition	pretrial-jitter
0	2.7656040999572724	7.7856985999969766				Abdomen	46.5	1back Instructions	
1	14.801940999925137	1.98428137996234	0.9775703999912366	2.0	0.0	Abdomen	46.5	1back	
2	16.807754599954933	2.006033679936081	0.46291689993813634	2.0	0.0	Abdomen	46.5	1back	7.0
3	18.808781399973668	2.0039989800425246	0.6969666000222787	2.0	1.0	Abdomen	46.5	1back	
4	20.808608899940737	2.004329980001785	0.5297320999670774	2.0	1.0	Abdomen	46.5	1back	
5	22.867125099990517	1.9373044200474396	0.5793150999816135	2.0	1.0	Abdomen	46.5	1back	
6	24.823570400010794	2.007819079910405	0.4295887000625953	2.0	1.0	Abdomen	46.5	1back	
7	26.825559999910183	2.003861080040224	0.162971300072968	2.0	1.0	Abdomen	46.5	1back	
8	28.825557500007562	2.0038875800091773	0.4962204999756068	2.0	1.0	Abdomen	46.5	1back	
9	30.825606199912727	2.003823280101642	0.412984500057064	2.0	1.0	Abdomen	46.5	1back	
10	32.82559549994767	2.003919480019249	0.529521599994041	0.0	1.0	Abdomen	46.5	1back	
11	39.82169319991954	5.012422879924998		22.592592592592595		Abdomen	46.5	1back Rating	5.0
12	44.8466797999572	49.852771700010635				Abdomen	46.5	2back Instructions	
13	54.88779860001523	1.9964971599401906	0.0	2.0	0.0	Abdomen	46.5	2back	
14	56.891605100012384	2.0055820799898356	0.0	2.0	0.0	Abdomen	46.5	2back	5.0
15	58.90735999995377	2.0069406799739227	0.0	2.0	1.0	Abdomen	46.5	2back	
16	60.92417429992929	2.0071552799781784	0.0	2.0	1.0	Abdomen	46.5	2back	
17	62.97264749999158	1.9769238400040194	0.8833546000532806	0.0	1.0	Abdomen	46.5	2back	
18	64.95746970002074	2.0073451799107715	0.0	2.0	1.0	Abdomen	46.5	2back	
19	66.97385660000145	2.0078951799077913	0.7002718000439927	0.0	1.0	Abdomen	46.5	2back	
20	68.99075709993485	2.0074722800636664	0.0	2.0	1.0	Abdomen	46.5	2back	
21	71.00724750000518	2.0078540799440816	0.6669489999767393	0.0	1.0	Abdomen	46.5	2back	
22	73.02436339994892	2.006966279936023	0.7669700999977067	0.0	1.0	Abdomen	46.5	2back	
23	82.03915229998529	5.01162217988167		15.740740740740744		Abdomen	46.5	2back Rating	7.0
24	87.04438109998591	92.0530908999499				Abdomen	46.5	2back Instructions	
25	95.08863839996047	1.995437560020946	0.0	2.0	0.0	Abdomen	46.5	2back	
26	97.09180419996846	2.005844880011864	0.0	2.0	0.0	Abdomen	46.5	2back	3.0
27	99.1075977999717	2.007546680048108	0.7169470000080764	0.0	1.0	Abdomen	46.5	2back	
28	101.12446999992244	2.007260379847139	0.0	2.0	1.0	Abdomen	46.5	2back	
29	103.19052159995772	1.958440619870089	0.0	2.0	1.0	Abdomen	46.5	2back	
30	105.15777759999037	2.007326480001211	0.0	2.0	1.0	Abdomen	46.5	2back	
31	107.17433139996137	2.0076076799305156	0.650289100012742	0.0	1.0	Abdomen	46.5	2back	
32	109.19111119990703	2.007373180007562	0.6169532999629155	0.0	1.0	Abdomen	46.5	2back	
33	111.20779469993431	2.0073665800737217	0.6335826000431553	0.0	1.0	Abdomen	46.5	2back	
34	113.22438049991615	2.0075811800779775	0.0	2.0	1.0	Abdomen	46.5	2back	
35	118.23925909993704	5.011833779979497		11.913580246913579		Abdomen	46.5	2back Rating	3.0
36	123.26424139994197	128.2700253999792				Abdomen	46.5	1back Instructions	
37	135.30252209992614	1.9849511799402535	1.2278916999930516	2.0	0.0	Abdomen	46.5	1back	
38	137.30873219994828	2.005951980012469	0.8131514000706375	2.0	1.0	Abdomen	46.5	1back	7.0
39	139.31021059991326	2.0030021800193936	0.9964236000087112	2.0	1.0	Abdomen	46.5	1back	
40	141.3104777999688	2.002453080029227	0.9461215999908745	2.0	1.0	Abdomen	46.5	1back	
41	143.3509143999545	1.954927139915526	0.8126662001013756	0.0	1.0	Abdomen	46.5	1back	
42	145.32465759990737	2.0074349800124764	0.9299072999274358	2.0	1.0	Abdomen	46.5	1back	
43	147.3266918999143	2.003375180065632	0.646400999976322	2.0	1.0	Abdomen	46.5	1back	
44	149.32660119992215	2.003693380043842	0.8466160000534728	0.0	1.0	Abdomen	46.5	1back	
45	151.32677309995051	2.003381279995665	0.6464799999957904	2.0	1.0	Abdomen	46.5	1back	
46	153.32693089998793	2.0030907799955457	0.7298186999978498	2.0	1.0	Abdomen	46.5	1back	
47	160.32307889999356	5.011569580063224		0.30864197530864335		Abdomen	46.5	1back Rating	5.0
48	165.34703309996985	170.35368579998612				Abdomen	46.5	2back Instructions	
49	175.38830200000666	1.997362960013561	0.0	2.0	0.0	Abdomen	46.5	2back	
50	177.3923524999991	2.005991179961711	0.0	2.0	0.0	Abdomen	46.5	2back	5.0
51	179.40814870002214	2.0077538799960166	0.6836973000317812	0.0	1.0	Abdomen	46.5	2back	
52	181.42478529992513	2.0077560800127685	0.0	2.0	1.0	Abdomen	46.5	2back	
53	183.48723939992487	1.9662805199623108	0.0	2.0	1.0	Abdomen	46.5	2back	
54	185.45822409994435	2.0077106800163165	0.0	2.0	1.0	Abdomen	46.5	2back	
55	187.4748861999251	2.007763280067593			0.0	Abdomen	46.5	2back	
56	189.49176439992152	2.007318179938011	0.0	2.0	1.0	Abdomen	46.5	2back	
57	191.50814039993566	2.007928179926239	0.7835844999644905	0.0	0.0	Abdomen	46.5	2back	
58	193.52497809997294	2.007635680027306	0.766988700022921	0.0	1.0	Abdomen	46.5	2back	
59	202.53942849999294	5.012825979967602		11.111111111111109		Abdomen	46.5	2back Rating	7.0
60	207.56504709995352	212.5706844999222				Abdomen	46.5	1back Instructions	
61	215.6031587999314	1.9849069800693542	0.6777485000202432	2.0	0.0	Abdomen	46.5	1back	
62	217.60972229996696	2.005209780065343	1.146506700082682	0.0	1.0	Abdomen	46.5	1back	3.0
63	219.6103693000041	2.003924679942429	0.9794812999898568	2.0	1.0	Abdomen	46.5	1back	
64	221.609956100001	2.004778780043125	0.680046399938874	2.0	1.0	Abdomen	46.5	1back	
65	223.67906170000788	1.933262699865736			0.0	Abdomen	46.5	1back	
66	225.6253005999606	2.0075243801111355	0.5165396999800578	2.0	1.0	Abdomen	46.5	1back	
67	227.62695679999888	2.004237679997459	0.6803120999829844	2.0	1.0	Abdomen	46.5	1back	
68	229.62701069994364	2.004149780026637	0.5630695000290871	2.0	1.0	Abdomen	46.5	1back	
69	231.6273036999628	2.003585580154322	0.6804150000680238	2.0	0.0	Abdomen	46.5	1back	
70	233.62689299997874	2.004431079956703			0.0	Abdomen	46.5	1back	
71	240.62349019991234	5.012116479920223		1.9135802469135783		Abdomen	46.5	1back Rating	5.0
72	245.6296306999866	250.63795120001305				Abdomen	46.5	1back Instructions	
73	255.67078769998625	1.9836396800819784			1.0	Abdomen	46.5	1back	
74	257.67639659997076	2.005790080060251			0.0	Abdomen	46.5	1back	5.0
75	259.67732409993187	2.0039651800179854			0.0	Abdomen	46.5	1back	
76	261.67702479998115	2.004608580027707			0.0	Abdomen	46.5	1back	
77	263.75753740000073	1.9269147801678628			0.0	Abdomen	46.5	1back	
78	265.6922728000209	2.0074942799983546			0.0	Abdomen	46.5	1back	
79	267.69479879993014	2.002493080100976	0.8294924999354407	2.0	1.0	Abdomen	46.5	1back	
80	269.6947522999253	2.0026108799502254	0.6299036000855267	2.0	1.0	Abdomen	46.5	1back	
81	271.6946371999802	2.002927380031906	0.7131190999643877	2.0	1.0	Abdomen	46.5	1back	
82	273.6947012000019	2.002834179904312	0.9633622999535874	0.0	1.0	Abdomen	46.5	1back	
83	278.6907715999987	5.011541679967195		13.950617283950617		Abdomen	46.5	1back Rating	3.0
84	283.6959934999468	288.70497229998				Abdomen	46.5	1back Instructions	
85	295.73695229995064	1.9852301799692214	1.0445007000816986	2.0	0.0	Abdomen	46.5	1back	
86	297.7433289999608	2.0059128800639883	0.3632937000365928	2.0	0.0	Abdomen	46.5	1back	7.0
87	299.7442129999399	2.004189779981971	0.49644400004763156	0.0	1.0	Abdomen	46.5	1back	
88	301.7442122999346	2.004167380044237	0.5993876999709755	2.0	1.0	Abdomen	46.5	1back	
89	303.7851056000218	1.9557261399459094			0.0	Abdomen	46.5	1back	
90	305.7593587000156	2.0072708799270913			0.0	Abdomen	46.5	1back	
91	307.760950799915	2.0041242799488828			0.0	Abdomen	46.5	1back	
92	309.7610312999459	2.0040345799643546			0.0	Abdomen	46.5	1back	
93	311.7608791999519	2.0043629800202325	0.8131762999109924	2.0	1.0	Abdomen	46.5	1back	
94	313.76125989994034	2.0036011800402775	0.31320360000245273	2.0	0.0	Abdomen	46.5	1back	
95	322.757159999921	5.012601779890247		1.666666666666668		Abdomen	46.5	1back Rating	7.0
96	327.7827608999796	332.7883327999152				Abdomen	46.5	2back Instructions	
97	335.82282589992974	1.9974648598581553	0.0	2.0	0.0	Abdomen	46.5	2back	
98	337.8269507000223	2.0059520800132304	0.0	2.0	0.0	Abdomen	46.5	2back	3.0
99	339.8427613999229	2.0075624800520018	0.0	2.0	1.0	Abdomen	46.5	2back	
100	341.85949860000983	2.007584679988213	0.0	2.0	1.0	Abdomen	46.5	2back	
101	343.89487600000575	1.98685145995114	0.5499568999512121	0.0	1.0	Abdomen	46.5	2back	
102	345.8929001999786	2.007484680041671	0.9535022999625653	0.0	1.0	Abdomen	46.5	2back	
103	347.90948829997797	2.007698579924181	0.0	2.0	1.0	Abdomen	46.5	2back	
104	349.92620159999933	2.0076143799815327	0.0	2.0	1.0	Abdomen	46.5	2back	
105	351.9434371999232	2.0065238799434155	0.0	2.0	1.0	Abdomen	46.5	2back	
106	353.9594768999377	2.00781007995829	1.070651900023222	0.0	1.0	Abdomen	46.5	2back	
107	362.97409619996324	5.012695880024694		14.938271604938272		Abdomen	46.5	2back Rating	7.0
108	367.9802671999205	372.98895279993303				Abdomen	46.5	2back Instructions	
109	376.0229709999403	1.9977861598599702	0.0	2.0	0.0	Abdomen	46.5	2back	
110	378.0271959999809	2.0060900800162926	0.0	2.0	0.0	Abdomen	46.5	2back	3.0
111	380.04300089995377	2.0078137799864635	0.0	2.0	1.0	Abdomen	46.5	2back	
112	382.05986449995544	2.0074624799890444	0.0	2.0	1.0	Abdomen	46.5	2back	
113	384.10677700000815	1.980324239935726	0.6665669000940397	0.0	1.0	Abdomen	46.5	2back	
114	386.093125400017	2.00769917992875	0.0	2.0	1.0	Abdomen	46.5	2back	
115	388.10971479990985	2.0078414800809696	0.0	2.0	1.0	Abdomen	46.5	2back	
116	390.12661279994063	2.0074537800392136			0.0	Abdomen	46.5	2back	
117	392.1431876999559	2.0076448798645288	0.0	2.0	1.0	Abdomen	46.5	2back	
118	394.15975459991023	2.0078702800674364	0.6669454999500886	0.0	0.0	Abdomen	46.5	2back	
119	403.17474279995076	5.012019579997286		2.098765432098763		Abdomen	46.5	2back Rating	7.0
120	408.18003869999666	413.18927420000546				Abdomen	46.5	2back Instructions	
121	416.2243004000047	1.9957699599908665			1.0	Abdomen	46.5	2back	
122	418.2275380999781	2.0060246801003814			1.0	Abdomen	46.5	2back	3.0
123	420.2437799000181	2.00691698002629			0.0	Abdomen	46.5	2back	
124	422.2600631999085	2.007703780080192	0.0	2.0	1.0	Abdomen	46.5	2back	
125	424.31672020000406	1.961036239983514	0.0	2.0	1.0	Abdomen	46.5	2back	
126	426.29359959997237	2.0073397799860686	0.0	2.0	1.0	Abdomen	46.5	2back	
127	428.31008849991485	2.0077329800697044	0.9503500999417156	0.0	0.0	Abdomen	46.5	2back	
128	430.32683019991964	2.0076391799375415	0.0	2.0	1.0	Abdomen	46.5	2back	
129	432.3436177999247	2.007445980096236	0.0	2.0	0.0	Abdomen	46.5	2back	
130	434.36021239997353	2.0075868800049648	0.0	2.0	1.0	Abdomen	46.5	2back	
131	441.3753050999949	5.011411879910156		4.012345679012349		Abdomen	46.5	2back Rating	5.0
132	446.3992697999347	451.40590829995926				Abdomen	46.5	1back Instructions	
133	456.4389632999664	1.9837295800680295			1.0	Abdomen	46.5	1back	
134	458.44458819995634	2.0058684799587354			0.0	Abdomen	46.5	1back	5.0
135	460.4456547999289	2.0037505800137296	0.39657800004351884	2.0	1.0	Abdomen	46.5	1back	
136	462.44558479997795	2.003916179994121	0.7163825000170618	2.0	1.0	Abdomen	46.5	1back	
137	464.4865978999296	1.955246039899066	0.7298393999226391	2.0	0.0	Abdomen	46.5	1back	
138	466.4603754999116	2.007839080062695	0.8327917999122292	2.0	1.0	Abdomen	46.5	1back	
139	468.4625192999374	2.0035845800302923	0.47989429999142885	2.0	1.0	Abdomen	46.5	1back	
140	470.46254039998166	2.003488880000077	0.24649849999696016	2.0	0.0	Abdomen	46.5	1back	
141	472.46230549993925	2.0040184799581766	0.4464138000039384	0.0	0.0	Abdomen	46.5	1back	
142	474.46239599992987	2.003873180015944	0.7461555999470875	2.0	1.0	Abdomen	46.5	1back	
143	483.4587405999191	5.011987979989499		0.0		Abdomen	46.5	1back Rating	7.0
144	488.46411359997	493.47317479993217				Abdomen	46.5	1back Instructions	
145	496.5052202999359	1.9851878799963742	0.6278638999210671	2.0	0.0	Abdomen	46.5	1back	
146	498.5116059000138	2.0057626799680293	0.6462173000909388	0.0	1.0	Abdomen	46.5	1back	3.0
147	500.51304479991086	2.0029549800092354	0.6793402000330389	2.0	1.0	Abdomen	46.5	1back	
148	502.5130616999231	2.0029746799264103	0.9158525000093505	2.0	1.0	Abdomen	46.5	1back	
149	504.58255709998775	1.9306446000700817	0.6126246000640094	2.0	0.0	Abdomen	46.5	1back	
150	506.52738059998956	2.007725980016403	0.5466282999841496	2.0	1.0	Abdomen	46.5	1back	
151	508.5301057000179	2.002310879994184	0.4833371000131592	2.0	1.0	Abdomen	46.5	1back	
152	510.5298059999477	2.002933179959655	0.4631838999921456	2.0	1.0	Abdomen	46.5	1back	
153	512.5300527999643	2.002457780065015	0.41307410004083067	2.0	1.0	Abdomen	46.5	1back	
154	514.5298512999434	2.0029051799792796	0.5329767001094297	0.0	1.0	Abdomen	46.5	1back	
155	521.5261758000124	5.011208579991944		50.0		Abdomen	46.5	1back Rating	5.0
156	526.5318893999793	531.5399733999511				Abdomen	46.5	1back Instructions	
157	536.5721441999776	1.9852828800212592	0.6772906000260264	2.0	0.0	Abdomen	46.5	1back	
158	538.5784256999614	2.0061115799471736	0.44611349992919713	2.0	1.0	Abdomen	46.5	1back	5.0
159	540.579663499957	2.0036531798541546	0.31593809998594224	2.0	0.0	Abdomen	46.5	1back	
160	542.5795902999816	2.003848879947327	1.3132078000344336	2.0	1.0	Abdomen	46.5	1back	
161	544.6094974000007	1.977386439917609	1.0956466000061482	2.0	1.0	Abdomen	46.5	1back	
162	546.5944647999713	2.0074863800546154	0.8997011999599636	2.0	1.0	Abdomen	46.5	1back	
163	548.5963033000007	2.0038163799326867	0.666580600081943	2.0	1.0	Abdomen	46.5	1back	
164	550.5963094999315	2.0038591800257564	0.43256319989450276	2.0	1.0	Abdomen	46.5	1back	
165	552.5961697999155	2.0042039799736813	0.32967100001405925	2.0	0.0	Abdomen	46.5	1back	
166	554.5965398999397	2.003483979962766	0.9965499000390992	2.0	1.0	Abdomen	46.5	1back	
167	563.5927582000149	5.011808280018158		0.0		Abdomen	46.5	1back Rating	7.0
168	568.6180078999605	573.6235326000024				Abdomen	46.5	2back Instructions	
169	576.6580357999774	1.9974274600390345	0.0	2.0	0.0	Abdomen	46.5	2back	
170	578.6621295999503	2.006000079913065	0.0	2.0	0.0	Abdomen	46.5	2back	3.0
171	580.6780534000136	2.0075038799550384	0.0	2.0	1.0	Abdomen	46.5	2back	
172	582.6946647999575	2.007652079919353	0.5336243000347167	0.0	1.0	Abdomen	46.5	2back	
173	584.8071727999486	1.9160017600515857	0.0	2.0	1.0	Abdomen	46.5	2back	
174	586.7282302000094	2.0072804800001904	0.0	2.0	1.0	Abdomen	46.5	2back	
175	588.7446953000035	2.0076865799492225	0.0	2.0	1.0	Abdomen	46.5	2back	
176	590.7615148000186	2.0074510800186545	0.6836419999599457	0.0	1.0	Abdomen	46.5	2back	
177	592.7780285999179	2.0077832801034674	0.0	2.0	1.0	Abdomen	46.5	2back	
178	594.7949238999281	2.007322679972276	0.6835742000257596	0.0	1.0	Abdomen	46.5	2back	
179	601.8097958000144	5.011689779930748		10.987654320987657		Abdomen	46.5	2back Rating	5.0
180	606.8154177999822	611.8238746999996				Abdomen	46.5	2back Instructions	
181	616.8586195999524	1.9969298599753529			1.0	Abdomen	46.5	2back	
182	618.8629282999318	2.005042679957114			1.0	Abdomen	46.5	2back	5.0
183	620.8785517999204	2.0071608800208196			0.0	Abdomen	46.5	2back	
184	622.894907400012	2.0078097799560055			0.0	Abdomen	46.5	2back	
185	624.9594160999404	1.962124819867313	0.0	2.0	0.0	Abdomen	46.5	2back	
186	626.9286469999934	2.007125179981813	0.0	2.0	1.0	Abdomen	46.5	2back	
187	628.9449450999964	2.0078170800115913	0.0	2.0	1.0	Abdomen	46.5	2back	
188	630.961612300016	2.0078294798731804	1.0838229999644682	0.0	0.0	Abdomen	46.5	2back	
189	632.9783470999682	2.0077598800417036	0.0	2.0	1.0	Abdomen	46.5	2back	
190	634.9951081000036	2.0075731800170615	0.0	2.0	0.0	Abdomen	46.5	2back	
191	644.0104079999728	5.011097979964688		10.61728395061728		Abdomen	46.5	2back Rating	7.0
