square,location,corrAns,trials.thisRepN,trials.thisTrialN,trials.thisN,trials.thisIndex,trials_2.thisRepN,trials_2.thisTrialN,trials_2.thisN,trials_2.thisIndex,fixation_1.started,fixation_1.stopped,grid_lines.started,grid_lines.stopped,target_square.started,target_square.stopped,fixation_2.started,fixation_2.stopped,response.corr,response.x,response.y,response.leftButton,response.click_left,response.click_right,response.started,response.stopped,ScoreReportText.started,ScoreReportText.stopped,ScoreReportResponse.keys,ScoreReportResponse.started,ScoreReportResponse.stopped,response_2.x,response_2.y,response_2.leftButton,grid_lines_2.started,grid_lines_2.stopped,target_square_2.started,target_square_2.stopped,fixation_3.started,fixation_3.stopped,response_2.click,response_2.corr,response_2.started,response_2.stopped,BodySiteInstructionText.started,BodySiteImg.started,BodySiteImg.stopped,BodySiteInstructionRead.keys,BodySiteInstructionRead.rt,BodySiteInstructionRead.started,BodySiteInstructionRead.stopped,response.click,subject number,gender,bodymap first- or second-half (1 or 2),session,handedness,scanner,date,expName,psychopyVersion,frameRate,body_site_order,
6,"[0.2, 0]",None,0,0,0,0,,,,,59.35149160004221,None,60.3838182000909,None,60.3838182000909,61.38504770002328,61.36851190007292,None,1,-0.20972222222222223,0.27361111111111114,"[0, 0, 0]",0,0,60.3838182000909,None,,,,,,,,,,,,,,,,,,,,,,,,,,,999,m,2,99,r,TEST,2021_Aug_20_1058,distractmap,2020.2.10,59.99847601313559,"['Left Face', 'Abdomen']",
6,"[0.2, 0]",1,0,1,1,1,,,,,,,62.35169250005856,None,62.35169250005856,63.35195920011029,63.33520080009475,64.33539110003039,0,-0.20972222222222223,0.27361111111111114,"[0, 0, 0]",0,0,62.35169250005856,None,,,,,,,,,,,,,,,,,,,,,,,,,,,999,m,2,99,r,TEST,2021_Aug_20_1058,distractmap,2020.2.10,59.99847601313559,"['Left Face', 'Abdomen']",
2,"[0, 0.2]",0,0,2,2,2,,,,,,,64.35197090008296,None,64.35197090008296,65.35182040010113,65.33520800003316,66.33520890004002,0,-0.20972222222222223,0.27361111111111114,"[0, 0, 0]",0,0,64.35197090008296,None,,,,,,,,,,,,,,,,,,,,,,,,,,,999,m,2,99,r,TEST,2021_Aug_20_1058,distractmap,2020.2.10,59.99847601313559,"['Left Face', 'Abdomen']",
9,"[0.2, -0.2]",0,0,3,3,3,,,,,,,66.35192550008651,None,66.35192550008651,67.3518753000535,67.33522130001802,68.33522430004086,0,-0.20972222222222223,0.27361111111111114,"[0, 0, 0]",0,0,66.35192550008651,None,,,,,,,,,,,,,,,,,,,,,,,,,,,999,m,2,99,r,TEST,2021_Aug_20_1058,distractmap,2020.2.10,59.99847601313559,"['Left Face', 'Abdomen']",
9,"[0.2, -0.2]",1,0,4,4,4,,,,,,,68.35182660003193,None,68.35182660003193,69.35192070004996,69.33522850007284,70.3352198000066,0,-0.20972222222222223,0.27361111111111114,"[0, 0, 0]",0,0,68.35182660003193,None,,,,,,,,,,,,,,,,,,,,,,,,,,,999,m,2,99,r,TEST,2021_Aug_20_1058,distractmap,2020.2.10,59.99847601313559,"['Left Face', 'Abdomen']",
6,"[0.2, 0]",0,0,5,5,5,,,,,,,70.35187470004894,None,70.35187470004894,71.35195660009049,71.33524540008511,72.33526980003808,0,-0.20972222222222223,0.27361111111111114,"[0, 0, 0]",0,0,70.35187470004894,None,,,,,,,,,,,,,,,,,,,,,,,,,,,999,m,2,99,r,TEST,2021_Aug_20_1058,distractmap,2020.2.10,59.99847601313559,"['Left Face', 'Abdomen']",
4,"[-0.2, 0]",0,0,6,6,6,,,,,,,72.35196880006697,None,72.35196880006697,73.35191750002559,73.33529489999637,74.33524800010491,0,-0.20972222222222223,0.27361111111111114,"[0, 0, 0]",0,0,72.35196880006697,None,,,,,,,,,,,,,,,,,,,,,,,,,,,999,m,2,99,r,TEST,2021_Aug_20_1058,distractmap,2020.2.10,59.99847601313559,"['Left Face', 'Abdomen']",
3,"[0.2, 0.2]",0,0,7,7,7,,,,,,,74.35193930007517,None,74.35193930007517,75.35199290001765,75.33528120000847,76.33526800002437,0,-0.20972222222222223,0.27361111111111114,"[0, 0, 0]",0,0,74.35193930007517,None,,,,,,,,,,,,,,,,,,,,,,,,,,,999,m,2,99,r,TEST,2021_Aug_20_1058,distractmap,2020.2.10,59.99847601313559,"['Left Face', 'Abdomen']",
3,"[0.2, 0.2]",1,0,8,8,8,,,,,,,76.35198050003964,None,76.35198050003964,77.35190060001332,77.33532810001634,78.33531440002844,0,-0.20972222222222223,0.27361111111111114,"[0, 0, 0]",0,0,76.35198050003964,None,,,,,,,,,,,,,,,,,,,,,,,,,,,999,m,2,99,r,TEST,2021_Aug_20_1058,distractmap,2020.2.10,59.99847601313559,"['Left Face', 'Abdomen']",
8,"[0, -0.2]",0,0,9,9,9,,,,,,,78.35201420006342,None,78.35201420006342,79.35198940010741,79.33532890002243,80.33530670008622,0,-0.20972222222222223,0.27361111111111114,"[0, 0, 0]",0,0,78.35201420006342,None,,,,,,,,,,,,,,,,,,,,,,,,,,,999,m,2,99,r,TEST,2021_Aug_20_1058,distractmap,2020.2.10,59.99847601313559,"['Left Face', 'Abdomen']",
1,"[-0.2, 0.2]",0,0,10,10,10,,,,,,,80.35200820001774,None,80.35200820001774,81.35201540007256,81.33529930002987,82.33532810001634,0,-0.20972222222222223,0.27361111111111114,"[0, 0, 0]",0,0,80.35200820001774,None,,,,,,,,,,,,,,,,,,,,,,,,,,,999,m,2,99,r,TEST,2021_Aug_20_1058,distractmap,2020.2.10,59.99847601313559,"['Left Face', 'Abdomen']",
2,"[0, 0.2]",0,0,11,11,11,,,,,,,82.35194870003033,None,82.35194870003033,83.35193670005538,83.33538040006533,84.33540730003733,0,-0.20972222222222223,0.27361111111111114,"[0, 0, 0]",0,0,82.35194870003033,None,,,,,,,,,,,,,,,,,,,,,,,,,,,999,m,2,99,r,TEST,2021_Aug_20_1058,distractmap,2020.2.10,59.99847601313559,"['Left Face', 'Abdomen']",
4,"[-0.2, 0]",0,0,12,12,12,,,,,,,84.35189510008786,None,84.35189510008786,85.35206679999828,85.33533530007116,86.33537169999909,0,-0.20972222222222223,0.27361111111111114,"[0, 0, 0]",0,0,84.35189510008786,None,,,,,,,,,,,,,,,,,,,,,,,,,,,999,m,2,99,r,TEST,2021_Aug_20_1058,distractmap,2020.2.10,59.99847601313559,"['Left Face', 'Abdomen']",
4,"[-0.2, 0]",1,0,13,13,13,,,,,,,86.35199670004658,None,86.35199670004658,87.35208470001817,87.33534790005069,88.33535619999748,0,-0.20972222222222223,0.27361111111111114,"[0, 0, 0]",0,0,86.35199670004658,None,,,,,,,,,,,,,,,,,,,,,,,,,,,999,m,2,99,r,TEST,2021_Aug_20_1058,distractmap,2020.2.10,59.99847601313559,"['Left Face', 'Abdomen']",
8,"[0, -0.2]",0,0,14,14,14,,,,,,,88.35206360009033,None,88.35206360009033,89.3520942000905,89.335341900005,90.33537179999985,0,-0.20972222222222223,0.27361111111111114,"[0, 0, 0]",0,0,88.35206360009033,None,,,,,,,,,,,,,,,,,,,,,,,,,,,999,m,2,99,r,TEST,2021_Aug_20_1058,distractmap,2020.2.10,59.99847601313559,"['Left Face', 'Abdomen']",
5,"[0, 0]",0,0,15,15,15,,,,,,,90.35208270000294,None,90.35208270000294,91.35213800007477,91.33540870004799,92.33538810000755,0,-0.20972222222222223,0.27361111111111114,"[0, 0, 0]",0,0,90.35208270000294,None,,,,,,,,,,,,,,,,,,,,,,,,,,,999,m,2,99,r,TEST,2021_Aug_20_1058,distractmap,2020.2.10,59.99847601313559,"['Left Face', 'Abdomen']",
5,"[0, 0]",1,0,16,16,16,,,,,,,92.35207010002341,None,92.35207010002341,93.35216160002165,93.33542220003437,94.33542090002447,0,-0.20972222222222223,0.27361111111111114,"[0, 0, 0]",0,0,92.35207010002341,None,,,,,,,,,,,,,,,,,,,,,,,,,,,999,m,2,99,r,TEST,2021_Aug_20_1058,distractmap,2020.2.10,59.99847601313559,"['Left Face', 'Abdomen']",
1,"[-0.2, 0.2]",0,0,17,17,17,,,,,,,94.35208990005776,None,94.35208990005776,95.35210830008145,95.33543890004512,96.33546060009394,0,-0.20972222222222223,0.27361111111111114,"[0, 0, 0]",0,0,94.35208990005776,None,,,,,,,,,,,,,,,,,,,,,,,,,,,999,m,2,99,r,TEST,2021_Aug_20_1058,distractmap,2020.2.10,59.99847601313559,"['Left Face', 'Abdomen']",
3,"[0.2, 0.2]",0,0,18,18,18,,,,,,,96.35211120010354,None,96.35211120010354,97.35210570006166,97.33539320004638,98.33539150003344,0,-0.20972222222222223,0.27361111111111114,"[0, 0, 0]",0,0,96.35211120010354,None,,,,,,,,,,,,,,,,,,,,,,,,,,,999,m,2,99,r,TEST,2021_Aug_20_1058,distractmap,2020.2.10,59.99847601313559,"['Left Face', 'Abdomen']",
6,"[0.2, 0]",0,0,19,19,19,,,,,,,98.35210940008983,None,98.35210940008983,99.35219230002258,99.33544990001246,100.33543370000552,0,-0.20972222222222223,0.27361111111111114,"[0, 0, 0]",0,0,98.35210940008983,None,,,,,,,,,,,,,,,,,,,,,,,,,,,999,m,2,99,r,TEST,2021_Aug_20_1058,distractmap,2020.2.10,59.99847601313559,"['Left Face', 'Abdomen']",
1,"[-0.2, 0.2]",0,0,20,20,20,,,,,,,100.35207510006148,None,100.35207510006148,101.35216870007571,101.33545470004901,102.3354353000177,0,-0.20972222222222223,0.27361111111111114,"[0, 0, 0]",0,0,100.35207510006148,None,,,,,,,,,,,,,,,,,,,,,,,,,,,999,m,2,99,r,TEST,2021_Aug_20_1058,distractmap,2020.2.10,59.99847601313559,"['Left Face', 'Abdomen']",
1,"[-0.2, 0.2]",1,0,21,21,21,,,,,,,102.3522735000588,None,102.3522735000588,103.35224080004264,103.33546390000265,104.33543670002837,0,-0.20972222222222223,0.27361111111111114,"[0, 0, 0]",0,0,102.3522735000588,None,,,,,,,,,,,,,,,,,,,,,,,,,,,999,m,2,99,r,TEST,2021_Aug_20_1058,distractmap,2020.2.10,59.99847601313559,"['Left Face', 'Abdomen']",
1,"[-0.2, 0.2]",1,0,22,22,22,,,,,,,104.3522075000219,None,104.3522075000219,105.35220280010253,105.33553120004945,106.33564639999531,0,-0.20972222222222223,0.27361111111111114,"[0, 0, 0]",0,0,104.3522075000219,None,,,,,,,,,,,,,,,,,,,,,,,,,,,999,m,2,99,r,TEST,2021_Aug_20_1058,distractmap,2020.2.10,59.99847601313559,"['Left Face', 'Abdomen']",
3,"[0.2, 0.2]",0,0,23,23,23,,,,,,,106.35237900004722,None,106.35237900004722,107.35238769999705,107.33571540005505,108.335498200031,0,-0.20972222222222223,0.27361111111111114,"[0, 0, 0]",0,0,106.35237900004722,None,,,,,,,,,,,,,,,,,,,,,,,,,,,999,m,2,99,r,TEST,2021_Aug_20_1058,distractmap,2020.2.10,59.99847601313559,"['Left Face', 'Abdomen']",
2,"[0, 0.2]",0,0,24,24,24,,,,,,,108.3522184001049,None,108.3522184001049,109.35222260002047,109.33551980007906,110.33551820006687,0,-0.20972222222222223,0.27361111111111114,"[0, 0, 0]",0,0,108.3522184001049,None,,,,,,,,,,,,,,,,,,,,,,,,,,,999,m,2,99,r,TEST,2021_Aug_20_1058,distractmap,2020.2.10,59.99847601313559,"['Left Face', 'Abdomen']",
1,"[-0.2, 0.2]",0,0,25,25,25,,,,,,,110.35221290006302,None,110.35221290006302,111.35224950010888,111.33557130000554,112.33553020004183,0,-0.20972222222222223,0.27361111111111114,"[0, 0, 0]",0,0,110.35221290006302,None,,,,,,,,,,,,,,,,,,,,,,,,,,,999,m,2,99,r,TEST,2021_Aug_20_1058,distractmap,2020.2.10,59.99847601313559,"['Left Face', 'Abdomen']",
7,"[-0.2, -0.2]",0,0,26,26,26,,,,,,,112.35227150004357,None,112.35227150004357,113.35225880006328,113.33556150004733,114.33555160008837,0,-0.20972222222222223,0.27361111111111114,"[0, 0, 0]",0,0,112.35227150004357,None,,,,,,,,,,,,,,,,,,,,,,,,,,,999,m,2,99,r,TEST,2021_Aug_20_1058,distractmap,2020.2.10,59.99847601313559,"['Left Face', 'Abdomen']",
7,"[-0.2, -0.2]",1,0,27,27,27,,,,,,,114.35229629999958,None,114.35229629999958,115.35227770009078,115.3355569000123,116.33555980003439,0,-0.20972222222222223,0.27361111111111114,"[0, 0, 0]",0,0,114.35229629999958,None,,,,,,,,,,,,,,,,,,,,,,,,,,,999,m,2,99,r,TEST,2021_Aug_20_1058,distractmap,2020.2.10,59.99847601313559,"['Left Face', 'Abdomen']",
2,"[0, 0.2]",0,0,28,28,28,,,,,,,116.35220930003561,None,116.35220930003561,117.3522003000835,117.33553750009742,118.33558950002771,0,-0.20972222222222223,0.27361111111111114,"[0, 0, 0]",0,0,116.35220930003561,None,,,,,,,,,,,,,,,,,,,,,,,,,,,999,m,2,99,r,TEST,2021_Aug_20_1058,distractmap,2020.2.10,59.99847601313559,"['Left Face', 'Abdomen']",
6,"[0.2, 0]",0,0,29,29,29,,,,,,,118.3522501999978,None,118.3522501999978,119.3522501999978,119.33559250005055,120.33554510003887,0,-0.20972222222222223,0.27361111111111114,"[0, 0, 0]",0,0,118.3522501999978,None,,,,,,,,,,,,,,,,,,,,,,,,,,,999,m,2,99,r,TEST,2021_Aug_20_1058,distractmap,2020.2.10,59.99847601313559,"['Left Face', 'Abdomen']",
,,,,,,,,,,,,,,,,,,,,,,,,,,,120.38396500004455,None,space,120.38396500004455,None,,,,,,,,,,,,,,,,,,,,,,999,m,2,99,r,TEST,2021_Aug_20_1058,distractmap,2020.2.10,59.99847601313559,"['Left Face', 'Abdomen']",
6,"[0.2, 0]",None,,,,,0,0,0,0,148.26881300006062,None,,,,,,,,,,,,,,,,,,,,None,None,"[0, 0, 0]",149.28441590000875,None,149.28441590000875,150.28584170003887,150.26922510005534,151.26918420009315,"[0, 0, 0]",1,149.28441590000875,None,,,,,,,,,999,m,2,99,r,TEST,2021_Aug_20_1058,distractmap,2020.2.10,59.99847601313559,"['Left Face', 'Abdomen']",
7,"[-0.2, -0.2]",None,,,,,0,1,1,1,,,,,,,,,,,,,,,,,,,,,,None,None,"[0, 0, 0]",151.28589430009015,153.2854269000236,151.28589430009015,152.28581980010495,152.26923330000136,153.26914170000236,"[0, 0, 0]",1,151.28589430009015,153.2854269000236,,,,,,,,,999,m,2,99,r,TEST,2021_Aug_20_1058,distractmap,2020.2.10,59.99847601313559,"['Left Face', 'Abdomen']",
6,"[0.2, 0]",1,,,,,0,2,2,2,,,,,,,,,,,,,,,,,,,,,,None,None,"[0, 0, 0]",153.30252320005093,155.30213100009132,153.30252320005093,154.30251800001133,154.2858214000007,155.28583629999775,"[0, 0, 0]",0,153.30252320005093,155.30213100009132,,,,,,,,,999,m,2,99,r,TEST,2021_Aug_20_1058,distractmap,2020.2.10,59.99847601313559,"['Left Face', 'Abdomen']",
2,"[0, 0.2]",0,,,,,0,3,3,3,,,,,,,,,,,,,,,,,,,,,,None,None,"[0, 0, 0]",155.31921780004632,157.31884690001607,155.31921780004632,156.31924540002365,156.30253060010727,157.30254310008604,"[0, 0, 0]",0,155.31921780004632,157.31884690001607,,,,,,,,,999,m,2,99,r,TEST,2021_Aug_20_1058,distractmap,2020.2.10,59.99847601313559,"['Left Face', 'Abdomen']",
5,"[0, 0]",0,,,,,0,4,4,4,,,,,,,,,,,,,,,,,,,,,,None,None,"[0, 0, 0]",157.33588930009864,159.3355383001035,157.33588930009864,158.33589280000888,158.31922230008058,159.31924080010504,"[0, 0, 0]",0,157.33588930009864,159.3355383001035,,,,,,,,,999,m,2,99,r,TEST,2021_Aug_20_1058,distractmap,2020.2.10,59.99847601313559,"['Left Face', 'Abdomen']",
4,"[-0.2, 0]",0,,,,,0,5,5,5,,,,,,,,,,,,,,,,,,,,,,None,None,"[0, 0, 0]",159.35256500006653,161.35223410010803,159.35256500006653,160.35253990010824,160.33590420009568,161.33600510004908,"[0, 0, 0]",0,159.35256500006653,161.35223410010803,,,,,,,,,999,m,2,99,r,TEST,2021_Aug_20_1058,distractmap,2020.2.10,59.99847601313559,"['Left Face', 'Abdomen']",
4,"[-0.2, 0]",0,,,,,0,6,6,6,,,,,,,,,,,,,,,,,,,,,,None,None,"[0, 0, 0]",161.36931060010102,163.36882980004884,161.36931060010102,162.36912340007257,162.35240740003064,163.35258300008718,"[0, 0, 0]",0,161.36931060010102,163.36882980004884,,,,,,,,,999,m,2,99,r,TEST,2021_Aug_20_1058,distractmap,2020.2.10,59.99847601313559,"['Left Face', 'Abdomen']",
7,"[-0.2, -0.2]",0,,,,,0,7,7,7,,,,,,,,,,,,,,,,,,,,,,None,None,"[0, 0, 0]",163.38595560006797,165.38552880007774,163.38595560006797,164.3858471000567,164.3693021000363,165.3692534000147,"[0, 0, 0]",0,163.38595560006797,165.38552880007774,,,,,,,,,999,m,2,99,r,TEST,2021_Aug_20_1058,distractmap,2020.2.10,59.99847601313559,"['Left Face', 'Abdomen']",
4,"[-0.2, 0]",1,,,,,0,8,8,8,,,,,,,,,,,,,,,,,,,,,,None,None,"[0, 0, 0]",165.40260230004787,167.40220650006086,165.40260230004787,166.4026209000731,166.38595610007178,167.3859258000739,"[0, 0, 0]",0,165.40260230004787,167.40220650006086,,,,,,,,,999,m,2,99,r,TEST,2021_Aug_20_1058,distractmap,2020.2.10,59.99847601313559,"['Left Face', 'Abdomen']",
3,"[0.2, 0.2]",0,,,,,0,9,9,9,,,,,,,,,,,,,,,,,,,,,,None,None,"[0, 0, 0]",167.41928190004546,169.41892130009364,167.41928190004546,168.4192107000854,168.4026374000823,169.40266270004213,"[0, 0, 0]",0,167.41928190004546,169.41892130009364,,,,,,,,,999,m,2,99,r,TEST,2021_Aug_20_1058,distractmap,2020.2.10,59.99847601313559,"['Left Face', 'Abdomen']",
5,"[0, 0]",0,,,,,0,10,10,10,,,,,,,,,,,,,,,,,,,,,,None,None,"[0, 0, 0]",169.43582830007654,171.4355940000387,169.43582830007654,170.4359966000775,170.41919780010357,171.41937090002466,"[0, 0, 0]",0,169.43582830007654,171.4355940000387,,,,,,,,,999,m,2,99,r,TEST,2021_Aug_20_1058,distractmap,2020.2.10,59.99847601313559,"['Left Face', 'Abdomen']",
3,"[0.2, 0.2]",1,,,,,0,11,11,11,,,,,,,,,,,,,,,,,,,,,,None,None,"[0, 0, 0]",171.45268190000206,173.45224530005362,171.45268190000206,172.45265740004834,172.43589740002062,173.4359898000257,"[0, 0, 0]",0,171.45268190000206,173.45224530005362,,,,,,,,,999,m,2,99,r,TEST,2021_Aug_20_1058,distractmap,2020.2.10,59.99847601313559,"['Left Face', 'Abdomen']",
1,"[-0.2, 0.2]",0,,,,,0,12,12,12,,,,,,,,,,,,,,,,,,,,,,None,None,"[0, 0, 0]",173.46933130000252,175.46898640005384,173.46933130000252,174.46937300008722,174.4526640000986,175.45269470009953,"[0, 0, 0]",0,173.46933130000252,175.46898640005384,,,,,,,,,999,m,2,99,r,TEST,2021_Aug_20_1058,distractmap,2020.2.10,59.99847601313559,"['Left Face', 'Abdomen']",
9,"[0.2, -0.2]",0,,,,,0,13,13,13,,,,,,,,,,,,,,,,,,,,,,None,None,"[0, 0, 0]",175.48595670005307,177.48566690005828,175.48595670005307,176.4859827000182,176.46937760000583,177.46925230009947,"[0, 0, 0]",0,175.48595670005307,177.48566690005828,,,,,,,,,999,m,2,99,r,TEST,2021_Aug_20_1058,distractmap,2020.2.10,59.99847601313559,"['Left Face', 'Abdomen']",
9,"[0.2, -0.2]",0,,,,,0,14,14,14,,,,,,,,,,,,,,,,,,,,,,None,None,"[0, 0, 0]",177.50266470003407,179.50229530001525,177.50266470003407,178.50270970002748,178.48601029999554,179.48598980007228,"[0, 0, 0]",0,177.50266470003407,179.50229530001525,,,,,,,,,999,m,2,99,r,TEST,2021_Aug_20_1058,distractmap,2020.2.10,59.99847601313559,"['Left Face', 'Abdomen']",
8,"[0, -0.2]",0,,,,,0,15,15,15,,,,,,,,,,,,,,,,,,,,,,None,None,"[0, 0, 0]",179.5193851001095,181.51896460005082,179.5193851001095,180.51941500010435,180.50271480006631,181.50269860005938,"[0, 0, 0]",0,179.5193851001095,181.51896460005082,,,,,,,,,999,m,2,99,r,TEST,2021_Aug_20_1058,distractmap,2020.2.10,59.99847601313559,"['Left Face', 'Abdomen']",
6,"[0.2, 0]",0,,,,,0,16,16,16,,,,,,,,,,,,,,,,,,,,,,None,None,"[0, 0, 0]",181.53605150000658,183.53560660011135,181.53605150000658,182.53606170008425,182.51939670008142,183.51939540007152,"[0, 0, 0]",0,181.53605150000658,183.53560660011135,,,,,,,,,999,m,2,99,r,TEST,2021_Aug_20_1058,distractmap,2020.2.10,59.99847601313559,"['Left Face', 'Abdomen']",
3,"[0.2, 0.2]",0,,,,,0,17,17,17,,,,,,,,,,,,,,,,,,,,,,None,None,"[0, 0, 0]",183.55269060004503,185.55236990004778,183.55269060004503,184.55275470006745,184.5360737000592,185.53607200004626,"[0, 0, 0]",0,183.55269060004503,185.55236990004778,,,,,,,,,999,m,2,99,r,TEST,2021_Aug_20_1058,distractmap,2020.2.10,59.99847601313559,"['Left Face', 'Abdomen']",
6,"[0.2, 0]",1,,,,,0,18,18,18,,,,,,,,,,,,,,,,,,,,,,None,None,"[0, 0, 0]",185.56939459999558,187.56907130009495,185.56939459999558,186.569455100107,186.55274510011077,187.5527759999968,"[0, 0, 0]",0,185.56939459999558,187.56907130009495,,,,,,,,,999,m,2,99,r,TEST,2021_Aug_20_1058,distractmap,2020.2.10,59.99847601313559,"['Left Face', 'Abdomen']",
5,"[0, 0]",0,,,,,0,19,19,19,,,,,,,,,,,,,,,,,,,,,,None,None,"[0, 0, 0]",187.58610820001923,189.5857497000834,187.58610820001923,188.5861075000139,188.5694471000461,189.56941910006572,"[0, 0, 0]",0,187.58610820001923,189.5857497000834,,,,,,,,,999,m,2,99,r,TEST,2021_Aug_20_1058,distractmap,2020.2.10,59.99847601313559,"['Left Face', 'Abdomen']",
7,"[-0.2, -0.2]",0,,,,,0,20,20,20,,,,,,,,,,,,,,,,,,,,,,None,None,"[0, 0, 0]",189.60269900003914,191.60244280006737,189.60269900003914,190.6027849999955,190.58610549999867,191.58614160004072,"[0, 0, 0]",0,189.60269900003914,191.60244280006737,,,,,,,,,999,m,2,99,r,TEST,2021_Aug_20_1058,distractmap,2020.2.10,59.99847601313559,"['Left Face', 'Abdomen']",
5,"[0, 0]",1,,,,,0,21,21,21,,,,,,,,,,,,,,,,,,,,,,None,None,"[0, 0, 0]",191.61944420007057,193.61908510001376,191.61944420007057,192.61948480003048,192.60278519999702,193.6027423000196,"[0, 0, 0]",0,191.61944420007057,193.61908510001376,,,,,,,,,999,m,2,99,r,TEST,2021_Aug_20_1058,distractmap,2020.2.10,59.99847601313559,"['Left Face', 'Abdomen']",
1,"[-0.2, 0.2]",0,,,,,0,22,22,22,,,,,,,,,,,,,,,,,,,,,,None,None,"[0, 0, 0]",193.63616750005167,195.63580990000628,193.63616750005167,194.63615000003483,194.6195179000497,195.6194573000539,"[0, 0, 0]",0,193.63616750005167,195.63580990000628,,,,,,,,,999,m,2,99,r,TEST,2021_Aug_20_1058,distractmap,2020.2.10,59.99847601313559,"['Left Face', 'Abdomen']",
7,"[-0.2, -0.2]",0,,,,,0,23,23,23,,,,,,,,,,,,,,,,,,,,,,None,None,"[0, 0, 0]",195.65284350002185,197.6524888999993,195.65284350002185,196.6528209000826,196.63619089999702,197.63614420010708,"[0, 0, 0]",0,195.65284350002185,197.6524888999993,,,,,,,,,999,m,2,99,r,TEST,2021_Aug_20_1058,distractmap,2020.2.10,59.99847601313559,"['Left Face', 'Abdomen']",
9,"[0.2, -0.2]",0,,,,,0,24,24,24,,,,,,,,,,,,,,,,,,,,,,None,None,"[0, 0, 0]",197.66951320006046,199.66916560009122,197.66951320006046,198.66948969999794,198.65282800002024,199.65281950007193,"[0, 0, 0]",0,197.66951320006046,199.66916560009122,,,,,,,,,999,m,2,99,r,TEST,2021_Aug_20_1058,distractmap,2020.2.10,59.99847601313559,"['Left Face', 'Abdomen']",
3,"[0.2, 0.2]",0,,,,,0,25,25,25,,,,,,,,,,,,,,,,,,,,,,None,None,"[0, 0, 0]",199.68617600004654,201.6858424000675,199.68617600004654,200.68624250008725,200.66952800005674,201.6695108000422,"[0, 0, 0]",0,199.68617600004654,201.6858424000675,,,,,,,,,999,m,2,99,r,TEST,2021_Aug_20_1058,distractmap,2020.2.10,59.99847601313559,"['Left Face', 'Abdomen']",
9,"[0.2, -0.2]",1,,,,,0,26,26,26,,,,,,,,,,,,,,,,,,,,,,None,None,"[0, 0, 0]",201.702784000081,203.70248560002074,201.702784000081,202.70271120010875,202.68619300005957,203.68625590007287,"[0, 0, 0]",0,201.702784000081,203.70248560002074,,,,,,,,,999,m,2,99,r,TEST,2021_Aug_20_1058,distractmap,2020.2.10,59.99847601313559,"['Left Face', 'Abdomen']",
6,"[0.2, 0]",0,,,,,0,27,27,27,,,,,,,,,,,,,,,,,,,,,,None,None,"[0, 0, 0]",203.71953280002344,205.71902900002897,203.71953280002344,204.7195244000759,204.7028875000542,205.70289820001926,"[0, 0, 0]",0,203.71953280002344,205.71902900002897,,,,,,,,,999,m,2,99,r,TEST,2021_Aug_20_1058,distractmap,2020.2.10,59.99847601313559,"['Left Face', 'Abdomen']",
2,"[0, 0.2]",0,,,,,0,28,28,28,,,,,,,,,,,,,,,,,,,,,,None,None,"[0, 0, 0]",205.73627130000386,207.73583860008512,205.73627130000386,206.73629900009837,206.71952949999832,207.71954830002505,"[0, 0, 0]",0,205.73627130000386,207.73583860008512,,,,,,,,,999,m,2,99,r,TEST,2021_Aug_20_1058,distractmap,2020.2.10,59.99847601313559,"['Left Face', 'Abdomen']",
5,"[0, 0]",0,,,,,0,29,29,29,,,,,,,,,,,,,,,,,,,,,,None,None,"[0, 0, 0]",207.75287870003376,209.7525386000052,207.75287870003376,208.75292950007133,208.73625890002586,209.73626430006698,"[0, 0, 0]",0,207.75287870003376,209.7525386000052,,,,,,,,,999,m,2,99,r,TEST,2021_Aug_20_1058,distractmap,2020.2.10,59.99847601313559,"['Left Face', 'Abdomen']",
,,,,,,,,,,,,,,,,,,,,,,,,,,,209.80124820000492,None,space,209.80124820000492,None,,,,,,,,,,,,,,,,,,,,,,999,m,2,99,r,TEST,2021_Aug_20_1058,distractmap,2020.2.10,59.99847601313559,"['Left Face', 'Abdomen']",
5,"[0, 0]",None,0,0,0,0,,,,,266.78495590004604,None,273.5520814000629,None,273.5520814000629,274.5533294000197,274.5200893000001,275.5200702000875,1,None,None,"[0, 0, 0]",,,273.5520814000629,None,,,,,,,,,,,,,,,,,,,216.5185706000775,216.5185706000775,None,space,16.319700499996543,216.5185706000775,None,"[0, 0, 0]",999,m,2,99,r,TEST,2021_Aug_20_1058,distractmap,2020.2.10,59.99847601313559,"['Left Face', 'Abdomen']",
5,"[0, 0]",1,0,1,1,1,,,,,,,275.5367022000719,None,275.5367022000719,276.53673460008577,276.52009540004656,277.52003490005154,0,None,None,"[0, 0, 0]",,,275.5367022000719,None,,,,,,,,,,,,,,,,,,,,,,,,,,"[0, 0, 0]",999,m,2,99,r,TEST,2021_Aug_20_1058,distractmap,2020.2.10,59.99847601313559,"['Left Face', 'Abdomen']",
4,"[-0.2, 0]",0,0,2,2,2,,,,,,,277.5367792000761,277.5367792000761,277.5367792000761,278.53675580001436,278.5200961000519,279.5200813000556,0,None,None,"[0, 0, 0]",,,277.5367792000761,277.5367792000761,,,,,,,,,,,,,,,,,,,,,,,,,,"[0, 0, 0]",999,m,2,99,r,TEST,2021_Aug_20_1058,distractmap,2020.2.10,59.99847601313559,"['Left Face', 'Abdomen']",
2,"[0, 0.2]",0,0,3,3,3,,,,,,,279.53679020004347,279.53679020004347,279.53679020004347,280.53676230006386,280.5201074000215,281.5201377000194,0,None,None,"[0, 0, 0]",,,279.53679020004347,279.53679020004347,,,,,,,,,,,,,,,,,,,,,,,,,,"[0, 0, 0]",999,m,2,99,r,TEST,2021_Aug_20_1058,distractmap,2020.2.10,59.99847601313559,"['Left Face', 'Abdomen']",
6,"[0.2, 0]",0,0,4,4,4,,,,,,,281.5858591001015,281.5858591001015,281.5858591001015,282.58689080004115,282.57013490004465,None,0,None,None,"[0, 0, 0]",,,281.5858591001015,281.5858591001015,,,,,,,,,,,,,,,,,,,,,,,,,,"[0, 0, 0]",999,m,2,99,r,TEST,2021_Aug_20_1058,distractmap,2020.2.10,59.99847601313559,"['Left Face', 'Abdomen']",
8,"[0, -0.2]",0,0,5,5,5,,,,,,,283.5535173000535,None,283.5535173000535,284.5534844000358,284.5367838999955,285.53682180005126,0,None,None,"[0, 0, 0]",,,283.5535173000535,None,,,,,,,,,,,,,,,,,,,,,,,,,,"[0, 0, 0]",999,m,2,99,r,TEST,2021_Aug_20_1058,distractmap,2020.2.10,59.99847601313559,"['Left Face', 'Abdomen']",
1,"[-0.2, 0.2]",0,0,6,6,6,,,,,,,285.5534743000753,285.5534743000753,285.5534743000753,286.5534992000321,286.53682830010075,287.5369555000216,0,None,None,"[0, 0, 0]",,,285.5534743000753,285.5534743000753,,,,,,,,,,,,,,,,,,,,,,,,,,"[0, 0, 0]",999,m,2,99,r,TEST,2021_Aug_20_1058,distractmap,2020.2.10,59.99847601313559,"['Left Face', 'Abdomen']",
4,"[-0.2, 0]",0,0,7,7,7,,,,,,,287.5536552000558,287.5536552000558,287.5536552000558,288.55353610008024,288.536819800036,289.53682050004136,0,None,None,"[0, 0, 0]",,,287.5536552000558,287.5536552000558,,,,,,,,,,,,,,,,,,,,,,,,,,"[0, 0, 0]",999,m,2,99,r,TEST,2021_Aug_20_1058,distractmap,2020.2.10,59.99847601313559,"['Left Face', 'Abdomen']",
8,"[0, -0.2]",0,0,8,8,8,,,,,,,289.5535025000572,289.5535025000572,289.5535025000572,290.55350060004275,290.5367570000235,291.5368737000972,0,None,None,"[0, 0, 0]",,,289.5535025000572,289.5535025000572,,,,,,,,,,,,,,,,,,,,,,,,,,"[0, 0, 0]",999,m,2,99,r,TEST,2021_Aug_20_1058,distractmap,2020.2.10,59.99847601313559,"['Left Face', 'Abdomen']",
8,"[0, -0.2]",1,0,9,9,9,,,,,,,291.55357150000054,291.55357150000054,291.55357150000054,292.55350400006864,292.53688240004703,293.5368677000515,0,None,None,"[0, 0, 0]",,,291.55357150000054,291.55357150000054,,,,,,,,,,,,,,,,,,,,,,,,,,"[0, 0, 0]",999,m,2,99,r,TEST,2021_Aug_20_1058,distractmap,2020.2.10,59.99847601313559,"['Left Face', 'Abdomen']",
,,,,,,,,,,,293.5543607000727,None,,,,,,,,,,,,,,,,,,,,,,,,,,,,,,,,,,,,,,,,,,,,,,,,,,,,
