	onset	duration	rt	response	correct	bodySite	temperature	condition
0	537.3030823000008	1.9708846999856178			1.0	Abdomen	46.0	1back
1	539.293460099987	2.0055682999955025			0.0	Abdomen	46.0	1back
2	541.2950529999798	2.004746799968416			0.0	Abdomen	46.0	1back
3	543.2969770999916	2.004039899969939			0.0	Abdomen	46.0	1back
4	545.2986123999872	2.005479599989485			0.0	Abdomen	46.0	1back
5	547.3006466999941	2.003169700008584			0.0	Abdomen	46.0	1back
6	549.302496999997	2.005644700024277			0.0	Abdomen	46.0	1back
7	intensity: 	50.0						
8	592.3922529999982	1.9193285999936052			1.0	Abdomen	46.0	1back
9	594.3412264999934	2.0112316999875475			0.0	Abdomen	46.0	1back
10	596.3425513999828	2.003660599992145			0.0	Abdomen	46.0	1back
11	598.3442662000016	2.0067856999812648			0.0	Abdomen	46.0	1back
12	600.3460040999926	2.0080756999959704			0.0	Abdomen	46.0	1back
13	602.3478999999934	2.004281200002879			0.0	Abdomen	46.0	1back
14	604.3499848000065	2.005233500007307			0.0	Abdomen	46.0	1back
15	intensity: 	50.0						
16	636.4182626999973	1.9448017999820877			1.0	Abdomen	46.0	1back
17	638.3785846999963	2.0068869999959134			0.0	Abdomen	46.0	1back
18	640.3807845999836	2.0030482999864034			0.0	Abdomen	46.0	1back
19	642.3826989000081	2.0040688999870326			0.0	Abdomen	46.0	1back
20	644.3846078999923	2.0110608999966644			0.0	Abdomen	46.0	1back
21	646.385548899998	2.007805000030203			0.0	Abdomen	46.0	1back
22	648.387327000004	2.0086752000206616			0.0	Abdomen	46.0	1back
23	intensity: 	50.0						
24	669.4901963000011	1.9278282999584917			1.0	Abdomen	46.0	1back
25	671.4467985999945	2.0034563000081107			0.0	Abdomen	46.0	1back
26	673.4849251999985	1.8832447000022512			0.0	Abdomen	46.0	1back
27	675.4966084999905	1.9992891000001691			0.0	Abdomen	46.0	1back
28	677.495720499981	2.0085607999935746			0.0	Abdomen	46.0	1back
29	679.4971894999908	2.0081425000098534			0.0	Abdomen	46.0	1back
30	681.5150025000039	1.9981980999873485			0.0	Abdomen	46.0	1back
31	intensity: 	50.0						
32	707.6691179999907	1.9479209999844898			1.0	Abdomen	46.0	2back
33	709.6885136000055	1.9977825999667402			1.0	Abdomen	46.0	2back
34	711.7084906999953	2.0048392999742646			0.0	Abdomen	46.0	2back
35	713.7288862999994	1.9995766000065487			0.0	Abdomen	46.0	2back
36	715.7450976999826	2.0080602999951225			0.0	Abdomen	46.0	2back
37	717.763627999986	2.003981699992437			0.0	Abdomen	46.0	2back
38	719.7819557999901	2.009515100013232			0.0	Abdomen	46.0	2back
39	intensity:	50.0						
40	738.8750568999967	1.9220462999655865			1.0	Abdomen	46.0	2back
41	740.8183172999998	2.004707200016128			1.0	Abdomen	46.0	2back
42	742.8418849000009	1.9947643999767024			0.0	Abdomen	46.0	2back
43	744.8536426000064	2.004712100024335			0.0	Abdomen	46.0	2back
44	746.872074599989	2.0083137000037823			0.0	Abdomen	46.0	2back
45	748.8948357999907	2.0049132999847643			0.0	Abdomen	46.0	2back
46	750.9088002000062	2.0056697999534663			0.0	Abdomen	46.0	2back
47	intensity:	100.0						
48	770.0188369999814	1.9279020999965724			1.0	Abdomen	46.0	2back
49	771.9611784000008	2.0045452999765985			1.0	Abdomen	46.0	2back
50	773.9787962999835	2.008084000030067			0.0	Abdomen	46.0	2back
51	775.9968387999979	2.0102414999855682			0.0	Abdomen	46.0	2back
52	778.0153188999975	2.007166800001869			0.0	Abdomen	46.0	2back
53	780.0341113999893	1.9895237000018824			0.0	Abdomen	46.0	2back
54	782.0374849000073	1.969113600003766			0.0	Abdomen	46.0	2back
55	intensity:	50.0						
56	801.0974559999886	1.9692132999771275			1.0	Abdomen	46.0	2back
57	803.0868460999918	2.003037899994524			1.0	Abdomen	46.0	2back
58	805.1053784999822	2.009147499979008			0.0	Abdomen	46.0	2back
59	807.1236011000001	1.998203100025421			0.0	Abdomen	46.0	2back
60	809.1254137000069	2.0081243999884464			0.0	Abdomen	46.0	2back
61	811.1442628999939	1.9780744000163395			0.0	Abdomen	46.0	2back
62	813.1869762999995	1.9916257000004407			0.0	Abdomen	46.0	2back
63	intensity:	50.0						
64	832.2492281000013	1.9734027999802493			1.0	Abdomen	46.0	2back
65	834.2470972999872	2.005767900001956			1.0	Abdomen	46.0	2back
66	836.2654708999908	2.0044457000039984			0.0	Abdomen	46.0	2back
67	838.283818099997	1.9967389999656007			0.0	Abdomen	46.0	2back
68	840.2856028999959	2.007149799988838			0.0	Abdomen	46.0	2back
69	842.3039165999799	2.011157799977809			0.0	Abdomen	46.0	2back
70	844.3223508000083	2.006483200006187			0.0	Abdomen	46.0	2back
71	intensity:	50.0						
72	863.4014730000054	1.9283564000215847			1.0	Abdomen	46.0	2back
73	865.378389599995	1.9942629999713972			1.0	Abdomen	46.0	2back
74	867.3922877000005	2.011822500033304			0.0	Abdomen	46.0	2back
75	869.4104959999968	2.0080176000192296			0.0	Abdomen	46.0	2back
76	871.435195500002	1.9872163999825716			0.0	Abdomen	46.0	2back
77	873.4707466999826	1.9917377999809105			0.0	Abdomen	46.0	2back
78	875.4518068000034	2.007359399984125			0.0	Abdomen	46.0	2back
79	intensity:	50.0						
80	889.5480079999834	1.9198242999846116			1.0	Abdomen	46.0	2back
81	891.496040500002	2.0003633000305854			1.0	Abdomen	46.0	2back
82	893.5145302999881	1.9966959999874234			0.0	Abdomen	46.0	2back
83	895.5165314000042	1.9980889999715146			0.0	Abdomen	46.0	2back
84	897.5317558999814	1.993552699976135			0.0	Abdomen	46.0	2back
85	899.5365202999965	2.0089672000030987			0.0	Abdomen	46.0	2back
86	901.5548233999871	2.0090247000043746			0.0	Abdomen	46.0	2back
87	intensity:	50.0						
88	926.6061435999873	1.9673488999542315			1.0	Abdomen	46.0	2back
89	928.5953489999811	1.9936581999936607			1.0	Abdomen	46.0	2back
90	930.6041290999856	2.003119000000879			0.0	Abdomen	46.0	2back
91	932.6163659000013	2.0002897000231314			0.0	Abdomen	46.0	2back
92	934.6334858000046	1.9966494000109378			0.0	Abdomen	46.0	2back
93	936.6350252999982	1.9926080000004731			0.0	Abdomen	46.0	2back
94	938.6460310999828	1.9997898000001442			0.0	Abdomen	46.0	2back
95	intensity:	50.0						
96	963.7279710999865	1.956600499979686			1.0	Abdomen	46.0	1back
97	965.7100766999938	2.0028706999728456			0.0	Abdomen	46.0	1back
98	967.7126430000062	1.9938522000156809			0.0	Abdomen	46.0	1back
99	969.731171899999	2.0016419000166934			0.0	Abdomen	46.0	1back
100	971.7335751999926	2.006641000014497			0.0	Abdomen	46.0	1back
101	973.7337060999998	1.9887745000014547			0.0	Abdomen	46.0	1back
102	975.746939899982	2.0062262999999803			0.0	Abdomen	46.0	1back
103	intensity:	50.0						
104	1007.8707532999979	1.9277290999889374			1.0	Abdomen	46.0	1back
105	1009.81455369998	2.0032862999942154			0.0	Abdomen	46.0	1back
106	1011.8206606000022	1.9893065000069328			0.0	Abdomen	46.0	1back
107	1013.8346159000066	2.0103820999793243			0.0	Abdomen	46.0	1back
108	1015.8371079000062	2.004761799995322			0.0	Abdomen	46.0	1back
109	1017.838757599995	2.007082799973432			0.0	Abdomen	46.0	1back
110	1019.8481928999827	1.9903724000323564			0.0	Abdomen	46.0	1back
111	intensity:	50.0						
112	1063.3878829999885	1.500491099926876			1.0	Abdomen	46.0	1back
113	1064.914727700001	1.9933374000247568			0.0	Abdomen	46.0	1back
114	1066.9365561000013	1.9996924999868497			0.0	Abdomen	46.0	1back
115	1068.9502309999953	1.9953610000084154			0.0	Abdomen	46.0	1back
116	1070.9821370999853	1.9951830999634694			0.0	Abdomen	46.0	1back
117	1073.0009589999972	2.0048291999846697			0.0	Abdomen	46.0	1back
118	1075.0092932999833	1.9991341999848373			0.0	Abdomen	46.0	1back
119	intensity:	50.0						
120	1107.5710715999885	1.4819885999895632			1.0	Abdomen	46.0	1back
121	1109.0863097999827	1.988660599978175			0.0	Abdomen	46.0	1back
122	1111.1015797999862	1.9973439000023063			0.0	Abdomen	46.0	1back
123	1113.1302844999882	1.993159299978288			0.0	Abdomen	46.0	1back
124	1115.1384322000085	2.0103084000002127			0.0	Abdomen	46.0	1back
125	1117.1404377	2.000126900005853			0.0	Abdomen	46.0	1back
126	1119.1417915000056	2.0105130999872927			0.0	Abdomen	46.0	1back
127	intensity:	83.79629629629632						
