	SID	biopac_channel	body_site	condition	correct	date	duration	handedness	mouseclick	onset	rt	scanner	score	session	sex	skin_site	temperature	value
0	2553	51	Chest	Expectancy		2023_Mar_09_2019	5.004274662816897	R		3.1012465998064727	3.9004385999869555	MS MH		3	M	1		31.11111111111111
1	2553	44	Chest	0-back Instruction		2023_Mar_09_2019	5.005448270356283	R		8.533581299940124		MS MH		3	M	1		
2	2553	7	Chest	Pre-Trial Jitter		2023_Mar_09_2019	7.012063220143318	R		13.546988899819553		MS MH		3	M	1		
3	2553	44.0	Chest	pretrialfixation		2023_Mar_09_2019	1.006973990239203	R		20.85791439982131		MS MH		3	M	1		
4	2553		Chest	0-back	1.0	2023_Mar_09_2019	1.9999062202405185	R	0.0	21.87813019985333	0.5966802998445928	MS MH	12.5	3	M	1	48.5	
5	2553		Chest	0-back	1.0	2023_Mar_09_2019	1.9872380099259317	R	0.0	23.884493599878624	0.36331239994615316	MS MH	25.0	3	M	1	48.5	
6	2553		Chest	0-back	1.0	2023_Mar_09_2019	1.987462209770456	R	0.0	25.884399799862877	0.3797476999461651	MS MH	37.5	3	M	1	48.5	
7	2553		Chest	0-back	1.0	2023_Mar_09_2019	1.9884813099633902	R	0.0	27.88393109990284	0.32997309998609126	MS MH	50.0	3	M	1	48.5	
8	2553		Chest	0-back	1.0	2023_Mar_09_2019	1.9882536097429693	R	0.0	29.88403069996275	0.3466800998430699	MS MH	62.5	3	M	1	48.5	
9	2553		Chest	0-back	1.0	2023_Mar_09_2019	1.9876786100212485	R	0.0	31.884349399944767	0.24661680008284748	MS MH	75.0	3	M	1	48.5	
10	2553		Chest	0-back	1.0	2023_Mar_09_2019	1.9883317099884152	R	0.0	33.884058999828994	0.26338139991275966	MS MH	87.5	3	M	1	48.5	
11	2553		Chest	0-back	1.0	2023_Mar_09_2019	1.9883275097236037	R	0.0	35.88407119992189	0.26222390006296337	MS MH	100.0	3	M	1	48.5	
12	2553	48.0	Chest	ScoreReport		2023_Mar_09_2019	5.002957109827548	R		37.89347819983959		MS MH		3	M	1		
13	2553	8	Chest	Post-Trial Jitter		2023_Mar_09_2019	4.993255340261385	R		42.95669819996692		MS MH		3	M	1		
14	2553	20	Chest	PainBinary		2023_Mar_09_2019	5.0119621201884	R		47.97240619990043	1.4000437001232058	MS MH		3	M	1		1.0
15	2553	21	Chest	IntensityRating		2023_Mar_09_2019	5.012704520020634	R		53.00542199984193	3.449993700021878	MS MH		3	M	1		22.65432098765432
16	2553	23	Chest	DistractBinary		2023_Mar_09_2019	5.005800320068374	R		58.03393289982341	2.4003431000746787	MS MH		3	M	1		-1.0
17	2553	9	Chest	Post-Q-Jitter		2023_Mar_09_2019	4.996155109954998	R		63.03880019998178		MS MH		3	M	1		
18	2553	51	Chest	Expectancy		2023_Mar_09_2019	5.014525420963764	R		69.21304799988866	4.083725299919024	MS MH		3	M	1		30.185185185185187
19	2553	44	Chest	0-back Instruction		2023_Mar_09_2019	5.013515550177544	R		74.62192979990505		MS MH		3	M	1		
20	2553	7	Chest	Pre-Trial Jitter		2023_Mar_09_2019	9.006479809759185	R		79.64214899996296		MS MH		3	M	1		
21	2553	44.0	Chest	pretrialfixation		2023_Mar_09_2019	1.0101808302570134	R		89.01537159993313		MS MH		3	M	1		
22	2553		Chest	0-back	1.0	2023_Mar_09_2019	1.9882722101174295	R	0.0	90.02635489986278	0.5963043998926878	MS MH	12.5	3	M	1	48.5	
23	2553		Chest	0-back	1.0	2023_Mar_09_2019	1.9863573098555207	R	0.0	92.03563699987717	0.61350840004161	MS MH	25.0	3	M	1	48.5	
24	2553		Chest	0-back	1.0	2023_Mar_09_2019	1.9885534099303186	R	0.0	94.03450079984032	0.3133489000611007	MS MH	37.5	3	M	1	48.5	
25	2553		Chest	0-back	1.0	2023_Mar_09_2019	1.9866324099712074	R	0.0	96.03557549999095	0.22957110009156168	MS MH	50.0	3	M	1	48.5	
26	2553		Chest	0-back	1.0	2023_Mar_09_2019	1.9880123098846525	R	0.0	98.03488239995204	0.23008430004119873	MS MH	62.5	3	M	1	48.5	
27	2553		Chest	0-back	1.0	2023_Mar_09_2019	1.9878085099626333	R	0.0	100.0350009999238	0.2634154998231679	MS MH	75.0	3	M	1	48.5	
28	2553		Chest	0-back	1.0	2023_Mar_09_2019	1.987417709780857	R	0.0	102.03521839994937	0.3467873998451978	MS MH	87.5	3	M	1	48.5	
29	2553		Chest	0-back	1.0	2023_Mar_09_2019	1.987728409934789	R	0.0	104.03507300000638	0.3460903000086546	MS MH	100.0	3	M	1	48.5	
30	2553	48.0	Chest	ScoreReport		2023_Mar_09_2019	5.003751510055736	R		106.04376459983177		MS MH		3	M	1		
31	2553	8	Chest	Post-Trial Jitter		2023_Mar_09_2019	5.0007502399384975	R		111.10361759993248		MS MH		3	M	1		
32	2553	20	Chest	PainBinary		2023_Mar_09_2019	5.002814919920638	R		116.11930789984763	0.8836201000958681	MS MH		3	M	1		1.0
33	2553	21	Chest	IntensityRating		2023_Mar_09_2019	5.013724019983783	R		121.13895609998144	4.299945200094953	MS MH		3	M	1		26.543209876543212
34	2553	23	Chest	DistractBinary		2023_Mar_09_2019	5.00457941996865	R		126.16858589998446	2.0002943000290543	MS MH		3	M	1		-1.0
35	2553	9	Chest	Post-Q-Jitter		2023_Mar_09_2019	4.996738309739158	R		131.17254679999314		MS MH		3	M	1		
36	2553	43	Chest	2-back Instruction		2023_Mar_09_2019	5.009734419872984	R		136.1911052998621		MS MH		3	M	1		
37	2553	7	Chest	Pre-trial Jitter		2023_Mar_09_2019	9.003869409905747	R		141.2107855998911		MS MH		3	M	1		
38	2553	44.0	Chest	pretrialfixation		2023_Mar_09_2019	1.0011022700928152	R		150.49556289985776		MS MH		3	M	1		
39	2553		Chest	2-back	1.0	2023_Mar_09_2019	1.9895645098295063	R		151.5096905999817		MS MH	12.5	3	M	1	32.0	
40	2553		Chest	2-back	1.0	2023_Mar_09_2019	1.9864931099582464	R		153.51957220002078		MS MH	25.0	3	M	1	32.0	
41	2553		Chest	2-back	1.0	2023_Mar_09_2019	1.9875353097449988	R	2	155.51907259994186	0.7130075001623482	MS MH	37.5	3	M	1	32.0	
42	2553		Chest	2-back	1.0	2023_Mar_09_2019	1.9870656097773463	R	2	157.51932249986567	0.645621299976483	MS MH	50.0	3	M	1	32.0	
43	2553		Chest	2-back	1.0	2023_Mar_09_2019	1.9865524100605398	R	0	159.51959649985656	0.3797450999263674	MS MH	62.5	3	M	1	32.0	
44	2553		Chest	2-back	1.0	2023_Mar_09_2019	1.9875074098818004	R	0	161.51910109980963	0.6965787000954151	MS MH	75.0	3	M	1	32.0	
45	2553		Chest	2-back	1.0	2023_Mar_09_2019	1.9866632099729031	R	2	163.5195927999448	0.6969655998982489	MS MH	87.5	3	M	1	32.0	
46	2553		Chest	2-back	1.0	2023_Mar_09_2019	1.9870254101697356	R	2	165.51941409986466	0.5468590999953449	MS MH	100.0	3	M	1	32.0	
47	2553	48.0	Chest	ScoreReport		2023_Mar_09_2019	5.000657410128042	R		167.52931439992972		MS MH		3	M	1		
48	2553	8	Chest	Post-trial Jitter		2023_Mar_09_2019	5.004561340203509	R		172.58572729979642		MS MH		3	M	1		
49	2553	43	Chest	2-back Instruction		2023_Mar_09_2019	5.007646820042282	R		177.6092375998851		MS MH		3	M	1		
50	2553	7	Chest	Pre-trial Jitter		2023_Mar_09_2019	9.000505609903485	R		182.6295653998386		MS MH		3	M	1		
51	2553	44.0	Chest	pretrialfixation		2023_Mar_09_2019	1.0133878705091774	R		191.8981869998388		MS MH		3	M	1		
52	2553		Chest	2-back	1.0	2023_Mar_09_2019	1.9913855099584907	R		192.90917919995263		MS MH	12.5	3	M	1	32.0	
53	2553		Chest	2-back	1.0	2023_Mar_09_2019	1.9859216099139303	R		194.92034729989246		MS MH	25.0	3	M	1	32.0	
54	2553		Chest	2-back	1.0	2023_Mar_09_2019	1.9870670100208372	R	2	196.91971339983866	0.7134058999363333	MS MH	37.5	3	M	1	32.0	
55	2553		Chest	2-back	1.0	2023_Mar_09_2019	1.9872038101311773	R	2	198.9196770999115	0.5797767001204193	MS MH	50.0	3	M	1	32.0	
56	2553		Chest	2-back	1.0	2023_Mar_09_2019	1.9867801098152995	R	0	200.9199057999067	0.49675659998320043	MS MH	62.5	3	M	1	32.0	
57	2553		Chest	2-back	1.0	2023_Mar_09_2019	1.98580760974437	R	0	202.92041119979694	0.7630594000220299	MS MH	75.0	3	M	1	32.0	
58	2553		Chest	2-back	1.0	2023_Mar_09_2019	1.9863140101078898	R	2	204.92020739987493	0.9968165999744087	MS MH	87.5	3	M	1	32.0	
59	2553		Chest	2-back	1.0	2023_Mar_09_2019	1.9867009099107236	R	2	206.92001069989055	0.7802061000838876	MS MH	100.0	3	M	1	32.0	
60	2553	48.0	Chest	ScoreReport		2023_Mar_09_2019	5.000962309772149	R		208.92958669993095		MS MH		3	M	1		
61	2553	8	Chest	Post-trial Jitter		2023_Mar_09_2019	9.001923840027303	R		213.9875109998975		MS MH		3	M	1		
62	2553	51	Chest	Expectancy		2023_Mar_09_2019	5.002106599975377	R		223.304226399865		MS MH		3	M	1		24.50617283950617
63	2553	45	Chest	2-back Instruction		2023_Mar_09_2019	5.011440650559962	R		228.70788979995996		MS MH		3	M	1		
64	2553	7	Chest	Pre-trial Jitter		2023_Mar_09_2019	5.001574709778652	R		233.72953509981744		MS MH		3	M	1		
65	2553	44.0	Chest	pretrialfixation		2023_Mar_09_2019	1.0136156100779772	R		239.0652188998647		MS MH		3	M	1		
66	2553		Chest	2-back	1.0	2023_Mar_09_2019	1.9912243098951876	R		240.07642479985952		MS MH	12.5	3	M	1	48.5	
67	2553		Chest	2-back	1.0	2023_Mar_09_2019	1.9855711101554334	R		242.0876205000095		MS MH	25.0	3	M	1	48.5	
68	2553		Chest	2-back	1.0	2023_Mar_09_2019	1.9869919100310653	R	0	244.08694539987482	0.5468913000077009	MS MH	37.5	3	M	1	48.5	
69	2553		Chest	2-back	1.0	2023_Mar_09_2019	1.986331710126251	R	2	246.08729769987985	0.7796847000718117	MS MH	50.0	3	M	1	48.5	
70	2553		Chest	2-back	1.0	2023_Mar_09_2019	1.9860601099207997	R	2	248.08745429990813	0.5797591998707503	MS MH	62.5	3	M	1	48.5	
71	2553		Chest	2-back	1.0	2023_Mar_09_2019	1.9866263100411743	R	2	250.0871875998564	0.5967796000186354	MS MH	75.0	3	M	1	48.5	
72	2553		Chest	2-back	1.0	2023_Mar_09_2019	1.9859977099113166	R	0	252.08751179999672	0.44625800009816885	MS MH	87.5	3	M	1	48.5	
73	2553		Chest	2-back	1.0	2023_Mar_09_2019	1.9865332101471722	R	2	254.087236299878	0.5135041000321507	MS MH	100.0	3	M	1	48.5	
74	2553	48.0	Chest	ScoreReport		2023_Mar_09_2019	5.001054909778759	R		256.0967052998021		MS MH		3	M	1		
75	2553	8	Chest	Post-trial Jitter		2023_Mar_09_2019	7.000044840388	R		261.1556322998367		MS MH		3	M	1		
76	2553	20	Chest	PainBinary		2023_Mar_09_2019	5.000622719991952	R		268.1720826998353	1.3503293001558632	MS MH		3	M	1		-1.0
77	2553	21	Chest	IntensityRating		2023_Mar_09_2019	5.010595520026982	R		273.1921896999702		MS MH		3	M	1		10.61728395061728
78	2553	9	Chest	Post-Q-Jitter		2023_Mar_09_2019	6.994521009968594	R		278.2085086000152		MS MH		3	M	1		
79	2553	51	Chest	Expectancy		2023_Mar_09_2019	5.005919310264289	R		285.53621069993824	3.883682600222528	MS MH		3	M	1		24.93827160493827
80	2553	45	Chest	2-back Instruction		2023_Mar_09_2019	5.002875350182876	R		290.9378313999623		MS MH		3	M	1		
81	2553	7	Chest	Pre-trial Jitter		2023_Mar_09_2019	7.016648020129651	R		295.9476629998535		MS MH		3	M	1		
82	2553	44.0	Chest	pretrialfixation		2023_Mar_09_2019	1.0014515903312713	R		303.2636351999827		MS MH		3	M	1		
83	2553		Chest	2-back	1.0	2023_Mar_09_2019	1.9890422099269927	R		304.2782099999022		MS MH	12.5	3	M	1	48.5	
84	2553		Chest	2-back	1.0	2023_Mar_09_2019	1.9856884100008756	R		306.28825899981894		MS MH	25.0	3	M	1	48.5	
85	2553		Chest	2-back	1.0	2023_Mar_09_2019	1.9869442097842693	R	2	308.287628499791	0.49620699998922646	MS MH	37.5	3	M	1	48.5	
86	2553		Chest	2-back	1.0	2023_Mar_09_2019	1.9864141100551933	R	0	310.28789209993556	0.34657640010118484	MS MH	50.0	3	M	1	48.5	
87	2553		Chest	2-back	1.0	2023_Mar_09_2019	1.9872608098667115	R	2	312.287510599941	0.5300209000706673	MS MH	62.5	3	M	1	48.5	
88	2553		Chest	2-back	1.0	2023_Mar_09_2019	1.9847648099530488	R	2	314.2887738000136	0.5134906000457704	MS MH	75.0	3	M	1	48.5	
89	2553		Chest	2-back	1.0	2023_Mar_09_2019	1.9868381100241095	R	2	316.2877467998769	0.5298462000209838	MS MH	87.5	3	M	1	48.5	
90	2553		Chest	2-back	1.0	2023_Mar_09_2019	1.9854565099813044	R	0	318.2884684999008	0.6298735998570919	MS MH	100.0	3	M	1	48.5	
91	2553	48.0	Chest	ScoreReport		2023_Mar_09_2019	5.000826210016385	R		320.2974854998756		MS MH		3	M	1		
92	2553	8	Chest	Post-trial Jitter		2023_Mar_09_2019	7.001192140392959	R		325.3640276999213		MS MH		3	M	1		
93	2553	20	Chest	PainBinary		2023_Mar_09_2019	5.000008219853044	R		332.3896831998136	2.9505624000448734	MS MH		3	M	1		-1.0
94	2553	21	Chest	IntensityRating		2023_Mar_09_2019	5.010268320096657	R		337.40960709983483	3.1332841999828815	MS MH		3	M	1		18.580246913580247
95	2553	9	Chest	Post-Q-Jitter		2023_Mar_09_2019	7.009686110075563	R		342.4266156000085		MS MH		3	M	1		
96	2553	42	Chest	0-back Instruction		2023_Mar_09_2019	5.005520419916138	R		349.46210939995944		MS MH		3	M	1		
97	2553	7	Chest	Pre-Trial Jitter		2023_Mar_09_2019	7.000401609810069	R		354.481395999901		MS MH		3	M	1		
98	2553	44.0	Chest	pretrialfixation		2023_Mar_09_2019	1.0099021701607853	R		361.75169579987414		MS MH		3	M	1		
99	2553		Chest	0-back	1.0	2023_Mar_09_2019	1.989896209910512	R	0.0	362.7617259998806	0.9461879001464695	MS MH	12.5	3	M	1	32.0	
100	2553		Chest	0-back	1.0	2023_Mar_09_2019	1.9873857100028545	R	0.0	364.77126999991015	0.34643080015666783	MS MH	25.0	3	M	1	32.0	
101	2553		Chest	0-back	1.0	2023_Mar_09_2019	1.9883267099503428	R	0.0	366.7709054998122	0.24662480014376342	MS MH	37.5	3	M	1	32.0	
102	2553		Chest	0-back	1.0	2023_Mar_09_2019	1.9871541098691523	R	0.0	368.77149009983987	0.4630952998995781	MS MH	50.0	3	M	1	32.0	
103	2553		Chest	0-back	1.0	2023_Mar_09_2019	1.9882247098721564	R	0.0	370.7709642997943	0.279760800069198	MS MH	62.5	3	M	1	32.0	
104	2553		Chest	0-back	1.0	2023_Mar_09_2019	1.9884203099645674	R	0.0	372.7708908999339	0.3295560998376459	MS MH	75.0	3	M	1	32.0	
105	2553		Chest	0-back	1.0	2023_Mar_09_2019	1.988550310023129	R	0.0	374.7708455999382	0.2797707999125123	MS MH	87.5	3	M	1	32.0	
106	2553		Chest	0-back	1.0	2023_Mar_09_2019	1.9880488100461662	R	0.0	376.7711282998789	0.41338060004636645	MS MH	100.0	3	M	1	32.0	
107	2553	48.0	Chest	ScoreReport		2023_Mar_09_2019	5.004423310048878	R		378.7796274998691		MS MH		3	M	1		
108	2553	8	Chest	Post-Trial Jitter		2023_Mar_09_2019	8.99889304023236	R		383.84079519985244		MS MH		3	M	1		
109	2553	42	Chest	0-back Instruction		2023_Mar_09_2019	5.007126520154998	R		392.8617521999404		MS MH		3	M	1		
110	2553	7	Chest	Pre-Trial Jitter		2023_Mar_09_2019	5.002442809985951	R		397.8808191998396		MS MH		3	M	1		
111	2553	44.0	Chest	pretrialfixation		2023_Mar_09_2019	1.0112995700910687	R		403.15138889988884		MS MH		3	M	1		
112	2553		Chest	0-back	1.0	2023_Mar_09_2019	1.9889863098505884	R	0.0	404.1625665000174	0.679520099889487	MS MH	12.5	3	M	1	32.0	
113	2553		Chest	0-back	1.0	2023_Mar_09_2019	1.9874789100140333	R	0.0	406.1717132998165	0.330066499998793	MS MH	25.0	3	M	1	32.0	
114	2553		Chest	0-back	1.0	2023_Mar_09_2019	1.9868528097867966	R	0.0	408.17205079994164	0.4801062000915408	MS MH	37.5	3	M	1	32.0	
115	2553		Chest	0-back	1.0	2023_Mar_09_2019	1.9886295096948743	R	0.0	410.1712007999886	0.4298133999109268	MS MH	50.0	3	M	1	32.0	
116	2553		Chest	0-back	1.0	2023_Mar_09_2019	1.9888668097555637	R	0.0	412.17107429984026	0.4301018000114709	MS MH	62.5	3	M	1	32.0	
117	2553		Chest	0-back	1.0	2023_Mar_09_2019	1.9882475098129362	R	0.0	414.1713999998756	0.2963227001018822	MS MH	75.0	3	M	1	32.0	
118	2553		Chest	0-back	1.0	2023_Mar_09_2019	1.9882065097335726	R	0.0	416.1714523998089	0.4633762000594288	MS MH	87.5	3	M	1	32.0	
119	2553		Chest	0-back	1.0	2023_Mar_09_2019	1.9879697100259364	R	0.0	418.17159669985995	0.3967375000938773	MS MH	100.0	3	M	1	32.0	
120	2553	48.0	Chest	ScoreReport		2023_Mar_09_2019	5.004401709884405	R		420.18006980000064		MS MH		3	M	1		
121	2553	8	Chest	Post-Trial Jitter		2023_Mar_09_2019	6.99986244016327	R		425.24073769990355		MS MH		3	M	1		
122	2553	51	Chest	Expectancy		2023_Mar_09_2019	5.014131709933281	R		432.56701030000113	4.583706900011748	MS MH		3	M	1		16.54320987654321
123	2553	45	Chest	2-back Instruction		2023_Mar_09_2019	4.999739150283858	R		437.9742736998014		MS MH		3	M	1		
124	2553	7	Chest	Pre-trial Jitter		2023_Mar_09_2019	7.001547909807414	R		442.98174600000493		MS MH		3	M	1		
125	2553	44.0	Chest	pretrialfixation		2023_Mar_09_2019	1.012307490222156	R		450.2847484999802		MS MH		3	M	1		
126	2553		Chest	2-back	1.0	2023_Mar_09_2019	1.9890219098888338	R		451.2964040997904		MS MH	12.5	3	M	1	48.5	
127	2553		Chest	2-back	1.0	2023_Mar_09_2019	1.9864487098529935	R		453.30605699983425		MS MH	25.0	3	M	1	48.5	
128	2553		Chest	2-back	1.0	2023_Mar_09_2019	1.9868306098505855	R	0	455.3058930998668	0.5132104998920113	MS MH	37.5	3	M	1	48.5	
129	2553		Chest	2-back	1.0	2023_Mar_09_2019	1.9861672099214047	R	2	457.30623449990526	0.5467139000538737	MS MH	50.0	3	M	1	48.5	
130	2553		Chest	2-back	1.0	2023_Mar_09_2019	1.9864889101590961	R	2	459.30611089989543	0.6299833999946713	MS MH	62.5	3	M	1	48.5	
131	2553		Chest	2-back	1.0	2023_Mar_09_2019	1.9860987099818885	R	2	461.30631309980527	0.5800100998021662	MS MH	75.0	3	M	1	48.5	
132	2553		Chest	2-back	1.0	2023_Mar_09_2019	1.98701090994291	R	2	463.3058668000158	0.6968297001440078	MS MH	87.5	3	M	1	48.5	
133	2553		Chest	2-back	1.0	2023_Mar_09_2019	1.9868208097759634	R	2	465.3059952999465	0.7967786998488009	MS MH	100.0	3	M	1	48.5	
134	2553	48.0	Chest	ScoreReport		2023_Mar_09_2019	5.000605709850788	R		467.3158263999503		MS MH		3	M	1		
135	2553	8	Chest	Post-trial Jitter		2023_Mar_09_2019	7.001866339938715	R		472.3735756999813		MS MH		3	M	1		
136	2553	20	Chest	PainBinary		2023_Mar_09_2019	5.000278619816527	R		479.3910949998535	2.1003469999413937	MS MH		3	M	1		1.0
137	2553	21	Chest	IntensityRating		2023_Mar_09_2019	5.008955820230767	R		484.41180389979854	2.6167030001524836	MS MH		3	M	1		22.962962962962962
138	2553	23	Chest	DistractBinary		2023_Mar_09_2019	5.004883720073849	R		489.4388879998587	2.750353500014171	MS MH		3	M	1		-1.0
139	2553	9	Chest	Post-Q-Jitter		2023_Mar_09_2019	6.993934209924191	R		494.44442619988695		MS MH		3	M	1		
140	2553	51	Chest	Expectancy		2023_Mar_09_2019	5.000476100249216	R		501.75791139993817	3.8003858998417854	MS MH		3	M	1		23.209876543209877
141	2553	45	Chest	2-back Instruction		2023_Mar_09_2019	5.000688560074195	R		507.174514999846		MS MH		3	M	1		
142	2553	7	Chest	Pre-trial Jitter		2023_Mar_09_2019	7.001559609780088	R		512.1824705000035		MS MH		3	M	1		
143	2553	44.0	Chest	pretrialfixation		2023_Mar_09_2019	1.012019210262224	R		519.5189688999671		MS MH		3	M	1		
144	2553		Chest	2-back	1.0	2023_Mar_09_2019	1.989625509828329	R		520.5301830999088		MS MH	12.5	3	M	1	48.5	
145	2553		Chest	2-back	1.0	2023_Mar_09_2019	1.9854224100708961	R		522.5406241999008		MS MH	25.0	3	M	1	48.5	
146	2553		Chest	2-back	1.0	2023_Mar_09_2019	1.9876520100515336	R	2	524.5395332998596	0.5467906000558287	MS MH	37.5	3	M	1	48.5	
147	2553		Chest	2-back	1.0	2023_Mar_09_2019	1.9872201099060476	R	2	526.5397655998822	0.6466671000234783	MS MH	50.0	3	M	1	48.5	
148	2553		Chest	2-back	1.0	2023_Mar_09_2019	1.9871846097521484	R	0	528.5397920999676	0.5633712999988347	MS MH	62.5	3	M	1	48.5	
149	2553		Chest	2-back	1.0	2023_Mar_09_2019	1.9863537098281085	R	2	530.5402483998332	0.6131685001309961	MS MH	75.0	3	M	1	48.5	
150	2553		Chest	2-back	1.0	2023_Mar_09_2019	1.987180609954521	R	0	532.5397931998596	0.49679009988904	MS MH	87.5	3	M	1	48.5	
151	2553		Chest	2-back	1.0	2023_Mar_09_2019	1.986439609900117	R	2	534.5402376998682	0.6633433999959379	MS MH	100.0	3	M	1	48.5	
152	2553	48.0	Chest	ScoreReport		2023_Mar_09_2019	5.000456909881905	R		536.5499440999702		MS MH		3	M	1		
153	2553	8	Chest	Post-trial Jitter		2023_Mar_09_2019	8.999329539947212	R		541.6089033999015		MS MH		3	M	1		
154	2553	20	Chest	PainBinary		2023_Mar_09_2019	5.000371320173144	R		550.6251250999048	2.7170614001806825	MS MH		3	M	1		-1.0
155	2553	21	Chest	IntensityRating		2023_Mar_09_2019	5.010426520137116	R		555.6451600999571	3.066749299876392	MS MH		3	M	1		15.246913580246915
156	2553	9	Chest	Post-Q-Jitter		2023_Mar_09_2019	9.009558809921145	R		560.6623175998684		MS MH		3	M	1		
157	2553	51	Chest	Expectancy		2023_Mar_09_2019	5.01395382033661	R		570.0185427998658	4.283600399969146	MS MH		3	M	1		18.08641975308642
158	2553	44	Chest	0-back Instruction		2023_Mar_09_2019	5.002388460095972	R		575.4410522999242		MS MH		3	M	1		
159	2553	7	Chest	Pre-Trial Jitter		2023_Mar_09_2019	5.001922809984535	R		580.4496748999227		MS MH		3	M	1		
160	2553	44.0	Chest	pretrialfixation		2023_Mar_09_2019	1.0088124002795666	R		585.7712753999513		MS MH		3	M	1		
161	2553		Chest	0-back	1.0	2023_Mar_09_2019	1.989356609992683	R	0.0	586.7809915000107	0.480080199893564	MS MH	12.5	3	M	1	48.5	
162	2553		Chest	0-back	1.0	2023_Mar_09_2019	1.9875711100175977	R	0.0	588.7902408998925	0.3632755000144243	MS MH	25.0	3	M	1	48.5	
163	2553		Chest	0-back	1.0	2023_Mar_09_2019	1.9885519098024815	R	0.0	590.7897704998031	0.26256699999794364	MS MH	37.5	3	M	1	48.5	
164	2553		Chest	0-back	1.0	2023_Mar_09_2019	1.988535910146311	R	0.0	592.7898573998827	0.296143899904564	MS MH	50.0	3	M	1	48.5	
165	2553		Chest	0-back	1.0	2023_Mar_09_2019	1.9884765099268407	R	0.0	594.7898620998021	0.24654150009155273	MS MH	62.5	3	M	1	48.5	
166	2553		Chest	0-back	1.0	2023_Mar_09_2019	1.9878801100421697	R	0.0	596.7901721999515	0.27992759994231164	MS MH	75.0	3	M	1	48.5	
167	2553		Chest	0-back	1.0	2023_Mar_09_2019	1.9884602099191397	R	0.0	598.7899008998647	0.2966622000094503	MS MH	87.5	3	M	1	48.5	
168	2553		Chest	0-back	1.0	2023_Mar_09_2019	1.9884789099451154	R	0.0	600.7899062000215	0.2299828000832349	MS MH	100.0	3	M	1	48.5	
169	2553	48.0	Chest	ScoreReport		2023_Mar_09_2019	5.003844609949738	R		602.7989822998643		MS MH		3	M	1		
170	2553	8	Chest	Post-Trial Jitter		2023_Mar_09_2019	7.000029440270737	R		607.859237199882		MS MH		3	M	1		
171	2553	20	Chest	PainBinary		2023_Mar_09_2019	4.9983366201631725	R		614.8768144999631	1.4170173001475632	MS MH		3	M	1		1.0
172	2553	21	Chest	IntensityRating		2023_Mar_09_2019	5.009359220275655	R		619.8963536999654	1.7166826000902802	MS MH		3	M	1		31.35802469135803
173	2553	23	Chest	DistractBinary		2023_Mar_09_2019	4.99996581999585	R		624.9261532998644		MS MH		3	M	1		1.0
174	2553	9	Chest	Post-Q-Jitter		2023_Mar_09_2019	7.007458010222763	R		629.9307539998554		MS MH		3	M	1		
175	2553	51	Chest	Expectancy		2023_Mar_09_2019	5.004991290392354	R		637.2487397999503	3.5836008000187576	MS MH		3	M	1		24.93827160493827
176	2553	44	Chest	0-back Instruction		2023_Mar_09_2019	5.019548760261387	R		642.6748517998494		MS MH		3	M	1		
177	2553	7	Chest	Pre-Trial Jitter		2023_Mar_09_2019	7.000109610147774	R		647.7012827999424		MS MH		3	M	1		
178	2553	44.0	Chest	pretrialfixation		2023_Mar_09_2019	0.9947661901824176	R		655.0123244000133		MS MH		3	M	1		
179	2553		Chest	0-back	1.0	2023_Mar_09_2019	1.9887046101503074	R	0.0	656.0153679000214	0.5464350001420826	MS MH	12.5	3	M	1	48.5	
180	2553		Chest	0-back	1.0	2023_Mar_09_2019	1.987162809818983	R	0.0	658.0244761998765	0.37973259994760156	MS MH	25.0	3	M	1	48.5	
181	2553		Chest	0-back	1.0	2023_Mar_09_2019	1.988568709930405	R	0.0	660.023786299862	0.4466486999299377	MS MH	37.5	3	M	1	48.5	
182	2553		Chest	0-back	1.0	2023_Mar_09_2019	1.988356210058555	R	0.0	662.0239473998081	0.29667810001410544	MS MH	50.0	3	M	1	48.5	
183	2553		Chest	0-back	1.0	2023_Mar_09_2019	1.9880082099698484	R	0.0	664.0241509999614	0.2466532001271844	MS MH	62.5	3	M	1	48.5	
184	2553		Chest	0-back	1.0	2023_Mar_09_2019	1.9884058099705726	R	0.0	666.0239673999604	0.2300754999741912	MS MH	75.0	3	M	1	48.5	
185	2553		Chest	0-back	1.0	2023_Mar_09_2019	1.9887549099512398	R	0.0	668.02381529985	0.24669679999351501	MS MH	87.5	3	M	1	48.5	
186	2553		Chest	0-back	1.0	2023_Mar_09_2019	1.98789640981704	R	0.0	670.0242920999881	0.24625430000014603	MS MH	100.0	3	M	1	48.5	
187	2553	48.0	Chest	ScoreReport		2023_Mar_09_2019	5.003153609810397	R		672.033353799954		MS MH		3	M	1		
188	2553	8	Chest	Post-Trial Jitter		2023_Mar_09_2019	9.002551440149546	R		677.0921500998084		MS MH		3	M	1		
189	2553	20	Chest	PainBinary		2023_Mar_09_2019	4.999870120082051	R		686.1101292998064	1.0837127999402583	MS MH		3	M	1		1.0
190	2553	21	Chest	IntensityRating		2023_Mar_09_2019	5.010329520097002	R		691.1299492998514	3.250135799869895	MS MH		3	M	1		25.37037037037037
191	2553	23	Chest	DistractBinary		2023_Mar_09_2019	4.999097420135513	R		696.1606248000171	2.18365369993262	MS MH		3	M	1		-1.0
192	2553	9	Chest	Post-Q-Jitter		2023_Mar_09_2019	9.00988290971145	R		701.1636323998682		MS MH		3	M	1		
193	2553	26	Chest	ComfortRating		2023_Mar_09_2019	2.441139620030299	R		710.1980890999548	2.4166115999687463	MS MH		3	M	1		-12.46913580246914
194	2553	24	Chest	ValenceRating		2023_Mar_09_2019	2.4187222202308476	R		712.6676508998498	2.4002807999495417	MS MH		3	M	1		53.95061728395062
195	2553	26	Chest	IntensityRating		2023_Mar_09_2019	1.6260901200585067	R		715.1140266999137	1.6001657999586314	MS MH		3	M	1		53.70370370370371
196	2553	27	Chest	AvoidanceRating		2023_Mar_09_2019	2.5724457199685276	R		716.7658772999421	2.550145999994129	MS MH		3	M	1		17.90123456790124
197	2553	28	Chest	RelaxationRating		2023_Mar_09_2019	1.9300142200663686	R		719.3621131000109	1.9001623000949621	MS MH		3	M	1		39.074074074074076
198	2553	29	Chest	AttentionRating		2023_Mar_09_2019	2.255302320001647	R		721.3161551998928	2.2335430001839995	MS MH		3	M	1		40.18518518518518
199	2553	30	Chest	BoredomRating		2023_Mar_09_2019	1.7469360202085227	R		723.5953541998751	1.71683289995417	MS MH		3	M	1		61.91358024691358
200	2553	31	Chest	AlertnessRating		2023_Mar_09_2019	1.7113832202740014	R		725.3631436999422	1.6834408000577241	MS MH		3	M	1		-26.666666666666657
201	2553	32	Chest	PosThxRating		2023_Mar_09_2019	1.9591884198598564	R		727.0976064999122	1.9335186001844704	MS MH		3	M	1		-10.864197530864189
202	2553	33	Chest	NegThxRating		2023_Mar_09_2019	1.8581719200592488	R		729.0814637998119	1.8334007998928428	MS MH		3	M	1		12.71604938271605
203	2553	34	Chest	SelfRating		2023_Mar_09_2019	1.659363920101896	R		730.964222199982	1.633463499834761	MS MH		3	M	1		9.999999999999986
204	2553	35	Chest	OtherRating		2023_Mar_09_2019	1.3441547201946378	R		732.6468401998281	1.316781200002879	MS MH		3	M	1		-17.160493827160508
205	2553	32	Chest	ImageryRating		2023_Mar_09_2019	1.0568622201681137	R		734.0155522997957	1.0335833998396993	MS MH		3	M	1		-29.629629629629633
206	2553	37	Chest	PresentRating		2023_Mar_09_2019	2.1835499200969934	R		735.1021964999381	2.1669823999982327	MS MH		3	M	1		17.407407407407405
