RestT1,TaskT1,square,location,corrAns,counterbalancer.thisRepN,counterbalancer.thisTrialN,counterbalancer.thisN,counterbalancer.thisIndex,RestT1Loop.thisRepN,RestT1Loop.thisTrialN,RestT1Loop.thisN,RestT1Loop.thisIndex,TaskT1Loop.thisRepN,TaskT1Loop.thisTrialN,TaskT1Loop.thisN,TaskT1Loop.thisIndex,trials_2.thisRepN,trials_2.thisTrialN,trials_2.thisN,trials_2.thisIndex,NbackInstructions.started,NbackInstructions.stopped,NbackStart.keys,NbackStart.rt,NbackStart.started,NbackStart.stopped,fixation_2.started,fixation_2.stopped,response_2.x,response_2.y,response_2.leftButton,grid_lines_2.started,grid_lines_2.stopped,target_square_2.started,target_square_2.stopped,fixation_3.started,fixation_3.stopped,response_2.click,response_2.corr,response_2.started,response_2.stopped,response_2.rt,fixation_1.started,fixation_1.stopped,subject number,gender,session,handedness,scanner,date,expName,psychopyVersion,frameRate,
0,1,,,,0,0,0,0,,,,,0,0,0,0,,,,,30.908976000006078,None,space,121.83487409999361,30.908976000006078,None,,,,,,,,,,,,,,,,,,,2,M,18,r,CIB,2021_Dec_15_1451,WASABI Nback,2020.2.10,59.99498441952526,
0,1,5,"[0, 0]",None,0,0,0,0,,,,,0,0,0,0,0,0,0,0,,,,,,,None,None,None,None,0,153.85365810000803,None,153.85365810000803,154.85366940000677,154.82034750000457,None,0,1,153.85365810000803,None,,,,2,M,18,r,CIB,2021_Dec_15_1451,WASABI Nback,2020.2.10,59.99498441952526,
0,1,2,"[0, 0.2]",None,0,0,0,0,,,,,0,0,0,0,0,1,1,1,,,,,,,,,None,None,0,155.78701050000382,None,155.78701050000382,156.7870222000056,156.7703662999993,157.770382600007,0,1,155.78701050000382,None,,,,2,M,18,r,CIB,2021_Dec_15_1451,WASABI Nback,2020.2.10,59.99498441952526,
0,1,6,"[0.2, 0]",None,0,0,0,0,,,,,0,0,0,0,0,2,2,2,,,,,,,,,None,None,0,157.78703510000196,None,157.78703510000196,158.78704399999697,158.7703787000064,159.77038800000446,0,1,157.78703510000196,None,,,,2,M,18,r,CIB,2021_Dec_15_1451,WASABI Nback,2020.2.10,59.99498441952526,
0,1,9,"[0.2, -0.2]",None,0,0,0,0,,,,,0,0,0,0,0,3,3,3,,,,,,,,,None,None,0,159.78704409999773,None,159.78704409999773,160.78704890000517,160.77038899999752,161.77041009999812,0,1,159.78704409999773,None,,,,2,M,18,r,CIB,2021_Dec_15_1451,WASABI Nback,2020.2.10,59.99498441952526,
0,1,3,"[0.2, 0.2]",None,0,0,0,0,,,,,0,0,0,0,0,4,4,4,,,,,,,,,None,None,0,161.78706309999689,None,161.78706309999689,162.78706930000044,162.77041320000717,163.77040920000582,0,1,161.78706309999689,None,,,,2,M,18,r,CIB,2021_Dec_15_1451,WASABI Nback,2020.2.10,59.99498441952526,
0,1,9,"[0.2, -0.2]",1,0,0,0,0,,,,,0,0,0,0,0,5,5,5,,,,,,,,,None,None,0,163.78708290000213,None,163.78708290000213,164.78708569999435,164.7704267000081,165.77043689999846,0,1,163.78708290000213,None,,,,2,M,18,r,CIB,2021_Dec_15_1451,WASABI Nback,2020.2.10,59.99498441952526,
0,1,7,"[-0.2, -0.2]",None,0,0,0,0,,,,,0,0,0,0,0,6,6,6,,,,,,,,,None,None,0,165.7871257999941,None,165.7871257999941,166.78711590000603,166.77043489999778,167.77035140000226,0,1,165.7871257999941,None,,,,2,M,18,r,CIB,2021_Dec_15_1451,WASABI Nback,2020.2.10,59.99498441952526,
0,1,1,"[-0.2, 0.2]",None,0,0,0,0,,,,,0,0,0,0,0,7,7,7,,,,,,,,,None,None,0,167.78713250000146,None,167.78713250000146,168.7871490999969,168.7704592000082,169.770465900001,0,1,167.78713250000146,None,,,,2,M,18,r,CIB,2021_Dec_15_1451,WASABI Nback,2020.2.10,59.99498441952526,
0,1,5,"[0, 0]",None,0,0,0,0,,,,,0,0,0,0,0,8,8,8,,,,,,,,,None,None,0,169.78713029999926,None,169.78713029999926,170.78715910000028,170.77047879999736,171.77048819999618,0,1,169.78713029999926,None,,,,2,M,18,r,CIB,2021_Dec_15_1451,WASABI Nback,2020.2.10,59.99498441952526,
0,1,7,"[-0.2, -0.2]",None,0,0,0,0,,,,,0,0,0,0,0,9,9,9,,,,,,,,,None,None,0,171.7871465000062,None,171.7871465000062,172.78716039999563,172.77048999999533,173.77050129999407,0,1,171.7871465000062,None,,,,2,M,18,r,CIB,2021_Dec_15_1451,WASABI Nback,2020.2.10,59.99498441952526,
0,1,5,"[0, 0]",1,0,0,0,0,,,,,0,0,0,0,0,10,10,10,,,,,,,,,None,None,0,173.78717850000248,None,173.78717850000248,174.78719790000468,174.7704362999939,175.7705127000081,0,0,173.78717850000248,None,,,,2,M,18,r,CIB,2021_Dec_15_1451,WASABI Nback,2020.2.10,59.99498441952526,
0,1,6,"[0.2, 0]",None,0,0,0,0,,,,,0,0,0,0,0,11,11,11,,,,,,,,,None,None,0,175.78707400000712,None,175.78707400000712,176.78720940000494,176.77051859999483,177.77053510000405,0,1,175.78707400000712,None,,,,2,M,18,r,CIB,2021_Dec_15_1451,WASABI Nback,2020.2.10,59.99498441952526,
0,1,3,"[0.2, 0.2]",None,0,0,0,0,,,,,0,0,0,0,0,12,12,12,,,,,,,,,None,None,0,177.78719440000714,None,177.78719440000714,178.78721049999876,178.77053300000262,179.77053750000778,0,1,177.78719440000714,None,,,,2,M,18,r,CIB,2021_Dec_15_1451,WASABI Nback,2020.2.10,59.99498441952526,
0,1,6,"[0.2, 0]",1,0,0,0,0,,,,,0,0,0,0,0,13,13,13,,,,,,,,,None,None,0,179.78721330000553,None,179.78721330000553,180.78724079999665,180.7705530999956,181.7705616000021,0,1,179.78721330000553,None,,,,2,M,18,r,CIB,2021_Dec_15_1451,WASABI Nback,2020.2.10,59.99498441952526,
0,1,8,"[0, -0.2]",None,0,0,0,0,,,,,0,0,0,0,0,14,14,14,,,,,,,,,None,None,0,181.78724930000317,None,181.78724930000317,182.7872350999969,182.77056430000812,183.77056810000795,0,1,181.78724930000317,None,,,,2,M,18,r,CIB,2021_Dec_15_1451,WASABI Nback,2020.2.10,59.99498441952526,
0,1,9,"[0.2, -0.2]",None,0,0,0,0,,,,,0,0,0,0,0,15,15,15,,,,,,,,,None,None,0,183.7872428999981,None,183.7872428999981,184.78724790000706,184.77067529999476,185.77058539999416,0,1,183.7872428999981,None,,,,2,M,18,r,CIB,2021_Dec_15_1451,WASABI Nback,2020.2.10,59.99498441952526,
0,1,9,"[0.2, -0.2]",None,0,0,0,0,,,,,0,0,0,0,0,16,16,16,,,,,,,,,None,None,0,185.78725900000427,None,185.78725900000427,186.78726919999463,186.7706096000038,187.77061069999763,0,1,185.78725900000427,None,,,,2,M,18,r,CIB,2021_Dec_15_1451,WASABI Nback,2020.2.10,59.99498441952526,
0,1,1,"[-0.2, 0.2]",None,0,0,0,0,,,,,0,0,0,0,0,17,17,17,,,,,,,,,None,None,0,187.78729560000647,None,187.78729560000647,188.787304700003,188.77061239999603,189.77062199999637,0,1,187.78729560000647,None,,,,2,M,18,r,CIB,2021_Dec_15_1451,WASABI Nback,2020.2.10,59.99498441952526,
0,1,3,"[0.2, 0.2]",None,0,0,0,0,,,,,0,0,0,0,0,18,18,18,,,,,,,,,None,None,0,189.78731210000115,None,189.78731210000115,190.78731729999708,190.77066249999916,191.77064309999696,0,1,189.78731210000115,None,,,,2,M,18,r,CIB,2021_Dec_15_1451,WASABI Nback,2020.2.10,59.99498441952526,
0,1,5,"[0, 0]",None,0,0,0,0,,,,,0,0,0,0,0,19,19,19,,,,,,,,,None,None,0,191.78733000000648,None,191.78733000000648,192.78732040000614,192.77065600000788,193.77065809999476,0,1,191.78733000000648,None,,,,2,M,18,r,CIB,2021_Dec_15_1451,WASABI Nback,2020.2.10,59.99498441952526,
0,1,3,"[0.2, 0.2]",1,0,0,0,0,,,,,0,0,0,0,0,20,20,20,,,,,,,,,None,None,0,193.787341999996,None,193.787341999996,194.7873394000053,194.77067220000026,195.77068159999908,0,1,193.787341999996,None,,,,2,M,18,r,CIB,2021_Dec_15_1451,WASABI Nback,2020.2.10,59.99498441952526,
0,1,4,"[-0.2, 0]",None,0,0,0,0,,,,,0,0,0,0,0,21,21,21,,,,,,,,,None,None,0,195.78735810000217,None,195.78735810000217,196.78742090000014,196.7706756999978,197.7706898000033,0,1,195.78735810000217,None,,,,2,M,18,r,CIB,2021_Dec_15_1451,WASABI Nback,2020.2.10,59.99498441952526,
0,1,7,"[-0.2, -0.2]",None,0,0,0,0,,,,,0,0,0,0,0,22,22,22,,,,,,,,,None,None,0,197.78736319999734,None,197.78736319999734,198.78738589999557,198.7707073000056,199.77070449999883,0,1,197.78736319999734,None,,,,2,M,18,r,CIB,2021_Dec_15_1451,WASABI Nback,2020.2.10,59.99498441952526,
0,1,4,"[-0.2, 0]",1,0,0,0,0,,,,,0,0,0,0,0,23,23,23,,,,,,,,,None,None,0,199.78738599999633,None,199.78738599999633,200.78738680000242,200.7707170000067,201.77072990000306,0,1,199.78738599999633,None,,,,2,M,18,r,CIB,2021_Dec_15_1451,WASABI Nback,2020.2.10,59.99498441952526,
0,1,4,"[-0.2, 0]",None,0,0,0,0,,,,,0,0,0,0,0,24,24,24,,,,,,,,,None,None,0,201.78739779999887,None,201.78739779999887,202.787410799996,202.7707384999958,203.7707548000035,0,1,201.78739779999887,None,,,,2,M,18,r,CIB,2021_Dec_15_1451,WASABI Nback,2020.2.10,59.99498441952526,
0,1,5,"[0, 0]",None,0,0,0,0,,,,,0,0,0,0,0,25,25,25,,,,,,,,,None,None,0,203.78742510000302,None,203.78742510000302,204.78741309999896,204.7707584000018,205.77076569999917,0,1,203.78742510000302,None,,,,2,M,18,r,CIB,2021_Dec_15_1451,WASABI Nback,2020.2.10,59.99498441952526,
0,1,2,"[0, 0.2]",None,0,0,0,0,,,,,0,0,0,0,0,26,26,26,,,,,,,,,None,None,0,205.78741950000403,None,205.78741950000403,206.78743229999964,206.77077180000197,207.77077149999968,0,1,205.78741950000403,None,,,,2,M,18,r,CIB,2021_Dec_15_1451,WASABI Nback,2020.2.10,59.99498441952526,
0,1,6,"[0.2, 0]",None,0,0,0,0,,,,,0,0,0,0,0,27,27,27,,,,,,,,,None,None,0,207.7874443000037,None,207.7874443000037,208.78745449999406,208.77078770000662,209.77078249999613,0,1,207.7874443000037,None,,,,2,M,18,r,CIB,2021_Dec_15_1451,WASABI Nback,2020.2.10,59.99498441952526,
0,1,7,"[-0.2, -0.2]",None,0,0,0,0,,,,,0,0,0,0,0,28,28,28,,,,,,,,,None,None,0,209.7874695000064,None,209.7874695000064,210.78748749999795,210.77080440000282,211.77080379999825,0,1,209.7874695000064,None,,,,2,M,18,r,CIB,2021_Dec_15_1451,WASABI Nback,2020.2.10,59.99498441952526,
0,1,6,"[0.2, 0]",1,0,0,0,0,,,,,0,0,0,0,0,29,29,29,,,,,,,,,None,None,0,211.78746690000116,None,211.78746690000116,212.78748199999973,212.7708214000013,213.77081420000468,0,1,211.78746690000116,None,,,,2,M,18,r,CIB,2021_Dec_15_1451,WASABI Nback,2020.2.10,59.99498441952526,
0,1,6,"[0.2, 0]",None,0,0,0,0,,,,,0,0,0,0,0,30,30,30,,,,,,,,,None,None,0,213.7874812000082,None,213.7874812000082,214.78749380000227,214.77083900000434,215.77083710000443,0,1,213.7874812000082,None,,,,2,M,18,r,CIB,2021_Dec_15_1451,WASABI Nback,2020.2.10,59.99498441952526,
0,1,7,"[-0.2, -0.2]",None,0,0,0,0,,,,,0,0,0,0,0,31,31,31,,,,,,,,,None,None,0,215.78750500000024,None,215.78750500000024,216.78752660000464,216.77085030000308,217.77085650000663,0,0,215.78750500000024,None,,,,2,M,18,r,CIB,2021_Dec_15_1451,WASABI Nback,2020.2.10,59.99498441952526,
0,1,6,"[0.2, 0]",1,0,0,0,0,,,,,0,0,0,0,0,32,32,32,,,,,,,,,None,None,0,217.78752749999694,None,217.78752749999694,218.78752650000388,218.7708735000051,219.7708821999986,0,1,217.78752749999694,None,,,,2,M,18,r,CIB,2021_Dec_15_1451,WASABI Nback,2020.2.10,59.99498441952526,
0,1,2,"[0, 0.2]",None,0,0,0,0,,,,,0,0,0,0,0,33,33,33,,,,,,,,,None,None,0,219.78753240000515,None,219.78753240000515,220.78755350000574,220.77088019999792,221.77089759999944,0,1,219.78753240000515,None,,,,2,M,18,r,CIB,2021_Dec_15_1451,WASABI Nback,2020.2.10,59.99498441952526,
0,1,5,"[0, 0]",None,0,0,0,0,,,,,0,0,0,0,0,34,34,34,,,,,,,,,None,None,0,221.78755269999965,None,221.78755269999965,222.7875592000055,222.77090220000537,223.77091340000334,0,1,221.78755269999965,None,,,,2,M,18,r,CIB,2021_Dec_15_1451,WASABI Nback,2020.2.10,59.99498441952526,
0,1,4,"[-0.2, 0]",None,0,0,0,0,,,,,0,0,0,0,0,35,35,35,,,,,,,,,None,None,0,223.78757909999695,None,223.78757909999695,224.78758469999593,224.7709143999964,225.77091649999784,0,1,223.78757909999695,None,,,,2,M,18,r,CIB,2021_Dec_15_1451,WASABI Nback,2020.2.10,59.99498441952526,
0,1,4,"[-0.2, 0]",None,0,0,0,0,,,,,0,0,0,0,0,36,36,36,,,,,,,,,None,None,0,225.7875955000054,None,225.7875955000054,226.7875927999994,226.77092569999513,227.77094479999505,0,1,225.7875955000054,None,,,,2,M,18,r,CIB,2021_Dec_15_1451,WASABI Nback,2020.2.10,59.99498441952526,
0,1,7,"[-0.2, -0.2]",None,0,0,0,0,,,,,0,0,0,0,0,37,37,37,,,,,,,,,None,None,0,227.78760340000736,None,227.78760340000736,228.7876244000072,228.7709460000042,229.7709567999991,0,1,227.78760340000736,None,,,,2,M,18,r,CIB,2021_Dec_15_1451,WASABI Nback,2020.2.10,59.99498441952526,
0,1,4,"[-0.2, 0]",1,0,0,0,0,,,,,0,0,0,0,0,38,38,38,,,,,,,,,None,None,0,229.78761719999602,None,229.78761719999602,230.78762760000245,230.77098020000267,231.77096759999404,0,1,229.78761719999602,None,,,,2,M,18,r,CIB,2021_Dec_15_1451,WASABI Nback,2020.2.10,59.99498441952526,
0,1,3,"[0.2, 0.2]",None,0,0,0,0,,,,,0,0,0,0,0,39,39,39,,,,,,,,,None,None,0,231.78763170000457,None,231.78763170000457,232.78764070000034,232.77097330000834,233.77098739999929,0,1,231.78763170000457,None,,,,2,M,18,r,CIB,2021_Dec_15_1451,WASABI Nback,2020.2.10,59.99498441952526,
0,1,5,"[0, 0]",None,0,0,0,0,,,,,0,0,0,0,0,40,40,40,,,,,,,,,None,None,0,233.7876574999973,None,233.7876574999973,234.78765790000034,234.77098610000394,235.77100740000606,0,1,233.7876574999973,None,,,,2,M,18,r,CIB,2021_Dec_15_1451,WASABI Nback,2020.2.10,59.99498441952526,
0,1,3,"[0.2, 0.2]",1,0,0,0,0,,,,,0,0,0,0,0,41,41,41,,,,,,,,,None,None,0,235.78766390000237,None,235.78766390000237,236.78768670000136,236.77101749999565,237.77102870000817,0,1,235.78766390000237,None,,,,2,M,18,r,CIB,2021_Dec_15_1451,WASABI Nback,2020.2.10,59.99498441952526,
0,1,1,"[-0.2, 0.2]",None,0,0,0,0,,,,,0,0,0,0,0,42,42,42,,,,,,,,,None,None,0,237.7876929000049,None,237.7876929000049,238.78769810000085,238.77103010000428,239.77104469999904,0,1,237.7876929000049,None,,,,2,M,18,r,CIB,2021_Dec_15_1451,WASABI Nback,2020.2.10,59.99498441952526,
0,1,9,"[0.2, -0.2]",None,0,0,0,0,,,,,0,0,0,0,0,43,43,43,,,,,,,,,None,None,0,239.78770660000737,None,239.78770660000737,240.7877191000007,240.77104890000192,241.77104659999895,0,1,239.78770660000737,None,,,,2,M,18,r,CIB,2021_Dec_15_1451,WASABI Nback,2020.2.10,59.99498441952526,
0,1,9,"[0.2, -0.2]",None,0,0,0,0,,,,,0,0,0,0,0,44,44,44,,,,,,,,,None,None,0,241.78773009999713,None,241.78773009999713,242.7877240999951,242.77106080000522,243.77108429999498,0,1,241.78773009999713,None,,,,2,M,18,r,CIB,2021_Dec_15_1451,WASABI Nback,2020.2.10,59.99498441952526,
0,1,8,"[0, -0.2]",None,0,0,0,0,,,,,0,0,0,0,0,45,45,45,,,,,,,,,None,None,0,243.78774470000644,None,243.78774470000644,244.78774280000653,244.7710861999949,245.7710783000075,0,1,243.78774470000644,None,,,,2,M,18,r,CIB,2021_Dec_15_1451,WASABI Nback,2020.2.10,59.99498441952526,
0,1,6,"[0.2, 0]",None,0,0,0,0,,,,,0,0,0,0,0,46,46,46,,,,,,,,,None,None,0,245.7877501000039,None,245.7877501000039,246.7877562000067,246.7710967000021,247.77109579999524,0,1,245.7877501000039,None,,,,2,M,18,r,CIB,2021_Dec_15_1451,WASABI Nback,2020.2.10,59.99498441952526,
0,1,3,"[0.2, 0.2]",None,0,0,0,0,,,,,0,0,0,0,0,47,47,47,,,,,,,,,None,None,0,247.78776210000797,None,247.78776210000797,248.78777300000365,248.77111030000378,249.77112299999862,0,1,247.78776210000797,None,,,,2,M,18,r,CIB,2021_Dec_15_1451,WASABI Nback,2020.2.10,59.99498441952526,
0,1,6,"[0.2, 0]",1,0,0,0,0,,,,,0,0,0,0,0,48,48,48,,,,,,,,,None,None,0,249.78779630000645,None,249.78779630000645,250.7877879000007,250.77114430000074,251.7711791000038,0,1,249.78779630000645,None,,,,2,M,18,r,CIB,2021_Dec_15_1451,WASABI Nback,2020.2.10,59.99498441952526,
0,1,5,"[0, 0]",None,0,0,0,0,,,,,0,0,0,0,0,49,49,49,,,,,,,,,None,None,0,251.78780310000002,None,251.78780310000002,252.78782630000205,252.7711549999949,253.7711546000064,0,1,251.78780310000002,None,,,,2,M,18,r,CIB,2021_Dec_15_1451,WASABI Nback,2020.2.10,59.99498441952526,
0,1,7,"[-0.2, -0.2]",None,0,0,0,0,,,,,0,0,0,0,0,50,50,50,,,,,,,,,None,None,0,253.787811400005,None,253.787811400005,254.78772950000712,254.77117750000616,255.77118080000218,0,1,253.787811400005,None,,,,2,M,18,r,CIB,2021_Dec_15_1451,WASABI Nback,2020.2.10,59.99498441952526,
0,1,5,"[0, 0]",1,0,0,0,0,,,,,0,0,0,0,0,51,51,51,,,,,,,,,None,None,0,255.7878411999991,None,255.7878411999991,256.7878366000077,256.7711727999995,257.77120060000743,0,1,255.7878411999991,None,,,,2,M,18,r,CIB,2021_Dec_15_1451,WASABI Nback,2020.2.10,59.99498441952526,
0,1,1,"[-0.2, 0.2]",None,0,0,0,0,,,,,0,0,0,0,0,52,52,52,,,,,,,,,None,None,0,257.78785579999385,None,257.78785579999385,258.7879229999962,258.77118530000735,259.7712262999994,0,1,257.78785579999385,None,,,,2,M,18,r,CIB,2021_Dec_15_1451,WASABI Nback,2020.2.10,59.99498441952526,
0,1,7,"[-0.2, -0.2]",None,0,0,0,0,,,,,0,0,0,0,0,53,53,53,,,,,,,,,None,None,0,259.7878622999997,None,259.7878622999997,260.78787549999834,260.7712238999957,261.77122110000346,0,0,259.7878622999997,None,,,,2,M,18,r,CIB,2021_Dec_15_1451,WASABI Nback,2020.2.10,59.99498441952526,
0,1,9,"[0.2, -0.2]",None,0,0,0,0,,,,,0,0,0,0,0,54,54,54,,,,,,,,,None,None,0,261.7878892000008,None,261.7878892000008,262.7878832999995,262.7712401000026,263.7712523999944,0,1,261.7878892000008,None,,,,2,M,18,r,CIB,2021_Dec_15_1451,WASABI Nback,2020.2.10,59.99498441952526,
0,1,3,"[0.2, 0.2]",None,0,0,0,0,,,,,0,0,0,0,0,55,55,55,,,,,,,,,None,None,0,263.7878982999973,None,263.7878982999973,264.78790320000553,264.7712465999939,265.7712654000061,0,1,263.7878982999973,None,,,,2,M,18,r,CIB,2021_Dec_15_1451,WASABI Nback,2020.2.10,59.99498441952526,
0,1,9,"[0.2, -0.2]",1,0,0,0,0,,,,,0,0,0,0,0,56,56,56,,,,,,,,,None,None,0,265.787923099997,None,265.787923099997,266.78792420000536,266.7712586999987,267.7712615000055,0,1,265.787923099997,None,,,,2,M,18,r,CIB,2021_Dec_15_1451,WASABI Nback,2020.2.10,59.99498441952526,
0,1,6,"[0.2, 0]",None,0,0,0,0,,,,,0,0,0,0,0,57,57,57,,,,,,,,,None,None,0,267.787940299997,None,267.787940299997,268.78795009999885,268.7713555000082,269.771302299996,0,1,267.787940299997,None,,,,2,M,18,r,CIB,2021_Dec_15_1451,WASABI Nback,2020.2.10,59.99498441952526,
0,1,2,"[0, 0.2]",None,0,0,0,0,,,,,0,0,0,0,0,58,58,58,,,,,,,,,None,None,0,269.78795480000554,None,269.78795480000554,270.78786240000045,270.7712987999985,271.7713180999999,0,1,269.78795480000554,None,,,,2,M,18,r,CIB,2021_Dec_15_1451,WASABI Nback,2020.2.10,59.99498441952526,
0,1,5,"[0, 0]",None,0,0,0,0,,,,,0,0,0,0,0,59,59,59,,,,,,,,,None,None,0,271.78796169999987,None,271.78796169999987,272.7879787999991,272.77132990000246,273.7713150000054,0,1,271.78796169999987,None,,,,2,M,18,r,CIB,2021_Dec_15_1451,WASABI Nback,2020.2.10,59.99498441952526,
0,1,5,"[0, 0]",None,0,0,0,0,,,,,0,0,0,0,0,60,60,60,,,,,,,,,None,None,0,273.787991899997,None,273.787991899997,274.7879905000009,274.7713308999955,275.7713506,0,1,273.787991899997,None,,,,2,M,18,r,CIB,2021_Dec_15_1451,WASABI Nback,2020.2.10,59.99498441952526,
0,1,2,"[0, 0.2]",None,0,0,0,0,,,,,0,0,0,0,0,61,61,61,,,,,,,,,None,None,0,275.78800250000495,None,275.78800250000495,276.78800000000047,276.7713545000006,277.77135290000297,0,0,275.78800250000495,None,,,,2,M,18,r,CIB,2021_Dec_15_1451,WASABI Nback,2020.2.10,59.99498441952526,
0,1,6,"[0.2, 0]",None,0,0,0,0,,,,,0,0,0,0,0,62,62,62,,,,,,,,,None,None,0,277.78801279999607,None,277.78801279999607,278.7880254000047,278.7713706000068,279.77136909999535,0,1,277.78801279999607,None,,,,2,M,18,r,CIB,2021_Dec_15_1451,WASABI Nback,2020.2.10,59.99498441952526,
0,1,9,"[0.2, -0.2]",None,0,0,0,0,,,,,0,0,0,0,0,63,63,63,,,,,,,,,None,None,0,279.78802580000774,None,279.78802580000774,280.78804250000394,280.77138540000306,281.77138320000086,0,1,279.78802580000774,None,,,,2,M,18,r,CIB,2021_Dec_15_1451,WASABI Nback,2020.2.10,59.99498441952526,
0,1,3,"[0.2, 0.2]",None,0,0,0,0,,,,,0,0,0,0,0,64,64,64,,,,,,,,,None,None,0,281.7880533999996,None,281.7880533999996,282.78805109999666,282.77139900000475,283.7714171999978,0,1,281.7880533999996,None,,,,2,M,18,r,CIB,2021_Dec_15_1451,WASABI Nback,2020.2.10,59.99498441952526,
0,1,9,"[0.2, -0.2]",1,0,0,0,0,,,,,0,0,0,0,0,65,65,65,,,,,,,,,None,None,0,283.788075000004,None,283.788075000004,284.7880715000065,284.7714307999995,285.77142590000585,0,1,283.788075000004,None,,,,2,M,18,r,CIB,2021_Dec_15_1451,WASABI Nback,2020.2.10,59.99498441952526,
0,1,7,"[-0.2, -0.2]",None,0,0,0,0,,,,,0,0,0,0,0,66,66,66,,,,,,,,,None,None,0,285.7880928999948,None,285.7880928999948,286.78809240000555,286.7714379999961,287.7714474999957,0,1,285.7880928999948,None,,,,2,M,18,r,CIB,2021_Dec_15_1451,WASABI Nback,2020.2.10,59.99498441952526,
0,1,1,"[-0.2, 0.2]",None,0,0,0,0,,,,,0,0,0,0,0,67,67,67,,,,,,,,,None,None,0,287.78810040000826,None,287.78810040000826,288.78811350000615,288.77144060000137,289.77146250000806,0,1,287.78810040000826,None,,,,2,M,18,r,CIB,2021_Dec_15_1451,WASABI Nback,2020.2.10,59.99498441952526,
0,1,5,"[0, 0]",None,0,0,0,0,,,,,0,0,0,0,0,68,68,68,,,,,,,,,None,None,0,289.7881223000004,None,289.7881223000004,290.78812749999634,290.77146509999875,291.77147479999985,0,1,289.7881223000004,None,,,,2,M,18,r,CIB,2021_Dec_15_1451,WASABI Nback,2020.2.10,59.99498441952526,
0,1,7,"[-0.2, -0.2]",None,0,0,0,0,,,,,0,0,0,0,0,69,69,69,,,,,,,,,None,None,0,291.7881252000079,None,291.7881252000079,292.78814849999617,292.7714874999947,293.77148640000087,0,1,291.7881252000079,None,,,,2,M,18,r,CIB,2021_Dec_15_1451,WASABI Nback,2020.2.10,59.99498441952526,
0,1,5,"[0, 0]",1,0,0,0,0,,,,,0,0,0,0,0,70,70,70,,,,,,,,,None,None,0,293.7881483999954,None,293.7881483999954,294.78817349999736,294.77150309999706,295.77144430000044,0,0,293.7881483999954,None,,,,2,M,18,r,CIB,2021_Dec_15_1451,WASABI Nback,2020.2.10,59.99498441952526,
0,1,6,"[0.2, 0]",None,0,0,0,0,,,,,0,0,0,0,0,71,71,71,,,,,,,,,None,None,0,295.78815880000184,None,295.78815880000184,296.78817670000717,296.77151340000273,297.77152160000696,0,1,295.78815880000184,None,,,,2,M,18,r,CIB,2021_Dec_15_1451,WASABI Nback,2020.2.10,59.99498441952526,
0,1,3,"[0.2, 0.2]",None,0,0,0,0,,,,,0,0,0,0,0,72,72,72,,,,,,,,,None,None,0,297.78818760000286,None,297.78818760000286,298.7881824000069,298.7715190000017,299.771522199997,0,1,297.78818760000286,None,,,,2,M,18,r,CIB,2021_Dec_15_1451,WASABI Nback,2020.2.10,59.99498441952526,
0,1,6,"[0.2, 0]",1,0,0,0,0,,,,,0,0,0,0,0,73,73,73,,,,,,,,,None,None,0,299.7881908999989,None,299.7881908999989,300.78823239999474,300.7715729000047,301.77154610000434,0,1,299.7881908999989,None,,,,2,M,18,r,CIB,2021_Dec_15_1451,WASABI Nback,2020.2.10,59.99498441952526,
0,1,8,"[0, -0.2]",None,0,0,0,0,,,,,0,0,0,0,0,74,74,74,,,,,,,,,None,None,0,301.7882083000004,None,301.7882083000004,302.78822560000117,302.77155469999707,303.77157029999944,0,1,301.7882083000004,None,,,,2,M,18,r,CIB,2021_Dec_15_1451,WASABI Nback,2020.2.10,59.99498441952526,
0,1,9,"[0.2, -0.2]",None,0,0,0,0,,,,,0,0,0,0,0,75,75,75,,,,,,,,,None,None,0,303.78823590000684,None,303.78823590000684,304.78824650000024,304.77157169999555,305.7715867999941,0,1,303.78823590000684,None,,,,2,M,18,r,CIB,2021_Dec_15_1451,WASABI Nback,2020.2.10,59.99498441952526,
0,1,9,"[0.2, -0.2]",None,0,0,0,0,,,,,0,0,0,0,0,76,76,76,,,,,,,,,None,None,0,305.78827069999534,None,305.78827069999534,306.7882840999955,306.7715887999948,307.77158820000477,0,1,305.78827069999534,None,,,,2,M,18,r,CIB,2021_Dec_15_1451,WASABI Nback,2020.2.10,59.99498441952526,
0,1,1,"[-0.2, 0.2]",None,0,0,0,0,,,,,0,0,0,0,0,77,77,77,,,,,,,,,None,None,0,307.7881960999948,None,307.7881960999948,308.7882716000022,308.7716019000072,309.7716059999948,0,1,307.7881960999948,None,,,,2,M,18,r,CIB,2021_Dec_15_1451,WASABI Nback,2020.2.10,59.99498441952526,
0,1,3,"[0.2, 0.2]",None,0,0,0,0,,,,,0,0,0,0,0,78,78,78,,,,,,,,,None,None,0,309.7882821999956,None,309.7882821999956,310.78830830000516,310.7716195999965,311.77163570000266,0,1,309.7882821999956,None,,,,2,M,18,r,CIB,2021_Dec_15_1451,WASABI Nback,2020.2.10,59.99498441952526,
0,1,5,"[0, 0]",None,0,0,0,0,,,,,0,0,0,0,0,79,79,79,,,,,,,,,None,None,0,311.7883176000032,None,311.7883176000032,312.78832279999915,312.77164269999776,313.7716381000064,0,1,311.7883176000032,None,,,,2,M,18,r,CIB,2021_Dec_15_1451,WASABI Nback,2020.2.10,59.99498441952526,
0,1,3,"[0.2, 0.2]",1,0,0,0,0,,,,,0,0,0,0,0,80,80,80,,,,,,,,,None,None,0,313.7883155000018,None,313.7883155000018,314.78833860000304,314.77165680000326,315.7716622000007,0,1,313.7883155000018,None,,,,2,M,18,r,CIB,2021_Dec_15_1451,WASABI Nback,2020.2.10,59.99498441952526,
0,1,4,"[-0.2, 0]",None,0,0,0,0,,,,,0,0,0,0,0,81,81,81,,,,,,,,,None,None,0,315.78833609999856,None,315.78833609999856,316.7883332000056,316.77166939999734,317.77167650000774,0,1,315.78833609999856,None,,,,2,M,18,r,CIB,2021_Dec_15_1451,WASABI Nback,2020.2.10,59.99498441952526,
0,1,7,"[-0.2, -0.2]",None,0,0,0,0,,,,,0,0,0,0,0,82,82,82,,,,,,,,,None,None,0,317.78835190000245,None,317.78835190000245,318.78837609999755,318.77168980000715,319.7716972000053,0,1,317.78835190000245,None,,,,2,M,18,r,CIB,2021_Dec_15_1451,WASABI Nback,2020.2.10,59.99498441952526,
0,1,4,"[-0.2, 0]",1,0,0,0,0,,,,,0,0,0,0,0,83,83,83,,,,,,,,,None,None,0,319.7883823000011,None,319.7883823000011,320.7883914999984,320.77170209999895,321.7717217000027,0,1,319.7883823000011,None,,,,2,M,18,r,CIB,2021_Dec_15_1451,WASABI Nback,2020.2.10,59.99498441952526,
0,1,4,"[-0.2, 0]",None,0,0,0,0,,,,,0,0,0,0,0,84,84,84,,,,,,,,,None,None,0,321.7883997000026,None,321.7883997000026,322.7883825000026,322.7717493999953,323.77173680000124,0,1,321.7883997000026,None,,,,2,M,18,r,CIB,2021_Dec_15_1451,WASABI Nback,2020.2.10,59.99498441952526,
0,1,5,"[0, 0]",None,0,0,0,0,,,,,0,0,0,0,0,85,85,85,,,,,,,,,None,None,0,323.78841660000035,None,323.78841660000035,324.7884270000068,324.7717265999963,325.7717447000032,0,1,323.78841660000035,None,,,,2,M,18,r,CIB,2021_Dec_15_1451,WASABI Nback,2020.2.10,59.99498441952526,
0,1,2,"[0, 0.2]",None,0,0,0,0,,,,,0,0,0,0,0,86,86,86,,,,,,,,,None,None,0,325.7884119000082,None,325.7884119000082,326.78843820000475,326.771756999995,327.77176089999557,0,1,325.7884119000082,None,,,,2,M,18,r,CIB,2021_Dec_15_1451,WASABI Nback,2020.2.10,59.99498441952526,
0,1,6,"[0.2, 0]",None,0,0,0,0,,,,,0,0,0,0,0,87,87,87,,,,,,,,,None,None,0,327.7884245000023,None,327.7884245000023,328.78843600000255,328.77176980000513,329.77177870000014,0,1,327.7884245000023,None,,,,2,M,18,r,CIB,2021_Dec_15_1451,WASABI Nback,2020.2.10,59.99498441952526,
0,1,7,"[-0.2, -0.2]",None,0,0,0,0,,,,,0,0,0,0,0,88,88,88,,,,,,,,,None,None,0,329.78846290000365,None,329.78846290000365,330.7884591000038,330.77178720000666,331.77179810000234,0,1,329.78846290000365,None,,,,2,M,18,r,CIB,2021_Dec_15_1451,WASABI Nback,2020.2.10,59.99498441952526,
0,1,6,"[0.2, 0]",1,0,0,0,0,,,,,0,0,0,0,0,89,89,89,,,,,,,,,None,None,0,331.78846379999595,None,331.78846379999595,332.78848709999875,332.7717971999955,333.7718204999983,0,1,331.78846379999595,None,,,,2,M,18,r,CIB,2021_Dec_15_1451,WASABI Nback,2020.2.10,59.99498441952526,
0,1,6,"[0.2, 0]",None,0,0,0,0,,,,,0,0,0,0,0,90,90,90,,,,,,,,,None,None,0,333.78847230000247,None,333.78847230000247,334.7885008000012,334.7718266000011,335.77182140000514,0,1,333.78847230000247,None,,,,2,M,18,r,CIB,2021_Dec_15_1451,WASABI Nback,2020.2.10,59.99498441952526,
0,1,7,"[-0.2, -0.2]",None,0,0,0,0,,,,,0,0,0,0,0,91,91,91,,,,,,,,,None,None,0,335.78851589999977,None,335.78851589999977,336.78849980000814,336.77183749999676,337.77183749999676,0,0,335.78851589999977,None,,,,2,M,18,r,CIB,2021_Dec_15_1451,WASABI Nback,2020.2.10,59.99498441952526,
0,1,6,"[0.2, 0]",1,0,0,0,0,,,,,0,0,0,0,0,92,92,92,,,,,,,,,None,None,1,337.78853420000814,None,337.78853420000814,338.788541300004,338.7718582999951,339.7721733000071,1,1,337.78853420000814,None,1.966875500002061,,,2,M,18,r,CIB,2021_Dec_15_1451,WASABI Nback,2020.2.10,59.99498441952526,
0,1,2,"[0, 0.2]",None,0,0,0,0,,,,,0,0,0,0,0,93,93,93,,,,,,,,,None,None,0,339.7885482999991,None,339.7885482999991,340.7884347000072,340.77186609999626,341.7718775999965,0,1,339.7885482999991,None,,,,2,M,18,r,CIB,2021_Dec_15_1451,WASABI Nback,2020.2.10,59.99498441952526,
0,1,5,"[0, 0]",None,0,0,0,0,,,,,0,0,0,0,0,94,94,94,,,,,,,,,None,None,0,341.78854140000476,None,341.78854140000476,342.7885779000062,342.7718930999981,343.77188990000286,0,1,341.78854140000476,None,,,,2,M,18,r,CIB,2021_Dec_15_1451,WASABI Nback,2020.2.10,59.99498441952526,
0,1,4,"[-0.2, 0]",None,0,0,0,0,,,,,0,0,0,0,0,95,95,95,,,,,,,,,None,None,0,343.78856509999605,None,343.78856509999605,344.78856640000595,344.7719039999938,345.77191540000786,0,1,343.78856509999605,None,,,,2,M,18,r,CIB,2021_Dec_15_1451,WASABI Nback,2020.2.10,59.99498441952526,
0,1,4,"[-0.2, 0]",None,0,0,0,0,,,,,0,0,0,0,0,96,96,96,,,,,,,,,None,None,0,345.7885767999978,None,345.7885767999978,346.78859389999707,346.77191850000236,347.77192070000456,0,1,345.7885767999978,None,,,,2,M,18,r,CIB,2021_Dec_15_1451,WASABI Nback,2020.2.10,59.99498441952526,
0,1,7,"[-0.2, -0.2]",None,0,0,0,0,,,,,0,0,0,0,0,97,97,97,,,,,,,,,None,None,0,347.78858809999656,None,347.78858809999656,348.788621300002,348.77194380000583,349.77194269999745,0,1,347.78858809999656,None,,,,2,M,18,r,CIB,2021_Dec_15_1451,WASABI Nback,2020.2.10,59.99498441952526,
0,1,4,"[-0.2, 0]",1,0,0,0,0,,,,,0,0,0,0,0,98,98,98,,,,,,,,,None,None,0,349.7886079000018,None,349.7886079000018,350.7886142000061,350.7719486999995,351.7719589000044,0,1,349.7886079000018,None,,,,2,M,18,r,CIB,2021_Dec_15_1451,WASABI Nback,2020.2.10,59.99498441952526,
0,1,3,"[0.2, 0.2]",None,0,0,0,0,,,,,0,0,0,0,0,99,99,99,,,,,,,,,None,None,0,351.78866960000596,None,351.78866960000596,352.7886288000009,352.77196399999957,353.77197960000194,0,1,351.78866960000596,None,,,,2,M,18,r,CIB,2021_Dec_15_1451,WASABI Nback,2020.2.10,59.99498441952526,
0,1,5,"[0, 0]",None,0,0,0,0,,,,,0,0,0,0,0,100,100,100,,,,,,,,,None,None,0,353.78863779999665,None,353.78863779999665,354.7886556000012,354.77198289999797,355.77199150000524,0,1,353.78863779999665,None,,,,2,M,18,r,CIB,2021_Dec_15_1451,WASABI Nback,2020.2.10,59.99498441952526,
0,1,3,"[0.2, 0.2]",1,0,0,0,0,,,,,0,0,0,0,0,101,101,101,,,,,,,,,None,None,0,355.7886608999979,None,355.7886608999979,356.78867160000664,356.7719996999949,357.77201679999416,0,1,355.7886608999979,None,,,,2,M,18,r,CIB,2021_Dec_15_1451,WASABI Nback,2020.2.10,59.99498441952526,
0,1,1,"[-0.2, 0.2]",None,0,0,0,0,,,,,0,0,0,0,0,102,102,102,,,,,,,,,None,None,0,357.7886698000075,None,357.7886698000075,358.7886750000034,358.7720127000066,359.7720241000061,0,1,357.7886698000075,None,,,,2,M,18,r,CIB,2021_Dec_15_1451,WASABI Nback,2020.2.10,59.99498441952526,
0,1,9,"[0.2, -0.2]",None,0,0,0,0,,,,,0,0,0,0,0,103,103,103,,,,,,,,,None,None,0,359.7886947999941,None,359.7886947999941,360.78869739999936,360.7720397999947,361.7720405,0,1,359.7886947999941,None,,,,2,M,18,r,CIB,2021_Dec_15_1451,WASABI Nback,2020.2.10,59.99498441952526,
0,1,9,"[0.2, -0.2]",None,0,0,0,0,,,,,0,0,0,0,0,104,104,104,,,,,,,,,None,None,0,361.78870299999835,None,361.78870299999835,362.78872189999674,362.7720527000056,363.7720663000073,0,1,361.78870299999835,None,,,,2,M,18,r,CIB,2021_Dec_15_1451,WASABI Nback,2020.2.10,59.99498441952526,
0,1,8,"[0, -0.2]",None,0,0,0,0,,,,,0,0,0,0,0,105,105,105,,,,,,,,,None,None,0,363.78872680000495,None,363.78872680000495,364.7887627000018,364.772068899998,365.7720843999996,0,1,363.78872680000495,None,,,,2,M,18,r,CIB,2021_Dec_15_1451,WASABI Nback,2020.2.10,59.99498441952526,
0,1,6,"[0.2, 0]",None,0,0,0,0,,,,,0,0,0,0,0,106,106,106,,,,,,,,,None,None,0,365.78873820000445,None,365.78873820000445,366.78875269999844,366.77208789999713,367.7720921,0,1,365.78873820000445,None,,,,2,M,18,r,CIB,2021_Dec_15_1451,WASABI Nback,2020.2.10,59.99498441952526,
0,1,3,"[0.2, 0.2]",None,0,0,0,0,,,,,0,0,0,0,0,107,107,107,,,,,,,,,None,None,0,367.7887635000079,None,367.7887635000079,368.788761799995,368.77209250000305,369.7721126999968,0,1,367.7887635000079,None,,,,2,M,18,r,CIB,2021_Dec_15_1451,WASABI Nback,2020.2.10,59.99498441952526,
0,1,6,"[0.2, 0]",1,0,0,0,0,,,,,0,0,0,0,0,108,108,108,,,,,,,,,None,None,0,369.7887754999974,None,369.7887754999974,370.7887810999964,370.7721165999974,371.772132099999,0,1,369.7887754999974,None,,,,2,M,18,r,CIB,2021_Dec_15_1451,WASABI Nback,2020.2.10,59.99498441952526,
0,1,5,"[0, 0]",None,0,0,0,0,,,,,0,0,0,0,0,109,109,109,,,,,,,,,None,None,0,371.78880569999455,None,371.78880569999455,372.7888013000047,372.77214970000205,373.77215059999435,0,1,371.78880569999455,None,,,,2,M,18,r,CIB,2021_Dec_15_1451,WASABI Nback,2020.2.10,59.99498441952526,
0,1,7,"[-0.2, -0.2]",None,0,0,0,0,,,,,0,0,0,0,0,110,110,110,,,,,,,,,None,None,0,373.7888152999949,None,373.7888152999949,374.7888124000019,374.77215740000247,375.7721539000049,0,1,373.7888152999949,None,,,,2,M,18,r,CIB,2021_Dec_15_1451,WASABI Nback,2020.2.10,59.99498441952526,
0,1,5,"[0, 0]",1,0,0,0,0,,,,,0,0,0,0,0,111,111,111,,,,,,,,,None,None,0,375.78883370000403,None,375.78883370000403,376.78882709999743,376.77216219999536,377.77218549999816,0,1,375.78883370000403,None,,,,2,M,18,r,CIB,2021_Dec_15_1451,WASABI Nback,2020.2.10,59.99498441952526,
0,1,1,"[-0.2, 0.2]",None,0,0,0,0,,,,,0,0,0,0,0,112,112,112,,,,,,,,,None,None,0,377.7888488000026,None,377.7888488000026,378.7888457000081,378.772174800004,379.77218460000586,0,1,377.7888488000026,None,,,,2,M,18,r,CIB,2021_Dec_15_1451,WASABI Nback,2020.2.10,59.99498441952526,
0,1,7,"[-0.2, -0.2]",None,0,0,0,0,,,,,0,0,0,0,0,113,113,113,,,,,,,,,None,None,0,379.7888527000032,None,379.7888527000032,380.7888696000009,380.7722128000023,381.77220419999503,0,1,379.7888527000032,None,,,,2,M,18,r,CIB,2021_Dec_15_1451,WASABI Nback,2020.2.10,59.99498441952526,
0,1,9,"[0.2, -0.2]",None,0,0,0,0,,,,,0,0,0,0,0,114,114,114,,,,,,,,,None,None,0,381.7888895000069,None,381.7888895000069,382.78887289999693,382.7722131000046,383.772223100008,0,1,381.7888895000069,None,,,,2,M,18,r,CIB,2021_Dec_15_1451,WASABI Nback,2020.2.10,59.99498441952526,
0,1,3,"[0.2, 0.2]",None,0,0,0,0,,,,,0,0,0,0,0,115,115,115,,,,,,,,,None,None,0,383.7888926000014,None,383.7888926000014,384.78889330000675,384.7722253999964,385.7722384999943,0,1,383.7888926000014,None,,,,2,M,18,r,CIB,2021_Dec_15_1451,WASABI Nback,2020.2.10,59.99498441952526,
0,1,9,"[0.2, -0.2]",1,0,0,0,0,,,,,0,0,0,0,0,116,116,116,,,,,,,,,None,None,0,385.7889014999964,None,385.7889014999964,386.7889195000025,386.7722560999973,387.7722649000061,0,1,385.7889014999964,None,,,,2,M,18,r,CIB,2021_Dec_15_1451,WASABI Nback,2020.2.10,59.99498441952526,
0,1,6,"[0.2, 0]",None,0,0,0,0,,,,,0,0,0,0,0,117,117,117,,,,,,,,,None,None,0,387.7889190999995,None,387.7889190999995,388.78893930000777,388.77224629999546,389.77226769999834,0,1,387.7889190999995,None,,,,2,M,18,r,CIB,2021_Dec_15_1451,WASABI Nback,2020.2.10,59.99498441952526,
0,1,2,"[0, 0.2]",None,0,0,0,0,,,,,0,0,0,0,0,118,118,118,,,,,,,,,None,None,0,389.7889414999954,None,389.7889414999954,390.78894690000743,390.77228849999665,391.77228780000587,0,1,389.7889414999954,None,,,,2,M,18,r,CIB,2021_Dec_15_1451,WASABI Nback,2020.2.10,59.99498441952526,
0,1,5,"[0, 0]",None,0,0,0,0,,,,,0,0,0,0,0,119,119,119,,,,,,,,,None,None,0,391.7889654000028,None,391.7889654000028,392.7889618000045,392.77229320000333,393.77227129999665,0,1,391.7889654000028,None,,,,2,M,18,r,CIB,2021_Dec_15_1451,WASABI Nback,2020.2.10,59.99498441952526,
1,0,,,,0,1,1,1,0,0,0,0,,,,,,,,,,,,,,,,,,,,,,,,,,,,,,,463.32283210000605,None,2,M,18,r,CIB,2021_Dec_15_1451,WASABI Nback,2020.2.10,59.99498441952526,
