	SID	biopac_channel	body_site	condition	correct	date	duration	handedness	mouseclick	onset	rt	scanner	score	session	sex	skin_site	temperature	value
0	2984	51	Chest	Expectancy		2024_Jun_26_1750	5.006335879385006	r		3.794630499993218	3.750444499979494	SS MRS		3	f	2		71.29629629629629
1	2984	44	Chest	0-back Instruction		2024_Jun_26_1750	5.005785199988168	r		9.205476799979806		SS MRS		3	f	2		
2	2984	7	Chest	Pre-Trial Jitter		2024_Jun_26_1750	7.008740439981921	r		14.220802900003036		SS MRS		3	f	2		
3	2984	44.0	Chest	pretrialfixation		2024_Jun_26_1750	0.9985208799771499	r		21.525930799980415		SS MRS		3	f	2		
4	2984		Chest	0-back	1.0	2024_Jun_26_1750	1.9914646400138736	r	0.0	22.537842899997486	0.7129800999828149	SS MRS	12.5	3	f	2	48.5	
5	2984		Chest	0-back	1.0	2024_Jun_26_1750	1.9775289199897088	r	0.0	24.54484339998453	0.4465755999844987	SS MRS	25.0	3	f	2	48.5	
6	2984		Chest	0-back	1.0	2024_Jun_26_1750	1.9802221200079657	r	0.0	26.54351669998141	0.34634360001655295	SS MRS	37.5	3	f	2	48.5	
7	2984		Chest	0-back	1.0	2024_Jun_26_1750	1.9797931199718732	r	0.0	28.54376869997941	0.2631892999925185	SS MRS	50.0	3	f	2	48.5	
8	2984		Chest	0-back	1.0	2024_Jun_26_1750	1.9799113199987914	r	0.0	30.543717900000047	0.3629652999807149	SS MRS	62.5	3	f	2	48.5	
9	2984		Chest	0-back	1.0	2024_Jun_26_1750	1.97876662001363	r	0.0	32.54432399998768	0.36320960000739433	SS MRS	75.0	3	f	2	48.5	
10	2984		Chest	0-back	1.0	2024_Jun_26_1750	1.9802731199888512	r	0.0	34.54359119999572	0.49621189999743365	SS MRS	87.5	3	f	2	48.5	
11	2984		Chest	0-back	1.0	2024_Jun_26_1750	1.9793792200216558	r	0.0	36.54403540000203	0.5465807000000495	SS MRS	100.0	3	f	2	48.5	
12	2984	48.0	Chest	ScoreReport		2024_Jun_26_1750	4.996748439967632	r		38.56033869998646		SS MRS		3	f	2		
13	2984	8	Chest	Post-Trial Jitter		2024_Jun_26_1750	7.001570000022184	r		43.6247272999899		SS MRS		3	f	2		
14	2984	20	Chest	PainBinary		2024_Jun_26_1750	5.0018200400227215	r		50.649693599989405	1.2504169000021648	SS MRS		3	f	2		1.0
15	2984	21	Chest	IntensityRating		2024_Jun_26_1750	5.004095259995665	r		55.69028429998434	1.900421300000744	SS MRS		3	f	2		59.38271604938271
16	2984	23	Chest	DistractBinary		2024_Jun_26_1750	5.001399139990099	r		60.71668559999671	3.5838943000126164	SS MRS		3	f	2		1.0
17	2984	9	Chest	Post-Q-Jitter		2024_Jun_26_1750	7.0154508400009945	r		65.7347239999799		SS MRS		3	f	2		
18	2984	51	Chest	Expectancy		2024_Jun_26_1750	5.008177400013665	r		73.23009389999788	3.5004447999817785	SS MRS		3	f	2		65.55555555555556
19	2984	44	Chest	0-back Instruction		2024_Jun_26_1750	5.018063599971356	r		78.64189319999423		SS MRS		3	f	2		
20	2984	7	Chest	Pre-Trial Jitter		2024_Jun_26_1750	7.006598039995879	r		83.67270199998165		SS MRS		3	f	2		
21	2984	44.0	Chest	pretrialfixation		2024_Jun_26_1750	1.0031788799969945	r		90.98276859999169		SS MRS		3	f	2		
22	2984		Chest	0-back	1.0	2024_Jun_26_1750	1.9898745399841573	r	0.0	92.0059154999908	1.1295404999982566	SS MRS	12.5	3	f	2	48.5	
23	2984		Chest	0-back	1.0	2024_Jun_26_1750	1.9776113200059626	r	0.0	94.01228860000265	0.6793590000015683	SS MRS	25.0	3	f	2	48.5	
24	2984		Chest	0-back	1.0	2024_Jun_26_1750	1.9798785200109705	r	0.0	96.01118869998027	0.4337259999883827	SS MRS	37.5	3	f	2	48.5	
25	2984		Chest	0-back	1.0	2024_Jun_26_1750	1.9803648199886084	r	0.0	98.01095689999056	0.23367650000727735	SS MRS	50.0	3	f	2	48.5	
26	2984		Chest	0-back	1.0	2024_Jun_26_1750	1.9798619200009853	r	0.0	100.0111960999784	0.24677880000672303	SS MRS	62.5	3	f	2	48.5	
27	2984		Chest	0-back	1.0	2024_Jun_26_1750	1.97997272000066	r	0.0	102.0111986999982	0.3797152999904938	SS MRS	75.0	3	f	2	48.5	
28	2984		Chest	0-back	1.0	2024_Jun_26_1750	1.9795220200030599	r	0.0	104.01145079999696	0.3296507000050042	SS MRS	87.5	3	f	2	48.5	
29	2984		Chest	0-back	1.0	2024_Jun_26_1750	1.9787422199733555	r	0.0	106.01187409998965	0.31302500001038425	SS MRS	100.0	3	f	2	48.5	
30	2984	48.0	Chest	ScoreReport		2024_Jun_26_1750	4.99775354002486	r		108.02739619999193		SS MRS		3	f	2		
31	2984	8	Chest	Post-Trial Jitter		2024_Jun_26_1750	9.00965120003093	r		113.08819219999714		SS MRS		3	f	2		
32	2984	20	Chest	PainBinary		2024_Jun_26_1750	5.000640740036033	r		122.11779920000117	1.8005279000208247	SS MRS		3	f	2		1.0
33	2984	21	Chest	IntensityRating		2024_Jun_26_1750	5.003633660002379	r		127.1580263999931	4.783831199980341	SS MRS		3	f	2		48.086419753086425
34	2984	23	Chest	DistractBinary		2024_Jun_26_1750	5.001753840013407	r		132.184030000004	2.1340557000075933	SS MRS		3	f	2		1.0
35	2984	9	Chest	Post-Q-Jitter		2024_Jun_26_1750	9.014348539989442	r		137.20281550000072		SS MRS		3	f	2		
36	2984	43	Chest	2-back Instruction		2024_Jun_26_1750	5.0048535599780735	r		146.24097929999698		SS MRS		3	f	2		
37	2984	7	Chest	Pre-trial Jitter		2024_Jun_26_1750	5.006384939973941	r		151.25692729998264		SS MRS		3	f	2		
38	2984	44.0	Chest	pretrialfixation		2024_Jun_26_1750	1.0112701400066726	r		156.52115379998577		SS MRS		3	f	2		
39	2984		Chest	2-back	1.0	2024_Jun_26_1750	1.990397839981597	r		157.53998079997837		SS MRS	12.5	3	f	2	32.0	
40	2984		Chest	2-back	1.0	2024_Jun_26_1750	1.9760793200111948	r		159.5471564999898		SS MRS	25.0	3	f	2	32.0	
41	2984		Chest	2-back	1.0	2024_Jun_26_1750	1.9769704200152773	r	0	161.54673380000168	0.5297715999768116	SS MRS	37.5	3	f	2	32.0	
42	2984		Chest	2-back	1.0	2024_Jun_26_1750	1.977326920023188	r	2	163.54659309997805	0.5464890000002924	SS MRS	50.0	3	f	2	32.0	
43	2984		Chest	2-back	1.0	2024_Jun_26_1750	1.977358819975052	r	2	165.54659129999345	0.8799020999867935	SS MRS	62.5	3	f	2	32.0	
44	2984		Chest	2-back	1.0	2024_Jun_26_1750	1.976648820011178	r	2	167.5469882999896	0.5460966000100598	SS MRS	75.0	3	f	2	32.0	
45	2984		Chest	2-back	0.0	2024_Jun_26_1750	1.9768836199946236	r	2	169.54687649998232	0.6298512000066694	SS MRS	75.0	3	f	2	32.0	
46	2984		Chest	2-back	1.0	2024_Jun_26_1750	1.9763372199668083	r	0	171.54719939999632	0.913182099990081	SS MRS	87.5	3	f	2	32.0	
47	2984	48.0	Chest	ScoreReport		2024_Jun_26_1750	5.011754359991755	r		173.57118189998437		SS MRS		3	f	2		
48	2984	8	Chest	Post-trial Jitter		2024_Jun_26_1750	7.000139600015245	r		178.64373859998886		SS MRS		3	f	2		
49	2984	43	Chest	2-back Instruction		2024_Jun_26_1750	5.003956859989557	r		185.67523979998077		SS MRS		3	f	2		
50	2984	7	Chest	Pre-trial Jitter		2024_Jun_26_1750	7.001389040029608	r		190.69323629999417		SS MRS		3	f	2		
51	2984	44.0	Chest	pretrialfixation		2024_Jun_26_1750	1.0057316400052514	r		197.95776509999996		SS MRS		3	f	2		
52	2984		Chest	2-back	1.0	2024_Jun_26_1750	1.990989840007387	r		198.97352729999693		SS MRS	12.5	3	f	2	32.0	
53	2984		Chest	2-back	1.0	2024_Jun_26_1750	1.9752883199835196	r		200.9813543999917		SS MRS	25.0	3	f	2	32.0	
54	2984		Chest	2-back	1.0	2024_Jun_26_1750	1.9779443200095557	r	2	202.98009070000262	0.6630087000085041	SS MRS	37.5	3	f	2	32.0	
55	2984		Chest	2-back	1.0	2024_Jun_26_1750	1.9772245200292673	r	2	204.9804690000019	0.5462480999995023	SS MRS	50.0	3	f	2	32.0	
56	2984		Chest	2-back	1.0	2024_Jun_26_1750	1.976930920034647	r	0	206.98063750000438	0.5630281000048853	SS MRS	62.5	3	f	2	32.0	
57	2984		Chest	2-back	1.0	2024_Jun_26_1750	1.9767328200105112	r	2	208.98077409999678	0.713152699987404	SS MRS	75.0	3	f	2	32.0	
58	2984		Chest	2-back	1.0	2024_Jun_26_1750	1.9763411199965049	r	2	210.9809874999919	0.6296356999955606	SS MRS	87.5	3	f	2	32.0	
59	2984		Chest	2-back	0.0	2024_Jun_26_1750	1.9770238200144377	r	2	212.98067669998272	0.7796338000043761	SS MRS	87.5	3	f	2	32.0	
60	2984	48.0	Chest	ScoreReport		2024_Jun_26_1750	5.01126686000498	r		215.00525519999792		SS MRS		3	f	2		
61	2984	8	Chest	Post-trial Jitter		2024_Jun_26_1750	9.003146500006551	r		220.07605529998546		SS MRS		3	f	2		
62	2984	51	Chest	Expectancy		2024_Jun_26_1750	5.012038919958286	r		229.98832479998237	2.883763599995291	SS MRS		3	f	2		65.06172839506172
63	2984	45	Chest	2-back Instruction		2024_Jun_26_1750	5.013686099962797	r		235.395916199981		SS MRS		3	f	2		
64	2984	7	Chest	Pre-trial Jitter		2024_Jun_26_1750	5.001259839977138	r		240.42722169999615		SS MRS		3	f	2		
65	2984	44.0	Chest	pretrialfixation		2024_Jun_26_1750	1.0128915599780157	r		245.70474859999376		SS MRS		3	f	2		
66	2984		Chest	2-back	1.0	2024_Jun_26_1750	1.9924618399818428	r		246.72335409998777		SS MRS	12.5	3	f	2	48.5	
67	2984		Chest	2-back	1.0	2024_Jun_26_1750	1.9755448199866805	r		248.73184160000528		SS MRS	25.0	3	f	2	48.5	
68	2984		Chest	2-back	1.0	2024_Jun_26_1750	1.9775906200229656	r	0	250.7307787000027	0.9297660000156611	SS MRS	37.5	3	f	2	48.5	
69	2984		Chest	2-back	1.0	2024_Jun_26_1750	1.9769197200366762	r	2	252.7312144000025	0.4506364999979269	SS MRS	50.0	3	f	2	48.5	
70	2984		Chest	2-back	1.0	2024_Jun_26_1750	1.977309520036215	r	0	254.73104849999072	0.612566900003003	SS MRS	62.5	3	f	2	48.5	
71	2984		Chest	2-back	1.0	2024_Jun_26_1750	1.9761916200222913	r	2	256.73161319998326	0.5631532999977935	SS MRS	75.0	3	f	2	48.5	
72	2984		Chest	2-back	1.0	2024_Jun_26_1750	1.9763298200268764	r	2	258.73158500000136	0.600612899987027	SS MRS	87.5	3	f	2	48.5	
73	2984		Chest	2-back	0.0	2024_Jun_26_1750	1.976079120009672	r	0	260.73170869998285	0.9337150999926962	SS MRS	87.5	3	f	2	48.5	
74	2984	48.0	Chest	ScoreReport		2024_Jun_26_1750	5.009513659984805	r		262.75670159998117		SS MRS		3	f	2		
75	2984	8	Chest	Post-trial Jitter		2024_Jun_26_1750	5.001261599973077	r		267.82754840000416		SS MRS		3	f	2		
76	2984	20	Chest	PainBinary		2024_Jun_26_1750	5.009186960029183	r		272.85698859998956	1.533759200014174	SS MRS		3	f	2		1.0
77	2984	21	Chest	IntensityRating		2024_Jun_26_1750	5.012898359971587	r		277.8968419999874	3.067002299998421	SS MRS		3	f	2		35.80246913580247
78	2984	23	Chest	DistractBinary		2024_Jun_26_1750	5.01224296001601	r		282.93896559998393		SS MRS		3	f	2		0.0
79	2984	9	Chest	Post-Q-Jitter		2024_Jun_26_1750	5.009461840003496	r		287.9570444999845		SS MRS		3	f	2		
80	2984	51	Chest	Expectancy		2024_Jun_26_1750	5.00229367997963	r		293.84390899998834	3.6672033999930136	SS MRS		3	f	2		66.72839506172839
81	2984	45	Chest	2-back Instruction		2024_Jun_26_1750	5.016902499948628	r		299.24506099999417		SS MRS		3	f	2		
82	2984	7	Chest	Pre-trial Jitter		2024_Jun_26_1750	9.001089040015358	r		304.2780999999959		SS MRS		3	f	2		
83	2984	44.0	Chest	pretrialfixation		2024_Jun_26_1750	1.0116127800138202	r		313.5728727999958		SS MRS		3	f	2		
84	2984		Chest	2-back	1.0	2024_Jun_26_1750	1.990200439991895	r		314.59198100000503		SS MRS	12.5	3	f	2	48.5	
85	2984		Chest	2-back	1.0	2024_Jun_26_1750	1.9761306199652608	r		316.59903019998455		SS MRS	25.0	3	f	2	48.5	
86	2984		Chest	2-back	1.0	2024_Jun_26_1750	1.978310220030835	r	0	318.5979695999995	0.6131559000059497	SS MRS	37.5	3	f	2	48.5	
87	2984		Chest	2-back	1.0	2024_Jun_26_1750	1.9770693200116511	r	2	320.5986039999989	0.5796928999770898	SS MRS	50.0	3	f	2	48.5	
88	2984		Chest	2-back	1.0	2024_Jun_26_1750	1.9763151200022548	r	2	322.5990052999987	0.5964435999921989	SS MRS	62.5	3	f	2	48.5	
89	2984		Chest	2-back	1.0	2024_Jun_26_1750	1.97690842000884	r	2	324.5987299999979	0.4630539000208955	SS MRS	75.0	3	f	2	48.5	
90	2984		Chest	2-back	1.0	2024_Jun_26_1750	1.9765652200148907	r	0	326.5989226999809	0.763139599992428	SS MRS	87.5	3	f	2	48.5	
91	2984		Chest	2-back	1.0	2024_Jun_26_1750	1.975623620004626	r	0	328.59935619999305	0.8132267000037245	SS MRS	100.0	3	f	2	48.5	
92	2984	48.0	Chest	ScoreReport		2024_Jun_26_1750	5.008707339962712	r		330.6162431999983		SS MRS		3	f	2		
93	2984	8	Chest	Post-trial Jitter		2024_Jun_26_1750	5.007419799978379	r		335.70028459999594		SS MRS		3	f	2		
94	2984	20	Chest	PainBinary		2024_Jun_26_1750	5.011944059981033	r		340.73982829999295		SS MRS		3	f	2		1.0
95	2984	21	Chest	IntensityRating		2024_Jun_26_1750	5.0147356600209605	r		345.78008529997896	0.13394770000013523	SS MRS		3	f	2		50.0
96	2984	23	Chest	DistractBinary		2024_Jun_26_1750	5.009296759963036	r		350.8245304999873	2.0007525000255555	SS MRS		3	f	2		1.0
97	2984	9	Chest	Post-Q-Jitter		2024_Jun_26_1750	5.009559340018313	r		355.8411378999881		SS MRS		3	f	2		
98	2984	51	Chest	Expectancy		2024_Jun_26_1750	5.011925559985684	r		361.71495749999303	2.6671835999877658	SS MRS		3	f	2		50.0
99	2984	44	Chest	0-back Instruction		2024_Jun_26_1750	5.011726400000043	r		367.13184079999337		SS MRS		3	f	2		
100	2984	7	Chest	Pre-Trial Jitter		2024_Jun_26_1750	9.00066374000744	r		372.1624709999887		SS MRS		3	f	2		
101	2984	44.0	Chest	pretrialfixation		2024_Jun_26_1750	1.0119877999823075	r		381.4734871999826		SS MRS		3	f	2		
102	2984		Chest	0-back	1.0	2024_Jun_26_1750	1.9908369399781805	r	0.0	382.49246809998294	0.8462790999910794	SS MRS	12.5	3	f	2	48.5	
103	2984		Chest	0-back	1.0	2024_Jun_26_1750	1.9781693199765868	r	0.0	384.49880919998395	0.4338016000110656	SS MRS	25.0	3	f	2	48.5	
104	2984		Chest	0-back	1.0	2024_Jun_26_1750	1.9796412200084887	r	0.0	386.4980947999866	0.4296893999853637	SS MRS	37.5	3	f	2	48.5	
105	2984		Chest	0-back	1.0	2024_Jun_26_1750	1.9801061199686956	r	0.0	388.4979003999906	0.49646819999907166	SS MRS	50.0	3	f	2	48.5	
106	2984		Chest	0-back	1.0	2024_Jun_26_1750	1.980097920022672	r	0.0	390.4979177000059	0.26689329999499023	SS MRS	62.5	3	f	2	48.5	
107	2984		Chest	0-back	1.0	2024_Jun_26_1750	1.9788294199679513	r	0.0	392.49858829998993	0.363136800006032	SS MRS	75.0	3	f	2	48.5	
108	2984		Chest	0-back	1.0	2024_Jun_26_1750	1.9802364200004376	r	0.0	394.4979083999933	0.31311830002232455	SS MRS	87.5	3	f	2	48.5	
109	2984		Chest	0-back	1.0	2024_Jun_26_1750	1.9801870199735276	r	0.0	396.4979502999922	0.4297272000112571	SS MRS	100.0	3	f	2	48.5	
110	2984	48.0	Chest	ScoreReport		2024_Jun_26_1750	4.997900240006857	r		398.5141266999999		SS MRS		3	f	2		
111	2984	8	Chest	Post-Trial Jitter		2024_Jun_26_1750	7.003478400001768	r		403.5780731999839		SS MRS		3	f	2		
112	2984	20	Chest	PainBinary		2024_Jun_26_1750	5.012207259977004	r		410.6071214999829	1.6861217000114266	SS MRS		3	f	2		1.0
113	2984	21	Chest	IntensityRating		2024_Jun_26_1750	5.015789460012456	r		415.6470455999952	2.5169796000118367	SS MRS		3	f	2		52.22222222222223
114	2984	23	Chest	DistractBinary		2024_Jun_26_1750	5.010086459980812	r		420.6917026999872		SS MRS		3	f	2		1.0
115	2984	9	Chest	Post-Q-Jitter		2024_Jun_26_1750	7.00986243999796	r		425.70848979998846		SS MRS		3	f	2		
116	2984	51	Chest	Expectancy		2024_Jun_26_1750	5.012478959921282	r		433.9072194999899		SS MRS		3	f	2		58.45679012345679
117	2984	44	Chest	0-back Instruction		2024_Jun_26_1750	5.0151644999859855	r		439.31427939998684		SS MRS		3	f	2		
118	2984	7	Chest	Pre-Trial Jitter		2024_Jun_26_1750	7.001835740025854	r		444.3460575999925		SS MRS		3	f	2		
119	2984	44.0	Chest	pretrialfixation		2024_Jun_26_1750	0.9988802800362464	r		451.64754919998813		SS MRS		3	f	2		
120	2984		Chest	0-back	1.0	2024_Jun_26_1750	1.9906898399931379	r	0.0	452.66004930000054	1.2962705000245478	SS MRS	12.5	3	f	2	48.5	
121	2984		Chest	0-back	1.0	2024_Jun_26_1750	1.9785499200224876	r	0.0	454.66612989999703	0.5131230000115465	SS MRS	25.0	3	f	2	48.5	
122	2984		Chest	0-back	1.0	2024_Jun_26_1750	1.9800748199922964	r	0.0	456.66535939997993	0.36310170000069775	SS MRS	37.5	3	f	2	48.5	
123	2984		Chest	0-back	1.0	2024_Jun_26_1750	1.9802593200292904	r	0.0	458.6653495999926	0.27978290000464767	SS MRS	50.0	3	f	2	48.5	
124	2984		Chest	0-back	1.0	2024_Jun_26_1750	1.980369420023635	r	0.0	460.6652926999959	0.27980160000151955	SS MRS	62.5	3	f	2	48.5	
125	2984		Chest	0-back	1.0	2024_Jun_26_1750	1.9803151199885178	r	0.0	462.6653400999785	0.24651840000296943	SS MRS	75.0	3	f	2	48.5	
126	2984		Chest	0-back	1.0	2024_Jun_26_1750	1.9797037199605256	r	0.0	464.6656936999934	0.3131001000001561	SS MRS	87.5	3	f	2	48.5	
127	2984		Chest	0-back	1.0	2024_Jun_26_1750	1.9800764199753758	r	0.0	466.6655158000067	0.3298186000029091	SS MRS	100.0	3	f	2	48.5	
128	2984	48.0	Chest	ScoreReport		2024_Jun_26_1750	4.99798124001245	r		468.6816010999901		SS MRS		3	f	2		
129	2984	8	Chest	Post-Trial Jitter		2024_Jun_26_1750	9.0041404000076	r		473.74527919999673		SS MRS		3	f	2		
130	2984	20	Chest	PainBinary		2024_Jun_26_1750	5.0112788600090425	r		482.7750677999866	1.7837291000178084	SS MRS		3	f	2		1.0
131	2984	21	Chest	IntensityRating		2024_Jun_26_1750	5.015305359993363	r		487.81478309998056	3.550377600011416	SS MRS		3	f	2		55.18518518518518
132	2984	23	Chest	DistractBinary		2024_Jun_26_1750	5.011926459992537	r		492.8582455999858	1.3870084999944083	SS MRS		3	f	2		1.0
133	2984	9	Chest	Post-Q-Jitter		2024_Jun_26_1750	9.00965844001621	r		497.87613099999726		SS MRS		3	f	2		
134	2984	42	Chest	0-back Instruction		2024_Jun_26_1750	4.998545959970215	r		506.9151140000031		SS MRS		3	f	2		
135	2984	7	Chest	Pre-Trial Jitter		2024_Jun_26_1750	5.001282340002945	r		511.9304626999947		SS MRS		3	f	2		
136	2984	44.0	Chest	pretrialfixation		2024_Jun_26_1750	1.0056076400214806	r		517.1949802000017		SS MRS		3	f	2		
137	2984		Chest	0-back	1.0	2024_Jun_26_1750	1.9918245399894658	r	0.0	518.210261500004	0.8962033999850973	SS MRS	12.5	3	f	2	32.0	
138	2984		Chest	0-back	1.0	2024_Jun_26_1750	1.9775409199937712	r	0.0	520.217358599999	0.4964795999985654	SS MRS	25.0	3	f	2	32.0	
139	2984		Chest	0-back	1.0	2024_Jun_26_1750	1.9801824199676048	r	0.0	522.2161300999869	0.4465531000168994	SS MRS	37.5	3	f	2	32.0	
140	2984		Chest	0-back	1.0	2024_Jun_26_1750	1.9798200200602878	r	0.0	524.2163304999995	0.4131422999780625	SS MRS	50.0	3	f	2	32.0	
141	2984		Chest	0-back	1.0	2024_Jun_26_1750	1.980387819960015	r	0.0	526.2160986999806	0.4830216999980621	SS MRS	62.5	3	f	2	32.0	
142	2984		Chest	0-back	1.0	2024_Jun_26_1750	1.9794413200288545	r	0.0	528.2165547999903	0.31334890000289306	SS MRS	75.0	3	f	2	32.0	
143	2984		Chest	0-back	1.0	2024_Jun_26_1750	1.9798851200030185	r	0.0	530.2163747999875	0.4462995000067167	SS MRS	87.5	3	f	2	32.0	
144	2984		Chest	0-back	1.0	2024_Jun_26_1750	1.9795957200112753	r	0.0	532.2165221000032	0.4632006000028923	SS MRS	100.0	3	f	2	32.0	
145	2984	48.0	Chest	ScoreReport		2024_Jun_26_1750	4.997611140017398	r		534.2325539999874		SS MRS		3	f	2		
146	2984	8	Chest	Post-Trial Jitter		2024_Jun_26_1750	4.999956599989673	r		539.2980949000048		SS MRS		3	f	2		
147	2984	42	Chest	0-back Instruction		2024_Jun_26_1750	5.002606260008179	r		544.3301805999945		SS MRS		3	f	2		
148	2984	7	Chest	Pre-Trial Jitter		2024_Jun_26_1750	8.999963139998727	r		549.3482542999845		SS MRS		3	f	2		
149	2984	44.0	Chest	pretrialfixation		2024_Jun_26_1750	1.0055259399814531	r		558.6121760999958		SS MRS		3	f	2		
150	2984		Chest	0-back	1.0	2024_Jun_26_1750	1.991617240011692	r	0.0	559.6275301999995	1.0797555999888573	SS MRS	12.5	3	f	2	32.0	
151	2984		Chest	0-back	1.0	2024_Jun_26_1750	1.977929620014038	r	0.0	561.6343847999815	0.4964256999955978	SS MRS	25.0	3	f	2	32.0	
152	2984		Chest	0-back	1.0	2024_Jun_26_1750	1.980346219963394	r	0.0	563.6331952000037	0.44639399999869056	SS MRS	37.5	3	f	2	32.0	
153	2984		Chest	0-back	1.0	2024_Jun_26_1750	1.980206719978014	r	0.0	565.6332669999974	1.2298242000106256	SS MRS	50.0	3	f	2	32.0	
154	2984		Chest	0-back	1.0	2024_Jun_26_1750	1.9800311199796852	r	0.0	567.6334132000047	0.39646789999096654	SS MRS	62.5	3	f	2	32.0	
155	2984		Chest	0-back	1.0	2024_Jun_26_1750	1.9799600200203713	r	0.0	569.6334580999974	0.44647309998981655	SS MRS	75.0	3	f	2	32.0	
156	2984		Chest	0-back	1.0	2024_Jun_26_1750	1.9800503199803643	r	0.0	571.6334404999798	0.46321220000390895	SS MRS	87.5	3	f	2	32.0	
157	2984		Chest	0-back	1.0	2024_Jun_26_1750	1.9794074200035539	r	0.0	573.633485600003	1.0004139000084251	SS MRS	100.0	3	f	2	32.0	
158	2984	48.0	Chest	ScoreReport		2024_Jun_26_1750	4.997800940007437	r		575.649633699999		SS MRS		3	f	2		
159	2984	8	Chest	Post-Trial Jitter		2024_Jun_26_1750	5.003381900023669	r		580.7135624999937		SS MRS		3	f	2		
160	2984	51	Chest	Expectancy		2024_Jun_26_1750	5.003077439963818	r		586.655457899993		SS MRS		3	f	2		54.99999999999999
161	2984	45	Chest	2-back Instruction		2024_Jun_26_1750	5.015743699972518	r		592.0658181000035		SS MRS		3	f	2		
162	2984	7	Chest	Pre-trial Jitter		2024_Jun_26_1750	9.000750039995182	r		597.0984404000046		SS MRS		3	f	2		
163	2984	44.0	Chest	pretrialfixation		2024_Jun_26_1750	0.995730159978848	r		606.3843123999832		SS MRS		3	f	2		
164	2984		Chest	2-back	1.0	2024_Jun_26_1750	1.9911356400116347	r		607.3949985999789		SS MRS	12.5	3	f	2	48.5	
165	2984		Chest	2-back	1.0	2024_Jun_26_1750	1.9763131199870259	r		609.4024363999779		SS MRS	25.0	3	f	2	48.5	
166	2984		Chest	2-back	1.0	2024_Jun_26_1750	1.9779490199871361	r	2	611.4016332000028	0.5296323999937158	SS MRS	37.5	3	f	2	48.5	
167	2984		Chest	2-back	1.0	2024_Jun_26_1750	1.9766628200013656	r	0	613.4023006999923	0.4797796999919228	SS MRS	50.0	3	f	2	48.5	
168	2984		Chest	2-back	1.0	2024_Jun_26_1750	1.9766917200176977	r	2	615.4022795000055	0.5796527999918908	SS MRS	62.5	3	f	2	48.5	
169	2984		Chest	2-back	1.0	2024_Jun_26_1750	1.9765473199950065	r	2	617.4024106999859	0.5298133000032976	SS MRS	75.0	3	f	2	48.5	
170	2984		Chest	2-back	1.0	2024_Jun_26_1750	1.9773162199708167	r	2	619.4020784999884	0.8130316000024322	SS MRS	87.5	3	f	2	48.5	
171	2984		Chest	2-back	1.0	2024_Jun_26_1750	1.9767178200127091	r	0	621.4023701999977	0.7963474999996834	SS MRS	100.0	3	f	2	48.5	
172	2984	48.0	Chest	ScoreReport		2024_Jun_26_1750	5.008136739983456	r		623.4200378999813		SS MRS		3	f	2		
173	2984	8	Chest	Post-trial Jitter		2024_Jun_26_1750	7.000643200008199	r		628.4988619000069		SS MRS		3	f	2		
174	2984	20	Chest	PainBinary		2024_Jun_26_1750	5.010655060003046	r		635.5272577999858	1.2005065999983344	SS MRS		3	f	2		1.0
175	2984	21	Chest	IntensityRating		2024_Jun_26_1750	5.013413259992376	r		640.5676082999853	2.233608099981211	SS MRS		3	f	2		75.98765432098766
176	2984	23	Chest	DistractBinary		2024_Jun_26_1750	5.010616560000926	r		645.6107250000059	1.383726600004593	SS MRS		3	f	2		1.0
177	2984	9	Chest	Post-Q-Jitter		2024_Jun_26_1750	7.008048639982007	r		650.6287355999812		SS MRS		3	f	2		
178	2984	51	Chest	Expectancy		2024_Jun_26_1750	5.004907939961413	r		658.8220410000067		SS MRS		3	f	2		63.580246913580254
179	2984	45	Chest	2-back Instruction		2024_Jun_26_1750	5.0068888000096194	r		664.2377882000001		SS MRS		3	f	2		
180	2984	7	Chest	Pre-trial Jitter		2024_Jun_26_1750	7.001480339997215	r		669.2655932999915		SS MRS		3	f	2		
181	2984	44.0	Chest	pretrialfixation		2024_Jun_26_1750	1.009893579990603	r		676.5614050999866		SS MRS		3	f	2		
182	2984		Chest	2-back	1.0	2024_Jun_26_1750	1.9900485399994068	r		677.5797122999793		SS MRS	12.5	3	f	2	48.5	
183	2984		Chest	2-back	1.0	2024_Jun_26_1750	1.9754792200110387	r		679.5870154000004		SS MRS	25.0	3	f	2	48.5	
184	2984		Chest	2-back	1.0	2024_Jun_26_1750	1.9779093200049829	r	2	681.5858369999914	0.66310170001816	SS MRS	37.5	3	f	2	48.5	
185	2984		Chest	2-back	1.0	2024_Jun_26_1750	1.9768932199804112	r	2	683.5863572999951	0.6130608999810647	SS MRS	50.0	3	f	2	48.5	
186	2984		Chest	2-back	1.0	2024_Jun_26_1750	1.9772968199977186	r	0	685.5861776999955	0.5797706000157632	SS MRS	62.5	3	f	2	48.5	
187	2984		Chest	2-back	1.0	2024_Jun_26_1750	1.9770956199790817	r	2	687.5863009000022	0.5298260000126902	SS MRS	75.0	3	f	2	48.5	
188	2984		Chest	2-back	0.0	2024_Jun_26_1750	1.9770417200343218	r	2	689.5863234999997	1.2800076999992598	SS MRS	75.0	3	f	2	48.5	
189	2984		Chest	2-back	1.0	2024_Jun_26_1750	1.9765362199977972	r	2	691.5866296000022	1.4798046000069007	SS MRS	87.5	3	f	2	48.5	
190	2984	48.0	Chest	ScoreReport		2024_Jun_26_1750	5.010517659975449	r		693.6113437000022		SS MRS		3	f	2		
191	2984	8	Chest	Post-trial Jitter		2024_Jun_26_1750	4.997241400036728	r		698.6847114999837		SS MRS		3	f	2		
192	2984	20	Chest	PainBinary		2024_Jun_26_1750	5.010180559998844	r		703.7116538999835	2.167090700007975	SS MRS		3	f	2		1.0
193	2984	21	Chest	IntensityRating		2024_Jun_26_1750	5.013838659971952	r		708.7516197999939		SS MRS		3	f	2		40.24691358024692
194	2984	23	Chest	DistractBinary		2024_Jun_26_1750	5.01209186000051	r		713.7941548999806	1.7337448000034783	SS MRS		3	f	2		1.0
195	2984	9	Chest	Post-Q-Jitter		2024_Jun_26_1750	5.009278140030801	r		718.8122919999878		SS MRS		3	f	2		
196	2984	26	Chest	ComfortRating		2024_Jun_26_1750	6.782150260027265	r		723.8509918999916	6.750865000009071	SS MRS		3	f	2		-28.148148148148152
197	2984	24	Chest	ValenceRating		2024_Jun_26_1750	7.888830159994541	r		730.6727297999896	7.853192999988096	SS MRS		3	f	2		77.28395061728395
198	2984	26	Chest	IntensityRating		2024_Jun_26_1750	2.4675483600294683	r		738.600090699998	2.4512691000127234	SS MRS		3	f	2		65.61728395061729
199	2984	27	Chest	AvoidanceRating		2024_Jun_26_1750	3.9697163599776104	r		741.1073903999932	3.9504492999985814	SS MRS		3	f	2		50.24691358024691
200	2984	28	Chest	RelaxationRating		2024_Jun_26_1750	4.4195723599987105	r		745.11584329998	4.386564499989618	SS MRS		3	f	2		31.48148148148148
201	2984	29	Chest	AttentionRating		2024_Jun_26_1750	4.954622660006862	r		749.5733738999988	4.933797999983653	SS MRS		3	f	2		6.23456790123457
202	2984	30	Chest	BoredomRating		2024_Jun_26_1750	3.769876459991792	r		754.5657918999786	3.750519399996847	SS MRS		3	f	2		6.23456790123457
203	2984	31	Chest	AlertnessRating		2024_Jun_26_1750	4.299562960019102	r		758.3676567999937	4.284606000001077	SS MRS		3	f	2		-77.1604938271605
204	2984	32	Chest	PosThxRating		2024_Jun_26_1750	2.3927682600042317	r		762.7044431999966	2.3670225999958348	SS MRS		3	f	2		0.0
205	2984	33	Chest	NegThxRating		2024_Jun_26_1750	1.6753422599867918	r		765.1381853999919	1.6504113000119105	SS MRS		3	f	2		0.0
206	2984	34	Chest	SelfRating		2024_Jun_26_1750	3.939266859990312	r		766.8562686999794	3.9169439999968745	SS MRS		3	f	2		57.16049382716051
207	2984	35	Chest	OtherRating		2024_Jun_26_1750	4.144937960023526	r		770.836802899983	4.103002999996534	SS MRS		3	f	2		59.25925925925927
208	2984	32	Chest	ImageryRating		2024_Jun_26_1750	2.699160780000966	r		775.0263987999933	2.6534707999962848	SS MRS		3	f	2		100.0
209	2984	37	Chest	PresentRating		2024_Jun_26_1750	3.1619142799754627	r		777.7617348000058	3.1337983999983408	SS MRS		3	f	2		-82.34567901234567
