square,location,corrAns,trials.thisRepN,trials.thisTrialN,trials.thisN,trials.thisIndex,trials_2.thisRepN,trials_2.thisTrialN,trials_2.thisN,trials_2.thisIndex,fixation_1.started,fixation_1.stopped,grid_lines.started,grid_lines.stopped,target_square.started,target_square.stopped,fixation_2.started,fixation_2.stopped,response.corr,response.x,response.y,response.leftButton,response.click_left,response.click_right,response.started,response.stopped,ScoreReportText.started,ScoreReportText.stopped,ScoreReportResponse.keys,ScoreReportResponse.started,ScoreReportResponse.stopped,response_2.x,response_2.y,response_2.leftButton,grid_lines_2.started,grid_lines_2.stopped,target_square_2.started,target_square_2.stopped,fixation_3.started,fixation_3.stopped,response_2.click,response_2.corr,response_2.started,response_2.stopped,BodySiteInstructionText.started,BodySiteImg.started,BodySiteImg.stopped,BodySiteInstructionRead.keys,BodySiteInstructionRead.rt,BodySiteInstructionRead.started,BodySiteInstructionRead.stopped,IntensityRating.response,IntensityRating.rt,IntensityRating.started,IntensityRating.stopped,response.click,response.rt_left,response.rt_right,response_2.rt_left,response_2.rt_right,subject number,gender,distractMap first- or second-half (1 or 2),session,handedness,scanner,date,psychopyVersion,expName,frameRate,body_site_order,
6,"[0.2, 0]",None,0,0,0,0,,,,,306.9844730000041,None,308.00115769999684,None,308.00115769999684,309.0011514000071,308.98447470000247,309.98448110000754,1,0.013888888888888888,0.08888888888888889,"[0, 0, 0]",0,0,308.00115769999684,None,,,,,,,,,,,,,,,,,,,,,,,,,,,,,,,,,,,8,f,2,14,r,AB,2022_Feb_08_1254,2020.2.10,distractmap2,59.97415113952638,"['Left Face', 'Chest', 'Right Face', 'Left Arm']",
6,"[0.2, 0]",1,0,1,1,1,,,,,,,310.00116060000437,None,310.00116060000437,311.00118000000657,310.98439179999696,311.9844454999984,1,0.013888888888888888,0.08888888888888889,"[0, 0, 0]",0,0,310.00116060000437,None,,,,,,,,,,,,,,,,,,,,,,,,,,,,,,,,,,,8,f,2,14,r,AB,2022_Feb_08_1254,2020.2.10,distractmap2,59.97415113952638,"['Left Face', 'Chest', 'Right Face', 'Left Arm']",
2,"[0, 0.2]",0,0,2,2,2,,,,,,,312.0011602000013,None,312.0011602000013,313.00110819999827,312.9845006999967,313.98452169999655,1,0.013888888888888888,0.08888888888888889,"[0, 0, 0]",0,0,312.0011602000013,None,,,,,,,,,,,,,,,,,,,,,,,,,,,,,,,,,,,8,f,2,14,r,AB,2022_Feb_08_1254,2020.2.10,distractmap2,59.97415113952638,"['Left Face', 'Chest', 'Right Face', 'Left Arm']",
9,"[0.2, -0.2]",0,0,3,3,3,,,,,,,314.00120199999947,None,314.00120199999947,315.001202200001,314.9845190000051,315.9844369000057,1,0.013888888888888888,0.08888888888888889,"[0, 0, 0]",0,0,314.00120199999947,None,,,,,,,,,,,,,,,,,,,,,,,,,,,,,,,,,,,8,f,2,14,r,AB,2022_Feb_08_1254,2020.2.10,distractmap2,59.97415113952638,"['Left Face', 'Chest', 'Right Face', 'Left Arm']",
9,"[0.2, -0.2]",1,0,4,4,4,,,,,,,316.0012055999978,None,316.0012055999978,317.00122580000607,316.98454859999765,317.98454600000696,1,0.013888888888888888,0.08888888888888889,"[0, 0, 0]",0,0,316.0012055999978,None,,,,,,,,,,,,,,,,,,,,,,,,,,,,,,,,,,,8,f,2,14,r,AB,2022_Feb_08_1254,2020.2.10,distractmap2,59.97415113952638,"['Left Face', 'Chest', 'Right Face', 'Left Arm']",
6,"[0.2, 0]",0,0,5,5,5,,,,,,,318.00121980000404,None,318.00121980000404,319.0012410000054,318.9845464999962,319.9845634000085,1,0.013888888888888888,0.08888888888888889,"[0, 0, 0]",0,0,318.00121980000404,None,,,,,,,,,,,,,,,,,,,,,,,,,,,,,,,,,,,8,f,2,14,r,AB,2022_Feb_08_1254,2020.2.10,distractmap2,59.97415113952638,"['Left Face', 'Chest', 'Right Face', 'Left Arm']",
4,"[-0.2, 0]",0,0,6,6,6,,,,,,,320.0012459999998,None,320.0012459999998,321.00124399999913,320.984580999997,321.98457220000273,1,0.013888888888888888,0.08888888888888889,"[0, 0, 0]",0,0,320.0012459999998,None,,,,,,,,,,,,,,,,,,,,,,,,,,,,,,,,,,,8,f,2,14,r,AB,2022_Feb_08_1254,2020.2.10,distractmap2,59.97415113952638,"['Left Face', 'Chest', 'Right Face', 'Left Arm']",
3,"[0.2, 0.2]",0,0,7,7,7,,,,,,,322.00124910000886,None,322.00124910000886,323.00126889999956,322.984589700005,323.9845895000035,1,0.013888888888888888,0.08888888888888889,"[0, 0, 0]",0,0,322.00124910000886,None,,,,,,,,,,,,,,,,,,,,,,,,,,,,,,,,,,,8,f,2,14,r,AB,2022_Feb_08_1254,2020.2.10,distractmap2,59.97415113952638,"['Left Face', 'Chest', 'Right Face', 'Left Arm']",
3,"[0.2, 0.2]",1,0,8,8,8,,,,,,,324.00125810000463,None,324.00125810000463,325.00128369999584,324.98459600000933,325.98460799999884,1,0.013888888888888888,0.08888888888888889,"[0, 0, 0]",0,0,324.00125810000463,None,,,,,,,,,,,,,,,,,,,,,,,,,,,,,,,,,,,8,f,2,14,r,AB,2022_Feb_08_1254,2020.2.10,distractmap2,59.97415113952638,"['Left Face', 'Chest', 'Right Face', 'Left Arm']",
8,"[0, -0.2]",0,0,9,9,9,,,,,,,326.00129139999626,None,326.00129139999626,327.0012815000082,326.9846128000063,327.98461680000764,1,0.013888888888888888,0.08888888888888889,"[0, 0, 0]",0,0,326.00129139999626,None,,,,,,,,,,,,,,,,,,,,,,,,,,,,,,,,,,,8,f,2,14,r,AB,2022_Feb_08_1254,2020.2.10,distractmap2,59.97415113952638,"['Left Face', 'Chest', 'Right Face', 'Left Arm']",
1,"[-0.2, 0.2]",0,0,10,10,10,,,,,,,328.0012959000014,None,328.0012959000014,329.00129630000447,328.9846324999962,329.9846275000018,1,0.013888888888888888,0.08888888888888889,"[0, 0, 0]",0,0,328.0012959000014,None,,,,,,,,,,,,,,,,,,,,,,,,,,,,,,,,,,,8,f,2,14,r,AB,2022_Feb_08_1254,2020.2.10,distractmap2,59.97415113952638,"['Left Face', 'Chest', 'Right Face', 'Left Arm']",
2,"[0, 0.2]",0,0,11,11,11,,,,,,,330.0012940000015,None,330.0012940000015,331.0013084999955,330.9846361999953,331.98465140000917,1,0.013888888888888888,0.08888888888888889,"[0, 0, 0]",0,0,330.0012940000015,None,,,,,,,,,,,,,,,,,,,,,,,,,,,,,,,,,,,8,f,2,14,r,AB,2022_Feb_08_1254,2020.2.10,distractmap2,59.97415113952638,"['Left Face', 'Chest', 'Right Face', 'Left Arm']",
4,"[-0.2, 0]",0,0,12,12,12,,,,,,,332.00133100000676,None,332.00133100000676,333.0013181999966,332.9846596999996,333.98465650000435,1,0.013888888888888888,0.08888888888888889,"[0, 0, 0]",0,0,332.00133100000676,None,,,,,,,,,,,,,,,,,,,,,,,,,,,,,,,,,,,8,f,2,14,r,AB,2022_Feb_08_1254,2020.2.10,distractmap2,59.97415113952638,"['Left Face', 'Chest', 'Right Face', 'Left Arm']",
4,"[-0.2, 0]",1,0,13,13,13,,,,,,,334.0013256999955,None,334.0013256999955,335.00134859999525,334.9846794000041,335.984675300002,1,0.013888888888888888,0.08888888888888889,"[0, 0, 0]",0,0,334.0013256999955,None,,,,,,,,,,,,,,,,,,,,,,,,,,,,,,,,,,,8,f,2,14,r,AB,2022_Feb_08_1254,2020.2.10,distractmap2,59.97415113952638,"['Left Face', 'Chest', 'Right Face', 'Left Arm']",
8,"[0, -0.2]",0,0,14,14,14,,,,,,,336.0013525999966,None,336.0013525999966,337.00134580000304,336.9846816000063,337.9846983000025,1,0.013888888888888888,0.08888888888888889,"[0, 0, 0]",0,0,336.0013525999966,None,,,,,,,,,,,,,,,,,,,,,,,,,,,,,,,,,,,8,f,2,14,r,AB,2022_Feb_08_1254,2020.2.10,distractmap2,59.97415113952638,"['Left Face', 'Chest', 'Right Face', 'Left Arm']",
5,"[0, 0]",0,0,15,15,15,,,,,,,338.0013777999993,None,338.0013777999993,339.0013598000078,338.98469500000647,339.9847083000059,1,0.013888888888888888,0.08888888888888889,"[0, 0, 0]",0,0,338.0013777999993,None,,,,,,,,,,,,,,,,,,,,,,,,,,,,,,,,,,,8,f,2,14,r,AB,2022_Feb_08_1254,2020.2.10,distractmap2,59.97415113952638,"['Left Face', 'Chest', 'Right Face', 'Left Arm']",
5,"[0, 0]",1,0,16,16,16,,,,,,,340.0013772999955,None,340.0013772999955,341.00138790000346,340.9847182000085,341.98472970000876,1,0.013888888888888888,0.08888888888888889,"[0, 0, 0]",0,0,340.0013772999955,None,,,,,,,,,,,,,,,,,,,,,,,,,,,,,,,,,,,8,f,2,14,r,AB,2022_Feb_08_1254,2020.2.10,distractmap2,59.97415113952638,"['Left Face', 'Chest', 'Right Face', 'Left Arm']",
1,"[-0.2, 0.2]",0,0,17,17,17,,,,,,,342.00138210000296,None,342.00138210000296,343.00140350000584,342.9847485000064,343.98474420000275,1,0.013888888888888888,0.08888888888888889,"[0, 0, 0]",0,0,342.00138210000296,None,,,,,,,,,,,,,,,,,,,,,,,,,,,,,,,,,,,8,f,2,14,r,AB,2022_Feb_08_1254,2020.2.10,distractmap2,59.97415113952638,"['Left Face', 'Chest', 'Right Face', 'Left Arm']",
3,"[0.2, 0.2]",0,0,18,18,18,,,,,,,344.0014274999994,None,344.0014274999994,345.00142770000093,344.9847371000069,345.984746800008,1,0.013888888888888888,0.08888888888888889,"[0, 0, 0]",0,0,344.0014274999994,None,,,,,,,,,,,,,,,,,,,,,,,,,,,,,,,,,,,8,f,2,14,r,AB,2022_Feb_08_1254,2020.2.10,distractmap2,59.97415113952638,"['Left Face', 'Chest', 'Right Face', 'Left Arm']",
6,"[0.2, 0]",0,0,19,19,19,,,,,,,346.00142760000017,None,346.00142760000017,347.00142820000474,346.9847660000087,347.9847630000004,1,0.013888888888888888,0.08888888888888889,"[0, 0, 0]",0,0,346.00142760000017,None,,,,,,,,,,,,,,,,,,,,,,,,,,,,,,,,,,,8,f,2,14,r,AB,2022_Feb_08_1254,2020.2.10,distractmap2,59.97415113952638,"['Left Face', 'Chest', 'Right Face', 'Left Arm']",
1,"[-0.2, 0.2]",0,0,20,20,20,,,,,,,348.0014399000065,None,348.0014399000065,349.00144269999873,348.9847682999971,349.9847818999988,1,0.013888888888888888,0.08888888888888889,"[0, 0, 0]",0,0,348.0014399000065,None,,,,,,,,,,,,,,,,,,,,,,,,,,,,,,,,,,,8,f,2,14,r,AB,2022_Feb_08_1254,2020.2.10,distractmap2,59.97415113952638,"['Left Face', 'Chest', 'Right Face', 'Left Arm']",
1,"[-0.2, 0.2]",1,0,21,21,21,,,,,,,350.00145619999967,None,350.00145619999967,351.0014655999985,350.9847851000086,351.98470929999894,1,0.013888888888888888,0.08888888888888889,"[0, 0, 0]",0,0,350.00145619999967,None,,,,,,,,,,,,,,,,,,,,,,,,,,,,,,,,,,,8,f,2,14,r,AB,2022_Feb_08_1254,2020.2.10,distractmap2,59.97415113952638,"['Left Face', 'Chest', 'Right Face', 'Left Arm']",
1,"[-0.2, 0.2]",1,0,22,22,22,,,,,,,352.0014574000088,None,352.0014574000088,353.00147980000474,352.9848228000046,353.9848026999971,1,0.013888888888888888,0.08888888888888889,"[0, 0, 0]",0,0,352.0014574000088,None,,,,,,,,,,,,,,,,,,,,,,,,,,,,,,,,,,,8,f,2,14,r,AB,2022_Feb_08_1254,2020.2.10,distractmap2,59.97415113952638,"['Left Face', 'Chest', 'Right Face', 'Left Arm']",
3,"[0.2, 0.2]",0,0,23,23,23,,,,,,,354.0014850000007,None,354.0014850000007,355.0014911000035,354.9848153000057,355.98483050000505,1,0.013888888888888888,0.08888888888888889,"[0, 0, 0]",0,0,354.0014850000007,None,,,,,,,,,,,,,,,,,,,,,,,,,,,,,,,,,,,8,f,2,14,r,AB,2022_Feb_08_1254,2020.2.10,distractmap2,59.97415113952638,"['Left Face', 'Chest', 'Right Face', 'Left Arm']",
2,"[0, 0.2]",0,0,24,24,24,,,,,,,356.0014991000062,None,356.0014991000062,357.0015018999984,356.9848345000064,357.98484380000446,1,0.013888888888888888,0.08888888888888889,"[0, 0, 0]",0,0,356.0014991000062,None,,,,,,,,,,,,,,,,,,,,,,,,,,,,,,,,,,,8,f,2,14,r,AB,2022_Feb_08_1254,2020.2.10,distractmap2,59.97415113952638,"['Left Face', 'Chest', 'Right Face', 'Left Arm']",
1,"[-0.2, 0.2]",0,0,25,25,25,,,,,,,358.00150480000593,None,358.00150480000593,359.0015381999983,358.9848545999994,359.98486740000953,1,0.013888888888888888,0.08888888888888889,"[0, 0, 0]",0,0,358.00150480000593,None,,,,,,,,,,,,,,,,,,,,,,,,,,,,,,,,,,,8,f,2,14,r,AB,2022_Feb_08_1254,2020.2.10,distractmap2,59.97415113952638,"['Left Face', 'Chest', 'Right Face', 'Left Arm']",
7,"[-0.2, -0.2]",0,0,26,26,26,,,,,,,360.0015318000078,None,360.0015318000078,361.0015259000065,360.98487190000014,361.98488329999964,1,0.013888888888888888,0.08888888888888889,"[0, 0, 0]",0,0,360.0015318000078,None,,,,,,,,,,,,,,,,,,,,,,,,,,,,,,,,,,,8,f,2,14,r,AB,2022_Feb_08_1254,2020.2.10,distractmap2,59.97415113952638,"['Left Face', 'Chest', 'Right Face', 'Left Arm']",
7,"[-0.2, -0.2]",1,0,27,27,27,,,,,,,362.0015474999964,None,362.0015474999964,363.0015571999975,362.98487909999676,363.9848778000014,1,0.013888888888888888,0.08888888888888889,"[0, 0, 0]",0,0,362.0015474999964,None,,,,,,,,,,,,,,,,,,,,,,,,,,,,,,,,,,,8,f,2,14,r,AB,2022_Feb_08_1254,2020.2.10,distractmap2,59.97415113952638,"['Left Face', 'Chest', 'Right Face', 'Left Arm']",
2,"[0, 0.2]",0,0,28,28,28,,,,,,,364.0015579000028,None,364.0015579000028,365.0015546000068,364.984904500001,365.984893300003,1,0.013888888888888888,0.08888888888888889,"[0, 0, 0]",0,0,364.0015579000028,None,,,,,,,,,,,,,,,,,,,,,,,,,,,,,,,,,,,8,f,2,14,r,AB,2022_Feb_08_1254,2020.2.10,distractmap2,59.97415113952638,"['Left Face', 'Chest', 'Right Face', 'Left Arm']",
6,"[0.2, 0]",0,0,29,29,29,,,,,,,366.0015805000003,None,366.0015805000003,367.0015810000041,366.9849286999961,367.9849172999966,1,0.013888888888888888,0.08888888888888889,"[0, 0, 0]",0,0,366.0015805000003,None,,,,,,,,,,,,,,,,,,,,,,,,,,,,,,,,,,,8,f,2,14,r,AB,2022_Feb_08_1254,2020.2.10,distractmap2,59.97415113952638,"['Left Face', 'Chest', 'Right Face', 'Left Arm']",
,,,,,,,,,,,,,,,,,,,,,,,,,,,368.01826090000395,None,space,368.01826090000395,None,,,,,,,,,,,,,,,,,,,,,,,,,,,,,,8,f,2,14,r,AB,2022_Feb_08_1254,2020.2.10,distractmap2,59.97415113952638,"['Left Face', 'Chest', 'Right Face', 'Left Arm']",
6,"[0.2, 0]",None,,,,,0,0,0,0,381.00169040000765,None,,,,,,,,,,,,,,,,,,,,None,None,"[0, 0, 0]",382.018373400002,None,382.018373400002,383.01837910000177,383.00170819999767,384.00171939999564,"[0, 0, 0]",1,382.018373400002,None,,,,,,,,,,,,,,,,,8,f,2,14,r,AB,2022_Feb_08_1254,2020.2.10,distractmap2,59.97415113952638,"['Left Face', 'Chest', 'Right Face', 'Left Arm']",
7,"[-0.2, -0.2]",None,,,,,0,1,1,1,,,,,,,,,,,,,,,,,,,,,,None,None,"[0, 0, 0]",384.018390600002,386.01838419999694,384.018390600002,385.0183774000034,385.00172329999623,386.00171460000274,"[0, 0, 0]",0,384.018390600002,386.01838419999694,,,,,,,,,,,,,,,,,8,f,2,14,r,AB,2022_Feb_08_1254,2020.2.10,distractmap2,59.97415113952638,"['Left Face', 'Chest', 'Right Face', 'Left Arm']",
6,"[0.2, 0]",1,,,,,0,2,2,2,,,,,,,,,,,,,,,,,,,,,,None,None,"[0, 0, 0]",386.0350763000024,388.03507640000316,386.0350763000024,387.0350688000035,387.01839949999703,388.0184439000004,"[0, 0, 0]",1,386.0350763000024,388.03507640000316,,,,,,,,,,,,,,,,,8,f,2,14,r,AB,2022_Feb_08_1254,2020.2.10,distractmap2,59.97415113952638,"['Left Face', 'Chest', 'Right Face', 'Left Arm']",
2,"[0, 0.2]",0,,,,,0,3,3,3,,,,,,,,,,,,,,,,,,,,,,None,None,"[0, 0, 0]",388.05173300000024,390.05174799999804,388.05173300000024,389.0517480999988,389.03509360000317,390.035094100007,"[0, 0, 0]",0,388.05173300000024,390.05174799999804,,,,,,,,,,,,,,,,,8,f,2,14,r,AB,2022_Feb_08_1254,2020.2.10,distractmap2,59.97415113952638,"['Left Face', 'Chest', 'Right Face', 'Left Arm']",
5,"[0, 0]",0,,,,,0,4,4,4,,,,,,,,,,,,,,,,,,,,,,None,None,"[0, 0, 0]",390.0684412999981,392.068414399997,390.0684412999981,391.06842450000113,391.0517533999955,392.0517652999988,"[0, 0, 0]",1,390.0684412999981,392.068414399997,,,,,,,,,,,,,,,,,8,f,2,14,r,AB,2022_Feb_08_1254,2020.2.10,distractmap2,59.97415113952638,"['Left Face', 'Chest', 'Right Face', 'Left Arm']",
4,"[-0.2, 0]",0,,,,,0,5,5,5,,,,,,,,,,,,,,,,,,,,,,None,None,"[0, 0, 0]",392.0851077999978,394.08511780000117,392.0851077999978,393.0851293000014,393.0684435000003,394.06844689999707,"[0, 0, 0]",1,392.0851077999978,394.08511780000117,,,,,,,,,,,,,,,,,8,f,2,14,r,AB,2022_Feb_08_1254,2020.2.10,distractmap2,59.97415113952638,"['Left Face', 'Chest', 'Right Face', 'Left Arm']",
4,"[-0.2, 0]",0,,,,,0,6,6,6,,,,,,,,,,,,,,,,,,,,,,None,None,"[0, 0, 0]",394.1017952999973,396.10179600000265,394.1017952999973,395.10177930000646,395.0851437000092,396.0851479999983,"[0, 0, 0]",1,394.1017952999973,396.10179600000265,,,,,,,,,,,,,,,,,8,f,2,14,r,AB,2022_Feb_08_1254,2020.2.10,distractmap2,59.97415113952638,"['Left Face', 'Chest', 'Right Face', 'Left Arm']",
7,"[-0.2, -0.2]",0,,,,,0,7,7,7,,,,,,,,,,,,,,,,,,,,,,None,None,"[0, 0, 0]",396.1184543999989,398.1184829999984,396.1184543999989,397.11848259999533,397.10180980000587,398.10181629999715,"[0, 0, 0]",1,396.1184543999989,398.1184829999984,,,,,,,,,,,,,,,,,8,f,2,14,r,AB,2022_Feb_08_1254,2020.2.10,distractmap2,59.97415113952638,"['Left Face', 'Chest', 'Right Face', 'Left Arm']",
4,"[-0.2, 0]",1,,,,,0,8,8,8,,,,,,,,,,,,,,,,,,,,,,None,None,"[0, 0, 0]",398.1351626999967,400.1351596000022,398.1351626999967,399.1351776000083,399.11847860000853,400.1184951000032,"[0, 0, 0]",1,398.1351626999967,400.1351596000022,,,,,,,,,,,,,,,,,8,f,2,14,r,AB,2022_Feb_08_1254,2020.2.10,distractmap2,59.97415113952638,"['Left Face', 'Chest', 'Right Face', 'Left Arm']",
3,"[0.2, 0.2]",0,,,,,0,9,9,9,,,,,,,,,,,,,,,,,,,,,,None,None,"[0, 0, 0]",400.15182549999736,402.15184400000726,400.15182549999736,401.1518500000093,401.1351766000007,402.13518430000113,"[0, 0, 0]",1,400.15182549999736,402.15184400000726,,,,,,,,,,,,,,,,,8,f,2,14,r,AB,2022_Feb_08_1254,2020.2.10,distractmap2,59.97415113952638,"['Left Face', 'Chest', 'Right Face', 'Left Arm']",
5,"[0, 0]",0,,,,,0,10,10,10,,,,,,,,,,,,,,,,,,,,,,None,None,"[0, 0, 0]",402.1685176000028,404.1685203000088,402.1685176000028,403.1685041000019,403.1518450000003,404.1518756000005,"[0, 0, 0]",1,402.1685176000028,404.1685203000088,,,,,,,,,,,,,,,,,8,f,2,14,r,AB,2022_Feb_08_1254,2020.2.10,distractmap2,59.97415113952638,"['Left Face', 'Chest', 'Right Face', 'Left Arm']",
3,"[0.2, 0.2]",1,,,,,0,11,11,11,,,,,,,,,,,,,,,,,,,,,,None,None,"[0, 0, 0]",404.18519570000353,406.18521510000573,404.18519570000353,405.18520340000396,405.1685412000079,406.16855309999664,"[0, 0, 0]",1,404.18519570000353,406.18521510000573,,,,,,,,,,,,,,,,,8,f,2,14,r,AB,2022_Feb_08_1254,2020.2.10,distractmap2,59.97415113952638,"['Left Face', 'Chest', 'Right Face', 'Left Arm']",
1,"[-0.2, 0.2]",0,,,,,0,12,12,12,,,,,,,,,,,,,,,,,,,,,,None,None,"[0, 0, 0]",406.2018872000044,408.2019014999969,406.2018872000044,407.2018819000077,407.18523230000574,408.1851449000096,"[0, 0, 0]",1,406.2018872000044,408.2019014999969,,,,,,,,,,,,,,,,,8,f,2,14,r,AB,2022_Feb_08_1254,2020.2.10,distractmap2,59.97415113952638,"['Left Face', 'Chest', 'Right Face', 'Left Arm']",
9,"[0.2, -0.2]",0,,,,,0,13,13,13,,,,,,,,,,,,,,,,,,,,,,None,None,"[0, 0, 0]",408.2185645999998,410.21857330000785,408.2185645999998,409.218569500008,409.2019078000012,410.201919500003,"[0, 0, 0]",1,408.2185645999998,410.21857330000785,,,,,,,,,,,,,,,,,8,f,2,14,r,AB,2022_Feb_08_1254,2020.2.10,distractmap2,59.97415113952638,"['Left Face', 'Chest', 'Right Face', 'Left Arm']",
9,"[0.2, -0.2]",0,,,,,0,14,14,14,,,,,,,,,,,,,,,,,,,,,,None,None,"[0, 0, 0]",410.23525670000527,412.2352516999963,410.23525670000527,411.2351906999975,411.21858889999567,412.21858359999896,"[0, 0, 0]",1,410.23525670000527,412.2352516999963,,,,,,,,,,,,,,,,,8,f,2,14,r,AB,2022_Feb_08_1254,2020.2.10,distractmap2,59.97415113952638,"['Left Face', 'Chest', 'Right Face', 'Left Arm']",
8,"[0, -0.2]",0,,,,,0,15,15,15,,,,,,,,,,,,,,,,,,,,,,None,None,"[0, 0, 0]",412.2514266000071,414.25192760000937,412.2514266000071,413.25193820000277,413.23527180000383,414.2352854000055,"[0, 0, 0]",1,412.2514266000071,414.25192760000937,,,,,,,,,,,,,,,,,8,f,2,14,r,AB,2022_Feb_08_1254,2020.2.10,distractmap2,59.97415113952638,"['Left Face', 'Chest', 'Right Face', 'Left Arm']",
6,"[0.2, 0]",0,,,,,0,16,16,16,,,,,,,,,,,,,,,,,,,,,,None,None,"[0, 0, 0]",414.2686140000005,416.2686087000038,414.2686140000005,415.26861280000594,415.2519401000027,416.2519428000087,"[0, 0, 0]",1,414.2686140000005,416.2686087000038,,,,,,,,,,,,,,,,,8,f,2,14,r,AB,2022_Feb_08_1254,2020.2.10,distractmap2,59.97415113952638,"['Left Face', 'Chest', 'Right Face', 'Left Arm']",
3,"[0.2, 0.2]",0,,,,,0,17,17,17,,,,,,,,,,,,,,,,,,,,,,None,None,"[0, 0, 0]",416.285295499998,418.28531289999955,416.285295499998,417.285294900008,417.26863310000044,418.2686219000025,"[0, 0, 0]",1,416.285295499998,418.28531289999955,,,,,,,,,,,,,,,,,8,f,2,14,r,AB,2022_Feb_08_1254,2020.2.10,distractmap2,59.97415113952638,"['Left Face', 'Chest', 'Right Face', 'Left Arm']",
6,"[0.2, 0]",1,,,,,0,18,18,18,,,,,,,,,,,,,,,,,,,,,,None,None,"[0, 0, 0]",418.301967899999,420.30198800000653,418.301967899999,419.3019690000074,419.28531490000023,420.2853169000009,"[0, 0, 0]",1,418.301967899999,420.30198800000653,,,,,,,,,,,,,,,,,8,f,2,14,r,AB,2022_Feb_08_1254,2020.2.10,distractmap2,59.97415113952638,"['Left Face', 'Chest', 'Right Face', 'Left Arm']",
5,"[0, 0]",0,,,,,0,19,19,19,,,,,,,,,,,,,,,,,,,,,,None,None,"[0, 0, 0]",420.3186459999997,422.31866730000183,420.3186459999997,421.31865010000183,421.30203239999537,422.3019922999956,"[0, 0, 0]",1,420.3186459999997,422.31866730000183,,,,,,,,,,,,,,,,,8,f,2,14,r,AB,2022_Feb_08_1254,2020.2.10,distractmap2,59.97415113952638,"['Left Face', 'Chest', 'Right Face', 'Left Arm']",
7,"[-0.2, -0.2]",0,,,,,0,20,20,20,,,,,,,,,,,,,,,,,,,,,,None,None,"[0, 0, 0]",422.33534510000027,424.33536230000027,422.33534510000027,423.3353402000066,423.3186657000042,424.3186657000042,"[0, 0, 0]",1,422.33534510000027,424.33536230000027,,,,,,,,,,,,,,,,,8,f,2,14,r,AB,2022_Feb_08_1254,2020.2.10,distractmap2,59.97415113952638,"['Left Face', 'Chest', 'Right Face', 'Left Arm']",
5,"[0, 0]",1,,,,,0,21,21,21,,,,,,,,,,,,,,,,,,,,,,None,None,"[0, 0, 0]",424.35201529999904,426.3520433000085,424.35201529999904,425.35203100000217,425.3353589000035,426.3353710000083,"[0, 0, 0]",1,424.35201529999904,426.3520433000085,,,,,,,,,,,,,,,,,8,f,2,14,r,AB,2022_Feb_08_1254,2020.2.10,distractmap2,59.97415113952638,"['Left Face', 'Chest', 'Right Face', 'Left Arm']",
1,"[-0.2, 0.2]",0,,,,,0,22,22,22,,,,,,,,,,,,,,,,,,,,,,None,None,"[0, 0, 0]",426.3687021000078,428.3687079000083,426.3687021000078,427.36869200000365,427.352043699997,428.3520566000079,"[0, 0, 0]",1,426.3687021000078,428.3687079000083,,,,,,,,,,,,,,,,,8,f,2,14,r,AB,2022_Feb_08_1254,2020.2.10,distractmap2,59.97415113952638,"['Left Face', 'Chest', 'Right Face', 'Left Arm']",
7,"[-0.2, -0.2]",0,,,,,0,23,23,23,,,,,,,,,,,,,,,,,,,,,,None,None,"[0, 0, 0]",428.3853700000036,430.38538459999836,428.3853700000036,429.38540120000835,429.3687204000016,430.36873050000577,"[0, 0, 0]",0,428.3853700000036,430.38538459999836,,,,,,,,,,,,,,,,,8,f,2,14,r,AB,2022_Feb_08_1254,2020.2.10,distractmap2,59.97415113952638,"['Left Face', 'Chest', 'Right Face', 'Left Arm']",
9,"[0.2, -0.2]",0,,,,,0,24,24,24,,,,,,,,,,,,,,,,,,,,,,None,None,"[0, 0, 0]",430.4020746000024,432.4019993999973,430.4020746000024,431.40208220000204,431.38547599999583,432.3854063000035,"[0, 0, 0]",1,430.4020746000024,432.4019993999973,,,,,,,,,,,,,,,,,8,f,2,14,r,AB,2022_Feb_08_1254,2020.2.10,distractmap2,59.97415113952638,"['Left Face', 'Chest', 'Right Face', 'Left Arm']",
3,"[0.2, 0.2]",0,,,,,0,25,25,25,,,,,,,,,,,,,,,,,,,,,,None,None,"[0, 0, 0]",432.4187268999958,434.41875759999675,432.4187268999958,433.4187510000047,433.4020778999984,434.40210710000247,"[0, 0, 0]",1,432.4187268999958,434.41875759999675,,,,,,,,,,,,,,,,,8,f,2,14,r,AB,2022_Feb_08_1254,2020.2.10,distractmap2,59.97415113952638,"['Left Face', 'Chest', 'Right Face', 'Left Arm']",
9,"[0.2, -0.2]",1,,,,,0,26,26,26,,,,,,,,,,,,,,,,,,,,,,None,None,"[0, 0, 0]",434.43543050000153,436.43542350000644,434.43543050000153,435.4354231000034,435.41875230000005,436.4187657000002,"[0, 0, 0]",1,434.43543050000153,436.43542350000644,,,,,,,,,,,,,,,,,8,f,2,14,r,AB,2022_Feb_08_1254,2020.2.10,distractmap2,59.97415113952638,"['Left Face', 'Chest', 'Right Face', 'Left Arm']",
6,"[0.2, 0]",0,,,,,0,27,27,27,,,,,,,,,,,,,,,,,,,,,,None,None,"[0, 0, 0]",436.45211220000056,438.45212440000614,436.45211220000056,437.4521448000014,437.4354485000076,438.43544909999764,"[0, 0, 0]",1,436.45211220000056,438.45212440000614,,,,,,,,,,,,,,,,,8,f,2,14,r,AB,2022_Feb_08_1254,2020.2.10,distractmap2,59.97415113952638,"['Left Face', 'Chest', 'Right Face', 'Left Arm']",
2,"[0, 0.2]",0,,,,,0,28,28,28,,,,,,,,,,,,,,,,,,,,,,None,None,"[0, 0, 0]",438.4687813000055,440.4688024000061,438.4687813000055,439.4688046000083,439.4521301000059,440.4521564000024,"[0, 0, 0]",1,438.4687813000055,440.4688024000061,,,,,,,,,,,,,,,,,8,f,2,14,r,AB,2022_Feb_08_1254,2020.2.10,distractmap2,59.97415113952638,"['Left Face', 'Chest', 'Right Face', 'Left Arm']",
5,"[0, 0]",0,,,,,0,29,29,29,,,,,,,,,,,,,,,,,,,,,,None,None,"[0, 0, 0]",440.48545760000707,442.4854739000002,440.48545760000707,441.48546660000284,441.46881370000483,442.46882330000517,"[0, 0, 0]",1,440.48545760000707,442.4854739000002,,,,,,,,,,,,,,,,,8,f,2,14,r,AB,2022_Feb_08_1254,2020.2.10,distractmap2,59.97415113952638,"['Left Face', 'Chest', 'Right Face', 'Left Arm']",
,,,,,,,,,,,,,,,,,,,,,,,,,,,442.5021667999972,None,space,442.5021667999972,None,,,,,,,,,,,,,,,,,,,,,,,,,,,,,,8,f,2,14,r,AB,2022_Feb_08_1254,2020.2.10,distractmap2,59.97415113952638,"['Left Face', 'Chest', 'Right Face', 'Left Arm']",
3,"[0.2, 0.2]",None,,,,,0,0,0,0,540.386168099998,None,,,,,,,,,,,,,,,,,,,,None,None,"[0, 0, 0]",543.0529003999982,545.052914800006,543.0529003999982,544.0529238000017,544.0529238000017,545.052914800006,"[0, 0, 0]",1,543.0529003999982,545.052914800006,445.8024301999976,445.8024301999976,None,space,3.1378672999999253,445.8024301999976,None,,,,,,,,,,8,f,2,14,r,AB,2022_Feb_08_1254,2020.2.10,distractmap2,59.97415113952638,"['Left Face', 'Chest', 'Right Face', 'Left Arm']",
3,"[0.2, 0.2]",None,,,,,0,1,1,1,,,,,,,,,,,,,,,,,,,,,,None,None,"[0, 0, 0]",545.069608699996,547.0696085999953,545.069608699996,546.0695982000034,546.052920400005,547.0529311999999,"[0, 0, 0]",1,545.069608699996,547.0696085999953,,,,,,,,,,,,,,,,,8,f,2,14,r,AB,2022_Feb_08_1254,2020.2.10,distractmap2,59.97415113952638,"['Left Face', 'Chest', 'Right Face', 'Left Arm']",
5,"[0, 0]",0,,,,,0,2,2,2,,,,,,,,,,,,,,,,,,,,,,None,None,"[0, 0, 0]",547.0862840000045,549.0863045000006,547.0862840000045,548.086280500007,548.0696214000054,549.0696231000038,"[0, 0, 0]",1,547.0862840000045,549.0863045000006,,,,,,,,,,,,,,,,,8,f,2,14,r,AB,2022_Feb_08_1254,2020.2.10,distractmap2,59.97415113952638,"['Left Face', 'Chest', 'Right Face', 'Left Arm']",
1,"[-0.2, 0.2]",0,,,,,0,3,3,3,,,,,,,,,,,,,,,,,,,,,,None,None,"[0, 0, 0]",549.1029488000058,551.1029731000017,549.1029488000058,550.1029745999986,550.086295000001,551.0862999999954,"[0, 0, 0]",1,549.1029488000058,551.1029731000017,,,,,,,,,,,,,,,,,8,f,2,14,r,AB,2022_Feb_08_1254,2020.2.10,distractmap2,59.97415113952638,"['Left Face', 'Chest', 'Right Face', 'Left Arm']",
5,"[0, 0]",1,,,,,0,4,4,4,,,,,,,,,,,,,,,,,,,,,,None,None,"[0, 0, 0]",551.1525986000051,None,551.1525986000051,552.1530127000005,552.1363287999993,None,"[0, 0, 0]",1,551.1525986000051,None,,,,,,,,,,,,,,,,,8,f,2,14,r,AB,2022_Feb_08_1254,2020.2.10,distractmap2,59.97415113952638,"['Left Face', 'Chest', 'Right Face', 'Left Arm']",
8,"[0, -0.2]",0,,,,,0,5,5,5,,,,,,,,,,,,,,,,,,,,,,None,None,"[0, 0, 0]",553.1363328000007,555.1363348000014,553.1363328000007,554.1363238000049,554.1196676999971,555.1196581999975,"[0, 0, 0]",1,553.1363328000007,555.1363348000014,,,,,,,,,,,,,,,,,8,f,2,14,r,AB,2022_Feb_08_1254,2020.2.10,distractmap2,59.97415113952638,"['Left Face', 'Chest', 'Right Face', 'Left Arm']",
5,"[0, 0]",1,,,,,0,6,6,6,,,,,,,,,,,,,,,,,,,,,,None,None,"[0, 0, 0]",555.1529901000031,557.1530143999989,555.1529901000031,556.1530118000082,556.1363488000061,557.1363506000052,"[0, 0, 0]",1,555.1529901000031,557.1530143999989,,,,,,,,,,,,,,,,,8,f,2,14,r,AB,2022_Feb_08_1254,2020.2.10,distractmap2,59.97415113952638,"['Left Face', 'Chest', 'Right Face', 'Left Arm']",
7,"[-0.2, -0.2]",0,,,,,0,7,7,7,,,,,,,,,,,,,,,,,,,,,,None,None,"[0, 0, 0]",557.1696889000013,559.1697026000038,557.1696889000013,558.1696813000017,558.1530192000064,559.1530197999964,"[0, 0, 0]",1,557.1696889000013,559.1697026000038,,,,,,,,,,,,,,,,,8,f,2,14,r,AB,2022_Feb_08_1254,2020.2.10,distractmap2,59.97415113952638,"['Left Face', 'Chest', 'Right Face', 'Left Arm']",
5,"[0, 0]",1,,,,,0,8,8,8,,,,,,,,,,,,,,,,,,,,,,None,None,"[0, 0, 0]",559.1863597000047,561.1863787000038,559.1863597000047,560.1863737999956,560.1697056999983,561.1697115999996,"[0, 0, 0]",1,559.1863597000047,561.1863787000038,,,,,,,,,,,,,,,,,8,f,2,14,r,AB,2022_Feb_08_1254,2020.2.10,distractmap2,59.97415113952638,"['Left Face', 'Chest', 'Right Face', 'Left Arm']",
7,"[-0.2, -0.2]",1,,,,,0,9,9,9,,,,,,,,,,,,,,,,,,,,,,None,None,"[0, 0, 0]",561.2030514000071,563.203058900006,561.2030514000071,562.203041300003,562.1863879000011,563.1864073000033,"[0, 0, 0]",1,561.2030514000071,563.203058900006,,,,,,,,,,,,,,,,,8,f,2,14,r,AB,2022_Feb_08_1254,2020.2.10,distractmap2,59.97415113952638,"['Left Face', 'Chest', 'Right Face', 'Left Arm']",
,,,,,,,,,,,563.2197153000016,None,,,,,,,,,,,,,,,,,,,,,,,,,,,,,,,,,,,,,,,,22.469135802469133,283.14532404000056,,,,,,,,8,f,2,14,r,AB,2022_Feb_08_1254,2020.2.10,distractmap2,59.97415113952638,"['Left Face', 'Chest', 'Right Face', 'Left Arm']",
6,"[0.2, 0]",None,,,,,0,0,0,0,576.437437200002,None,,,,,,,,,,,,,,,,,,,,None,None,"[0, 0, 0]",583.2532105999999,585.2532211000071,583.2532105999999,584.2532309000089,584.2532309000089,585.2532211000071,"[0, 0, 0]",1,583.2532105999999,585.2532211000071,,,,,,,,,,0.01518235998810269,5.013168159988709,,,,,,8,f,2,14,r,AB,2022_Feb_08_1254,2020.2.10,distractmap2,59.97415113952638,"['Left Face', 'Chest', 'Right Face', 'Left Arm']",
1,"[-0.2, 0.2]",None,,,,,0,1,1,1,,,,,,,,,,,,,,,,,,,,,,None,None,"[0, 0, 0]",585.2698812000017,587.2699130999972,585.2698812000017,586.2699066000059,586.2532349999965,587.2532412,"[0, 0, 0]",1,585.2698812000017,587.2699130999972,,,,,,,,,,,,,,,,,8,f,2,14,r,AB,2022_Feb_08_1254,2020.2.10,distractmap2,59.97415113952638,"['Left Face', 'Chest', 'Right Face', 'Left Arm']",
6,"[0.2, 0]",1,,,,,0,2,2,2,,,,,,,,,,,,,,,,,,,,,,None,None,"[0, 0, 0]",587.2865760999994,589.2865812999953,587.2865760999994,588.2865787000046,588.2699170999986,589.269919600003,"[0, 0, 0]",1,587.2865760999994,589.2865812999953,,,,,,,,,,,,,,,,,8,f,2,14,r,AB,2022_Feb_08_1254,2020.2.10,distractmap2,59.97415113952638,"['Left Face', 'Chest', 'Right Face', 'Left Arm']",
4,"[-0.2, 0]",0,,,,,0,3,3,3,,,,,,,,,,,,,,,,,,,,,,None,None,"[0, 0, 0]",589.3032655999996,591.3032787999982,589.3032655999996,590.3032690999971,590.286592000004,591.2865995000029,"[0, 0, 0]",1,589.3032655999996,591.3032787999982,,,,,,,,,,,,,,,,,8,f,2,14,r,AB,2022_Feb_08_1254,2020.2.10,distractmap2,59.97415113952638,"['Left Face', 'Chest', 'Right Face', 'Left Arm']",
1,"[-0.2, 0.2]",0,,,,,0,4,4,4,,,,,,,,,,,,,,,,,,,,,,None,None,"[0, 0, 0]",591.3535892000073,None,591.3535892000073,592.3535727999988,592.3366077999963,None,"[0, 0, 0]",0,591.3535892000073,None,,,,,,,,,,,,,,,,,8,f,2,14,r,AB,2022_Feb_08_1254,2020.2.10,distractmap2,59.97415113952638,"['Left Face', 'Chest', 'Right Face', 'Left Arm']",
8,"[0, -0.2]",0,,,,,0,5,5,5,,,,,,,,,,,,,,,,,,,,,,None,None,"[0, 0, 0]",593.3366084000008,595.3366338000051,593.3366084000008,594.3366174999974,594.3199427000072,595.3199637000071,"[0, 0, 0]",1,593.3366084000008,595.3366338000051,,,,,,,,,,,,,,,,,8,f,2,14,r,AB,2022_Feb_08_1254,2020.2.10,distractmap2,59.97415113952638,"['Left Face', 'Chest', 'Right Face', 'Left Arm']",
1,"[-0.2, 0.2]",1,,,,,0,6,6,6,,,,,,,,,,,,,,,,,,,,,,None,None,"[0, 0, 0]",595.353314100008,597.3533334000094,595.353314100008,596.3533192000032,596.3366561000003,597.3366521999997,"[0, 0, 0]",1,595.353314100008,597.3533334000094,,,,,,,,,,,,,,,,,8,f,2,14,r,AB,2022_Feb_08_1254,2020.2.10,distractmap2,59.97415113952638,"['Left Face', 'Chest', 'Right Face', 'Left Arm']",
8,"[0, -0.2]",1,,,,,0,7,7,7,,,,,,,,,,,,,,,,,,,,,,None,None,"[0, 0, 0]",597.3699806000077,599.3699866999959,597.3699806000077,598.369999100003,598.353197400007,599.3533758999984,"[0, 0, 0]",1,597.3699806000077,599.3699866999959,,,,,,,,,,,,,,,,,8,f,2,14,r,AB,2022_Feb_08_1254,2020.2.10,distractmap2,59.97415113952638,"['Left Face', 'Chest', 'Right Face', 'Left Arm']",
1,"[-0.2, 0.2]",1,,,,,0,8,8,8,,,,,,,,,,,,,,,,,,,,,,None,None,"[0, 0, 0]",599.3866588999954,601.3866779999953,599.3866588999954,600.386573900003,600.3700148000062,601.3700081999996,"[0, 0, 0]",1,599.3866588999954,601.3866779999953,,,,,,,,,,,,,,,,,8,f,2,14,r,AB,2022_Feb_08_1254,2020.2.10,distractmap2,59.97415113952638,"['Left Face', 'Chest', 'Right Face', 'Left Arm']",
6,"[0.2, 0]",0,,,,,0,9,9,9,,,,,,,,,,,,,,,,,,,,,,None,None,"[0, 0, 0]",601.4033628000034,603.403384899997,601.4033628000034,602.4033641999995,602.3866801999975,603.3866932999954,"[0, 0, 0]",1,601.4033628000034,603.403384899997,,,,,,,,,,,,,,,,,8,f,2,14,r,AB,2022_Feb_08_1254,2020.2.10,distractmap2,59.97415113952638,"['Left Face', 'Chest', 'Right Face', 'Left Arm']",
,,,,,,,,,,,603.4200175000005,None,,,,,,,,,,,,,,,,,,,,,,,,,,,,,,,,,,,,,,,,22.160493827160497,328.27901103999466,,,,,,,,8,f,2,14,r,AB,2022_Feb_08_1254,2020.2.10,distractmap2,59.97415113952638,"['Left Face', 'Chest', 'Right Face', 'Left Arm']",
5,"[0, 0]",None,0,0,0,0,,,,,620.6704810000083,None,623.4368348999997,None,623.4368348999997,624.4368494000082,624.420194899998,625.420205900009,1,None,None,"[0, 0, 0]",,,623.4368348999997,None,,,,,,,,,,,,,,,,,,,,,,,,,,,,0.015243560003000312,5.013325060004718,"[0, 0, 0]",,,,,8,f,2,14,r,AB,2022_Feb_08_1254,2020.2.10,distractmap2,59.97415113952638,"['Left Face', 'Chest', 'Right Face', 'Left Arm']",
5,"[0, 0]",1,0,1,1,1,,,,,,,625.4368842999975,625.4368842999975,625.4368842999975,626.4368777000054,626.4202234999975,627.4202254999982,1,None,None,"[0, 0, 0]",,,625.4368842999975,625.4368842999975,,,,,,,,,,,,,,,,,,,,,,,,,,,,,,"[0, 0, 0]",,,,,8,f,2,14,r,AB,2022_Feb_08_1254,2020.2.10,distractmap2,59.97415113952638,"['Left Face', 'Chest', 'Right Face', 'Left Arm']",
4,"[-0.2, 0]",0,0,2,2,2,,,,,,,627.436873300001,627.436873300001,627.436873300001,628.4368705000088,628.4202217999991,629.4202261000028,1,None,None,"[0, 0, 0]",,,627.436873300001,627.436873300001,,,,,,,,,,,,,,,,,,,,,,,,,,,,,,"[0, 0, 0]",,,,,8,f,2,14,r,AB,2022_Feb_08_1254,2020.2.10,distractmap2,59.97415113952638,"['Left Face', 'Chest', 'Right Face', 'Left Arm']",
2,"[0, 0.2]",0,0,3,3,3,,,,,,,629.4368825999991,629.4368825999991,629.4368825999991,630.4368927000032,630.4202444999974,631.4202440000081,1,None,None,"[0, 0, 0]",,,629.4368825999991,629.4368825999991,,,,,,,,,,,,,,,,,,,,,,,,,,,,,,"[0, 0, 0]",,,,,8,f,2,14,r,AB,2022_Feb_08_1254,2020.2.10,distractmap2,59.97415113952638,"['Left Face', 'Chest', 'Right Face', 'Left Arm']",
6,"[0.2, 0]",0,0,4,4,4,,,,,,,631.5038926999987,631.5038926999987,631.5038926999987,632.5034878000006,632.4869032999995,None,1,None,None,"[0, 0, 0]",,,631.5038926999987,631.5038926999987,,,,,,,,,,,,,,,,,,,,,,,,,,,,,,"[0, 0, 0]",,,,,8,f,2,14,r,AB,2022_Feb_08_1254,2020.2.10,distractmap2,59.97415113952638,"['Left Face', 'Chest', 'Right Face', 'Left Arm']",
8,"[0, -0.2]",0,0,5,5,5,,,,,,,633.4535918000038,None,633.4535918000038,634.4535946999968,634.4369257000071,635.4369369000051,1,None,None,"[0, 0, 0]",,,633.4535918000038,None,,,,,,,,,,,,,,,,,,,,,,,,,,,,,,"[0, 0, 0]",,,,,8,f,2,14,r,AB,2022_Feb_08_1254,2020.2.10,distractmap2,59.97415113952638,"['Left Face', 'Chest', 'Right Face', 'Left Arm']",
1,"[-0.2, 0.2]",0,0,6,6,6,,,,,,,635.4535985999973,635.4535985999973,635.4535985999973,636.453623399997,636.4369353000075,637.4369462000031,1,None,None,"[0, 0, 0]",,,635.4535985999973,635.4535985999973,,,,,,,,,,,,,,,,,,,,,,,,,,,,,,"[0, 0, 0]",,,,,8,f,2,14,r,AB,2022_Feb_08_1254,2020.2.10,distractmap2,59.97415113952638,"['Left Face', 'Chest', 'Right Face', 'Left Arm']",
4,"[-0.2, 0]",0,0,7,7,7,,,,,,,637.4536110000045,637.4536110000045,637.4536110000045,638.4536232999963,638.4369533999998,639.4369671000022,1,None,None,"[0, 0, 0]",,,637.4536110000045,637.4536110000045,,,,,,,,,,,,,,,,,,,,,,,,,,,,,,"[0, 0, 0]",,,,,8,f,2,14,r,AB,2022_Feb_08_1254,2020.2.10,distractmap2,59.97415113952638,"['Left Face', 'Chest', 'Right Face', 'Left Arm']",
8,"[0, -0.2]",0,0,8,8,8,,,,,,,639.4536366999964,639.4536366999964,639.4536366999964,640.4536330999981,640.4369880000013,641.4369838999992,1,None,None,"[0, 0, 0]",,,639.4536366999964,639.4536366999964,,,,,,,,,,,,,,,,,,,,,,,,,,,,,,"[0, 0, 0]",,,,,8,f,2,14,r,AB,2022_Feb_08_1254,2020.2.10,distractmap2,59.97415113952638,"['Left Face', 'Chest', 'Right Face', 'Left Arm']",
8,"[0, -0.2]",1,0,9,9,9,,,,,,,641.4536432000023,641.4536432000023,641.4536432000023,642.4536579999985,642.4370073000027,643.4369891999959,1,None,None,"[0, 0, 0]",,,641.4536432000023,641.4536432000023,,,,,,,,,,,,,,,,,,,,,,,,,,,,,,"[0, 0, 0]",,,,,8,f,2,14,r,AB,2022_Feb_08_1254,2020.2.10,distractmap2,59.97415113952638,"['Left Face', 'Chest', 'Right Face', 'Left Arm']",
,,,,,,,,,,,643.4536615999968,None,,,,,,,,,,,,,,,,,,,,,,,,,,,,,,,,,,,,,,,,21.85185185185185,366.4456463400129,,,,,,,,8,f,2,14,r,AB,2022_Feb_08_1254,2020.2.10,distractmap2,59.97415113952638,"['Left Face', 'Chest', 'Right Face', 'Left Arm']",
7,"[-0.2, -0.2]",None,,,,,0,0,0,0,660.687510600008,None,,,,,,,,,,,,,,,,,,,,None,None,"[0, 0, 0]",663.5038182999997,665.5038304000045,663.5038182999997,664.5038432000001,664.487157399999,665.487161099998,"[0, 0, 0]",1,663.5038182999997,665.5038304000045,,,,,,,,,,0.015534659978584386,5.013897459983127,,,,,,8,f,2,14,r,AB,2022_Feb_08_1254,2020.2.10,distractmap2,59.97415113952638,"['Left Face', 'Chest', 'Right Face', 'Left Arm']",
7,"[-0.2, -0.2]",None,,,,,0,1,1,1,,,,,,,,,,,,,,,,,,,,,,None,None,"[0, 0, 0]",665.5204878000077,667.5205133999989,665.5204878000077,666.5205056999985,666.5041708000062,667.5038644000015,"[0, 0, 0]",0,665.5204878000077,667.5205133999989,,,,,,,,,,,,,,,,,8,f,2,14,r,AB,2022_Feb_08_1254,2020.2.10,distractmap2,59.97415113952638,"['Left Face', 'Chest', 'Right Face', 'Left Arm']",
7,"[-0.2, -0.2]",1,,,,,0,2,2,2,,,,,,,,,,,,,,,,,,,,,,None,None,"[0, 0, 0]",667.5371857999999,669.5372123999987,667.5371857999999,668.5372124999994,668.5205120000028,669.5205339999957,"[0, 0, 0]",1,667.5371857999999,669.5372123999987,,,,,,,,,,,,,,,,,8,f,2,14,r,AB,2022_Feb_08_1254,2020.2.10,distractmap2,59.97415113952638,"['Left Face', 'Chest', 'Right Face', 'Left Arm']",
5,"[0, 0]",0,,,,,0,3,3,3,,,,,,,,,,,,,,,,,,,,,,None,None,"[0, 0, 0]",669.5538709999964,671.5538818000059,669.5538709999964,670.5538598999992,670.5372179999977,671.5370947000047,"[0, 0, 0]",0,669.5538709999964,671.5538818000059,,,,,,,,,,,,,,,,,8,f,2,14,r,AB,2022_Feb_08_1254,2020.2.10,distractmap2,59.97415113952638,"['Left Face', 'Chest', 'Right Face', 'Left Arm']",
1,"[-0.2, 0.2]",0,,,,,0,4,4,4,,,,,,,,,,,,,,,,,,,,,,None,None,"[0, 0, 0]",671.6041517999984,None,671.6041517999984,672.6038800000097,672.5871659999975,None,"[0, 0, 0]",1,671.6041517999984,None,,,,,,,,,,,,,,,,,8,f,2,14,r,AB,2022_Feb_08_1254,2020.2.10,distractmap2,59.97415113952638,"['Left Face', 'Chest', 'Right Face', 'Left Arm']",
6,"[0.2, 0]",0,,,,,0,5,5,5,,,,,,,,,,,,,,,,,,,,,,None,None,"[0, 0, 0]",673.5872288999963,675.5872390000004,673.5872288999963,674.5872475000069,674.5705638000072,675.5705820000003,"[0, 0, 0]",1,673.5872288999963,675.5872390000004,,,,,,,,,,,,,,,,,8,f,2,14,r,AB,2022_Feb_08_1254,2020.2.10,distractmap2,59.97415113952638,"['Left Face', 'Chest', 'Right Face', 'Left Arm']",
1,"[-0.2, 0.2]",1,,,,,0,6,6,6,,,,,,,,,,,,,,,,,,,,,,None,None,"[0, 0, 0]",675.6034155000089,677.6039170000004,675.6034155000089,676.6039962000068,676.5872669000091,677.5872511000052,"[0, 0, 0]",1,675.6034155000089,677.6039170000004,,,,,,,,,,,,,,,,,8,f,2,14,r,AB,2022_Feb_08_1254,2020.2.10,distractmap2,59.97415113952638,"['Left Face', 'Chest', 'Right Face', 'Left Arm']",
7,"[-0.2, -0.2]",0,,,,,0,7,7,7,,,,,,,,,,,,,,,,,,,,,,None,None,"[0, 0, 0]",677.6205981999956,679.6205964999972,677.6205981999956,678.6205929999996,678.6039260999969,679.6039332000073,"[0, 0, 0]",1,677.6205981999956,679.6205964999972,,,,,,,,,,,,,,,,,8,f,2,14,r,AB,2022_Feb_08_1254,2020.2.10,distractmap2,59.97415113952638,"['Left Face', 'Chest', 'Right Face', 'Left Arm']",
6,"[0.2, 0]",0,,,,,0,8,8,8,,,,,,,,,,,,,,,,,,,,,,None,None,"[0, 0, 0]",679.6372742999956,681.6372839999967,679.6372742999956,680.6372957999993,680.6206070000044,681.6206357000046,"[0, 0, 0]",0,679.6372742999956,681.6372839999967,,,,,,,,,,,,,,,,,8,f,2,14,r,AB,2022_Feb_08_1254,2020.2.10,distractmap2,59.97415113952638,"['Left Face', 'Chest', 'Right Face', 'Left Arm']",
7,"[-0.2, -0.2]",1,,,,,0,9,9,9,,,,,,,,,,,,,,,,,,,,,,None,None,"[0, 0, 0]",681.6539446000097,683.6539661999996,681.6539446000097,682.6539576000068,682.6372973999969,683.6373159000068,"[0, 0, 0]",1,681.6539446000097,683.6539661999996,,,,,,,,,,,,,,,,,8,f,2,14,r,AB,2022_Feb_08_1254,2020.2.10,distractmap2,59.97415113952638,"['Left Face', 'Chest', 'Right Face', 'Left Arm']",
,,,,,,,,,,,683.6706275000033,None,,,,,,,,,,,,,,,,,,,,,,,,,,,,,,,,,,,,,,,,22.530864197530864,402.8798112400109,,,,,,,,8,f,2,14,r,AB,2022_Feb_08_1254,2020.2.10,distractmap2,59.97415113952638,"['Left Face', 'Chest', 'Right Face', 'Left Arm']",
4,"[-0.2, 0]",None,,,,,0,0,0,0,696.8710674000031,None,,,,,,,,,,,,,,,,,,,,None,None,"[0, 0, 0]",703.7041139000066,705.7041298999975,703.7041139000066,704.7041383000033,704.7041383000033,705.7041298999975,"[0, 0, 0]",1,703.7041139000066,705.7041298999975,,,,,,,,,,0.014935059982235543,5.012717059988063,,,,,,8,f,2,14,r,AB,2022_Feb_08_1254,2020.2.10,distractmap2,59.97415113952638,"['Left Face', 'Chest', 'Right Face', 'Left Arm']",
5,"[0, 0]",None,,,,,0,1,1,1,,,,,,,,,,,,,,,,,,,,,,None,None,"[0, 0, 0]",705.7208014000062,707.7208222000045,705.7208014000062,706.7208187000069,706.7041325000027,707.7041429000092,"[0, 0, 0]",1,705.7208014000062,707.7208222000045,,,,,,,,,,,,,,,,,8,f,2,14,r,AB,2022_Feb_08_1254,2020.2.10,distractmap2,59.97415113952638,"['Left Face', 'Chest', 'Right Face', 'Left Arm']",
6,"[0.2, 0]",0,,,,,0,2,2,2,,,,,,,,,,,,,,,,,,,,,,None,None,"[0, 0, 0]",707.7374823999999,709.7375084000087,707.7374823999999,708.7374928000063,708.7208184000046,709.7208358000062,"[0, 0, 0]",1,707.7374823999999,709.7375084000087,,,,,,,,,,,,,,,,,8,f,2,14,r,AB,2022_Feb_08_1254,2020.2.10,distractmap2,59.97415113952638,"['Left Face', 'Chest', 'Right Face', 'Left Arm']",
1,"[-0.2, 0.2]",0,,,,,0,3,3,3,,,,,,,,,,,,,,,,,,,,,,None,None,"[0, 0, 0]",709.7541597999953,711.7541724000039,709.7541597999953,710.7541865000094,710.7375182999967,711.7375127999985,"[0, 0, 0]",1,709.7541597999953,711.7541724000039,,,,,,,,,,,,,,,,,8,f,2,14,r,AB,2022_Feb_08_1254,2020.2.10,distractmap2,59.97415113952638,"['Left Face', 'Chest', 'Right Face', 'Left Arm']",
6,"[0.2, 0]",1,,,,,0,4,4,4,,,,,,,,,,,,,,,,,,,,,,None,None,"[0, 0, 0]",711.8044983,None,711.8044983,712.804195100005,712.7875123999984,None,"[0, 0, 0]",1,711.8044983,None,,,,,,,,,,,,,,,,,8,f,2,14,r,AB,2022_Feb_08_1254,2020.2.10,distractmap2,59.97415113952638,"['Left Face', 'Chest', 'Right Face', 'Left Arm']",
1,"[-0.2, 0.2]",1,,,,,0,5,5,5,,,,,,,,,,,,,,,,,,,,,,None,None,"[0, 0, 0]",713.7875224000018,715.787542799997,713.7875224000018,714.7875408999971,714.7708834000077,715.7708834000077,"[0, 0, 0]",1,713.7875224000018,715.787542799997,,,,,,,,,,,,,,,,,8,f,2,14,r,AB,2022_Feb_08_1254,2020.2.10,distractmap2,59.97415113952638,"['Left Face', 'Chest', 'Right Face', 'Left Arm']",
2,"[0, 0.2]",0,,,,,0,6,6,6,,,,,,,,,,,,,,,,,,,,,,None,None,"[0, 0, 0]",715.8042344999994,717.8042437999975,715.8042344999994,716.804237400007,716.7875674000097,717.7875602999993,"[0, 0, 0]",1,715.8042344999994,717.8042437999975,,,,,,,,,,,,,,,,,8,f,2,14,r,AB,2022_Feb_08_1254,2020.2.10,distractmap2,59.97415113952638,"['Left Face', 'Chest', 'Right Face', 'Left Arm']",
3,"[0.2, 0.2]",0,,,,,0,7,7,7,,,,,,,,,,,,,,,,,,,,,,None,None,"[0, 0, 0]",717.820893600001,719.8208976000024,717.820893600001,718.8209002000076,718.8042497999995,719.8042563000054,"[0, 0, 0]",1,717.820893600001,719.8208976000024,,,,,,,,,,,,,,,,,8,f,2,14,r,AB,2022_Feb_08_1254,2020.2.10,distractmap2,59.97415113952638,"['Left Face', 'Chest', 'Right Face', 'Left Arm']",
6,"[0.2, 0]",0,,,,,0,8,8,8,,,,,,,,,,,,,,,,,,,,,,None,None,"[0, 0, 0]",719.8375751999993,721.8375908000016,719.8375751999993,720.8375730999978,720.8209156000084,721.8209225000028,"[0, 0, 0]",1,719.8375751999993,721.8375908000016,,,,,,,,,,,,,,,,,8,f,2,14,r,AB,2022_Feb_08_1254,2020.2.10,distractmap2,59.97415113952638,"['Left Face', 'Chest', 'Right Face', 'Left Arm']",
3,"[0.2, 0.2]",1,,,,,0,9,9,9,,,,,,,,,,,,,,,,,,,,,,None,None,"[0, 0, 0]",721.8542766000028,723.8542768000043,721.8542766000028,722.8542707000015,722.837597100006,723.8375991000066,"[0, 0, 0]",1,721.8542766000028,723.8542768000043,,,,,,,,,,,,,,,,,8,f,2,14,r,AB,2022_Feb_08_1254,2020.2.10,distractmap2,59.97415113952638,"['Left Face', 'Chest', 'Right Face', 'Left Arm']",
,,,,,,,,,,,723.8709365999966,None,,,,,,,,,,,,,,,,,,,,,,,,,,,,,,,,,,,,,,,,20.61728395061728,446.9965807399858,,,,,,,,8,f,2,14,r,AB,2022_Feb_08_1254,2020.2.10,distractmap2,59.97415113952638,"['Left Face', 'Chest', 'Right Face', 'Left Arm']",
2,"[0, 0.2]",None,,,,,0,0,0,0,741.8214697000076,None,,,,,,,,,,,,,,,,,,,,None,None,"[0, 0, 0]",743.9044176000025,745.9044588999968,743.9044176000025,744.904448500005,744.8877639999992,745.8877675999975,"[0, 0, 0]",1,743.9044176000025,745.9044588999968,,,,,,,,,,0.015151560000958852,5.013146359997336,,,,,,8,f,2,14,r,AB,2022_Feb_08_1254,2020.2.10,distractmap2,59.97415113952638,"['Left Face', 'Chest', 'Right Face', 'Left Arm']",
5,"[0, 0]",None,,,,,0,1,1,1,,,,,,,,,,,,,,,,,,,,,,None,None,"[0, 0, 0]",745.9210931999987,747.9211401000066,745.9210931999987,746.9211216999975,746.904452200004,747.9044709000009,"[0, 0, 0]",1,745.9210931999987,747.9211401000066,,,,,,,,,,,,,,,,,8,f,2,14,r,AB,2022_Feb_08_1254,2020.2.10,distractmap2,59.97415113952638,"['Left Face', 'Chest', 'Right Face', 'Left Arm']",
6,"[0.2, 0]",0,,,,,0,2,2,2,,,,,,,,,,,,,,,,,,,,,,None,None,"[0, 0, 0]",747.9377562000009,749.9378017999989,747.9377562000009,748.9378023000027,748.9211204000021,749.9211340000038,"[0, 0, 0]",1,747.9377562000009,749.9378017999989,,,,,,,,,,,,,,,,,8,f,2,14,r,AB,2022_Feb_08_1254,2020.2.10,distractmap2,59.97415113952638,"['Left Face', 'Chest', 'Right Face', 'Left Arm']",
1,"[-0.2, 0.2]",0,,,,,0,3,3,3,,,,,,,,,,,,,,,,,,,,,,None,None,"[0, 0, 0]",749.9544677000085,751.9544979000057,749.9544677000085,750.9544808000064,750.9378188999981,751.9378139000037,"[0, 0, 0]",1,749.9544677000085,751.9544979000057,,,,,,,,,,,,,,,,,8,f,2,14,r,AB,2022_Feb_08_1254,2020.2.10,distractmap2,59.97415113952638,"['Left Face', 'Chest', 'Right Face', 'Left Arm']",
6,"[0.2, 0]",1,,,,,0,4,4,4,,,,,,,,,,,,,,,,,,,,,,None,None,"[0, 0, 0]",752.0381641999993,None,752.0381641999993,753.037837099997,753.0211571999971,None,"[0, 0, 0]",1,752.0381641999993,None,,,,,,,,,,,,,,,,,8,f,2,14,r,AB,2022_Feb_08_1254,2020.2.10,distractmap2,59.97415113952638,"['Left Face', 'Chest', 'Right Face', 'Left Arm']",
6,"[0.2, 0]",0,,,,,0,5,5,5,,,,,,,,,,,,,,,,,,,,,,None,None,"[0, 0, 0]",753.987826800003,755.9878395999986,753.987826800003,754.9878342000011,754.9711955999956,755.9711936999956,"[0, 0, 0]",1,753.987826800003,755.9878395999986,,,,,,,,,,,,,,,,,8,f,2,14,r,AB,2022_Feb_08_1254,2020.2.10,distractmap2,59.97415113952638,"['Left Face', 'Chest', 'Right Face', 'Left Arm']",
9,"[0.2, -0.2]",0,,,,,0,6,6,6,,,,,,,,,,,,,,,,,,,,,,None,None,"[0, 0, 0]",756.0045151000086,758.0045267000096,756.0045151000086,757.0045227000082,756.9878527999972,757.9878600000084,"[0, 0, 0]",1,756.0045151000086,758.0045267000096,,,,,,,,,,,,,,,,,8,f,2,14,r,AB,2022_Feb_08_1254,2020.2.10,distractmap2,59.97415113952638,"['Left Face', 'Chest', 'Right Face', 'Left Arm']",
6,"[0.2, 0]",1,,,,,0,7,7,7,,,,,,,,,,,,,,,,,,,,,,None,None,"[0, 0, 0]",758.0211953999969,760.021215700006,758.0211953999969,759.0212037000019,759.0045472000056,760.0045534000092,"[0, 0, 0]",1,758.0211953999969,760.021215700006,,,,,,,,,,,,,,,,,8,f,2,14,r,AB,2022_Feb_08_1254,2020.2.10,distractmap2,59.97415113952638,"['Left Face', 'Chest', 'Right Face', 'Left Arm']",
3,"[0.2, 0.2]",0,,,,,0,8,8,8,,,,,,,,,,,,,,,,,,,,,,None,None,"[0, 0, 0]",760.0378822000057,762.0378865000093,760.0378822000057,761.0378971000027,761.0212294000085,762.021245099997,"[0, 0, 0]",1,760.0378822000057,762.0378865000093,,,,,,,,,,,,,,,,,8,f,2,14,r,AB,2022_Feb_08_1254,2020.2.10,distractmap2,59.97415113952638,"['Left Face', 'Chest', 'Right Face', 'Left Arm']",
9,"[0.2, -0.2]",0,,,,,0,9,9,9,,,,,,,,,,,,,,,,,,,,,,None,None,"[0, 0, 0]",762.0545601000049,764.0545786000002,762.0545601000049,763.0545634000009,763.0379067000031,764.037928699996,"[0, 0, 0]",1,762.0545601000049,764.0545786000002,,,,,,,,,,,,,,,,,8,f,2,14,r,AB,2022_Feb_08_1254,2020.2.10,distractmap2,59.97415113952638,"['Left Face', 'Chest', 'Right Face', 'Left Arm']",
,,,,,,,,,,,764.0712463999953,None,,,,,,,,,,,,,,,,,,,,,,,,,,,,,,,,,,,,,,,,21.54320987654321,485.0637403399887,,,,,,,,8,f,2,14,r,AB,2022_Feb_08_1254,2020.2.10,distractmap2,59.97415113952638,"['Left Face', 'Chest', 'Right Face', 'Left Arm']",
3,"[0.2, 0.2]",None,0,0,0,0,,,,,779.3215500000078,None,784.0880616000068,None,784.0880616000068,785.0880679999973,785.0714163000084,786.0714243999973,0,None,None,"[0, 0, 0]",,,784.0880616000068,None,,,,,,,,,,,,,,,,,,,,,,,,,,,,0.014972960008890368,5.0128029600018635,"[0, 0, 0]",,,,,8,f,2,14,r,AB,2022_Feb_08_1254,2020.2.10,distractmap2,59.97415113952638,"['Left Face', 'Chest', 'Right Face', 'Left Arm']",
4,"[-0.2, 0]",0,0,1,1,1,,,,,,,786.0880835999997,None,786.0880835999997,787.0880919000047,787.0714259000088,788.071431400007,1,None,None,"[0, 0, 0]",,,786.0880835999997,None,,,,,,,,,,,,,,,,,,,,,,,,,,,,,,"[0, 0, 0]",,,,,8,f,2,14,r,AB,2022_Feb_08_1254,2020.2.10,distractmap2,59.97415113952638,"['Left Face', 'Chest', 'Right Face', 'Left Arm']",
1,"[-0.2, 0.2]",0,0,2,2,2,,,,,,,788.0880934000015,788.0880934000015,788.0880934000015,789.0880944999953,789.0717488000082,790.0714624999964,1,None,None,"[0, 0, 0]",,,788.0880934000015,788.0880934000015,,,,,,,,,,,,,,,,,,,,,,,,,,,,,,"[0, 0, 0]",,,,,8,f,2,14,r,AB,2022_Feb_08_1254,2020.2.10,distractmap2,59.97415113952638,"['Left Face', 'Chest', 'Right Face', 'Left Arm']",
2,"[0, 0.2]",0,0,3,3,3,,,,,,,790.0881100999977,790.0881100999977,790.0881100999977,791.0881152000075,791.071463500004,792.0714601000072,1,None,None,"[0, 0, 0]",,,790.0881100999977,790.0881100999977,,,,,,,,,,,,,,,,,,,,,,,,,,,,,,"[0, 0, 0]",,,,,8,f,2,14,r,AB,2022_Feb_08_1254,2020.2.10,distractmap2,59.97415113952638,"['Left Face', 'Chest', 'Right Face', 'Left Arm']",
2,"[0, 0.2]",1,0,4,4,4,,,,,,,792.1551513000013,792.1551513000013,792.1551513000013,793.1547951999964,793.1381497999973,None,1,None,None,"[0, 0, 0]",,,792.1551513000013,792.1551513000013,,,,,,,,,,,,,,,,,,,,,,,,,,,,,,"[0, 0, 0]",,,,,8,f,2,14,r,AB,2022_Feb_08_1254,2020.2.10,distractmap2,59.97415113952638,"['Left Face', 'Chest', 'Right Face', 'Left Arm']",
5,"[0, 0]",0,0,5,5,5,,,,,,,794.1047978999995,None,794.1047978999995,795.1048150999995,795.0881629000069,796.0881456000061,1,None,None,"[0, 0, 0]",,,794.1047978999995,None,,,,,,,,,,,,,,,,,,,,,,,,,,,,,,"[0, 0, 0]",,,,,8,f,2,14,r,AB,2022_Feb_08_1254,2020.2.10,distractmap2,59.97415113952638,"['Left Face', 'Chest', 'Right Face', 'Left Arm']",
1,"[-0.2, 0.2]",0,0,6,6,6,,,,,,,796.1048146999965,796.1048146999965,796.1048146999965,797.1048225999984,797.0881640000007,798.0881690999959,1,None,None,"[0, 0, 0]",,,796.1048146999965,796.1048146999965,,,,,,,,,,,,,,,,,,,,,,,,,,,,,,"[0, 0, 0]",,,,,8,f,2,14,r,AB,2022_Feb_08_1254,2020.2.10,distractmap2,59.97415113952638,"['Left Face', 'Chest', 'Right Face', 'Left Arm']",
1,"[-0.2, 0.2]",1,0,7,7,7,,,,,,,798.1048421000014,798.1048421000014,798.1048421000014,799.1048538000032,799.0881743000064,800.0881853000028,1,None,None,"[0, 0, 0]",,,798.1048421000014,798.1048421000014,,,,,,,,,,,,,,,,,,,,,,,,,,,,,,"[0, 0, 0]",,,,,8,f,2,14,r,AB,2022_Feb_08_1254,2020.2.10,distractmap2,59.97415113952638,"['Left Face', 'Chest', 'Right Face', 'Left Arm']",
8,"[0, -0.2]",0,0,8,8,8,,,,,,,800.1048621000082,800.1048621000082,800.1048621000082,801.1048619000067,801.0881844999967,802.0882091999956,1,None,None,"[0, 0, 0]",,,800.1048621000082,800.1048621000082,,,,,,,,,,,,,,,,,,,,,,,,,,,,,,"[0, 0, 0]",,,,,8,f,2,14,r,AB,2022_Feb_08_1254,2020.2.10,distractmap2,59.97415113952638,"['Left Face', 'Chest', 'Right Face', 'Left Arm']",
7,"[-0.2, -0.2]",0,0,9,9,9,,,,,,,802.1048680000094,802.1048680000094,802.1048680000094,803.1048641000089,803.0882123000047,804.0882369000028,1,None,None,"[0, 0, 0]",,,802.1048680000094,802.1048680000094,,,,,,,,,,,,,,,,,,,,,,,,,,,,,,"[0, 0, 0]",,,,,8,f,2,14,r,AB,2022_Feb_08_1254,2020.2.10,distractmap2,59.97415113952638,"['Left Face', 'Chest', 'Right Face', 'Left Arm']",
,,,,,,,,,,,804.104883100008,None,,,,,,,,,,,,,,,,,,,,,,,,,,,,,,,,,,,,,,,,20.864197530864196,524.3140133400011,,,,,,,,8,f,2,14,r,AB,2022_Feb_08_1254,2020.2.10,distractmap2,59.97415113952638,"['Left Face', 'Chest', 'Right Face', 'Left Arm']",
3,"[0.2, 0.2]",None,,,,,0,0,0,0,817.3555760000017,None,,,,,,,,,,,,,,,,,,,,None,None,"[0, 0, 0]",824.121607699999,826.1216302999965,824.121607699999,825.1217187000002,825.1217187000002,826.1216302999965,"[0, 0, 0]",1,824.121607699999,826.1216302999965,,,,,,,,,,0.014969059993745759,5.01279085999704,,,,,,8,f,2,14,r,AB,2022_Feb_08_1254,2020.2.10,distractmap2,59.97415113952638,"['Left Face', 'Chest', 'Right Face', 'Left Arm']",
9,"[0.2, -0.2]",None,,,,,0,1,1,1,,,,,,,,,,,,,,,,,,,,,,None,None,"[0, 0, 0]",826.1383970000024,828.1384096999973,826.1383970000024,827.1884109999955,827.1717520000093,None,"[0, 0, 0]",1,826.1383970000024,828.1384096999973,,,,,,,,,,,,,,,,,8,f,2,14,r,AB,2022_Feb_08_1254,2020.2.10,distractmap2,59.97415113952638,"['Left Face', 'Chest', 'Right Face', 'Left Arm']",
3,"[0.2, 0.2]",1,,,,,0,2,2,2,,,,,,,,,,,,,,,,,,,,,,None,None,"[0, 0, 0]",828.1550706999988,830.1550759999955,828.1550706999988,829.1550549000094,829.1384274000011,830.1384193999984,"[0, 0, 0]",1,828.1550706999988,830.1550759999955,,,,,,,,,,,,,,,,,8,f,2,14,r,AB,2022_Feb_08_1254,2020.2.10,distractmap2,59.97415113952638,"['Left Face', 'Chest', 'Right Face', 'Left Arm']",
7,"[-0.2, -0.2]",0,,,,,0,3,3,3,,,,,,,,,,,,,,,,,,,,,,None,None,"[0, 0, 0]",830.171756900003,832.1717701000016,830.171756900003,831.1717663000018,831.1550990999967,832.1551050999988,"[0, 0, 0]",1,830.171756900003,832.1717701000016,,,,,,,,,,,,,,,,,8,f,2,14,r,AB,2022_Feb_08_1254,2020.2.10,distractmap2,59.97415113952638,"['Left Face', 'Chest', 'Right Face', 'Left Arm']",
8,"[0, -0.2]",0,,,,,0,4,4,4,,,,,,,,,,,,,,,,,,,,,,None,None,"[0, 0, 0]",832.255453500009,None,832.255453500009,833.2550993000041,833.2384584999963,None,"[0, 0, 0]",1,832.255453500009,None,,,,,,,,,,,,,,,,,8,f,2,14,r,AB,2022_Feb_08_1254,2020.2.10,distractmap2,59.97415113952638,"['Left Face', 'Chest', 'Right Face', 'Left Arm']",
4,"[-0.2, 0]",0,,,,,0,5,5,5,,,,,,,,,,,,,,,,,,,,,,None,None,"[0, 0, 0]",834.2051104999991,836.2051187000034,834.2051104999991,835.2051237999985,835.188470299996,836.1884866000037,"[0, 0, 0]",1,834.2051104999991,836.2051187000034,,,,,,,,,,,,,,,,,8,f,2,14,r,AB,2022_Feb_08_1254,2020.2.10,distractmap2,59.97415113952638,"['Left Face', 'Chest', 'Right Face', 'Left Arm']",
4,"[-0.2, 0]",0,,,,,0,6,6,6,,,,,,,,,,,,,,,,,,,,,,None,None,"[0, 0, 0]",836.221781900007,838.2218225999968,836.221781900007,837.2218110999966,837.2051557000086,838.2051472000021,"[0, 0, 0]",1,836.221781900007,838.2218225999968,,,,,,,,,,,,,,,,,8,f,2,14,r,AB,2022_Feb_08_1254,2020.2.10,distractmap2,59.97415113952638,"['Left Face', 'Chest', 'Right Face', 'Left Arm']",
1,"[-0.2, 0.2]",0,,,,,0,7,7,7,,,,,,,,,,,,,,,,,,,,,,None,None,"[0, 0, 0]",838.2384821000014,840.2385080000095,838.2384821000014,839.2385082999972,839.2218079000013,840.2218381999992,"[0, 0, 0]",1,838.2384821000014,840.2385080000095,,,,,,,,,,,,,,,,,8,f,2,14,r,AB,2022_Feb_08_1254,2020.2.10,distractmap2,59.97415113952638,"['Left Face', 'Chest', 'Right Face', 'Left Arm']",
4,"[-0.2, 0]",1,,,,,0,8,8,8,,,,,,,,,,,,,,,,,,,,,,None,None,"[0, 0, 0]",840.2551527000032,842.2551641000027,840.2551527000032,841.2551894000062,841.2385021000082,842.2385193000082,"[0, 0, 0]",1,840.2551527000032,842.2551641000027,,,,,,,,,,,,,,,,,8,f,2,14,r,AB,2022_Feb_08_1254,2020.2.10,distractmap2,59.97415113952638,"['Left Face', 'Chest', 'Right Face', 'Left Arm']",
8,"[0, -0.2]",0,,,,,0,9,9,9,,,,,,,,,,,,,,,,,,,,,,None,None,"[0, 0, 0]",842.2718531999999,844.2718547999975,842.2718531999999,843.2718640000094,843.2551782000082,844.2551990000065,"[0, 0, 0]",1,842.2718531999999,844.2718547999975,,,,,,,,,,,,,,,,,8,f,2,14,r,AB,2022_Feb_08_1254,2020.2.10,distractmap2,59.97415113952638,"['Left Face', 'Chest', 'Right Face', 'Left Arm']",
,,,,,,,,,,,844.2884195000079,None,,,,,,,,,,,,,,,,,,,,,,,,,,,,,,,,,,,,,,,,21.17283950617284,563.2149825399974,,,,,,,,8,f,2,14,r,AB,2022_Feb_08_1254,2020.2.10,distractmap2,59.97415113952638,"['Left Face', 'Chest', 'Right Face', 'Left Arm']",
6,"[0.2, 0]",None,0,0,0,0,,,,,857.5222887999989,None,864.3386846000067,None,864.3386846000067,865.3386799,865.3220201000076,866.3220337999956,1,None,None,"[0, 0, 0]",,,864.3386846000067,None,,,,,,,,,,,,,,,,,,,,,,,,,,,,0.014313659994513728,5.011463460003142,"[0, 0, 0]",,,,,8,f,2,14,r,AB,2022_Feb_08_1254,2020.2.10,distractmap2,59.97415113952638,"['Left Face', 'Chest', 'Right Face', 'Left Arm']",
6,"[0.2, 0]",1,0,1,1,1,,,,,,,866.3386863000051,866.3386863000051,866.3386863000051,867.3386965999962,867.3220514999994,868.3220379999984,1,None,None,"[0, 0, 0]",,,866.3386863000051,866.3386863000051,,,,,,,,,,,,,,,,,,,,,,,,,,,,,,"[0, 0, 0]",,,,,8,f,2,14,r,AB,2022_Feb_08_1254,2020.2.10,distractmap2,59.97415113952638,"['Left Face', 'Chest', 'Right Face', 'Left Arm']",
1,"[-0.2, 0.2]",0,0,2,2,2,,,,,,,868.3386432999978,868.3386432999978,868.3386432999978,869.3387070000026,869.3220466000057,870.3220612000005,1,None,None,"[0, 0, 0]",,,868.3386432999978,868.3386432999978,,,,,,,,,,,,,,,,,,,,,,,,,,,,,,"[0, 0, 0]",,,,,8,f,2,14,r,AB,2022_Feb_08_1254,2020.2.10,distractmap2,59.97415113952638,"['Left Face', 'Chest', 'Right Face', 'Left Arm']",
8,"[0, -0.2]",0,0,3,3,3,,,,,,,870.3387303000054,870.3387303000054,870.3387303000054,871.3387270999956,871.3220625999966,872.3220735000068,1,None,None,"[0, 0, 0]",,,870.3387303000054,870.3387303000054,,,,,,,,,,,,,,,,,,,,,,,,,,,,,,"[0, 0, 0]",,,,,8,f,2,14,r,AB,2022_Feb_08_1254,2020.2.10,distractmap2,59.97415113952638,"['Left Face', 'Chest', 'Right Face', 'Left Arm']",
1,"[-0.2, 0.2]",0,0,4,4,4,,,,,,,872.3890618000005,872.3890618000005,872.3890618000005,873.3887386999995,873.3720762000012,None,1,None,None,"[0, 0, 0]",,,872.3890618000005,872.3890618000005,,,,,,,,,,,,,,,,,,,,,,,,,,,,,,"[0, 0, 0]",,,,,8,f,2,14,r,AB,2022_Feb_08_1254,2020.2.10,distractmap2,59.97415113952638,"['Left Face', 'Chest', 'Right Face', 'Left Arm']",
4,"[-0.2, 0]",0,0,5,5,5,,,,,,,874.3554340999981,None,874.3554340999981,875.3554361999995,875.3387551000051,876.3387681000022,1,None,None,"[0, 0, 0]",,,874.3554340999981,None,,,,,,,,,,,,,,,,,,,,,,,,,,,,,,"[0, 0, 0]",,,,,8,f,2,14,r,AB,2022_Feb_08_1254,2020.2.10,distractmap2,59.97415113952638,"['Left Face', 'Chest', 'Right Face', 'Left Arm']",
5,"[0, 0]",0,0,6,6,6,,,,,,,876.3554546000087,876.3554546000087,876.3554546000087,877.3554609999992,877.3387706000067,878.3387781000056,1,None,None,"[0, 0, 0]",,,876.3554546000087,876.3554546000087,,,,,,,,,,,,,,,,,,,,,,,,,,,,,,"[0, 0, 0]",,,,,8,f,2,14,r,AB,2022_Feb_08_1254,2020.2.10,distractmap2,59.97415113952638,"['Left Face', 'Chest', 'Right Face', 'Left Arm']",
7,"[-0.2, -0.2]",0,0,7,7,7,,,,,,,878.3554623999953,878.3554623999953,878.3554623999953,879.3554643000098,879.3388003,880.3387902999966,1,None,None,"[0, 0, 0]",,,878.3554623999953,878.3554623999953,,,,,,,,,,,,,,,,,,,,,,,,,,,,,,"[0, 0, 0]",,,,,8,f,2,14,r,AB,2022_Feb_08_1254,2020.2.10,distractmap2,59.97415113952638,"['Left Face', 'Chest', 'Right Face', 'Left Arm']",
7,"[-0.2, -0.2]",1,0,8,8,8,,,,,,,880.3554808000044,880.3554808000044,880.3554808000044,881.3554800999991,881.3388178000023,882.3388123000041,1,None,None,"[0, 0, 0]",,,880.3554808000044,880.3554808000044,,,,,,,,,,,,,,,,,,,,,,,,,,,,,,"[0, 0, 0]",,,,,8,f,2,14,r,AB,2022_Feb_08_1254,2020.2.10,distractmap2,59.97415113952638,"['Left Face', 'Chest', 'Right Face', 'Left Arm']",
7,"[-0.2, -0.2]",1,0,9,9,9,,,,,,,882.3555036000034,882.3555036000034,882.3555036000034,883.3555063000094,883.3388242000074,884.3388271000003,1,None,None,"[0, 0, 0]",,,882.3555036000034,882.3555036000034,,,,,,,,,,,,,,,,,,,,,,,,,,,,,,"[0, 0, 0]",,,,,8,f,2,14,r,AB,2022_Feb_08_1254,2020.2.10,distractmap2,59.97415113952638,"['Left Face', 'Chest', 'Right Face', 'Left Arm']",
,,,,,,,,,,,884.3555054000026,None,,,,,,,,,,,,,,,,,,,,,,,,,,,,,,,,,,,,,,,,18.333333333333336,607.6147800399922,,,,,,,,8,f,2,14,r,AB,2022_Feb_08_1254,2020.2.10,distractmap2,59.97415113952638,"['Left Face', 'Chest', 'Right Face', 'Left Arm']",
8,"[0, -0.2]",None,0,0,0,0,,,,,902.205981200008,None,904.3889894000022,None,904.3889894000022,905.3889945999981,905.3723292000068,906.3722180000041,1,None,None,"[0, 0, 0]",,,904.3889894000022,None,,,,,,,,,,,,,,,,,,,,,,,,,,,,0.014850360006676055,5.012558460002765,"[0, 0, 0]",,,,,8,f,2,14,r,AB,2022_Feb_08_1254,2020.2.10,distractmap2,59.97415113952638,"['Left Face', 'Chest', 'Right Face', 'Left Arm']",
6,"[0.2, 0]",0,0,1,1,1,,,,,,,906.3890168000071,906.3890168000071,906.3890168000071,907.3890052000061,907.3723591000016,908.3723623999977,1,None,None,"[0, 0, 0]",,,906.3890168000071,906.3890168000071,,,,,,,,,,,,,,,,,,,,,,,,,,,,,,"[0, 0, 0]",,,,,8,f,2,14,r,AB,2022_Feb_08_1254,2020.2.10,distractmap2,59.97415113952638,"['Left Face', 'Chest', 'Right Face', 'Left Arm']",
6,"[0.2, 0]",1,0,2,2,2,,,,,,,908.3890144000034,908.3890144000034,908.3890144000034,909.3890148000064,909.3723527999973,910.3723792000092,1,None,None,"[0, 0, 0]",,,908.3890144000034,908.3890144000034,,,,,,,,,,,,,,,,,,,,,,,,,,,,,,"[0, 0, 0]",,,,,8,f,2,14,r,AB,2022_Feb_08_1254,2020.2.10,distractmap2,59.97415113952638,"['Left Face', 'Chest', 'Right Face', 'Left Arm']",
2,"[0, 0.2]",0,0,3,3,3,,,,,,,910.3890313000011,910.3890313000011,910.3890313000011,911.3890378000069,911.3723850999959,912.3723801000015,1,None,None,"[0, 0, 0]",,,910.3890313000011,910.3890313000011,,,,,,,,,,,,,,,,,,,,,,,,,,,,,,"[0, 0, 0]",,,,,8,f,2,14,r,AB,2022_Feb_08_1254,2020.2.10,distractmap2,59.97415113952638,"['Left Face', 'Chest', 'Right Face', 'Left Arm']",
1,"[-0.2, 0.2]",0,0,4,4,4,,,,,,,912.4386614999967,912.4386614999967,912.4386614999967,913.4390587000089,913.4223903000093,None,1,None,None,"[0, 0, 0]",,,912.4386614999967,912.4386614999967,,,,,,,,,,,,,,,,,,,,,,,,,,,,,,"[0, 0, 0]",,,,,8,f,2,14,r,AB,2022_Feb_08_1254,2020.2.10,distractmap2,59.97415113952638,"['Left Face', 'Chest', 'Right Face', 'Left Arm']",
6,"[0.2, 0]",0,0,5,5,5,,,,,,,914.4057331000076,None,914.4057331000076,915.4057246000011,915.3890783000097,916.3890669999964,1,None,None,"[0, 0, 0]",,,914.4057331000076,None,,,,,,,,,,,,,,,,,,,,,,,,,,,,,,"[0, 0, 0]",,,,,8,f,2,14,r,AB,2022_Feb_08_1254,2020.2.10,distractmap2,59.97415113952638,"['Left Face', 'Chest', 'Right Face', 'Left Arm']",
9,"[0.2, -0.2]",0,0,6,6,6,,,,,,,916.4057501000061,916.4057501000061,916.4057501000061,917.4057624999987,917.3890793000028,918.3891044000047,1,None,None,"[0, 0, 0]",,,916.4057501000061,916.4057501000061,,,,,,,,,,,,,,,,,,,,,,,,,,,,,,"[0, 0, 0]",,,,,8,f,2,14,r,AB,2022_Feb_08_1254,2020.2.10,distractmap2,59.97415113952638,"['Left Face', 'Chest', 'Right Face', 'Left Arm']",
1,"[-0.2, 0.2]",0,0,7,7,7,,,,,,,918.4057749000058,918.4057749000058,918.4057749000058,919.4057654000062,919.3894272000034,920.3890994999965,1,None,None,"[0, 0, 0]",,,918.4057749000058,918.4057749000058,,,,,,,,,,,,,,,,,,,,,,,,,,,,,,"[0, 0, 0]",,,,,8,f,2,14,r,AB,2022_Feb_08_1254,2020.2.10,distractmap2,59.97415113952638,"['Left Face', 'Chest', 'Right Face', 'Left Arm']",
6,"[0.2, 0]",0,0,8,8,8,,,,,,,920.4057791000087,920.4057791000087,920.4057791000087,921.4057984999963,921.3891255000053,922.389121900007,1,None,None,"[0, 0, 0]",,,920.4057791000087,920.4057791000087,,,,,,,,,,,,,,,,,,,,,,,,,,,,,,"[0, 0, 0]",,,,,8,f,2,14,r,AB,2022_Feb_08_1254,2020.2.10,distractmap2,59.97415113952638,"['Left Face', 'Chest', 'Right Face', 'Left Arm']",
6,"[0.2, 0]",1,0,9,9,9,,,,,,,922.405806499999,922.405806499999,922.405806499999,923.4058133000071,923.3891225999978,924.3886482000089,1,None,None,"[0, 0, 0]",,,922.405806499999,922.405806499999,,,,,,,,,,,,,,,,,,,,,,,,,,,,,,"[0, 0, 0]",,,,,8,f,2,14,r,AB,2022_Feb_08_1254,2020.2.10,distractmap2,59.97415113952638,"['Left Face', 'Chest', 'Right Face', 'Left Arm']",
,,,,,,,,,,,924.4058211000083,None,,,,,,,,,,,,,,,,,,,,,,,,,,,,,,,,,,,,,,,,18.703703703703702,647.581511640019,,,,,,,,8,f,2,14,r,AB,2022_Feb_08_1254,2020.2.10,distractmap2,59.97415113952638,"['Left Face', 'Chest', 'Right Face', 'Left Arm']",
9,"[0.2, -0.2]",None,0,0,0,0,,,,,941.6393586000049,None,944.4392844999966,None,944.4392844999966,945.4392982999998,945.4226468999987,946.4226342000038,1,None,None,"[0, 0, 0]",,,944.4392844999966,None,,,,,,,,,,,,,,,,,,,,,,,,,,,,0.015108659979887307,5.013033359980909,"[0, 0, 0]",,,,,8,f,2,14,r,AB,2022_Feb_08_1254,2020.2.10,distractmap2,59.97415113952638,"['Left Face', 'Chest', 'Right Face', 'Left Arm']",
9,"[0.2, -0.2]",1,0,1,1,1,,,,,,,946.4393206999957,946.4393206999957,946.4393206999957,947.4393249999994,947.4226638999971,948.4226036000036,1,None,None,"[0, 0, 0]",,,946.4393206999957,946.4393206999957,,,,,,,,,,,,,,,,,,,,,,,,,,,,,,"[0, 0, 0]",,,,,8,f,2,14,r,AB,2022_Feb_08_1254,2020.2.10,distractmap2,59.97415113952638,"['Left Face', 'Chest', 'Right Face', 'Left Arm']",
9,"[0.2, -0.2]",1,0,2,2,2,,,,,,,948.4393520000012,948.4393520000012,948.4393520000012,949.4393510000082,949.4226631000056,950.4227520999993,1,None,None,"[0, 0, 0]",,,948.4393520000012,948.4393520000012,,,,,,,,,,,,,,,,,,,,,,,,,,,,,,"[0, 0, 0]",,,,,8,f,2,14,r,AB,2022_Feb_08_1254,2020.2.10,distractmap2,59.97415113952638,"['Left Face', 'Chest', 'Right Face', 'Left Arm']",
3,"[0.2, 0.2]",0,0,3,3,3,,,,,,,950.4393397999957,950.4393397999957,950.4393397999957,951.439366599996,951.4226899000059,952.4226748000074,1,None,None,"[0, 0, 0]",,,950.4393397999957,950.4393397999957,,,,,,,,,,,,,,,,,,,,,,,,,,,,,,"[0, 0, 0]",,,,,8,f,2,14,r,AB,2022_Feb_08_1254,2020.2.10,distractmap2,59.97415113952638,"['Left Face', 'Chest', 'Right Face', 'Left Arm']",
5,"[0, 0]",0,0,4,4,4,,,,,,,952.4730595000001,952.4730595000001,952.4730595000001,953.4726979999978,953.4560258999991,None,1,None,None,"[0, 0, 0]",,,952.4730595000001,952.4730595000001,,,,,,,,,,,,,,,,,,,,,,,,,,,,,,"[0, 0, 0]",,,,,8,f,2,14,r,AB,2022_Feb_08_1254,2020.2.10,distractmap2,59.97415113952638,"['Left Face', 'Chest', 'Right Face', 'Left Arm']",
4,"[-0.2, 0]",0,0,5,5,5,,,,,,,954.4560269000067,None,954.4560269000067,955.4560514000041,955.4393748000002,956.4393899999995,1,None,None,"[0, 0, 0]",,,954.4560269000067,None,,,,,,,,,,,,,,,,,,,,,,,,,,,,,,"[0, 0, 0]",,,,,8,f,2,14,r,AB,2022_Feb_08_1254,2020.2.10,distractmap2,59.97415113952638,"['Left Face', 'Chest', 'Right Face', 'Left Arm']",
9,"[0.2, -0.2]",0,0,6,6,6,,,,,,,956.4560464999959,956.4560464999959,956.4560464999959,957.4560518000071,957.4394151000015,958.4393973999977,1,None,None,"[0, 0, 0]",,,956.4560464999959,956.4560464999959,,,,,,,,,,,,,,,,,,,,,,,,,,,,,,"[0, 0, 0]",,,,,8,f,2,14,r,AB,2022_Feb_08_1254,2020.2.10,distractmap2,59.97415113952638,"['Left Face', 'Chest', 'Right Face', 'Left Arm']",
6,"[0.2, 0]",0,0,7,7,7,,,,,,,958.4560741000023,958.4560741000023,958.4560741000023,959.4560683000018,959.4394068999973,960.4393012000073,1,None,None,"[0, 0, 0]",,,958.4560741000023,958.4560741000023,,,,,,,,,,,,,,,,,,,,,,,,,,,,,,"[0, 0, 0]",,,,,8,f,2,14,r,AB,2022_Feb_08_1254,2020.2.10,distractmap2,59.97415113952638,"['Left Face', 'Chest', 'Right Face', 'Left Arm']",
2,"[0, 0.2]",0,0,8,8,8,,,,,,,960.4560884000093,960.4560884000093,960.4560884000093,961.4560911000008,961.4394262999995,962.4394429999957,1,None,None,"[0, 0, 0]",,,960.4560884000093,960.4560884000093,,,,,,,,,,,,,,,,,,,,,,,,,,,,,,"[0, 0, 0]",,,,,8,f,2,14,r,AB,2022_Feb_08_1254,2020.2.10,distractmap2,59.97415113952638,"['Left Face', 'Chest', 'Right Face', 'Left Arm']",
2,"[0, 0.2]",1,0,9,9,9,,,,,,,962.4560902000085,962.4560902000085,962.4560902000085,963.4560954000044,963.4394633000047,964.4394657000084,1,None,None,"[0, 0, 0]",,,962.4560902000085,962.4560902000085,,,,,,,,,,,,,,,,,,,,,,,,,,,,,,"[0, 0, 0]",,,,,8,f,2,14,r,AB,2022_Feb_08_1254,2020.2.10,distractmap2,59.97415113952638,"['Left Face', 'Chest', 'Right Face', 'Left Arm']",
,,,,,,,,,,,964.4561117999983,None,,,,,,,,,,,,,,,,,,,,,,,,,,,,,,,,,,,,,,,,18.950617283950617,687.065759139994,,,,,,,,8,f,2,14,r,AB,2022_Feb_08_1254,2020.2.10,distractmap2,59.97415113952638,"['Left Face', 'Chest', 'Right Face', 'Left Arm']",
2,"[0, 0.2]",None,,,,,0,0,0,0,981.7065091999975,None,,,,,,,,,,,,,,,,,,,,None,None,"[0, 0, 0]",984.506266299999,986.5062787000061,984.506266299999,985.506274600004,985.506274600004,986.5062787000061,"[0, 0, 0]",1,984.506266299999,986.5062787000061,,,,,,,,,,0.01439555999240838,5.011612159985816,,,,,,8,f,2,14,r,AB,2022_Feb_08_1254,2020.2.10,distractmap2,59.97415113952638,"['Left Face', 'Chest', 'Right Face', 'Left Arm']",
5,"[0, 0]",None,,,,,0,1,1,1,,,,,,,,,,,,,,,,,,,,,,None,None,"[0, 0, 0]",986.5229415000067,988.5229813000042,986.5229415000067,987.5229508000048,987.5062907999963,988.5063070000033,"[0, 0, 0]",1,986.5229415000067,988.5229813000042,,,,,,,,,,,,,,,,,8,f,2,14,r,AB,2022_Feb_08_1254,2020.2.10,distractmap2,59.97415113952638,"['Left Face', 'Chest', 'Right Face', 'Left Arm']",
3,"[0.2, 0.2]",0,,,,,0,2,2,2,,,,,,,,,,,,,,,,,,,,,,None,None,"[0, 0, 0]",988.5396275999956,990.5396583999973,988.5396275999956,989.5396471999993,989.5229895000084,990.5229871000047,"[0, 0, 0]",1,988.5396275999956,990.5396583999973,,,,,,,,,,,,,,,,,8,f,2,14,r,AB,2022_Feb_08_1254,2020.2.10,distractmap2,59.97415113952638,"['Left Face', 'Chest', 'Right Face', 'Left Arm']",
5,"[0, 0]",1,,,,,0,3,3,3,,,,,,,,,,,,,,,,,,,,,,None,None,"[0, 0, 0]",990.5563183000049,992.5563338000065,990.5563183000049,991.5563203000056,991.5396672000061,992.5396703000006,"[0, 0, 0]",1,990.5563183000049,992.5563338000065,,,,,,,,,,,,,,,,,8,f,2,14,r,AB,2022_Feb_08_1254,2020.2.10,distractmap2,59.97415113952638,"['Left Face', 'Chest', 'Right Face', 'Left Arm']",
2,"[0, 0.2]",0,,,,,0,4,4,4,,,,,,,,,,,,,,,,,,,,,,None,None,"[0, 0, 0]",992.6065930000041,None,992.6065930000041,993.6063464000035,993.5896792999993,None,"[0, 0, 0]",1,992.6065930000041,None,,,,,,,,,,,,,,,,,8,f,2,14,r,AB,2022_Feb_08_1254,2020.2.10,distractmap2,59.97415113952638,"['Left Face', 'Chest', 'Right Face', 'Left Arm']",
8,"[0, -0.2]",0,,,,,0,5,5,5,,,,,,,,,,,,,,,,,,,,,,None,None,"[0, 0, 0]",994.5896683000028,996.589695600007,994.5896683000028,995.589684999999,995.5725344999955,996.5730891999992,"[0, 0, 0]",1,994.5896683000028,996.589695600007,,,,,,,,,,,,,,,,,8,f,2,14,r,AB,2022_Feb_08_1254,2020.2.10,distractmap2,59.97415113952638,"['Left Face', 'Chest', 'Right Face', 'Left Arm']",
4,"[-0.2, 0]",0,,,,,0,6,6,6,,,,,,,,,,,,,,,,,,,,,,None,None,"[0, 0, 0]",996.6063608999975,998.6063930000091,996.6063608999975,997.6063843000011,997.5897039999982,998.5897183000052,"[0, 0, 0]",1,996.6063608999975,998.6063930000091,,,,,,,,,,,,,,,,,8,f,2,14,r,AB,2022_Feb_08_1254,2020.2.10,distractmap2,59.97415113952638,"['Left Face', 'Chest', 'Right Face', 'Left Arm']",
8,"[0, -0.2]",1,,,,,0,7,7,7,,,,,,,,,,,,,,,,,,,,,,None,None,"[0, 0, 0]",998.623050299997,1000.6230634999956,998.623050299997,999.6230641000002,999.6063939000014,1000.6063958000013,"[0, 0, 0]",1,998.623050299997,1000.6230634999956,,,,,,,,,,,,,,,,,8,f,2,14,r,AB,2022_Feb_08_1254,2020.2.10,distractmap2,59.97415113952638,"['Left Face', 'Chest', 'Right Face', 'Left Arm']",
7,"[-0.2, -0.2]",0,,,,,0,8,8,8,,,,,,,,,,,,,,,,,,,,,,None,None,"[0, 0, 0]",1000.6397265999985,1002.6397475999984,1000.6397265999985,1001.6397467000061,1001.623081800004,1002.6230685000046,"[0, 0, 0]",1,1000.6397265999985,1002.6397475999984,,,,,,,,,,,,,,,,,8,f,2,14,r,AB,2022_Feb_08_1254,2020.2.10,distractmap2,59.97415113952638,"['Left Face', 'Chest', 'Right Face', 'Left Arm']",
8,"[0, -0.2]",1,,,,,0,9,9,9,,,,,,,,,,,,,,,,,,,,,,None,None,"[0, 0, 0]",1002.6564262000029,1004.6564283000043,1002.6564262000029,1003.656427199996,1003.6397493999975,1004.6397513999982,"[0, 0, 0]",1,1002.6564262000029,1004.6564283000043,,,,,,,,,,,,,,,,,8,f,2,14,r,AB,2022_Feb_08_1254,2020.2.10,distractmap2,59.97415113952638,"['Left Face', 'Chest', 'Right Face', 'Left Arm']",
,,,,,,,,,,,1004.6730813000031,None,,,,,,,,,,,,,,,,,,,,,,,,,,,,,,,,,,,,,,,,19.50617283950617,724.1495779399847,,,,,,,,8,f,2,14,r,AB,2022_Feb_08_1254,2020.2.10,distractmap2,59.97415113952638,"['Left Face', 'Chest', 'Right Face', 'Left Arm']",
2,"[0, 0.2]",None,0,0,0,0,,,,,1017.9568697000068,None,1024.7232480999955,None,1024.7232480999955,1025.7232690000092,1025.7065910000092,1026.7066098000068,1,None,None,"[0, 0, 0]",,,1024.7232480999955,None,,,,,,,,,,,,,,,,,,,,,,,,,,,,0.014271460007876158,5.011401060008211,"[0, 0, 0]",,,,,8,f,2,14,r,AB,2022_Feb_08_1254,2020.2.10,distractmap2,59.97415113952638,"['Left Face', 'Chest', 'Right Face', 'Left Arm']",
8,"[0, -0.2]",0,0,1,1,1,,,,,,,1026.7232540999976,None,1026.7232540999976,1027.7232804000087,1027.7066182999988,1028.7066098000068,1,None,None,"[0, 0, 0]",,,1026.7232540999976,None,,,,,,,,,,,,,,,,,,,,,,,,,,,,,,"[0, 0, 0]",,,,,8,f,2,14,r,AB,2022_Feb_08_1254,2020.2.10,distractmap2,59.97415113952638,"['Left Face', 'Chest', 'Right Face', 'Left Arm']",
1,"[-0.2, 0.2]",0,0,2,2,2,,,,,,,1028.7232732999983,1028.7232732999983,1028.7232732999983,1029.7232978999964,1029.7066199999972,1030.7066435000015,1,None,None,"[0, 0, 0]",,,1028.7232732999983,1028.7232732999983,,,,,,,,,,,,,,,,,,,,,,,,,,,,,,"[0, 0, 0]",,,,,8,f,2,14,r,AB,2022_Feb_08_1254,2020.2.10,distractmap2,59.97415113952638,"['Left Face', 'Chest', 'Right Face', 'Left Arm']",
2,"[0, 0.2]",0,0,3,3,3,,,,,,,1030.723297500008,1030.723297500008,1030.723297500008,1031.7232939999958,1031.7066287000052,1032.7066317999997,1,None,None,"[0, 0, 0]",,,1030.723297500008,1030.723297500008,,,,,,,,,,,,,,,,,,,,,,,,,,,,,,"[0, 0, 0]",,,,,8,f,2,14,r,AB,2022_Feb_08_1254,2020.2.10,distractmap2,59.97415113952638,"['Left Face', 'Chest', 'Right Face', 'Left Arm']",
2,"[0, 0.2]",1,0,4,4,4,,,,,,,1032.7735187000071,1032.7735187000071,1032.7735187000071,1033.7732961000002,1033.7566462999966,None,1,None,None,"[0, 0, 0]",,,1032.7735187000071,1032.7735187000071,,,,,,,,,,,,,,,,,,,,,,,,,,,,,,"[0, 0, 0]",,,,,8,f,2,14,r,AB,2022_Feb_08_1254,2020.2.10,distractmap2,59.97415113952638,"['Left Face', 'Chest', 'Right Face', 'Left Arm']",
7,"[-0.2, -0.2]",0,0,5,5,5,,,,,,,1034.7400138000085,None,1034.7400138000085,1035.740020199999,1035.7233130999957,1036.723327300002,1,None,None,"[0, 0, 0]",,,1034.7400138000085,None,,,,,,,,,,,,,,,,,,,,,,,,,,,,,,"[0, 0, 0]",,,,,8,f,2,14,r,AB,2022_Feb_08_1254,2020.2.10,distractmap2,59.97415113952638,"['Left Face', 'Chest', 'Right Face', 'Left Arm']",
9,"[0.2, -0.2]",0,0,6,6,6,,,,,,,1036.7399983000068,1036.7399983000068,1036.7399983000068,1037.7400014000013,1037.723347799998,1038.7233577000006,1,None,None,"[0, 0, 0]",,,1036.7399983000068,1036.7399983000068,,,,,,,,,,,,,,,,,,,,,,,,,,,,,,"[0, 0, 0]",,,,,8,f,2,14,r,AB,2022_Feb_08_1254,2020.2.10,distractmap2,59.97415113952638,"['Left Face', 'Chest', 'Right Face', 'Left Arm']",
9,"[0.2, -0.2]",1,0,7,7,7,,,,,,,1038.7400407000096,1038.7400407000096,1038.7400407000096,1039.7400249000057,1039.7233666999964,1040.7233921000006,1,None,None,"[0, 0, 0]",,,1038.7400407000096,1038.7400407000096,,,,,,,,,,,,,,,,,,,,,,,,,,,,,,"[0, 0, 0]",,,,,8,f,2,14,r,AB,2022_Feb_08_1254,2020.2.10,distractmap2,59.97415113952638,"['Left Face', 'Chest', 'Right Face', 'Left Arm']",
4,"[-0.2, 0]",0,0,8,8,8,,,,,,,1040.7400423000072,1040.7400423000072,1040.7400423000072,1041.7400406000088,1041.7233667999972,1042.7233813000057,1,None,None,"[0, 0, 0]",,,1040.7400423000072,1040.7400423000072,,,,,,,,,,,,,,,,,,,,,,,,,,,,,,"[0, 0, 0]",,,,,8,f,2,14,r,AB,2022_Feb_08_1254,2020.2.10,distractmap2,59.97415113952638,"['Left Face', 'Chest', 'Right Face', 'Left Arm']",
5,"[0, 0]",0,0,9,9,9,,,,,,,1042.7400430999987,1042.7400430999987,1042.7400430999987,1043.7395916000096,1043.7233047000045,1044.723415200002,1,None,None,"[0, 0, 0]",,,1042.7400430999987,1042.7400430999987,,,,,,,,,,,,,,,,,,,,,,,,,,,,,,"[0, 0, 0]",,,,,8,f,2,14,r,AB,2022_Feb_08_1254,2020.2.10,distractmap2,59.97415113952638,"['Left Face', 'Chest', 'Right Face', 'Left Arm']",
,,,,,,,,,,,1044.7400676999969,None,,,,,,,,,,,,,,,,,,,,,,,,,,,,,,,,,,,,,,,,21.48148148148148,767.8322622400156,,,,,,,,8,f,2,14,r,AB,2022_Feb_08_1254,2020.2.10,distractmap2,59.97415113952638,"['Left Face', 'Chest', 'Right Face', 'Left Arm']",
2,"[0, 0.2]",None,0,0,0,0,,,,,1060.6569692000048,None,1064.7735672999988,None,1064.7735672999988,1065.7735835000058,1065.756899800006,1066.7569030000013,1,None,None,"[0, 0, 0]",,,1064.7735672999988,None,,,,,,,,,,,,,,,,,,,,,,,,,,,,0.015253659978043288,5.013432859981549,"[0, 0, 0]",,,,,8,f,2,14,r,AB,2022_Feb_08_1254,2020.2.10,distractmap2,59.97415113952638,"['Left Face', 'Chest', 'Right Face', 'Left Arm']",
2,"[0, 0.2]",1,0,1,1,1,,,,,,,1066.7735869000026,1066.7735869000026,1066.7735869000026,1067.7735939999984,1067.7569201000006,1068.7569150000054,1,None,None,"[0, 0, 0]",,,1066.7735869000026,1066.7735869000026,,,,,,,,,,,,,,,,,,,,,,,,,,,,,,"[0, 0, 0]",,,,,8,f,2,14,r,AB,2022_Feb_08_1254,2020.2.10,distractmap2,59.97415113952638,"['Left Face', 'Chest', 'Right Face', 'Left Arm']",
1,"[-0.2, 0.2]",0,0,2,2,2,,,,,,,1068.7736416999978,1068.7736416999978,1068.7736416999978,1069.7736117000022,1069.756919499996,1070.7569302000047,1,None,None,"[0, 0, 0]",,,1068.7736416999978,1068.7736416999978,,,,,,,,,,,,,,,,,,,,,,,,,,,,,,"[0, 0, 0]",,,,,8,f,2,14,r,AB,2022_Feb_08_1254,2020.2.10,distractmap2,59.97415113952638,"['Left Face', 'Chest', 'Right Face', 'Left Arm']",
2,"[0, 0.2]",0,0,3,3,3,,,,,,,1070.7736180000065,1070.7736180000065,1070.7736180000065,1071.773630399999,1071.756935700003,1072.7569399000058,1,None,None,"[0, 0, 0]",,,1070.7736180000065,1070.7736180000065,,,,,,,,,,,,,,,,,,,,,,,,,,,,,,"[0, 0, 0]",,,,,8,f,2,14,r,AB,2022_Feb_08_1254,2020.2.10,distractmap2,59.97415113952638,"['Left Face', 'Chest', 'Right Face', 'Left Arm']",
2,"[0, 0.2]",1,0,4,4,4,,,,,,,1072.8404997000034,1072.8404997000034,1072.8404997000034,1073.8403005,1073.823637900001,None,1,None,None,"[0, 0, 0]",,,1072.8404997000034,1072.8404997000034,,,,,,,,,,,,,,,,,,,,,,,,,,,,,,"[0, 0, 0]",,,,,8,f,2,14,r,AB,2022_Feb_08_1254,2020.2.10,distractmap2,59.97415113952638,"['Left Face', 'Chest', 'Right Face', 'Left Arm']",
4,"[-0.2, 0]",0,0,5,5,5,,,,,,,1074.7902869999962,None,1074.7902869999962,1075.790317100007,1075.7736389000056,1076.7736538000026,1,None,None,"[0, 0, 0]",,,1074.7902869999962,None,,,,,,,,,,,,,,,,,,,,,,,,,,,,,,"[0, 0, 0]",,,,,8,f,2,14,r,AB,2022_Feb_08_1254,2020.2.10,distractmap2,59.97415113952638,"['Left Face', 'Chest', 'Right Face', 'Left Arm']",
6,"[0.2, 0]",0,0,6,6,6,,,,,,,1076.7903230000084,1076.7903230000084,1076.7903230000084,1077.7903132000065,1077.7736547999957,1078.7736528999958,1,None,None,"[0, 0, 0]",,,1076.7903230000084,1076.7903230000084,,,,,,,,,,,,,,,,,,,,,,,,,,,,,,"[0, 0, 0]",,,,,8,f,2,14,r,AB,2022_Feb_08_1254,2020.2.10,distractmap2,59.97415113952638,"['Left Face', 'Chest', 'Right Face', 'Left Arm']",
8,"[0, -0.2]",0,0,7,7,7,,,,,,,1078.7903247000067,1078.7903247000067,1078.7903247000067,1079.790341,1079.773679799997,1080.7736844000028,1,None,None,"[0, 0, 0]",,,1078.7903247000067,1078.7903247000067,,,,,,,,,,,,,,,,,,,,,,,,,,,,,,"[0, 0, 0]",,,,,8,f,2,14,r,AB,2022_Feb_08_1254,2020.2.10,distractmap2,59.97415113952638,"['Left Face', 'Chest', 'Right Face', 'Left Arm']",
9,"[0.2, -0.2]",0,0,8,8,8,,,,,,,1080.7903469000012,1080.7903469000012,1080.7903469000012,1081.7903447999997,1081.773681999999,1082.7737013000005,1,None,None,"[0, 0, 0]",,,1080.7903469000012,1080.7903469000012,,,,,,,,,,,,,,,,,,,,,,,,,,,,,,"[0, 0, 0]",,,,,8,f,2,14,r,AB,2022_Feb_08_1254,2020.2.10,distractmap2,59.97415113952638,"['Left Face', 'Chest', 'Right Face', 'Left Arm']",
9,"[0.2, -0.2]",1,0,9,9,9,,,,,,,1082.7903684000048,1082.7903684000048,1082.7903684000048,1083.7903815000027,1083.7737077000056,1084.7737209000043,1,None,None,"[0, 0, 0]",,,1082.7903684000048,1082.7903684000048,,,,,,,,,,,,,,,,,,,,,,,,,,,,,,"[0, 0, 0]",,,,,8,f,2,14,r,AB,2022_Feb_08_1254,2020.2.10,distractmap2,59.97415113952638,"['Left Face', 'Chest', 'Right Face', 'Left Arm']",
,,,,,,,,,,,1084.7898696000047,None,,,,,,,,,,,,,,,,,,,,,,,,,,,,,,,,,,,,,,,,18.45679012345679,805.5995141400053,,,,,,,,8,f,2,14,r,AB,2022_Feb_08_1254,2020.2.10,distractmap2,59.97415113952638,"['Left Face', 'Chest', 'Right Face', 'Left Arm']",
4,"[-0.2, 0]",None,0,0,0,0,,,,,1098.0240606000007,None,1104.8239015,None,1104.8239015,1105.823877600007,1105.8071896000038,1106.8072157999995,1,None,None,"[0, 0, 0]",,,1104.8239015,None,,,,,,,,,,,,,,,,,,,,,,,,,,,,0.014973959987401031,5.012792059977073,"[0, 0, 0]",,,,,8,f,2,14,r,AB,2022_Feb_08_1254,2020.2.10,distractmap2,59.97415113952638,"['Left Face', 'Chest', 'Right Face', 'Left Arm']",
7,"[-0.2, -0.2]",0,0,1,1,1,,,,,,,1106.823878299998,1106.823878299998,1106.823878299998,1107.8238905000035,1107.8072156999988,1108.8072207000077,1,None,None,"[0, 0, 0]",,,1106.823878299998,1106.823878299998,,,,,,,,,,,,,,,,,,,,,,,,,,,,,,"[0, 0, 0]",,,,,8,f,2,14,r,AB,2022_Feb_08_1254,2020.2.10,distractmap2,59.97415113952638,"['Left Face', 'Chest', 'Right Face', 'Left Arm']",
7,"[-0.2, -0.2]",1,0,2,2,2,,,,,,,1108.8239021000045,1108.8239021000045,1108.8239021000045,1109.8238992999977,1109.8072362000094,1110.8072410000023,1,None,None,"[0, 0, 0]",,,1108.8239021000045,1108.8239021000045,,,,,,,,,,,,,,,,,,,,,,,,,,,,,,"[0, 0, 0]",,,,,8,f,2,14,r,AB,2022_Feb_08_1254,2020.2.10,distractmap2,59.97415113952638,"['Left Face', 'Chest', 'Right Face', 'Left Arm']",
4,"[-0.2, 0]",0,0,3,3,3,,,,,,,1110.8239151000016,1110.8239151000016,1110.8239151000016,1111.8239233000058,1111.8072449000028,1112.8072572999954,1,None,None,"[0, 0, 0]",,,1110.8239151000016,1110.8239151000016,,,,,,,,,,,,,,,,,,,,,,,,,,,,,,"[0, 0, 0]",,,,,8,f,2,14,r,AB,2022_Feb_08_1254,2020.2.10,distractmap2,59.97415113952638,"['Left Face', 'Chest', 'Right Face', 'Left Arm']",
8,"[0, -0.2]",0,0,4,4,4,,,,,,,1112.8739640999993,1112.8739640999993,1112.8739640999993,1113.8739528000006,1113.8739528000006,None,1,None,None,"[0, 0, 0]",,,1112.8739640999993,1112.8739640999993,,,,,,,,,,,,,,,,,,,,,,,,,,,,,,"[0, 0, 0]",,,,,8,f,2,14,r,AB,2022_Feb_08_1254,2020.2.10,distractmap2,59.97415113952638,"['Left Face', 'Chest', 'Right Face', 'Left Arm']",
4,"[-0.2, 0]",0,0,5,5,5,,,,,,,1114.8406154999975,None,1114.8406154999975,1115.8406150000083,1115.823947500001,1116.823953500003,0,None,None,"[0, 0, 0]",,,1114.8406154999975,None,,,,,,,,,,,,,,,,,,,,,,,,,,,,,,"[0, 0, 0]",,,,,8,f,2,14,r,AB,2022_Feb_08_1254,2020.2.10,distractmap2,59.97415113952638,"['Left Face', 'Chest', 'Right Face', 'Left Arm']",
7,"[-0.2, -0.2]",0,0,6,6,6,,,,,,,1116.840641200004,1116.840641200004,1116.840641200004,1117.8405247000046,1117.8239601999958,1118.823965100004,1,None,None,"[0, 0, 0]",,,1116.840641200004,1116.840641200004,,,,,,,,,,,,,,,,,,,,,,,,,,,,,,"[0, 0, 0]",,,,,8,f,2,14,r,AB,2022_Feb_08_1254,2020.2.10,distractmap2,59.97415113952638,"['Left Face', 'Chest', 'Right Face', 'Left Arm']",
6,"[0.2, 0]",0,0,7,7,7,,,,,,,1118.8406445,1118.8406445,1118.8406445,1119.8406645000068,1119.8239838000009,1120.8239992000017,1,None,None,"[0, 0, 0]",,,1118.8406445,1118.8406445,,,,,,,,,,,,,,,,,,,,,,,,,,,,,,"[0, 0, 0]",,,,,8,f,2,14,r,AB,2022_Feb_08_1254,2020.2.10,distractmap2,59.97415113952638,"['Left Face', 'Chest', 'Right Face', 'Left Arm']",
6,"[0.2, 0]",1,0,8,8,8,,,,,,,1120.8406530000066,1120.8406530000066,1120.8406530000066,1121.8406764999963,1121.823990200006,1122.823999500004,1,None,None,"[0, 0, 0]",,,1120.8406530000066,1120.8406530000066,,,,,,,,,,,,,,,,,,,,,,,,,,,,,,"[0, 0, 0]",,,,,8,f,2,14,r,AB,2022_Feb_08_1254,2020.2.10,distractmap2,59.97415113952638,"['Left Face', 'Chest', 'Right Face', 'Left Arm']",
1,"[-0.2, 0.2]",0,0,9,9,9,,,,,,,1122.8406684000074,1122.8406684000074,1122.8406684000074,1123.8406813000038,1123.8240191000077,1124.8240089000028,1,None,None,"[0, 0, 0]",,,1122.8406684000074,1122.8406684000074,,,,,,,,,,,,,,,,,,,,,,,,,,,,,,"[0, 0, 0]",,,,,8,f,2,14,r,AB,2022_Feb_08_1254,2020.2.10,distractmap2,59.97415113952638,"['Left Face', 'Chest', 'Right Face', 'Left Arm']",
,,,,,,,,,,,1124.8406797000061,None,,,,,,,,,,,,,,,,,,,,,,,,,,,,,,,,,,,,,,,,22.839506172839506,843.7337690399872,,,,,,,,8,f,2,14,r,AB,2022_Feb_08_1254,2020.2.10,distractmap2,59.97415113952638,"['Left Face', 'Chest', 'Right Face', 'Left Arm']",
2,"[0, 0.2]",None,,,,,0,0,0,0,1138.1077824000095,None,,,,,,,,,,,,,,,,,,,,None,None,"[0, 0, 0]",1144.8908498999954,1146.8908510000037,1144.8908498999954,1145.8908382000081,1145.8741786000028,1146.8741978000035,"[0, 0, 0]",1,1144.8908498999954,1146.8908510000037,,,,,,,,,,0.014356660001794808,5.011531160009326,,,,,,8,f,2,14,r,AB,2022_Feb_08_1254,2020.2.10,distractmap2,59.97415113952638,"['Left Face', 'Chest', 'Right Face', 'Left Arm']",
2,"[0, 0.2]",None,,,,,0,1,1,1,,,,,,,,,,,,,,,,,,,,,,None,None,"[0, 0, 0]",1146.9075277000084,1148.9075563000079,1146.9075277000084,1147.9075336999958,1147.8908667000069,1148.8908739000035,"[0, 0, 0]",1,1146.9075277000084,1148.9075563000079,,,,,,,,,,,,,,,,,8,f,2,14,r,AB,2022_Feb_08_1254,2020.2.10,distractmap2,59.97415113952638,"['Left Face', 'Chest', 'Right Face', 'Left Arm']",
2,"[0, 0.2]",1,,,,,0,2,2,2,,,,,,,,,,,,,,,,,,,,,,None,None,"[0, 0, 0]",1148.9242154999956,1150.924217599997,1148.9242154999956,1149.9242207000061,1149.9075587999978,1150.9074408000015,"[0, 0, 0]",1,1148.9242154999956,1150.924217599997,,,,,,,,,,,,,,,,,8,f,2,14,r,AB,2022_Feb_08_1254,2020.2.10,distractmap2,59.97415113952638,"['Left Face', 'Chest', 'Right Face', 'Left Arm']",
8,"[0, -0.2]",0,,,,,0,3,3,3,,,,,,,,,,,,,,,,,,,,,,None,None,"[0, 0, 0]",1150.9408791000023,1152.9409041000035,1150.9408791000023,1151.9408991000091,1151.9242388999992,1152.9242356000032,"[0, 0, 0]",1,1150.9408791000023,1152.9409041000035,,,,,,,,,,,,,,,,,8,f,2,14,r,AB,2022_Feb_08_1254,2020.2.10,distractmap2,59.97415113952638,"['Left Face', 'Chest', 'Right Face', 'Left Arm']",
2,"[0, 0.2]",1,,,,,0,4,4,4,,,,,,,,,,,,,,,,,,,,,,None,None,"[0, 0, 0]",1152.9575055000023,1154.9574719000084,1152.9575055000023,1153.9575899000047,1153.9575899000047,1154.9574719000084,"[0, 0, 0]",1,1152.9575055000023,1154.9574719000084,,,,,,,,,,,,,,,,,8,f,2,14,r,AB,2022_Feb_08_1254,2020.2.10,distractmap2,59.97415113952638,"['Left Face', 'Chest', 'Right Face', 'Left Arm']",
5,"[0, 0]",0,,,,,0,5,5,5,,,,,,,,,,,,,,,,,,,,,,None,None,"[0, 0, 0]",1154.9742451000056,1156.9742702000076,1154.9742451000056,1155.9741570000042,1155.9576129000052,1156.9576048000017,"[0, 0, 0]",1,1154.9742451000056,1156.9742702000076,,,,,,,,,,,,,,,,,8,f,2,14,r,AB,2022_Feb_08_1254,2020.2.10,distractmap2,59.97415113952638,"['Left Face', 'Chest', 'Right Face', 'Left Arm']",
1,"[-0.2, 0.2]",0,,,,,0,6,6,6,,,,,,,,,,,,,,,,,,,,,,None,None,"[0, 0, 0]",1156.9908805000014,1158.9909464000084,1156.9908805000014,1157.9909425000078,1157.9742740000074,1158.974283500007,"[0, 0, 0]",1,1156.9908805000014,1158.9909464000084,,,,,,,,,,,,,,,,,8,f,2,14,r,AB,2022_Feb_08_1254,2020.2.10,distractmap2,59.97415113952638,"['Left Face', 'Chest', 'Right Face', 'Left Arm']",
1,"[-0.2, 0.2]",0,,,,,0,7,7,7,,,,,,,,,,,,,,,,,,,,,,None,None,"[0, 0, 0]",1159.0076319000073,1161.0076407000015,1159.0076319000073,1160.0076281000074,1159.9909602999978,1160.990954599998,"[0, 0, 0]",1,1159.0076319000073,1161.0076407000015,,,,,,,,,,,,,,,,,8,f,2,14,r,AB,2022_Feb_08_1254,2020.2.10,distractmap2,59.97415113952638,"['Left Face', 'Chest', 'Right Face', 'Left Arm']",
6,"[0.2, 0]",0,,,,,0,8,8,8,,,,,,,,,,,,,,,,,,,,,,None,None,"[0, 0, 0]",1161.0243084999966,1163.0243120000086,1161.0243084999966,1162.024313700007,1162.007650200001,1163.0076601000037,"[0, 0, 0]",1,1161.0243084999966,1163.0243120000086,,,,,,,,,,,,,,,,,8,f,2,14,r,AB,2022_Feb_08_1254,2020.2.10,distractmap2,59.97415113952638,"['Left Face', 'Chest', 'Right Face', 'Left Arm']",
1,"[-0.2, 0.2]",1,,,,,0,9,9,9,,,,,,,,,,,,,,,,,,,,,,None,None,"[0, 0, 0]",1163.0409762000054,1165.0409948000015,1163.0409762000054,1164.040986100008,1164.0243331999955,1165.024338800009,"[0, 0, 0]",1,1163.0409762000054,1165.0409948000015,,,,,,,,,,,,,,,,,8,f,2,14,r,AB,2022_Feb_08_1254,2020.2.10,distractmap2,59.97415113952638,"['Left Face', 'Chest', 'Right Face', 'Left Arm']",
,,,,,,,,,,,1165.0576735000068,None,,,,,,,,,,,,,,,,,,,,,,,,,,,,,,,,,,,,,,,,21.23456790123457,889.384038239994,,,,,,,,8,f,2,14,r,AB,2022_Feb_08_1254,2020.2.10,distractmap2,59.97415113952638,"['Left Face', 'Chest', 'Right Face', 'Left Arm']",
3,"[0.2, 0.2]",None,,,,,0,0,0,0,1363.1928875000012,None,,,,,,,,,,,,,,,,,,,,None,None,"[0, 0, 0]",1365.8092073000007,None,1365.8092073000007,1366.8092326000042,1366.7925702000066,1367.7925782000093,"[0, 0, 0]",1,1365.8092073000007,None,1223.9250383000035,1223.9250383000035,None,space,115.92767310001364,1223.9250383000035,None,,,0.014420659994357266,5.0117109599814285,,,,,,8,f,2,14,r,AB,2022_Feb_08_1254,2020.2.10,distractmap2,59.97415113952638,"['Left Face', 'Chest', 'Right Face', 'Left Arm']",
3,"[0.2, 0.2]",None,,,,,0,1,1,1,,,,,,,,,,,,,,,,,,,,,,None,None,"[0, 0, 0]",1367.809233699998,1369.809241199997,1367.809233699998,1368.8092488999973,1368.792577900007,1369.7925916999957,"[0, 0, 0]",1,1367.809233699998,1369.809241199997,,,,,,,,,,,,,,,,,8,f,2,14,r,AB,2022_Feb_08_1254,2020.2.10,distractmap2,59.97415113952638,"['Left Face', 'Chest', 'Right Face', 'Left Arm']",
5,"[0, 0]",0,,,,,0,2,2,2,,,,,,,,,,,,,,,,,,,,,,None,None,"[0, 0, 0]",1369.825929700004,1371.825927900005,1369.825929700004,1370.825933,1370.8092520000064,1371.8092695000087,"[0, 0, 0]",1,1369.825929700004,1371.825927900005,,,,,,,,,,,,,,,,,8,f,2,14,r,AB,2022_Feb_08_1254,2020.2.10,distractmap2,59.97415113952638,"['Left Face', 'Chest', 'Right Face', 'Left Arm']",
1,"[-0.2, 0.2]",0,,,,,0,3,3,3,,,,,,,,,,,,,,,,,,,,,,None,None,"[0, 0, 0]",1371.8426204999996,1373.8426178000082,1371.8426204999996,1372.8426106999977,1372.8259388000006,1373.8259591000096,"[0, 0, 0]",1,1371.8426204999996,1373.8426178000082,,,,,,,,,,,,,,,,,8,f,2,14,r,AB,2022_Feb_08_1254,2020.2.10,distractmap2,59.97415113952638,"['Left Face', 'Chest', 'Right Face', 'Left Arm']",
5,"[0, 0]",1,,,,,0,4,4,4,,,,,,,,,,,,,,,,,,,,,,None,None,"[0, 0, 0]",1373.8929287000065,None,1373.8929287000065,1374.8926302000036,1374.8759611999994,None,"[0, 0, 0]",1,1373.8929287000065,None,,,,,,,,,,,,,,,,,8,f,2,14,r,AB,2022_Feb_08_1254,2020.2.10,distractmap2,59.97415113952638,"['Left Face', 'Chest', 'Right Face', 'Left Arm']",
8,"[0, -0.2]",0,,,,,0,5,5,5,,,,,,,,,,,,,,,,,,,,,,None,None,"[0, 0, 0]",1375.875954300005,1377.875983799997,1375.875954300005,1376.875964699997,1376.8593258000037,1377.8593131000089,"[0, 0, 0]",1,1375.875954300005,1377.875983799997,,,,,,,,,,,,,,,,,8,f,2,14,r,AB,2022_Feb_08_1254,2020.2.10,distractmap2,59.97415113952638,"['Left Face', 'Chest', 'Right Face', 'Left Arm']",
5,"[0, 0]",1,,,,,0,6,6,6,,,,,,,,,,,,,,,,,,,,,,None,None,"[0, 0, 0]",1377.8926493000035,1379.892667799999,1377.8926493000035,1378.8926527000003,1378.8759856999968,1379.8760005000076,"[0, 0, 0]",1,1377.8926493000035,1379.892667799999,,,,,,,,,,,,,,,,,8,f,2,14,r,AB,2022_Feb_08_1254,2020.2.10,distractmap2,59.97415113952638,"['Left Face', 'Chest', 'Right Face', 'Left Arm']",
7,"[-0.2, -0.2]",0,,,,,0,7,7,7,,,,,,,,,,,,,,,,,,,,,,None,None,"[0, 0, 0]",1379.9093213000015,1381.9093346000009,1379.9093213000015,1380.9093471000087,1380.8926713999972,1381.8926949000015,"[0, 0, 0]",1,1379.9093213000015,1381.9093346000009,,,,,,,,,,,,,,,,,8,f,2,14,r,AB,2022_Feb_08_1254,2020.2.10,distractmap2,59.97415113952638,"['Left Face', 'Chest', 'Right Face', 'Left Arm']",
5,"[0, 0]",1,,,,,0,8,8,8,,,,,,,,,,,,,,,,,,,,,,None,None,"[0, 0, 0]",1381.926020400002,1383.9260266000056,1381.926020400002,1382.9260118999955,1382.9093469000072,1383.9093640000065,"[0, 0, 0]",1,1381.926020400002,1383.9260266000056,,,,,,,,,,,,,,,,,8,f,2,14,r,AB,2022_Feb_08_1254,2020.2.10,distractmap2,59.97415113952638,"['Left Face', 'Chest', 'Right Face', 'Left Arm']",
7,"[-0.2, -0.2]",1,,,,,0,9,9,9,,,,,,,,,,,,,,,,,,,,,,None,None,"[0, 0, 0]",1383.942695500009,1385.942710999996,1383.942695500009,1384.9427034999972,1384.9260237999988,1385.9260465999978,"[0, 0, 0]",1,1383.942695500009,1385.942710999996,,,,,,,,,,,,,,,,,8,f,2,14,r,AB,2022_Feb_08_1254,2020.2.10,distractmap2,59.97415113952638,"['Left Face', 'Chest', 'Right Face', 'Left Arm']",
,,,,,,,,,,,1385.9593748000043,None,,,,,,,,,,,,,,,,,,,,,,,,,,,,,,,,,,,,,,,,32.59259259259259,1106.085192440005,,,,,,,,8,f,2,14,r,AB,2022_Feb_08_1254,2020.2.10,distractmap2,59.97415113952638,"['Left Face', 'Chest', 'Right Face', 'Left Arm']",
5,"[0, 0]",None,0,0,0,0,,,,,1401.1940587999998,None,1406.0094862999977,None,1406.0094862999977,1407.009545000008,1406.9928636999975,1407.9928807999968,1,None,None,"[0, 0, 0]",,,1406.0094862999977,None,,,,,,,,,,,,,,,,,,,,,,,,,,,,0.014958059982745908,5.012741459984682,"[0, 0, 0]",,,,,8,f,2,14,r,AB,2022_Feb_08_1254,2020.2.10,distractmap2,59.97415113952638,"['Left Face', 'Chest', 'Right Face', 'Left Arm']",
5,"[0, 0]",1,0,1,1,1,,,,,,,1408.009580500002,1408.009580500002,1408.009580500002,1409.009576700002,1408.992887600005,1409.9928919000085,1,None,None,"[0, 0, 0]",,,1408.009580500002,1408.009580500002,,,,,,,,,,,,,,,,,,,,,,,,,,,,,,"[0, 0, 0]",,,,,8,f,2,14,r,AB,2022_Feb_08_1254,2020.2.10,distractmap2,59.97415113952638,"['Left Face', 'Chest', 'Right Face', 'Left Arm']",
4,"[-0.2, 0]",0,0,2,2,2,,,,,,,1410.009567800007,1410.009567800007,1410.009567800007,1411.0095912999968,1410.9929027000035,1411.9929121000023,1,None,None,"[0, 0, 0]",,,1410.009567800007,1410.009567800007,,,,,,,,,,,,,,,,,,,,,,,,,,,,,,"[0, 0, 0]",,,,,8,f,2,14,r,AB,2022_Feb_08_1254,2020.2.10,distractmap2,59.97415113952638,"['Left Face', 'Chest', 'Right Face', 'Left Arm']",
2,"[0, 0.2]",0,0,3,3,3,,,,,,,1412.009581300008,1412.009581300008,1412.009581300008,1413.0096006000094,1412.9929129000084,1413.9928688000073,1,None,None,"[0, 0, 0]",,,1412.009581300008,1412.009581300008,,,,,,,,,,,,,,,,,,,,,,,,,,,,,,"[0, 0, 0]",,,,,8,f,2,14,r,AB,2022_Feb_08_1254,2020.2.10,distractmap2,59.97415113952638,"['Left Face', 'Chest', 'Right Face', 'Left Arm']",
6,"[0.2, 0]",0,0,4,4,4,,,,,,,1414.0599106000009,1414.0599106000009,1414.0599106000009,1415.0596100999974,1415.042932299999,None,1,None,None,"[0, 0, 0]",,,1414.0599106000009,1414.0599106000009,,,,,,,,,,,,,,,,,,,,,,,,,,,,,,"[0, 0, 0]",,,,,8,f,2,14,r,AB,2022_Feb_08_1254,2020.2.10,distractmap2,59.97415113952638,"['Left Face', 'Chest', 'Right Face', 'Left Arm']",
8,"[0, -0.2]",0,0,5,5,5,,,,,,,1416.0262762000057,None,1416.0262762000057,1417.0262903999974,1417.009636200004,1418.0096336999995,1,None,None,"[0, 0, 0]",,,1416.0262762000057,None,,,,,,,,,,,,,,,,,,,,,,,,,,,,,,"[0, 0, 0]",,,,,8,f,2,14,r,AB,2022_Feb_08_1254,2020.2.10,distractmap2,59.97415113952638,"['Left Face', 'Chest', 'Right Face', 'Left Arm']",
1,"[-0.2, 0.2]",0,0,6,6,6,,,,,,,1418.0262962999986,1418.0262962999986,1418.0262962999986,1419.0263015999953,1419.0096435000014,1420.0096623999998,1,None,None,"[0, 0, 0]",,,1418.0262962999986,1418.0262962999986,,,,,,,,,,,,,,,,,,,,,,,,,,,,,,"[0, 0, 0]",,,,,8,f,2,14,r,AB,2022_Feb_08_1254,2020.2.10,distractmap2,59.97415113952638,"['Left Face', 'Chest', 'Right Face', 'Left Arm']",
4,"[-0.2, 0]",0,0,7,7,7,,,,,,,1420.026314200004,1420.026314200004,1420.026314200004,1421.0263131999964,1421.0096508999995,1422.0096564999985,1,None,None,"[0, 0, 0]",,,1420.026314200004,1420.026314200004,,,,,,,,,,,,,,,,,,,,,,,,,,,,,,"[0, 0, 0]",,,,,8,f,2,14,r,AB,2022_Feb_08_1254,2020.2.10,distractmap2,59.97415113952638,"['Left Face', 'Chest', 'Right Face', 'Left Arm']",
8,"[0, -0.2]",0,0,8,8,8,,,,,,,1422.0262271999964,1422.0262271999964,1422.0262271999964,1423.0263378999953,1423.0096640999982,1424.0096776999999,1,None,None,"[0, 0, 0]",,,1422.0262271999964,1422.0262271999964,,,,,,,,,,,,,,,,,,,,,,,,,,,,,,"[0, 0, 0]",,,,,8,f,2,14,r,AB,2022_Feb_08_1254,2020.2.10,distractmap2,59.97415113952638,"['Left Face', 'Chest', 'Right Face', 'Left Arm']",
8,"[0, -0.2]",1,0,9,9,9,,,,,,,1424.0263491000078,1424.0263491000078,1424.0263491000078,1425.0263425000012,1425.0096947999991,1426.0096939000068,1,None,None,"[0, 0, 0]",,,1424.0263491000078,1424.0263491000078,,,,,,,,,,,,,,,,,,,,,,,,,,,,,,"[0, 0, 0]",,,,,8,f,2,14,r,AB,2022_Feb_08_1254,2020.2.10,distractmap2,59.97415113952638,"['Left Face', 'Chest', 'Right Face', 'Left Arm']",
,,,,,,,,,,,1426.0263577000005,None,,,,,,,,,,,,,,,,,,,,,,,,,,,,,,,,,,,,,,,,33.580246913580254,1146.3355346399912,,,,,,,,8,f,2,14,r,AB,2022_Feb_08_1254,2020.2.10,distractmap2,59.97415113952638,"['Left Face', 'Chest', 'Right Face', 'Left Arm']",
6,"[0.2, 0]",None,,,,,0,0,0,0,1441.9601422999986,None,,,,,,,,,,,,,,,,,,,,None,None,"[0, 0, 0]",1446.043166000003,1448.0431955000095,1446.043166000003,1447.0431749999989,1447.0265073000046,1448.0265172000072,"[0, 0, 0]",1,1446.043166000003,1448.0431955000095,,,,,,,,,,0.014958159998059273,5.012777659998392,,,,,,8,f,2,14,r,AB,2022_Feb_08_1254,2020.2.10,distractmap2,59.97415113952638,"['Left Face', 'Chest', 'Right Face', 'Left Arm']",
1,"[-0.2, 0.2]",None,,,,,0,1,1,1,,,,,,,,,,,,,,,,,,,,,,None,None,"[0, 0, 0]",1448.0598580000078,1450.0598712000065,1448.0598580000078,1449.0598589,1449.0432028000068,1450.0431968000048,"[0, 0, 0]",1,1448.0598580000078,1450.0598712000065,,,,,,,,,,,,,,,,,8,f,2,14,r,AB,2022_Feb_08_1254,2020.2.10,distractmap2,59.97415113952638,"['Left Face', 'Chest', 'Right Face', 'Left Arm']",
6,"[0.2, 0]",1,,,,,0,2,2,2,,,,,,,,,,,,,,,,,,,,,,None,None,"[0, 0, 0]",1450.0765344999963,1452.0765534999955,1450.0765344999963,1451.0765382999962,1451.059874300001,1452.0598804000037,"[0, 0, 0]",1,1450.0765344999963,1452.0765534999955,,,,,,,,,,,,,,,,,8,f,2,14,r,AB,2022_Feb_08_1254,2020.2.10,distractmap2,59.97415113952638,"['Left Face', 'Chest', 'Right Face', 'Left Arm']",
4,"[-0.2, 0]",0,,,,,0,3,3,3,,,,,,,,,,,,,,,,,,,,,,None,None,"[0, 0, 0]",1452.0932193000044,1454.0932333999954,1452.0932193000044,1453.0932193000044,1453.0765840000095,1454.0765902999992,"[0, 0, 0]",1,1452.0932193000044,1454.0932333999954,,,,,,,,,,,,,,,,,8,f,2,14,r,AB,2022_Feb_08_1254,2020.2.10,distractmap2,59.97415113952638,"['Left Face', 'Chest', 'Right Face', 'Left Arm']",
1,"[-0.2, 0.2]",0,,,,,0,4,4,4,,,,,,,,,,,,,,,,,,,,,,None,None,"[0, 0, 0]",1454.1599224999954,None,1454.1599224999954,1455.1599016999971,1455.1432384000072,None,"[0, 0, 0]",0,1454.1599224999954,None,,,,,,,,,,,,,,,,,8,f,2,14,r,AB,2022_Feb_08_1254,2020.2.10,distractmap2,59.97415113952638,"['Left Face', 'Chest', 'Right Face', 'Left Arm']",
8,"[0, -0.2]",0,,,,,0,5,5,5,,,,,,,,,,,,,,,,,,,,,,None,None,"[0, 0, 0]",1456.1265920000005,1458.1266100000066,1456.1265920000005,1457.1266144999972,1457.1099278000038,1458.109933700005,"[0, 0, 0]",1,1456.1265920000005,1458.1266100000066,,,,,,,,,,,,,,,,,8,f,2,14,r,AB,2022_Feb_08_1254,2020.2.10,distractmap2,59.97415113952638,"['Left Face', 'Chest', 'Right Face', 'Left Arm']",
1,"[-0.2, 0.2]",1,,,,,0,6,6,6,,,,,,,,,,,,,,,,,,,,,,None,None,"[0, 0, 0]",1458.1432569000026,1460.1432862000074,1458.1432569000026,1459.1432772999979,1459.1266090999998,1460.126609400002,"[0, 0, 0]",1,1458.1432569000026,1460.1432862000074,,,,,,,,,,,,,,,,,8,f,2,14,r,AB,2022_Feb_08_1254,2020.2.10,distractmap2,59.97415113952638,"['Left Face', 'Chest', 'Right Face', 'Left Arm']",
8,"[0, -0.2]",1,,,,,0,7,7,7,,,,,,,,,,,,,,,,,,,,,,None,None,"[0, 0, 0]",1460.1599610999983,1462.1599645000097,1460.1599610999983,1461.159999800002,1461.1432983999985,1462.1432898000057,"[0, 0, 0]",1,1460.1599610999983,1462.1599645000097,,,,,,,,,,,,,,,,,8,f,2,14,r,AB,2022_Feb_08_1254,2020.2.10,distractmap2,59.97415113952638,"['Left Face', 'Chest', 'Right Face', 'Left Arm']",
1,"[-0.2, 0.2]",1,,,,,0,8,8,8,,,,,,,,,,,,,,,,,,,,,,None,None,"[0, 0, 0]",1462.1766436000034,1464.1766463000095,1462.1766436000034,1463.1766237999982,1463.1599748000008,1464.1599907000054,"[0, 0, 0]",1,1462.1766436000034,1464.1766463000095,,,,,,,,,,,,,,,,,8,f,2,14,r,AB,2022_Feb_08_1254,2020.2.10,distractmap2,59.97415113952638,"['Left Face', 'Chest', 'Right Face', 'Left Arm']",
6,"[0.2, 0]",0,,,,,0,9,9,9,,,,,,,,,,,,,,,,,,,,,,None,None,"[0, 0, 0]",1464.1933056999987,1466.1933416999964,1464.1933056999987,1465.1933322999976,1465.1766615000088,1466.1766748000082,"[0, 0, 0]",1,1464.1933056999987,1466.1933416999964,,,,,,,,,,,,,,,,,8,f,2,14,r,AB,2022_Feb_08_1254,2020.2.10,distractmap2,59.97415113952638,"['Left Face', 'Chest', 'Right Face', 'Left Arm']",
,,,,,,,,,,,1466.2099858000001,None,,,,,,,,,,,,,,,,,,,,,,,,,,,,,,,,,,,,,,,,35.24691358024691,1186.036137639996,,,,,,,,8,f,2,14,r,AB,2022_Feb_08_1254,2020.2.10,distractmap2,59.97415113952638,"['Left Face', 'Chest', 'Right Face', 'Left Arm']",
3,"[0.2, 0.2]",None,0,0,0,0,,,,,1481.4770523000043,None,1486.2601451000082,None,1486.2601451000082,1487.2601542000048,1487.243490599998,1488.2435002999991,1,None,None,"[0, 0, 0]",,,1486.2601451000082,None,,,,,,,,,,,,,,,,,,,,,,,,,,,,0.014627759999711998,5.012114459997974,"[0, 0, 0]",,,,,8,f,2,14,r,AB,2022_Feb_08_1254,2020.2.10,distractmap2,59.97415113952638,"['Left Face', 'Chest', 'Right Face', 'Left Arm']",
