BodySiteInstructionText.started,BodySiteImg.started,BodySiteImg.stopped,BodySiteInstructionRead.keys,BodySiteInstructionRead.rt,BodySiteInstructionRead.started,BodySiteInstructionRead.stopped,fixation.started,fixation.stopped,IntensityRating.response,IntensityRating.rt,IntensityRating.started,IntensityRating.stopped,ComfortRating.response,ComfortRating.rt,ComfortRating.started,ComfortRating.stopped,ValenceRating.response,ValenceRating.rt,ValenceRating.started,ValenceRating.stopped,AvoidRating.response,AvoidRating.rt,AvoidRating.started,AvoidRating.stopped,RelaxRating.response,RelaxRating.rt,RelaxRating.started,RelaxRating.stopped,TaskAttentionRating.response,TaskAttentionRating.rt,TaskAttentionRating.started,TaskAttentionRating.stopped,BoredomRating.response,BoredomRating.rt,BoredomRating.started,BoredomRating.stopped,AlertnessRating.response,AlertnessRating.rt,AlertnessRating.started,AlertnessRating.stopped,PosThxRating.response,PosThxRating.rt,PosThxRating.started,PosThxRating.stopped,NegThxRating.response,NegThxRating.rt,NegThxRating.started,NegThxRating.stopped,SelfRating.response,SelfRating.rt,SelfRating.started,SelfRating.stopped,OtherRating.response,OtherRating.rt,OtherRating.started,OtherRating.stopped,ImageryRating.response,ImageryRating.rt,ImageryRating.started,ImageryRating.stopped,PresentRating.response,PresentRating.rt,PresentRating.started,PresentRating.stopped,subject number,gender,session,handedness,scanner,run,experience(1) or regulate(2),date,psychopyVersion,expName,body_site_order,frameRate,
24.76537249982357,24.76537249982357,None,space,1.459733200026676,24.76537249982357,None,64.18230739980936,None,5.9259259259259265,57.56247984012589,,,,,,,,,,,,,,,,,,,,,,,,,,,,,,,,,,,,,,,,,,,,,,,,,,,,,,,7,f,17,r,MH,,2,2022_Jul_07_1502,2020.2.10,acceptmap-regulate,"['Right Face', 'Left Face', 'Right Face', 'Left Face']",59.9918170817774,
,,,,,,,92.19923739996739,None,21.48148148148148,83.57766434014775,0.014886460034176707,5.01234185998328,,,,,,,,,,,,,,,,,,,,,,,,,,,,,,,,,,,,,,,,,,,,,,,,,,,,,7,f,17,r,MH,,2,2022_Jul_07_1502,2020.2.10,acceptmap-regulate,"['Right Face', 'Left Face', 'Right Face', 'Left Face']",59.9918170817774,
,,,,,,,120.21615819982253,None,37.71604938271605,112.56118424003944,0.016586259938776493,5.015705960104242,,,,,,,,,,,,,,,,,,,,,,,,,,,,,,,,,,,,,,,,,,,,,,,,,,,,,7,f,17,r,MH,,2,2022_Jul_07_1502,2020.2.10,acceptmap-regulate,"['Right Face', 'Left Face', 'Right Face', 'Left Face']",59.9918170817774,
,,,,,,,148.23305969987996,None,35.98765432098765,140.13031724002212,0.016695959959179163,5.015870559960604,,,,,,,,,,,,,,,,,,,,,,,,,,,,,,,,,,,,,,,,,,,,,,,,,,,,,7,f,17,r,MH,,2,2022_Jul_07_1502,2020.2.10,acceptmap-regulate,"['Right Face', 'Left Face', 'Right Face', 'Left Face']",59.9918170817774,
,,,,,,,176.24997879983857,None,35.925925925925924,163.99621424032375,0.014433559961616993,5.01135756005533,,,,,,,,,,,,,,,,,,,,,,,,,,,,,,,,,,,,,,,,,,,,,,,,,,,,,7,f,17,r,MH,,2,2022_Jul_07_1502,2020.2.10,acceptmap-regulate,"['Right Face', 'Left Face', 'Right Face', 'Left Face']",59.9918170817774,
,,,,,,,204.26688819983974,None,30.432098765432098,193.24660253990442,0.01541465986520052,5.013304559979588,,,,,,,,,,,,,,,,,,,,,,,,,,,,,,,,,,,,,,,,,,,,,,,,,,,,,7,f,17,r,MH,,2,2022_Jul_07_1502,2020.2.10,acceptmap-regulate,"['Right Face', 'Left Face', 'Right Face', 'Left Face']",59.9918170817774,
,,,,,,,232.28383969981223,None,35.0,220.74765444011427,0.015220960136502981,5.012919760076329,,,,,,,,,,,,,,,,,,,,,,,,,,,,,,,,,,,,,,,,,,,,,,,,,,,,,7,f,17,r,MH,,2,2022_Jul_07_1502,2020.2.10,acceptmap-regulate,"['Right Face', 'Left Face', 'Right Face', 'Left Face']",59.9918170817774,
,,,,,,,260.3007521999534,None,36.54320987654321,252.41239004023373,0.014518959913402796,5.011568360030651,,,,,,,,,,,,,,,,,,,,,,,,,,,,,,,,,,,,,,,,,,,,,,,,,,,,,7,f,17,r,MH,,2,2022_Jul_07_1502,2020.2.10,acceptmap-regulate,"['Right Face', 'Left Face', 'Right Face', 'Left Face']",59.9918170817774,
,,,,,,,288.31771009997465,None,34.75308641975308,277.0144556402229,0.016700959764420986,5.015820359811187,,,,,,,,,,,,,,,,,,,,,,,,,,,,,,,,,,,,,,,,,,,,,,,,,,,,,7,f,17,r,MH,,2,2022_Jul_07_1502,2020.2.10,acceptmap-regulate,"['Right Face', 'Left Face', 'Right Face', 'Left Face']",59.9918170817774,
,,,,,,,316.3346008998342,None,31.48148148148148,306.5148126401473,0.014879859751090407,5.012249659746885,,,,,,,,,,,,,,,,,,,,,,,,,,,,,,,,,,,,,,,,,,,,,,,,,,,,,7,f,17,r,MH,,2,2022_Jul_07_1502,2020.2.10,acceptmap-regulate,"['Right Face', 'Left Face', 'Right Face', 'Left Face']",59.9918170817774,
,,,,,,,344.351524699945,None,31.17283950617284,337.72984714014456,0.014776459895074368,5.012114960001782,,,,,,,,,,,,,,,,,,,,,,,,,,,,,,,,,,,,,,,,,,,,,,,,,,,,,7,f,17,r,MH,,2,2022_Jul_07_1502,2020.2.10,acceptmap-regulate,"['Right Face', 'Left Face', 'Right Face', 'Left Face']",59.9918170817774,
,,,,,,,372.36843379982747,None,31.790123456790127,363.0151254404336,0.01669955998659134,5.016037059947848,,,,,,,,,,,,,,,,,,,,,,,,,,,,,,,,,,,,,,,,,,,,,,,,,,,,,7,f,17,r,MH,,2,2022_Jul_07_1502,2020.2.10,acceptmap-regulate,"['Right Face', 'Left Face', 'Right Face', 'Left Face']",59.9918170817774,
,,,,,,,400.3853686999064,None,33.888888888888886,389.3822717401199,0.01498755975626409,5.012480359757319,,,,,,,,,,,,,,,,,,,,,,,,,,,,,,,,,,,,,,,,,,,,,,,,,,,,,7,f,17,r,MH,,2,2022_Jul_07_1502,2020.2.10,acceptmap-regulate,"['Right Face', 'Left Face', 'Right Face', 'Left Face']",59.9918170817774,
,,,,,,,428.4022619999014,None,35.308641975308646,419.78311784006655,0.014748459914699197,5.011974960099906,,,,,,,,,,,,,,,,,,,,,,,,,,,,,,,,,,,,,,,,,,,,,,,,,,,,,7,f,17,r,MH,,2,2022_Jul_07_1502,2020.2.10,acceptmap-regulate,"['Right Face', 'Left Face', 'Right Face', 'Left Face']",59.9918170817774,
,,,,,,,456.4191877997946,None,34.93827160493828,447.098951240303,0.014154359931126237,5.010960760060698,,,,,,,,,,,,,,,,,,,,,,,,,,,,,,,,,,,,,,,,,,,,,,,,,,,,,7,f,17,r,MH,,2,2022_Jul_07_1502,2020.2.10,acceptmap-regulate,"['Right Face', 'Left Face', 'Right Face', 'Left Face']",59.9918170817774,
,,,,,,,484.43611539993435,None,35.61728395061728,477.8170590400696,0.015241659712046385,5.012969659874216,,,,,,,,,,,,,,,,,,,,,,,,,,,,,,,,,,,,,,,,,,,,,,,,,,,,,7,f,17,r,MH,,2,2022_Jul_07_1502,2020.2.10,acceptmap-regulate,"['Right Face', 'Left Face', 'Right Face', 'Left Face']",59.9918170817774,
,,,,,,,,,,,0.014086960116401315,5.010846960125491,0.0,477.96760244015604,,,,,,,,,,,,,,,,,,,,,,,,,,,,,,,,,,,,,,,,,,,,,,,,,,,7,f,17,r,MH,,2,2022_Jul_07_1502,2020.2.10,acceptmap-regulate,"['Right Face', 'Left Face', 'Right Face', 'Left Face']",59.9918170817774,
,,,,,,,,,,,,,,,0.013610959984362125,None,11.111111111111114,482.93431884003803,,,,,,,,,,,,,,,,,,,,,,,,,,,,,,,,,,,,,,,,,,,,,,,7,f,17,r,MH,,2,2022_Jul_07_1502,2020.2.10,acceptmap-regulate,"['Right Face', 'Left Face', 'Right Face', 'Left Face']",59.9918170817774,
,,,,,,,,,52.407407407407405,486.36156208021566,,,,,,,,,0.013559360057115555,None,,,,,,,,,,,,,,,,,,,,,,,,,,,,,,,,,,,,,,,,,,,,,7,f,17,r,MH,,2,2022_Jul_07_1502,2020.2.10,acceptmap-regulate,"['Right Face', 'Left Face', 'Right Face', 'Left Face']",59.9918170817774,
,,,,,,,,,,,0.0030094198882579803,None,,,,,,,,,77.09876543209876,491.451671740273,,,,,,,,,,,,,,,,,,,,,,,,,,,,,,,,,,,,,,,,,,,7,f,17,r,MH,,2,2022_Jul_07_1502,2020.2.10,acceptmap-regulate,"['Right Face', 'Left Face', 'Right Face', 'Left Face']",59.9918170817774,
,,,,,,,,,,,,,,,,,,,,,,,0.012982159852981567,None,40.0,494.2683438404929,,,,,,,,,,,,,,,,,,,,,,,,,,,,,,,,,,,,,,,7,f,17,r,MH,,2,2022_Jul_07_1502,2020.2.10,acceptmap-regulate,"['Right Face', 'Left Face', 'Right Face', 'Left Face']",59.9918170817774,
,,,,,,,,,,,,,,,,,,,,,,,,,,,0.013039459707215428,None,62.22222222222222,499.0019591401797,,,,,,,,,,,,,,,,,,,,,,,,,,,,,,,,,,,7,f,17,r,MH,,2,2022_Jul_07_1502,2020.2.10,acceptmap-regulate,"['Right Face', 'Left Face', 'Right Face', 'Left Face']",59.9918170817774,
,,,,,,,,,,,,,,,,,,,,,,,,,,,,,,,0.012735259952023625,None,43.333333333333336,502.9840029401239,,,,,,,,,,,,,,,,,,,,,,,,,,,,,,,7,f,17,r,MH,,2,2022_Jul_07_1502,2020.2.10,acceptmap-regulate,"['Right Face', 'Left Face', 'Right Face', 'Left Face']",59.9918170817774,
,,,,,,,,,,,,,,,,,,,,,,,,,,,,,,,,,,,0.014074259903281927,None,39.382716049382736,508.384626239771,,,,,,,,,,,,,,,,,,,,,,,,,,,7,f,17,r,MH,,2,2022_Jul_07_1502,2020.2.10,acceptmap-regulate,"['Right Face', 'Left Face', 'Right Face', 'Left Face']",59.9918170817774,
,,,,,,,,,,,,,,,,,,,,,,,,,,,,,,,,,,,,,,,0.013517760206013918,None,3.950617283950635,515.351328340359,,,,,,,,,,,,,,,,,,,,,,,7,f,17,r,MH,,2,2022_Jul_07_1502,2020.2.10,acceptmap-regulate,"['Right Face', 'Left Face', 'Right Face', 'Left Face']",59.9918170817774,
,,,,,,,,,,,,,,,,,,,,,,,,,,,,,,,,,,,,,,,,,,,0.01353405974805355,None,-3.456790123456784,517.8349655400962,,,,,,,,,,,,,,,,,,,7,f,17,r,MH,,2,2022_Jul_07_1502,2020.2.10,acceptmap-regulate,"['Right Face', 'Left Face', 'Right Face', 'Left Face']",59.9918170817774,
,,,,,,,,,,,,,,,,,,,,,,,,,,,,,,,,,,,,,,,,,,,,,,,0.013267359929159284,None,71.11111111111111,522.2014424402732,,,,,,,,,,,,,,,7,f,17,r,MH,,2,2022_Jul_07_1502,2020.2.10,acceptmap-regulate,"['Right Face', 'Left Face', 'Right Face', 'Left Face']",59.9918170817774,
,,,,,,,,,,,,,,,,,,,,,,,,,,,,,,,,,,,,,,,,,,,,,,,,,,,0.013390059815719724,None,2.8395061728395063,528.035451940028,,,,,,,,,,,7,f,17,r,MH,,2,2022_Jul_07_1502,2020.2.10,acceptmap-regulate,"['Right Face', 'Left Face', 'Right Face', 'Left Face']",59.9918170817774,
,,,,,,,,,,,,,,,,,,,,,,,,,,,,,,,,,,,,,,,,,,,,,,,,,,,,,,,0.012889760080724955,None,38.641975308641975,532.667937339982,,,,,,,7,f,17,r,MH,,2,2022_Jul_07_1502,2020.2.10,acceptmap-regulate,"['Right Face', 'Left Face', 'Right Face', 'Left Face']",59.9918170817774,
,,,,,,,,,,,,,,,,,,,,,,,,,,,,,,,,,,,,,,,,,,,,,,,,,,,,,,,,,,,0.013752060011029243,None,44.32098765432099,537.4511512401514,,,7,f,17,r,MH,,2,2022_Jul_07_1502,2020.2.10,acceptmap-regulate,"['Right Face', 'Left Face', 'Right Face', 'Left Face']",59.9918170817774,
647.8709456999786,647.8709456999786,None,space,87.25879089999944,647.8709456999786,None,776.0554128999356,None,31.234567901234566,766.4525900401641,,,,,,,,,,,,,,,,,,,,,,,,,,,,,,,,,,,,,,,,,,,,,,,,,,,,,0.013919560005888343,None,7,f,17,r,MH,,2,2022_Jul_07_1502,2020.2.10,acceptmap-regulate,"['Right Face', 'Left Face', 'Right Face', 'Left Face']",59.9918170817774,
,,,,,,,804.0722512998618,None,30.925925925925927,795.7842514403164,0.014487959910184145,5.011492060031742,,,,,,,,,,,,,,,,,,,,,,,,,,,,,,,,,,,,,,,,,,,,,,,,,,,,,7,f,17,r,MH,,2,2022_Jul_07_1502,2020.2.10,acceptmap-regulate,"['Right Face', 'Left Face', 'Right Face', 'Left Face']",59.9918170817774,
,,,,,,,832.0892516998574,None,37.098765432098766,823.0690611400642,0.016434559831395745,5.015342460013926,,,,,,,,,,,,,,,,,,,,,,,,,,,,,,,,,,,,,,,,,,,,,,,,,,,,,7,f,17,r,MH,,2,2022_Jul_07_1502,2020.2.10,acceptmap-regulate,"['Right Face', 'Left Face', 'Right Face', 'Left Face']",59.9918170817774,
,,,,,,,860.1062029998284,None,37.46913580246913,848.7024012401234,0.015187659999355674,5.012861759867519,,,,,,,,,,,,,,,,,,,,,,,,,,,,,,,,,,,,,,,,,,,,,,,,,,,,,7,f,17,r,MH,,2,2022_Jul_07_1502,2020.2.10,acceptmap-regulate,"['Right Face', 'Left Face', 'Right Face', 'Left Face']",59.9918170817774,
,,,,,,,888.1230973999482,None,36.851851851851855,876.4864809401333,0.015431459993124008,5.013315659947693,,,,,,,,,,,,,,,,,,,,,,,,,,,,,,,,,,,,,,,,,,,,,,,,,,,,,7,f,17,r,MH,,2,2022_Jul_07_1502,2020.2.10,acceptmap-regulate,"['Right Face', 'Left Face', 'Right Face', 'Left Face']",59.9918170817774,
,,,,,,,916.1400172999129,None,36.04938271604938,904.0704194402788,0.014929659897461534,5.012350759934634,,,,,,,,,,,,,,,,,,,,,,,,,,,,,,,,,,,,,,,,,,,,,,,,,,,,,7,f,17,r,MH,,2,2022_Jul_07_1502,2020.2.10,acceptmap-regulate,"['Right Face', 'Left Face', 'Right Face', 'Left Face']",59.9918170817774,
,,,,,,,944.1569511999842,None,35.55555555555556,932.0036731404252,0.014577159890905023,5.011656360002235,,,,,,,,,,,,,,,,,,,,,,,,,,,,,,,,,,,,,,,,,,,,,,,,,,,,,7,f,17,r,MH,,2,2022_Jul_07_1502,2020.2.10,acceptmap-regulate,"['Right Face', 'Left Face', 'Right Face', 'Left Face']",59.9918170817774,
,,,,,,,972.1738257999532,None,34.75308641975308,963.087710140273,0.014882959658280015,5.012209759792313,,,,,,,,,,,,,,,,,,,,,,,,,,,,,,,,,,,,,,,,,,,,,,,,,,,,,7,f,17,r,MH,,2,2022_Jul_07_1502,2020.2.10,acceptmap-regulate,"['Right Face', 'Left Face', 'Right Face', 'Left Face']",59.9918170817774,
,,,,,,,1000.1907650998328,None,34.01234567901235,991.3205238403752,0.014484359882771969,5.011503659887239,,,,,,,,,,,,,,,,,,,,,,,,,,,,,,,,,,,,,,,,,,,,,,,,,,,,,7,f,17,r,MH,,2,2022_Jul_07_1502,2020.2.10,acceptmap-regulate,"['Right Face', 'Left Face', 'Right Face', 'Left Face']",59.9918170817774,
,,,,,,,1028.207678299863,None,33.641975308641975,1020.804886040045,0.015254059806466103,5.012999059865251,,,,,,,,,,,,,,,,,,,,,,,,,,,,,,,,,,,,,,,,,,,,,,,,,,,,,7,f,17,r,MH,,2,2022_Jul_07_1502,2020.2.10,acceptmap-regulate,"['Right Face', 'Left Face', 'Right Face', 'Left Face']",59.9918170817774,
,,,,,,,1056.2245922000147,None,33.51851851851852,1045.3054018402472,0.014479459961876273,5.011475360020995,,,,,,,,,,,,,,,,,,,,,,,,,,,,,,,,,,,,,,,,,,,,,,,,,,,,,7,f,17,r,MH,,2,2022_Jul_07_1502,2020.2.10,acceptmap-regulate,"['Right Face', 'Left Face', 'Right Face', 'Left Face']",59.9918170817774,
,,,,,,,1084.2415265999734,None,31.17283950617284,1073.5549625402782,0.014210359891876578,5.010954859899357,,,,,,,,,,,,,,,,,,,,,,,,,,,,,,,,,,,,,,,,,,,,,,,,,,,,,7,f,17,r,MH,,2,2022_Jul_07_1502,2020.2.10,acceptmap-regulate,"['Right Face', 'Left Face', 'Right Face', 'Left Face']",59.9918170817774,
,,,,,,,1112.2584431997966,None,32.59259259259259,1099.6382845400367,0.014892259845510125,5.012245259946212,,,,,,,,,,,,,,,,,,,,,,,,,,,,,,,,,,,,,,,,,,,,,,,,,,,,,7,f,17,r,MH,,2,2022_Jul_07_1502,2020.2.10,acceptmap-regulate,"['Right Face', 'Left Face', 'Right Face', 'Left Face']",59.9918170817774,
,,,,,,,1140.27536339988,None,36.7283950617284,1131.9870111402124,0.015128160128369927,5.012734160060063,,,,,,,,,,,,,,,,,,,,,,,,,,,,,,,,,,,,,,,,,,,,,,,,,,,,,7,f,17,r,MH,,2,2022_Jul_07_1502,2020.2.10,acceptmap-regulate,"['Right Face', 'Left Face', 'Right Face', 'Left Face']",59.9918170817774,
,,,,,,,1168.2922729998827,None,33.7037037037037,1155.3388175400905,0.016692459816113114,5.015860460000113,,,,,,,,,,,,,,,,,,,,,,,,,,,,,,,,,,,,,,,,,,,,,,,,,,,,,7,f,17,r,MH,,2,2022_Jul_07_1502,2020.2.10,acceptmap-regulate,"['Right Face', 'Left Face', 'Right Face', 'Left Face']",59.9918170817774,
,,,,,,,1196.3092135000043,None,34.93827160493828,1183.756080839783,0.015173859894275665,5.0128468598704785,,,,,,,,,,,,,,,,,,,,,,,,,,,,,,,,,,,,,,,,,,,,,,,,,,,,,7,f,17,r,MH,,2,2022_Jul_07_1502,2020.2.10,acceptmap-regulate,"['Right Face', 'Left Face', 'Right Face', 'Left Face']",59.9918170817774,
,,,,,,,,,,,0.014789960347115993,5.012091560289264,5.061728395061735,1195.5238980401773,,,,,,,,,,,,,,,,,,,,,,,,,,,,,,,,,,,,,,,,,,,,,,,,,,,7,f,17,r,MH,,2,2022_Jul_07_1502,2020.2.10,acceptmap-regulate,"['Right Face', 'Left Face', 'Right Face', 'Left Face']",59.9918170817774,
,,,,,,,,,,,,,,,0.01373315998353064,None,21.1111111111111,1198.8575374402571,,,,,,,,,,,,,,,,,,,,,,,,,,,,,,,,,,,,,,,,,,,,,,,7,f,17,r,MH,,2,2022_Jul_07_1502,2020.2.10,acceptmap-regulate,"['Right Face', 'Left Face', 'Right Face', 'Left Face']",59.9918170817774,
,,,,,,,,,62.03703703703704,1206.5894051804207,,,,,,,,,0.013476159889250994,None,,,,,,,,,,,,,,,,,,,,,,,,,,,,,,,,,,,,,,,,,,,,,7,f,17,r,MH,,2,2022_Jul_07_1502,2020.2.10,acceptmap-regulate,"['Right Face', 'Left Face', 'Right Face', 'Left Face']",59.9918170817774,
,,,,,,,,,,,0.014953919686377048,None,,,,,,,,,70.37037037037037,1211.4914077399299,,,,,,,,,,,,,,,,,,,,,,,,,,,,,,,,,,,,,,,,,,,7,f,17,r,MH,,2,2022_Jul_07_1502,2020.2.10,acceptmap-regulate,"['Right Face', 'Left Face', 'Right Face', 'Left Face']",59.9918170817774,
,,,,,,,,,,,,,,,,,,,,,,,0.013040560064837337,None,39.691358024691354,1214.5913106400985,,,,,,,,,,,,,,,,,,,,,,,,,,,,,,,,,,,,,,,7,f,17,r,MH,,2,2022_Jul_07_1502,2020.2.10,acceptmap-regulate,"['Right Face', 'Left Face', 'Right Face', 'Left Face']",59.9918170817774,
,,,,,,,,,,,,,,,,,,,,,,,,,,,0.013170860009267926,None,75.06172839506173,1220.2249302400742,,,,,,,,,,,,,,,,,,,,,,,,,,,,,,,,,,,7,f,17,r,MH,,2,2022_Jul_07_1502,2020.2.10,acceptmap-regulate,"['Right Face', 'Left Face', 'Right Face', 'Left Face']",59.9918170817774,
,,,,,,,,,,,,,,,,,,,,,,,,,,,,,,,0.012966660084202886,None,27.098765432098766,1224.5742272399366,,,,,,,,,,,,,,,,,,,,,,,,,,,,,,,7,f,17,r,MH,,2,2022_Jul_07_1502,2020.2.10,acceptmap-regulate,"['Right Face', 'Left Face', 'Right Face', 'Left Face']",59.9918170817774,
,,,,,,,,,,,,,,,,,,,,,,,,,,,,,,,,,,,0.013557660160586238,None,51.481481481481495,1229.024546339875,,,,,,,,,,,,,,,,,,,,,,,,,,,7,f,17,r,MH,,2,2022_Jul_07_1502,2020.2.10,acceptmap-regulate,"['Right Face', 'Left Face', 'Right Face', 'Left Face']",59.9918170817774,
,,,,,,,,,,,,,,,,,,,,,,,,,,,,,,,,,,,,,,,0.013414060231298208,None,51.97530864197532,1235.4075837400742,,,,,,,,,,,,,,,,,,,,,,,7,f,17,r,MH,,2,2022_Jul_07_1502,2020.2.10,acceptmap-regulate,"['Right Face', 'Left Face', 'Right Face', 'Left Face']",59.9918170817774,
,,,,,,,,,,,,,,,,,,,,,,,,,,,,,,,,,,,,,,,,,,,0.013762159971520305,None,-20.740740740740733,1240.6083062402904,,,,,,,,,,,,,,,,,,,7,f,17,r,MH,,2,2022_Jul_07_1502,2020.2.10,acceptmap-regulate,"['Right Face', 'Left Face', 'Right Face', 'Left Face']",59.9918170817774,
,,,,,,,,,,,,,,,,,,,,,,,,,,,,,,,,,,,,,,,,,,,,,,,0.013094059890136123,None,57.6543209876543,1245.1407023402862,,,,,,,,,,,,,,,7,f,17,r,MH,,2,2022_Jul_07_1502,2020.2.10,acceptmap-regulate,"['Right Face', 'Left Face', 'Right Face', 'Left Face']",59.9918170817774,
,,,,,,,,,,,,,,,,,,,,,,,,,,,,,,,,,,,,,,,,,,,,,,,,,,,0.014087659772485495,None,-22.592592592592595,1248.1423684402835,,,,,,,,,,,7,f,17,r,MH,,2,2022_Jul_07_1502,2020.2.10,acceptmap-regulate,"['Right Face', 'Left Face', 'Right Face', 'Left Face']",59.9918170817774,
,,,,,,,,,,,,,,,,,,,,,,,,,,,,,,,,,,,,,,,,,,,,,,,,,,,,,,,0.01244515972211957,None,50.74074074074073,1252.6081547401845,,,,,,,7,f,17,r,MH,,2,2022_Jul_07_1502,2020.2.10,acceptmap-regulate,"['Right Face', 'Left Face', 'Right Face', 'Left Face']",59.9918170817774,
,,,,,,,,,,,,,,,,,,,,,,,,,,,,,,,,,,,,,,,,,,,,,,,,,,,,,,,,,,,0.013339659897610545,None,41.60493827160494,1257.0750422400888,,,7,f,17,r,MH,,2,2022_Jul_07_1502,2020.2.10,acceptmap-regulate,"['Right Face', 'Left Face', 'Right Face', 'Left Face']",59.9918170817774,
1353.843944599852,1353.843944599852,None,space,79.73434189986438,1353.843944599852,None,1473.445036899997,None,36.54320987654321,1463.5582660401706,,,,,,,,,,,,,,,,,,,,,,,,,,,,,,,,,,,,,,,,,,,,,,,,,,,,,0.013161059934645891,None,7,f,17,r,MH,,2,2022_Jul_07_1502,2020.2.10,acceptmap-regulate,"['Right Face', 'Left Face', 'Right Face', 'Left Face']",59.9918170817774,
,,,,,,,1501.4619293999858,None,37.098765432098766,1490.8584552402608,0.01511385990306735,5.012706159846857,,,,,,,,,,,,,,,,,,,,,,,,,,,,,,,,,,,,,,,,,,,,,,,,,,,,,7,f,17,r,MH,,2,2022_Jul_07_1502,2020.2.10,acceptmap-regulate,"['Right Face', 'Left Face', 'Right Face', 'Left Face']",59.9918170817774,
,,,,,,,1529.4788424998987,None,36.11111111111111,1518.5584629401565,0.015166459837928414,5.012710459763184,,,,,,,,,,,,,,,,,,,,,,,,,,,,,,,,,,,,,,,,,,,,,,,,,,,,,7,f,17,r,MH,,2,2022_Jul_07_1502,2020.2.10,acceptmap-regulate,"['Right Face', 'Left Face', 'Right Face', 'Left Face']",59.9918170817774,
,,,,,,,1557.4957639998756,None,39.01234567901235,1548.8757670400664,0.015392160043120384,5.013277160003781,,,,,,,,,,,,,,,,,,,,,,,,,,,,,,,,,,,,,,,,,,,,,,,,,,,,,7,f,17,r,MH,,2,2022_Jul_07_1502,2020.2.10,acceptmap-regulate,"['Right Face', 'Left Face', 'Right Face', 'Left Face']",59.9918170817774,
,,,,,,,1585.512700199848,None,37.03703703703704,1577.8924943401944,0.01502236002124846,5.012712360126898,,,,,,,,,,,,,,,,,,,,,,,,,,,,,,,,,,,,,,,,,,,,,,,,,,,,,7,f,17,r,MH,,2,2022_Jul_07_1502,2020.2.10,acceptmap-regulate,"['Right Face', 'Left Face', 'Right Face', 'Left Face']",59.9918170817774,
,,,,,,,1613.529630600009,None,36.54320987654321,1601.7262563400436,0.015226159943267703,5.0129318598192185,,,,,,,,,,,,,,,,,,,,,,,,,,,,,,,,,,,,,,,,,,,,,,,,,,,,,7,f,17,r,MH,,2,2022_Jul_07_1502,2020.2.10,acceptmap-regulate,"['Right Face', 'Left Face', 'Right Face', 'Left Face']",59.9918170817774,
,,,,,,,1641.5465434999205,None,38.39506172839506,1631.5266003401484,0.01501646009273827,5.012517659924924,,,,,,,,,,,,,,,,,,,,,,,,,,,,,,,,,,,,,,,,,,,,,,,,,,,,,7,f,17,r,MH,,2,2022_Jul_07_1502,2020.2.10,acceptmap-regulate,"['Right Face', 'Left Face', 'Right Face', 'Left Face']",59.9918170817774,
,,,,,,,1669.5634480000008,None,36.11111111111111,1659.8607042401563,0.014935259940102696,5.0122018600814044,,,,,,,,,,,,,,,,,,,,,,,,,,,,,,,,,,,,,,,,,,,,,,,,,,,,,7,f,17,r,MH,,2,2022_Jul_07_1502,2020.2.10,acceptmap-regulate,"['Right Face', 'Left Face', 'Right Face', 'Left Face']",59.9918170817774,
,,,,,,,1697.5803729000036,None,38.39506172839506,1686.5441751403268,0.014425660017877817,5.011359160067514,,,,,,,,,,,,,,,,,,,,,,,,,,,,,,,,,,,,,,,,,,,,,,,,,,,,,7,f,17,r,MH,,2,2022_Jul_07_1502,2020.2.10,acceptmap-regulate,"['Right Face', 'Left Face', 'Right Face', 'Left Face']",59.9918170817774,
,,,,,,,1725.5973211999517,None,37.22222222222222,1712.5615483401343,0.014507359825074673,5.011492159916088,,,,,,,,,,,,,,,,,,,,,,,,,,,,,,,,,,,,,,,,,,,,,,,,,,,,,7,f,17,r,MH,,2,2022_Jul_07_1502,2020.2.10,acceptmap-regulate,"['Right Face', 'Left Face', 'Right Face', 'Left Face']",59.9918170817774,
,,,,,,,1753.6141927000135,None,36.54320987654321,1740.2781434399076,0.014072360005229712,5.010636359918863,,,,,,,,,,,,,,,,,,,,,,,,,,,,,,,,,,,,,,,,,,,,,,,,,,,,,7,f,17,r,MH,,2,2022_Jul_07_1502,2020.2.10,acceptmap-regulate,"['Right Face', 'Left Face', 'Right Face', 'Left Face']",59.9918170817774,
,,,,,,,1781.6311209998094,None,35.8641975308642,1770.2619692399167,0.014372660079970956,5.0111718599218875,,,,,,,,,,,,,,,,,,,,,,,,,,,,,,,,,,,,,,,,,,,,,,,,,,,,,7,f,17,r,MH,,2,2022_Jul_07_1502,2020.2.10,acceptmap-regulate,"['Right Face', 'Left Face', 'Right Face', 'Left Face']",59.9918170817774,
,,,,,,,1809.6480395998806,None,39.62962962962963,1798.128322940087,0.014149560127407312,5.010732260067016,,,,,,,,,,,,,,,,,,,,,,,,,,,,,,,,,,,,,,,,,,,,,,,,,,,,,7,f,17,r,MH,,2,2022_Jul_07_1502,2020.2.10,acceptmap-regulate,"['Right Face', 'Left Face', 'Right Face', 'Left Face']",59.9918170817774,
,,,,,,,1837.6649701998103,None,34.629629629629626,1828.978954940103,0.01470846007578075,5.011872860137373,,,,,,,,,,,,,,,,,,,,,,,,,,,,,,,,,,,,,,,,,,,,,,,,,,,,,7,f,17,r,MH,,2,2022_Jul_07_1502,2020.2.10,acceptmap-regulate,"['Right Face', 'Left Face', 'Right Face', 'Left Face']",59.9918170817774,
,,,,,,,1865.6818841998465,None,35.24691358024691,1854.5789709398523,0.014368260046467185,5.0111569601576775,,,,,,,,,,,,,,,,,,,,,,,,,,,,,,,,,,,,,,,,,,,,,,,,,,,,,7,f,17,r,MH,,2,2022_Jul_07_1502,2020.2.10,acceptmap-regulate,"['Right Face', 'Left Face', 'Right Face', 'Left Face']",59.9918170817774,
,,,,,,,1893.698829199886,None,34.75308641975308,1883.6293907400686,0.014564460143446922,5.011608460219577,,,,,,,,,,,,,,,,,,,,,,,,,,,,,,,,,,,,,,,,,,,,,,,,,,,,,7,f,17,r,MH,,2,2022_Jul_07_1502,2020.2.10,acceptmap-regulate,"['Right Face', 'Left Face', 'Right Face', 'Left Face']",59.9918170817774,
,,,,,,,,,,,0.0144239601213485,5.011352160014212,3.827160493827165,1896.4970104401,,,,,,,,,,,,,,,,,,,,,,,,,,,,,,,,,,,,,,,,,,,,,,,,,,,7,f,17,r,MH,,2,2022_Jul_07_1502,2020.2.10,acceptmap-regulate,"['Right Face', 'Left Face', 'Right Face', 'Left Face']",59.9918170817774,
,,,,,,,,,,,,,,,0.013605260057374835,None,23.209876543209873,1900.6469602400903,,,,,,,,,,,,,,,,,,,,,,,,,,,,,,,,,,,,,,,,,,,,,,,7,f,17,r,MH,,2,2022_Jul_07_1502,2020.2.10,acceptmap-regulate,"['Right Face', 'Left Face', 'Right Face', 'Left Face']",59.9918170817774,
,,,,,,,,,61.851851851851855,1905.0959014801774,,,,,,,,,0.013697759946808219,None,,,,,,,,,,,,,,,,,,,,,,,,,,,,,,,,,,,,,,,,,,,,,7,f,17,r,MH,,2,2022_Jul_07_1502,2020.2.10,acceptmap-regulate,"['Right Face', 'Left Face', 'Right Face', 'Left Face']",59.9918170817774,
,,,,,,,,,,,0.014755219919607043,None,,,,,,,,,65.49382716049382,1908.3640285399742,,,,,,,,,,,,,,,,,,,,,,,,,,,,,,,,,,,,,,,,,,,7,f,17,r,MH,,2,2022_Jul_07_1502,2020.2.10,acceptmap-regulate,"['Right Face', 'Left Face', 'Right Face', 'Left Face']",59.9918170817774,
,,,,,,,,,,,,,,,,,,,,,,,0.013383259996771812,None,36.91358024691358,1912.164052340202,,,,,,,,,,,,,,,,,,,,,,,,,,,,,,,,,,,,,,,7,f,17,r,MH,,2,2022_Jul_07_1502,2020.2.10,acceptmap-regulate,"['Right Face', 'Left Face', 'Right Face', 'Left Face']",59.9918170817774,
,,,,,,,,,,,,,,,,,,,,,,,,,,,0.01340265991166234,None,70.61728395061729,1916.080705240136,,,,,,,,,,,,,,,,,,,,,,,,,,,,,,,,,,,7,f,17,r,MH,,2,2022_Jul_07_1502,2020.2.10,acceptmap-regulate,"['Right Face', 'Left Face', 'Right Face', 'Left Face']",59.9918170817774,
,,,,,,,,,,,,,,,,,,,,,,,,,,,,,,,0.013425859855487943,None,41.23456790123456,1921.2467324400786,,,,,,,,,,,,,,,,,,,,,,,,,,,,,,,7,f,17,r,MH,,2,2022_Jul_07_1502,2020.2.10,acceptmap-regulate,"['Right Face', 'Left Face', 'Right Face', 'Left Face']",59.9918170817774,
,,,,,,,,,,,,,,,,,,,,,,,,,,,,,,,,,,,0.014117860002443194,None,19.382716049382708,1925.996998939896,,,,,,,,,,,,,,,,,,,,,,,,,,,7,f,17,r,MH,,2,2022_Jul_07_1502,2020.2.10,acceptmap-regulate,"['Right Face', 'Left Face', 'Right Face', 'Left Face']",59.9918170817774,
,,,,,,,,,,,,,,,,,,,,,,,,,,,,,,,,,,,,,,,0.013880860293284059,None,36.91358024691357,1931.564718339825,,,,,,,,,,,,,,,,,,,,,,,7,f,17,r,MH,,2,2022_Jul_07_1502,2020.2.10,acceptmap-regulate,"['Right Face', 'Left Face', 'Right Face', 'Left Face']",59.9918170817774,
,,,,,,,,,,,,,,,,,,,,,,,,,,,,,,,,,,,,,,,,,,,0.012899960158392787,None,-7.407407407407405,1936.4309566402808,,,,,,,,,,,,,,,,,,,7,f,17,r,MH,,2,2022_Jul_07_1502,2020.2.10,acceptmap-regulate,"['Right Face', 'Left Face', 'Right Face', 'Left Face']",59.9918170817774,
,,,,,,,,,,,,,,,,,,,,,,,,,,,,,,,,,,,,,,,,,,,,,,,0.013388359919190407,None,28.641975308641975,1942.164592740126,,,,,,,,,,,,,,,7,f,17,r,MH,,2,2022_Jul_07_1502,2020.2.10,acceptmap-regulate,"['Right Face', 'Left Face', 'Right Face', 'Left Face']",59.9918170817774,
,,,,,,,,,,,,,,,,,,,,,,,,,,,,,,,,,,,,,,,,,,,,,,,,,,,0.013124859891831875,None,42.83950617283949,1945.9974237401038,,,,,,,,,,,7,f,17,r,MH,,2,2022_Jul_07_1502,2020.2.10,acceptmap-regulate,"['Right Face', 'Left Face', 'Right Face', 'Left Face']",59.9918170817774,
,,,,,,,,,,,,,,,,,,,,,,,,,,,,,,,,,,,,,,,,,,,,,,,,,,,,,,,0.013667060062289238,None,50.61728395061732,1949.380730540026,,,,,,,7,f,17,r,MH,,2,2022_Jul_07_1502,2020.2.10,acceptmap-regulate,"['Right Face', 'Left Face', 'Right Face', 'Left Face']",59.9918170817774,
,,,,,,,,,,,,,,,,,,,,,,,,,,,,,,,,,,,,,,,,,,,,,,,,,,,,,,,,,,,0.013763759983703494,None,32.83950617283949,1953.0476777402218,,,7,f,17,r,MH,,2,2022_Jul_07_1502,2020.2.10,acceptmap-regulate,"['Right Face', 'Left Face', 'Right Face', 'Left Face']",59.9918170817774,
2060.4003333,2060.4003333,None,space,80.50631139986217,2060.4003333,None,2184.951440699864,None,41.111111111111114,2171.6150241401047,,,,,,,,,,,,,,,,,,,,,,,,,,,,,,,,,,,,,,,,,,,,,,,,,,,,,0.013469259953126311,None,7,f,17,r,MH,,2,2022_Jul_07_1502,2020.2.10,acceptmap-regulate,"['Right Face', 'Left Face', 'Right Face', 'Left Face']",59.9918170817774,
,,,,,,,2212.968385899905,None,40.98765432098765,2199.031616240274,0.014710959978401661,5.011927860090509,,,,,,,,,,,,,,,,,,,,,,,,,,,,,,,,,,,,,,,,,,,,,,,,,,,,,7,f,17,r,MH,,2,2022_Jul_07_1502,2020.2.10,acceptmap-regulate,"['Right Face', 'Left Face', 'Right Face', 'Left Face']",59.9918170817774,
,,,,,,,2240.9852670999244,None,40.4320987654321,2229.315464940155,0.015046059852465987,5.012579059926793,,,,,,,,,,,,,,,,,,,,,,,,,,,,,,,,,,,,,,,,,,,,,,,,,,,,,7,f,17,r,MH,,2,2022_Jul_07_1502,2020.2.10,acceptmap-regulate,"['Right Face', 'Left Face', 'Right Face', 'Left Face']",59.9918170817774,
,,,,,,,2269.002192699816,None,42.96296296296296,2258.997167539783,0.014854660024866462,5.012231059838086,,,,,,,,,,,,,,,,,,,,,,,,,,,,,,,,,,,,,,,,,,,,,,,,,,,,,7,f,17,r,MH,,2,2022_Jul_07_1502,2020.2.10,acceptmap-regulate,"['Right Face', 'Left Face', 'Right Face', 'Left Face']",59.9918170817774,
,,,,,,,2297.0190820000134,None,40.80246913580247,2283.36573684006,0.016689260257408023,5.015897360164672,,,,,,,,,,,,,,,,,,,,,,,,,,,,,,,,,,,,,,,,,,,,,,,,,,,,,7,f,17,r,MH,,2,2022_Jul_07_1502,2020.2.10,acceptmap-regulate,"['Right Face', 'Left Face', 'Right Face', 'Left Face']",59.9918170817774,
,,,,,,,2325.0360367998946,None,39.01234567901235,2313.0992827401496,0.015014460077509284,5.012502660043538,,,,,,,,,,,,,,,,,,,,,,,,,,,,,,,,,,,,,,,,,,,,,,,,,,,,,7,f,17,r,MH,,2,2022_Jul_07_1502,2020.2.10,acceptmap-regulate,"['Right Face', 'Left Face', 'Right Face', 'Left Face']",59.9918170817774,
,,,,,,,2353.0530346999876,None,39.01234567901235,2343.21631394024,0.015085459919646382,5.012375060003251,,,,,,,,,,,,,,,,,,,,,,,,,,,,,,,,,,,,,,,,,,,,,,,,,,,,,7,f,17,r,MH,,2,2022_Jul_07_1502,2020.2.10,acceptmap-regulate,"['Right Face', 'Left Face', 'Right Face', 'Left Face']",59.9918170817774,
,,,,,,,2381.069880799856,None,40.67901234567901,2366.783414140111,0.014955459861084819,5.012370259966701,,,,,,,,,,,,,,,,,,,,,,,,,,,,,,,,,,,,,,,,,,,,,,,,,,,,,7,f,17,r,MH,,2,2022_Jul_07_1502,2020.2.10,acceptmap-regulate,"['Right Face', 'Left Face', 'Right Face', 'Left Face']",59.9918170817774,
,,,,,,,2409.086777099874,None,38.39506172839506,2396.234194140183,0.01473046001046896,5.011956159956753,,,,,,,,,,,,,,,,,,,,,,,,,,,,,,,,,,,,,,,,,,,,,,,,,,,,,7,f,17,r,MH,,2,2022_Jul_07_1502,2020.2.10,acceptmap-regulate,"['Right Face', 'Left Face', 'Right Face', 'Left Face']",59.9918170817774,
,,,,,,,2437.103725099936,None,38.148148148148145,2427.1823481400497,0.014253159984946251,5.010945459827781,,,,,,,,,,,,,,,,,,,,,,,,,,,,,,,,,,,,,,,,,,,,,,,,,,,,,7,f,17,r,MH,,2,2022_Jul_07_1502,2020.2.10,acceptmap-regulate,"['Right Face', 'Left Face', 'Right Face', 'Left Face']",59.9918170817774,
,,,,,,,2465.120630499907,None,38.02469135802469,2451.5343823398,0.016428760020062327,5.015314260032028,,,,,,,,,,,,,,,,,,,,,,,,,,,,,,,,,,,,,,,,,,,,,,,,,,,,,7,f,17,r,MH,,2,2022_Jul_07_1502,2020.2.10,acceptmap-regulate,"['Right Face', 'Left Face', 'Right Face', 'Left Face']",59.9918170817774,
,,,,,,,2493.1375361999962,None,37.098765432098766,2483.5992548402864,0.014537760289385915,5.011555360164493,,,,,,,,,,,,,,,,,,,,,,,,,,,,,,,,,,,,,,,,,,,,,,,,,,,,,7,f,17,r,MH,,2,2022_Jul_07_1502,2020.2.10,acceptmap-regulate,"['Right Face', 'Left Face', 'Right Face', 'Left Face']",59.9918170817774,
,,,,,,,2521.1544536999427,None,42.34567901234568,2507.818212940125,0.016655159881338477,5.015811359975487,,,,,,,,,,,,,,,,,,,,,,,,,,,,,,,,,,,,,,,,,,,,,,,,,,,,,7,f,17,r,MH,,2,2022_Jul_07_1502,2020.2.10,acceptmap-regulate,"['Right Face', 'Left Face', 'Right Face', 'Left Face']",59.9918170817774,
,,,,,,,2549.1713926999364,None,39.81481481481482,2536.8180274402257,0.014569760067388415,5.011635859962553,,,,,,,,,,,,,,,,,,,,,,,,,,,,,,,,,,,,,,,,,,,,,,,,,,,,,7,f,17,r,MH,,2,2022_Jul_07_1502,2020.2.10,acceptmap-regulate,"['Right Face', 'Left Face', 'Right Face', 'Left Face']",59.9918170817774,
,,,,,,,2577.1883194998372,None,44.19753086419753,2564.0348521401174,0.015005559893324971,5.012496659997851,,,,,,,,,,,,,,,,,,,,,,,,,,,,,,,,,,,,,,,,,,,,,,,,,,,,,7,f,17,r,MH,,2,2022_Jul_07_1502,2020.2.10,acceptmap-regulate,"['Right Face', 'Left Face', 'Right Face', 'Left Face']",59.9918170817774,
,,,,,,,2605.2052400999237,None,38.148148148148145,2596.635402939981,0.015116659924387932,5.012715159915388,,,,,,,,,,,,,,,,,,,,,,,,,,,,,,,,,,,,,,,,,,,,,,,,,,,,,7,f,17,r,MH,,2,2022_Jul_07_1502,2020.2.10,acceptmap-regulate,"['Right Face', 'Left Face', 'Right Face', 'Left Face']",59.9918170817774,
,,,,,,,,,,,0.014905760064721107,5.012321759946644,4.1975308641975175,2603.437231140211,,,,,,,,,,,,,,,,,,,,,,,,,,,,,,,,,,,,,,,,,,,,,,,,,,,7,f,17,r,MH,,2,2022_Jul_07_1502,2020.2.10,acceptmap-regulate,"['Right Face', 'Left Face', 'Right Face', 'Left Face']",59.9918170817774,
,,,,,,,,,,,,,,,0.013105459976941347,None,21.851851851851862,2607.7862052400596,,,,,,,,,,,,,,,,,,,,,,,,,,,,,,,,,,,,,,,,,,,,,,,7,f,17,r,MH,,2,2022_Jul_07_1502,2020.2.10,acceptmap-regulate,"['Right Face', 'Left Face', 'Right Face', 'Left Face']",59.9918170817774,
,,,,,,,,,65.12345679012346,2611.1023936800193,,,,,,,,,0.014212660025805235,None,,,,,,,,,,,,,,,,,,,,,,,,,,,,,,,,,,,,,,,,,,,,,7,f,17,r,MH,,2,2022_Jul_07_1502,2020.2.10,acceptmap-regulate,"['Right Face', 'Left Face', 'Right Face', 'Left Face']",59.9918170817774,
,,,,,,,,,,,0.014671019976958632,None,,,,,,,,,73.4567901234568,2614.5032671401277,,,,,,,,,,,,,,,,,,,,,,,,,,,,,,,,,,,,,,,,,,,7,f,17,r,MH,,2,2022_Jul_07_1502,2020.2.10,acceptmap-regulate,"['Right Face', 'Left Face', 'Right Face', 'Left Face']",59.9918170817774,
,,,,,,,,,,,,,,,,,,,,,,,0.013862859923392534,None,40.4320987654321,2618.6209499402903,,,,,,,,,,,,,,,,,,,,,,,,,,,,,,,,,,,,,,,7,f,17,r,MH,,2,2022_Jul_07_1502,2020.2.10,acceptmap-regulate,"['Right Face', 'Left Face', 'Right Face', 'Left Face']",59.9918170817774,
,,,,,,,,,,,,,,,,,,,,,,,,,,,0.0128677599132061,None,69.50617283950616,2622.253588540014,,,,,,,,,,,,,,,,,,,,,,,,,,,,,,,,,,,7,f,17,r,MH,,2,2022_Jul_07_1502,2020.2.10,acceptmap-regulate,"['Right Face', 'Left Face', 'Right Face', 'Left Face']",59.9918170817774,
,,,,,,,,,,,,,,,,,,,,,,,,,,,,,,,0.013589360052719712,None,53.20987654320988,2626.721001540078,,,,,,,,,,,,,,,,,,,,,,,,,,,,,,,7,f,17,r,MH,,2,2022_Jul_07_1502,2020.2.10,acceptmap-regulate,"['Right Face', 'Left Face', 'Right Face', 'Left Face']",59.9918170817774,
,,,,,,,,,,,,,,,,,,,,,,,,,,,,,,,,,,,0.012915760045871139,None,-21.358024691358025,2630.8369428401347,,,,,,,,,,,,,,,,,,,,,,,,,,,7,f,17,r,MH,,2,2022_Jul_07_1502,2020.2.10,acceptmap-regulate,"['Right Face', 'Left Face', 'Right Face', 'Left Face']",59.9918170817774,
,,,,,,,,,,,,,,,,,,,,,,,,,,,,,,,,,,,,,,,0.013665759935975075,None,29.506172839506178,2635.85385754006,,,,,,,,,,,,,,,,,,,,,,,7,f,17,r,MH,,2,2022_Jul_07_1502,2020.2.10,acceptmap-regulate,"['Right Face', 'Left Face', 'Right Face', 'Left Face']",59.9918170817774,
,,,,,,,,,,,,,,,,,,,,,,,,,,,,,,,,,,,,,,,,,,,0.013450860045850277,None,-29.75308641975309,2637.8532264397945,,,,,,,,,,,,,,,,,,,7,f,17,r,MH,,2,2022_Jul_07_1502,2020.2.10,acceptmap-regulate,"['Right Face', 'Left Face', 'Right Face', 'Left Face']",59.9918170817774,
,,,,,,,,,,,,,,,,,,,,,,,,,,,,,,,,,,,,,,,,,,,,,,,0.0140805603004992,None,43.703703703703695,2641.4378957399167,,,,,,,,,,,,,,,7,f,17,r,MH,,2,2022_Jul_07_1502,2020.2.10,acceptmap-regulate,"['Right Face', 'Left Face', 'Right Face', 'Left Face']",59.9918170817774,
,,,,,,,,,,,,,,,,,,,,,,,,,,,,,,,,,,,,,,,,,,,,,,,,,,,0.012814460089430213,None,-25.555555555555557,2644.6207516402937,,,,,,,,,,,7,f,17,r,MH,,2,2022_Jul_07_1502,2020.2.10,acceptmap-regulate,"['Right Face', 'Left Face', 'Right Face', 'Left Face']",59.9918170817774,
,,,,,,,,,,,,,,,,,,,,,,,,,,,,,,,,,,,,,,,,,,,,,,,,,,,,,,,0.013309559784829617,None,31.975308641975317,2648.3035512401257,,,,,,,7,f,17,r,MH,,2,2022_Jul_07_1502,2020.2.10,acceptmap-regulate,"['Right Face', 'Left Face', 'Right Face', 'Left Face']",59.9918170817774,
,,,,,,,,,,,,,,,,,,,,,,,,,,,,,,,,,,,,,,,,,,,,,,,,,,,,,,,,,,,0.0138637600466609,None,34.074074074074076,2651.3709419399966,,,7,f,17,r,MH,,2,2022_Jul_07_1502,2020.2.10,acceptmap-regulate,"['Right Face', 'Left Face', 'Right Face', 'Left Face']",59.9918170817774,
,,,,,,,,,,,,,,,,,,,,,,,,,,,,,,,,,,,,,,,,,,,,,,,,,,,,,,,,,,,,,,,0.013210960198193789,None,,,,,,,,,,,,,
