	SID	date	sex	session	handedness	scanner	onset	duration	repetition	rating	body_site	keys	temperature	conditionrt	mouseclick	biopac_channel	condition	rt	value
0	3114	2025_Apr_01_1235	f	1	r	ss sw	2.774506499990821	5.015889672329649								19	Instructions		
1	3114	2025_Apr_01_1235	f	1	r	ss sw	8.610836599953473	2.0076501006260514								6	Cue		
2	3114	2025_Apr_01_1235	f	1	r	ss sw	10.629944699816406	8.002797719789669								7	Pre-Jitter		
3	3114	2025_Apr_01_1235	f	1	r	ss sw	18.699604799970984	15.013741000089794			Right Face		48.0			12	Heat-Stimulation		
4	3114	2025_Apr_01_1235	f	1	r	ss sw	33.78716139984317	5.005507519934326								8	Mid-Jitter		
5	3114	2025_Apr_01_1235	f	1	r	ss sw	38.809400300029665	5.011219540145248								20	PainBinary		0.0
6	3114	2025_Apr_01_1235	f	1	r	ss sw	43.848877999931574	5.015772859798744								21	IntensityRating		38.02469135802469
7	3114	2025_Apr_01_1235	f	1	r	ss sw	48.873349299887195	5.000251740217209								22	ToleranceRating		1.0
8	3114	2025_Apr_01_1235	f	1	r	ss sw	53.87795119988732	5.00772651983425								9	Post-Q-Jitter		
9	3114	2025_Apr_01_1235	f	1	r	ss sw	60.17628779984079	2.0113498605787754								6	Cue		
10	3114	2025_Apr_01_1235	f	1	r	ss sw	62.19214429985732	5.996255120029673								7	Pre-Jitter		
11	3114	2025_Apr_01_1235	f	1	r	ss sw	68.2195456000045	15.008336959872395			Right Face		48.5			12	Heat-Stimulation		
12	3114	2025_Apr_01_1235	f	1	r	ss sw	83.30031910003163	9.013738420326263								8	Mid-Jitter		
13	3114	2025_Apr_01_1235	f	1	r	ss sw	92.3251992999576	4.997566540027037								20	PainBinary		1.0
14	3114	2025_Apr_01_1235	f	1	r	ss sw	97.34132539993152	5.015476940199733								21	IntensityRating		33.7037037037037
15	3114	2025_Apr_01_1235	f	1	r	ss sw	102.372537399875	5.003065440105274								22	ToleranceRating	3.48356690001674	1.0
16	3114	2025_Apr_01_1235	f	1	r	ss sw	107.37910459982231	9.006710519781336								9	Post-Q-Jitter		
17	3114	2025_Apr_01_1235	f	1	r	ss sw	117.7898031999357	2.018979000626132								6	Cue		
18	3114	2025_Apr_01_1235	f	1	r	ss sw	119.80929719982669	3.996569120325148								7	Pre-Jitter		
19	3114	2025_Apr_01_1235	f	1	r	ss sw	123.8414927998092	14.999072859995067			Right Face		48.5			12	Heat-Stimulation		
20	3114	2025_Apr_01_1235	f	1	r	ss sw	138.9183549999725	7.012243820121512								8	Mid-Jitter		
21	3114	2025_Apr_01_1235	f	1	r	ss sw	145.9509093000088	5.013924160040915								20	PainBinary	3.600344799924642	1.0
22	3114	2025_Apr_01_1235	f	1	r	ss sw	150.97625629999675	5.013476540101692								21	IntensityRating		32.46913580246913
23	3114	2025_Apr_01_1235	f	1	r	ss sw	156.0073899999261	5.001229339977726								22	ToleranceRating	1.7334755000192672	1.0
24	3114	2025_Apr_01_1235	f	1	r	ss sw	161.0124319999013	7.007931620115414								9	Post-Q-Jitter		
25	3114	2025_Apr_01_1235	f	1	r	ss sw	169.43628659984097	2.010505720740184								6	Cue		
26	3114	2025_Apr_01_1235	f	1	r	ss sw	171.443351799855	7.996353620197624								7	Pre-Jitter		
27	3114	2025_Apr_01_1235	f	1	r	ss sw	179.48126729996875	15.004109560279176			Right Face		48.5			12	Heat-Stimulation		
28	3114	2025_Apr_01_1235	f	1	r	ss sw	194.5685163999442	9.013231520075351								8	Mid-Jitter		
29	3114	2025_Apr_01_1235	f	1	r	ss sw	203.59278069995344	4.998225240036845								20	PainBinary	1.900360600091517	1.0
30	3114	2025_Apr_01_1235	f	1	r	ss sw	208.60940780001692	4.998526640003547								21	IntensityRating		34.01234567901235
31	3114	2025_Apr_01_1235	f	1	r	ss sw	213.62454389990307	5.001631340011954								22	ToleranceRating	0.23374309996142983	0.0
32	3114	2025_Apr_01_1235	f	1	r	ss sw	218.62998879980296	9.007606819737703								9	Post-Q-Jitter		
33	3114	2025_Apr_01_1235	f	1	r	ss sw	229.06758649996482	2.0160291409119964								6	Cue		
34	3114	2025_Apr_01_1235	f	1	r	ss sw	231.07741409982555	5.996200520079583								7	Pre-Jitter		
35	3114	2025_Apr_01_1235	f	1	r	ss sw	237.11919449991547	15.012946279952303			Right Face		48.5			12	Heat-Stimulation		
36	3114	2025_Apr_01_1235	f	1	r	ss sw	252.20191589999013	7.014429719885811								8	Mid-Jitter		
37	3114	2025_Apr_01_1235	f	1	r	ss sw	259.2283110998105	5.011783040128648								20	PainBinary	2.100129600148648	1.0
38	3114	2025_Apr_01_1235	f	1	r	ss sw	264.25970990001224	4.999080739915371								21	IntensityRating	3.9841032999102026	35.123456790123456
39	3114	2025_Apr_01_1235	f	1	r	ss sw	269.27421039994806	5.003513640258461								22	ToleranceRating	1.4837121001910418	1.0
40	3114	2025_Apr_01_1235	f	1	r	ss sw	274.2807754999958	7.007165320217609								9	Post-Q-Jitter		
41	3114	2025_Apr_01_1235	f	1	r	ss sw	282.60683359997347	2.005351900588721								6	Cue		
42	3114	2025_Apr_01_1235	f	1	r	ss sw	284.6110196998343	5.996780920075253								7	Pre-Jitter		
43	3114	2025_Apr_01_1235	f	1	r	ss sw	290.6460331999697	15.010336260078475			Right Face		48.5			12	Heat-Stimulation		
44	3114	2025_Apr_01_1235	f	1	r	ss sw	305.7362333999481	9.013709420105442								8	Mid-Jitter		
45	3114	2025_Apr_01_1235	f	1	r	ss sw	314.7615365998354	4.996583740226924								20	PainBinary	1.7673919999506325	1.0
46	3114	2025_Apr_01_1235	f	1	r	ss sw	319.7787866999861	5.0121818403713405								21	IntensityRating	4.566841900115833	34.5679012345679
47	3114	2025_Apr_01_1235	f	1	r	ss sw	324.8081017998047	5.0036485402379185								22	ToleranceRating	1.7170199998654425	1.0
48	3114	2025_Apr_01_1235	f	1	r	ss sw	329.8153397999704	9.006020619999617								9	Post-Q-Jitter		
49	3114	2025_Apr_01_1235	f	1	r	ss sw	340.1127702998929	2.011477960506454								6	Cue		
50	3114	2025_Apr_01_1235	f	1	r	ss sw	342.12854409986176	5.9965729201212525								7	Pre-Jitter		
51	3114	2025_Apr_01_1235	f	1	r	ss sw	348.16181920003146	14.99692066013813			Right Face		48.5			12	Heat-Stimulation		
52	3114	2025_Apr_01_1235	f	1	r	ss sw	363.2352026000153	7.000392000190914								8	Mid-Jitter		
53	3114	2025_Apr_01_1235	f	1	r	ss sw	370.26215069997124	5.013263040222228								20	PainBinary	1.4501281001139432	1.0
54	3114	2025_Apr_01_1235	f	1	r	ss sw	375.29431469994597	4.9991737401578575								21	IntensityRating		36.358024691358025
55	3114	2025_Apr_01_1235	f	1	r	ss sw	380.30894409981556	5.003260440193117								22	ToleranceRating	1.983639599988237	1.0
56	3114	2025_Apr_01_1235	f	1	r	ss sw	385.3154749998357	7.006977020064369								9	Post-Q-Jitter		
57	3114	2025_Apr_01_1235	f	1	r	ss sw	392.3562044999562	26.309416860109195								26	ComfortRating	26.26913070003502	23.70370370370371
58	3114	2025_Apr_01_1235	f	1	r	ss sw	418.68546990002505	7.367920440156013								24	ValenceRating	7.3369706000667065	38.88888888888889
59	3114	2025_Apr_01_1235	f	1	r	ss sw	426.07732879999094	4.650949840201065								26	IntensityRating	4.6336821999866515	54.81481481481482
60	3114	2025_Apr_01_1235	f	1	r	ss sw	430.74705919995904	8.928304240107536								27	AvoidanceRating	8.900404300075024	22.839506172839492
61	3114	2025_Apr_01_1235	f	1	r	ss sw	439.6927520998288	8.720491640036926								28	RelaxationRating	8.700250199995935	56.41975308641975
62	3114	2025_Apr_01_1235	f	1	r	ss sw	448.4303178000264	9.228865040233359								29	AttentionRating	9.20077809994109	74.07407407407408
63	3114	2025_Apr_01_1235	f	1	r	ss sw	457.67613479983993	5.354088540188968								30	BoredomRating	5.319660200038925	55.74074074074075
64	3114	2025_Apr_01_1235	f	1	r	ss sw	463.04483509995043	5.083490140270442								31	AlertnessRating	5.067055799998343	25.80246913580247
65	3114	2025_Apr_01_1235	f	1	r	ss sw	468.14552979986183	7.9822062398307025								32	PosThxRating	7.9680196000263095	35.55555555555554
66	3114	2025_Apr_01_1235	f	1	r	ss sw	476.1465256998781	8.147102640243247								33	NegThxRating	8.116894700098783	-16.666666666666657
67	3114	2025_Apr_01_1235	f	1	r	ss sw	484.3108886999544	5.235206140205264								34	SelfRating	5.217036600224674	14.444444444444457
68	3114	2025_Apr_01_1235	f	1	r	ss sw	489.5602329999674	3.3699123403057456								35	OtherRating	3.3506988000590354	-25.555555555555557
69	3114	2025_Apr_01_1235	f	1	r	ss sw	492.94677079981193	8.16366314003244								32	ImageryRating	8.133596800034866	41.111111111111114
70	3114	2025_Apr_01_1235	f	1	r	ss sw	501.13044500001706	7.7298271402250975								37	PresentRating	7.700239200145006	41.85185185185185
