	SID	date	sex	session	handedness	scanner	onset	duration	repetition	rating	body_site	keys	temperature	conditionrt	mouseclick	biopac_channel	condition	rt	value
0	2666	2023_Apr_18_1329	m	01	right	mh,jd	2.774430100020254	5.005513649201021								19	Instructions		
1	2666	2023_Apr_18_1329	m	01	right	mh,jd	8.425325599993812	2.002070299931802								6	Cue		
2	2666	2023_Apr_18_1329	m	01	right	mh,jd	10.43051830001059	5.993900969973765								7	Pre-Jitter		
3	2666	2023_Apr_18_1329	m	01	right	mh,jd	16.46389579999959	15.010554010019405			Left Arm		48.0			13	Heat-Stimulation		
4	2666	2023_Apr_18_1329	m	01	right	mh,jd	31.558651900006225	5.004446620005183								8	Mid-Jitter		
5	2666	2023_Apr_18_1329	m	01	right	mh,jd	36.58112800001982	5.009812639968004								20	PainBinary	1.133295299980091	1.0
6	2666	2023_Apr_18_1329	m	01	right	mh,jd	41.61450130000594	5.009825239976635								21	IntensityRating	2.9333705000171904	52.59259259259259
7	2666	2023_Apr_18_1329	m	01	right	mh,jd	46.644198900001356	5.000502639974002								22	ToleranceRating	2.3170196999853943	1.0
8	2666	2023_Apr_18_1329	m	01	right	mh,jd	51.64934259999427	5.007020569988526								9	Post-Q-Jitter		
9	2666	2023_Apr_18_1329	m	01	right	mh,jd	57.66613950001192	2.003562969941413								6	Cue		
10	2666	2023_Apr_18_1329	m	01	right	mh,jd	59.67956059999415	3.9967370700032916								7	Pre-Jitter		
11	2666	2023_Apr_18_1329	m	01	right	mh,jd	63.71938500000397	15.000502009992488			Left Arm		48.5			13	Heat-Stimulation		
12	2666	2023_Apr_18_1329	m	01	right	mh,jd	78.80467790001421	9.013317920005647								8	Mid-Jitter		
13	2666	2023_Apr_18_1329	m	01	right	mh,jd	87.8317539000127	5.009497639985057								20	PainBinary	1.2666428000084125	1.0
14	2666	2023_Apr_18_1329	m	01	right	mh,jd	92.86457309999969	5.010625640017679								21	IntensityRating	1.649975300009828	52.77777777777778
15	2666	2023_Apr_18_1329	m	01	right	mh,jd	97.89463170000818	5.000669739965815								22	ToleranceRating	1.9336456000164617	1.0
16	2666	2023_Apr_18_1329	m	01	right	mh,jd	102.90007329999935	9.006509769998956								9	Post-Q-Jitter		
17	2666	2023_Apr_18_1329	m	01	right	mh,jd	112.92048760000034	2.0124135399528313								6	Cue		
18	2666	2023_Apr_18_1329	m	01	right	mh,jd	114.92999580001924	7.996949569991557								7	Pre-Jitter		
19	2666	2023_Apr_18_1329	m	01	right	mh,jd	122.9694395000115	15.001536810013931			Left Arm		48.5			13	Heat-Stimulation		
20	2666	2023_Apr_18_1329	m	01	right	mh,jd	138.05415850001737	9.015521619963693								8	Mid-Jitter		
21	2666	2023_Apr_18_1329	m	01	right	mh,jd	147.08246289999806	5.00929224002175								20	PainBinary	1.5000422000011895	1.0
22	2666	2023_Apr_18_1329	m	01	right	mh,jd	152.1153292999952	5.010312240046915								21	IntensityRating	1.5168889999913517	52.28395061728395
23	2666	2023_Apr_18_1329	m	01	right	mh,jd	157.14612910000142	4.998787240008824								22	ToleranceRating	2.0003323999990243	1.0
24	2666	2023_Apr_18_1329	m	01	right	mh,jd	162.15013100000215	9.007669670012547								9	Post-Q-Jitter		
25	2666	2023_Apr_18_1329	m	01	right	mh,jd	172.12181159999454	2.011279729922535								6	Cue		
26	2666	2023_Apr_18_1329	m	01	right	mh,jd	174.1310996999964	7.99594207003247								7	Pre-Jitter		
27	2666	2023_Apr_18_1329	m	01	right	mh,jd	182.1639342000126	14.997025110002141			Left Arm		48.5			13	Heat-Stimulation		
28	2666	2023_Apr_18_1329	m	01	right	mh,jd	197.23761620000005	5.016361919988412								8	Mid-Jitter		
29	2666	2023_Apr_18_1329	m	01	right	mh,jd	202.2666113000014	5.0087120399985								20	PainBinary	1.4833470000012312	1.0
30	2666	2023_Apr_18_1329	m	01	right	mh,jd	207.29899410001235	5.010700140002882								21	IntensityRating	2.8834129000024404	48.82716049382716
31	2666	2023_Apr_18_1329	m	01	right	mh,jd	212.32934330002172	5.000109840009827								22	ToleranceRating	1.2503188999835402	1.0
32	2666	2023_Apr_18_1329	m	01	right	mh,jd	217.3352334999945	5.005208369984757								9	Post-Q-Jitter		
33	2666	2023_Apr_18_1329	m	01	right	mh,jd	222.86072280001827	2.002650839946								6	Cue		
34	2666	2023_Apr_18_1329	m	01	right	mh,jd	224.86473430000478	5.996321370010264								7	Pre-Jitter		
35	2666	2023_Apr_18_1329	m	01	right	mh,jd	230.92239310001605	15.014308549987618			Left Arm		48.5			13	Heat-Stimulation		
36	2666	2023_Apr_18_1329	m	01	right	mh,jd	246.00662770000054	7.012673620018177								8	Mid-Jitter		
37	2666	2023_Apr_18_1329	m	01	right	mh,jd	253.0338859000185	5.008505639998475								20	PainBinary	1.2499654999992345	1.0
38	2666	2023_Apr_18_1329	m	01	right	mh,jd	258.06608040002175	5.01086753999698								21	IntensityRating	2.2333318000019062	49.32098765432099
39	2666	2023_Apr_18_1329	m	01	right	mh,jd	263.09650630000397	5.000109140004497								22	ToleranceRating	1.6502904999942984	1.0
40	2666	2023_Apr_18_1329	m	01	right	mh,jd	268.1018438000174	7.006257070024731								9	Post-Q-Jitter		
41	2666	2023_Apr_18_1329	m	01	right	mh,jd	276.1762849999941	2.003966349933762								6	Cue		
42	2666	2023_Apr_18_1329	m	01	right	mh,jd	278.1819694000005	7.996210870012874								7	Pre-Jitter		
43	2666	2023_Apr_18_1329	m	01	right	mh,jd	286.23484499999904	15.007197680009995			Left Arm		48.5			13	Heat-Stimulation		
44	2666	2023_Apr_18_1329	m	01	right	mh,jd	301.32640429999446	9.007555220014183								8	Mid-Jitter		
45	2666	2023_Apr_18_1329	m	01	right	mh,jd	310.350101500022	5.010524540004553								20	PainBinary	0.9000515000079758	1.0
46	2666	2023_Apr_18_1329	m	01	right	mh,jd	315.38307959999656	5.011339740012772								21	IntensityRating	2.066674800007604	53.70370370370371
47	2666	2023_Apr_18_1329	m	01	right	mh,jd	320.41333740000846	5.000915139971767								22	ToleranceRating	1.300276699999813	1.0
48	2666	2023_Apr_18_1329	m	01	right	mh,jd	325.41912460001186	9.00618537000264								9	Post-Q-Jitter		
49	2666	2023_Apr_18_1329	m	01	right	mh,jd	335.4531653000158	2.018159709929023								6	Cue		
50	2666	2023_Apr_18_1329	m	01	right	mh,jd	337.4651097000169	5.997764269995969								7	Pre-Jitter		
51	2666	2023_Apr_18_1329	m	01	right	mh,jd	343.49192299999413	15.01091780999559			Left Arm		48.5			13	Heat-Stimulation		
52	2666	2023_Apr_18_1329	m	01	right	mh,jd	358.576232899999	5.008968619978987								8	Mid-Jitter		
53	2666	2023_Apr_18_1329	m	01	right	mh,jd	363.60123090000707	5.009315539995441								20	PainBinary	1.1333483000053093	1.0
54	2666	2023_Apr_18_1329	m	01	right	mh,jd	368.6338642000046	5.010810840001795								21	IntensityRating	1.999962100002449	57.22222222222223
55	2666	2023_Apr_18_1329	m	01	right	mh,jd	373.66366760001983	5.001292039989494								22	ToleranceRating	0.9503147000214085	1.0
56	2666	2023_Apr_18_1329	m	01	right	mh,jd	378.66961520002224	5.006206169986399								9	Post-Q-Jitter		
57	2666	2023_Apr_18_1329	m	01	right	mh,jd	383.7082147000183	13.645857710012933								26	ComfortRating	13.617082799988566	-8.518518518518519
58	2666	2023_Apr_18_1329	m	01	right	mh,jd	397.3709577000118	4.5206058399926405								24	ValenceRating	4.5000019000144675	66.35802469135803
59	2666	2023_Apr_18_1329	m	01	right	mh,jd	401.9150927000155	4.815751739952248								26	IntensityRating	4.80030989999068	69.25925925925925
60	2666	2023_Apr_18_1329	m	01	right	mh,jd	406.75022650000756	5.178807240008609								27	AvoidanceRating	5.149945599987404	60.74074074074073
61	2666	2023_Apr_18_1329	m	01	right	mh,jd	411.9465194999939	5.202986540010897								28	RelaxationRating	5.183687099983217	58.2716049382716
62	2666	2023_Apr_18_1329	m	01	right	mh,jd	417.16776790001313	3.627378539968049								29	AttentionRating	3.5860576999839395	89.87654320987653
63	2666	2023_Apr_18_1329	m	01	right	mh,jd	420.81412049999926	3.7514070400211494								30	BoredomRating	3.733697400020901	17.222222222222225
64	2666	2023_Apr_18_1329	m	01	right	mh,jd	424.5810771000106	6.884257939993404								31	AlertnessRating	6.867013999988558	20.617283950617278
65	2666	2023_Apr_18_1329	m	01	right	mh,jd	431.4823497000034	4.048477439995622								32	PosThxRating	4.0338081999798305	17.90123456790124
66	2666	2023_Apr_18_1329	m	01	right	mh,jd	435.54860030001146	3.1160423399705905								33	NegThxRating	3.100361300021177	-22.592592592592595
67	2666	2023_Apr_18_1329	m	01	right	mh,jd	438.6825707000098	4.3148881400120445								34	SelfRating	4.300512800022261	29.62962962962962
68	2666	2023_Apr_18_1329	m	01	right	mh,jd	443.01528230000986	2.632829740003217								35	OtherRating	2.6169808999984525	-13.333333333333329
69	2666	2023_Apr_18_1329	m	01	right	mh,jd	445.6656430000148	5.098822139989352								32	ImageryRating	5.083716000022832	34.81481481481481
70	2666	2023_Apr_18_1329	m	01	right	mh,jd	450.78452790001757	5.594516939978348								37	PresentRating	5.56666939999559	-31.481481481481495
