	SID	biopac_channel	body_site	condition	correct	date	duration	handedness	mouseclick	onset	rt	scanner	score	session	sex	skin_site	temperature	value
0	3007	51	Left Leg	Expectancy		2024_Aug_08_2225	5.016821860801429	r		3.17283820011653		SS MRS		2	f	2		56.23456790123457
1	3007	44	Left Leg	0-back Instruction		2024_Aug_08_2225	5.006726720137522	r		8.571175300050527		SS MRS		2	f	2		
2	3007	7	Left Leg	Pre-Trial Jitter		2024_Aug_08_2225	7.004667929839343	r		13.588997599901631		SS MRS		2	f	2		
3	3007	44.0	Left Leg	pretrialfixation		2024_Aug_08_2225	1.0038231399375945	r		20.88110679993406		SS MRS		2	f	2		
4	3007		Left Leg	0-back	1.0	2024_Aug_08_2225	1.9899385299067944	r	0.0	21.888088300125673	0.646752699976787	SS MRS	12.5	2	f	2	48.5	
5	3007		Left Leg	0-back	1.0	2024_Aug_08_2225	1.9879877297207713	r	0.0	23.89743830007501	0.33029389986768365	SS MRS	25.0	2	f	2	48.5	
6	3007		Left Leg	0-back	1.0	2024_Aug_08_2225	1.989179230062291	r	0.0	25.89687280007638	0.3305273000150919	SS MRS	37.5	2	f	2	48.5	
7	3007		Left Leg	0-back	1.0	2024_Aug_08_2225	1.9888658300042152	r	0.0	27.897044599987566	0.36387420003302395	SS MRS	50.0	2	f	2	48.5	
8	3007		Left Leg	0-back	1.0	2024_Aug_08_2225	1.9892065301537514	r	0.0	29.896913999924436	0.31347659998573363	SS MRS	62.5	2	f	2	48.5	
9	3007		Left Leg	0-back	1.0	2024_Aug_08_2225	1.9890091300476342	r	0.0	31.89697610004805	0.3670477999839932	SS MRS	75.0	2	f	2	48.5	
10	3007		Left Leg	0-back	1.0	2024_Aug_08_2225	1.9893269299063832	r	0.0	33.89688710006885	0.31371999997645617	SS MRS	87.5	2	f	2	48.5	
11	3007		Left Leg	0-back	1.0	2024_Aug_08_2225	1.9886692299041897	r	0.0	35.89723920007236	0.31358869979158044	SS MRS	100.0	2	f	2	48.5	
12	3007	48.0	Left Leg	ScoreReport		2024_Aug_08_2225	5.005430429941043	r		37.905548400012776		SS MRS		2	f	2		
13	3007	8	Left Leg	Post-Trial Jitter		2024_Aug_08_2225	4.993327720090747	r		42.96998910000548		SS MRS		2	f	2		
14	3007	20	Left Leg	PainBinary		2024_Aug_08_2225	5.005934559972957	r		47.98049270012416		SS MRS		2	f	2		1.0
15	3007	21	Left Leg	IntensityRating		2024_Aug_08_2225	5.011222560191527	r		53.00291160005145		SS MRS		2	f	2		62.59259259259259
16	3007	23	Left Leg	DistractBinary		2024_Aug_08_2225	5.003912560176104	r		58.03161810012534		SS MRS		2	f	2		1.0
17	3007	9	Left Leg	Post-Q-Jitter		2024_Aug_08_2225	4.994882230414078	r		63.03613599995151		SS MRS		2	f	2		
18	3007	51	Left Leg	Expectancy		2024_Aug_08_2225	5.006002660142258	r		68.55564359994605		SS MRS		2	f	2		61.543209876543216
19	3007	44	Left Leg	0-back Instruction		2024_Aug_08_2225	5.007999520050362	r		73.95467399992049		SS MRS		2	f	2		
20	3007	7	Left Leg	Pre-Trial Jitter		2024_Aug_08_2225	9.004276929888874	r		78.97331000003032		SS MRS		2	f	2		
21	3007	44.0	Left Leg	pretrialfixation		2024_Aug_08_2225	0.9986989400349557	r		88.2677974998951		SS MRS		2	f	2		
22	3007		Left Leg	0-back	1.0	2024_Aug_08_2225	1.9892000302206725	r	0.0	89.27261180011556	0.3969564998988062	SS MRS	12.5	2	f	2	48.5	
23	3007		Left Leg	0-back	1.0	2024_Aug_08_2225	1.98760133003816	r	0.0	91.28176850010641	0.30054219998419285	SS MRS	25.0	2	f	2	48.5	
24	3007		Left Leg	0-back	1.0	2024_Aug_08_2225	1.9889663299545646	r	0.0	93.28110449993983	0.38041350012645125	SS MRS	37.5	2	f	2	48.5	
25	3007		Left Leg	0-back	1.0	2024_Aug_08_2225	1.9891046301927418	r	0.0	95.2810553999152	0.3804085000883788	SS MRS	50.0	2	f	2	48.5	
26	3007		Left Leg	0-back	1.0	2024_Aug_08_2225	1.9891121299006045	r	0.0	97.28105770004913	0.3469416999723762	SS MRS	62.5	2	f	2	48.5	
27	3007		Left Leg	0-back	1.0	2024_Aug_08_2225	1.9889039299450815	r	0.0	99.2811988000758	0.33037539990618825	SS MRS	75.0	2	f	2	48.5	
28	3007		Left Leg	0-back	1.0	2024_Aug_08_2225	1.988952630199492	r	0.0	101.28120349999517	0.3305198000743985	SS MRS	87.5	2	f	2	48.5	
29	3007		Left Leg	0-back	1.0	2024_Aug_08_2225	1.988990930141881	r	0.0	103.28122389991768	0.3804715999867767	SS MRS	100.0	2	f	2	48.5	
30	3007	48.0	Left Leg	ScoreReport		2024_Aug_08_2225	5.00459203007631	r		105.29011840000749		SS MRS		2	f	2		
31	3007	8	Left Leg	Post-Trial Jitter		2024_Aug_08_2225	5.003740319982171	r		110.34892589994706		SS MRS		2	f	2		
32	3007	20	Left Leg	PainBinary		2024_Aug_08_2225	5.003801460145041	r		115.36567960004322		SS MRS		2	f	2		1.0
33	3007	21	Left Leg	IntensityRating		2024_Aug_08_2225	5.012704860186204	r		120.38624610006809	3.8006170000880957	SS MRS		2	f	2		62.22222222222222
34	3007	23	Left Leg	DistractBinary		2024_Aug_08_2225	5.003688360098749	r		125.41580429999158	1.183634900022298	SS MRS		2	f	2		1.0
35	3007	9	Left Leg	Post-Q-Jitter		2024_Aug_08_2225	4.995769529836252	r		130.41981739993207		SS MRS		2	f	2		
36	3007	43	Left Leg	2-back Instruction		2024_Aug_08_2225	5.008984660031274	r		135.43828310002573		SS MRS		2	f	2		
37	3007	7	Left Leg	Pre-trial Jitter		2024_Aug_08_2225	9.004451330052689	r		140.4573003000114		SS MRS		2	f	2		
38	3007	44.0	Left Leg	pretrialfixation		2024_Aug_08_2225	1.0076928797643632	r		149.72238550009206		SS MRS		2	f	2		
39	3007		Left Leg	2-back	1.0	2024_Aug_08_2225	1.989773030159995	r		150.73971939994954		SS MRS	12.5	2	f	2	32.0	
40	3007		Left Leg	2-back	1.0	2024_Aug_08_2225	1.9876458302605897	r		152.74913959996775		SS MRS	25.0	2	f	2	32.0	
41	3007		Left Leg	2-back	1.0	2024_Aug_08_2225	1.9879983300343156	r	2	154.74895739997737	0.43037409987300634	SS MRS	37.5	2	f	2	32.0	
42	3007		Left Leg	2-back	1.0	2024_Aug_08_2225	1.988466130103916	r	2	156.7485138999764	0.4303944001439959	SS MRS	50.0	2	f	2	32.0	
43	3007		Left Leg	2-back	1.0	2024_Aug_08_2225	1.9879500300157815	r	0	158.74905090010725	0.3970905998721719	SS MRS	62.5	2	f	2	32.0	
44	3007		Left Leg	2-back	1.0	2024_Aug_08_2225	1.986878130119294	r	2	160.74963039997965	0.49692429997958243	SS MRS	75.0	2	f	2	32.0	
45	3007		Left Leg	2-back	1.0	2024_Aug_08_2225	1.9877747299615294	r	2	162.74918960011564	0.5634884000755847	SS MRS	87.5	2	f	2	32.0	
46	3007		Left Leg	2-back	1.0	2024_Aug_08_2225	1.9875026301015168	r	0	164.74935019994155	0.34707690007053316	SS MRS	100.0	2	f	2	32.0	
47	3007	48.0	Left Leg	ScoreReport		2024_Aug_08_2225	5.001894629793242	r		166.75886019994505		SS MRS		2	f	2		
48	3007	8	Left Leg	Post-trial Jitter		2024_Aug_08_2225	6.998292219825089	r		171.81904039997607		SS MRS		2	f	2		
49	3007	43	Left Leg	2-back Instruction		2024_Aug_08_2225	5.00914125982672	r		178.83870809990913		SS MRS		2	f	2		
50	3007	7	Left Leg	Pre-trial Jitter		2024_Aug_08_2225	7.001860830001533	r		183.85909290006384		SS MRS		2	f	2		
51	3007	44.0	Left Leg	pretrialfixation		2024_Aug_08_2225	0.9980060798116028	r		191.1193687999621		SS MRS		2	f	2		
52	3007		Left Leg	2-back	1.0	2024_Aug_08_2225	1.9915911299176514	r		192.12263350002468		SS MRS	12.5	2	f	2	32.0	
53	3007		Left Leg	2-back	1.0	2024_Aug_08_2225	1.9868230300489813	r		194.13337359996513		SS MRS	25.0	2	f	2	32.0	
54	3007		Left Leg	2-back	1.0	2024_Aug_08_2225	1.9878365301992744	r	2	196.13289340003394	0.5138346999883652	SS MRS	37.5	2	f	2	32.0	
55	3007		Left Leg	2-back	1.0	2024_Aug_08_2225	1.9875168302096426	r	0	198.1330393999815	0.4507488999515772	SS MRS	50.0	2	f	2	32.0	
56	3007		Left Leg	2-back	1.0	2024_Aug_08_2225	1.987670429982245	r	2	200.13295429991558	0.646938799880445	SS MRS	62.5	2	f	2	32.0	
57	3007		Left Leg	2-back	1.0	2024_Aug_08_2225	1.987950530136004	r	2	202.13290160009637	0.48039110004901886	SS MRS	75.0	2	f	2	32.0	
58	3007		Left Leg	2-back	1.0	2024_Aug_08_2225	1.9878507300745696	r	2	204.13294719997793	0.5303905000910163	SS MRS	87.5	2	f	2	32.0	
59	3007		Left Leg	2-back	1.0	2024_Aug_08_2225	1.9876052297186106	r	0	206.1331138999667	0.38007169985212386	SS MRS	100.0	2	f	2	32.0	
60	3007	48.0	Left Leg	ScoreReport		2024_Aug_08_2225	5.001924830023199	r		208.14265609998256		SS MRS		2	f	2		
61	3007	8	Left Leg	Post-trial Jitter		2024_Aug_08_2225	7.007740820059553	r		213.20649609994143		SS MRS		2	f	2		
62	3007	51	Left Leg	Expectancy		2024_Aug_08_2225	5.003129880176857	r		220.46723710000515		SS MRS		2	f	2		58.20987654320987
63	3007	45	Left Leg	2-back Instruction		2024_Aug_08_2225	5.0091609202791005	r		225.855886900099		SS MRS		2	f	2		
64	3007	7	Left Leg	Pre-trial Jitter		2024_Aug_08_2225	7.002856930019334	r		230.87582620000467		SS MRS		2	f	2		
65	3007	44.0	Left Leg	pretrialfixation		2024_Aug_08_2225	0.9967791400849819	r		238.1705396999605		SS MRS		2	f	2		
66	3007		Left Leg	2-back	1.0	2024_Aug_08_2225	1.9920596303418279	r		239.17295740009286		SS MRS	12.5	2	f	2	48.5	
67	3007		Left Leg	2-back	1.0	2024_Aug_08_2225	1.9874165300279856	r		241.18365860008635		SS MRS	25.0	2	f	2	48.5	
68	3007		Left Leg	2-back	1.0	2024_Aug_08_2225	1.9880601302720606	r	0	243.18333070003428	0.5637799000833184	SS MRS	37.5	2	f	2	48.5	
69	3007		Left Leg	2-back	1.0	2024_Aug_08_2225	1.987015530001372	r	2	245.1838807000313	0.46381539991125464	SS MRS	50.0	2	f	2	48.5	
70	3007		Left Leg	2-back	1.0	2024_Aug_08_2225	1.9873331303242594	r	2	247.18374649994075	0.5511497000698	SS MRS	62.5	2	f	2	48.5	
71	3007		Left Leg	2-back	1.0	2024_Aug_08_2225	1.9870350300334394	r	2	249.18393420008942	0.48005879996344447	SS MRS	75.0	2	f	2	48.5	
72	3007		Left Leg	2-back	1.0	2024_Aug_08_2225	1.9875468299724162	r	2	251.18368849996477	0.43384159984998405	SS MRS	87.5	2	f	2	48.5	
73	3007		Left Leg	2-back	1.0	2024_Aug_08_2225	1.9870429299771786	r	2	253.1839608999435	0.563716100063175	SS MRS	100.0	2	f	2	48.5	
74	3007	48.0	Left Leg	ScoreReport		2024_Aug_08_2225	5.001567530212924	r		255.19345690007322		SS MRS		2	f	2		
75	3007	8	Left Leg	Post-trial Jitter		2024_Aug_08_2225	4.996105920057744	r		260.25453640008345		SS MRS		2	f	2		
76	3007	20	Left Leg	PainBinary		2024_Aug_08_2225	5.002078260062262	r		265.2683385000564		SS MRS		2	f	2		1.0
77	3007	21	Left Leg	IntensityRating		2024_Aug_08_2225	5.013267460279167	r		270.28778790007345		SS MRS		2	f	2		58.7037037037037
78	3007	23	Left Leg	DistractBinary		2024_Aug_08_2225	5.003682660171762	r		275.3175745001063	2.716992700006813	SS MRS		2	f	2		1.0
79	3007	9	Left Leg	Post-Q-Jitter		2024_Aug_08_2225	4.994219230022281	r		280.32237829989754		SS MRS		2	f	2		
80	3007	51	Left Leg	Expectancy		2024_Aug_08_2225	5.007734060054645	r		285.84063460002653	2.3858314999379218	SS MRS		2	f	2		57.71604938271605
81	3007	45	Left Leg	2-back Instruction		2024_Aug_08_2225	5.00539542012848	r		291.24187620007433		SS MRS		2	f	2		
82	3007	7	Left Leg	Pre-trial Jitter		2024_Aug_08_2225	9.001213629962876	r		296.26074580010027		SS MRS		2	f	2		
83	3007	44.0	Left Leg	pretrialfixation		2024_Aug_08_2225	0.9974690400995314	r		305.55431560007855		SS MRS		2	f	2		
84	3007		Left Leg	2-back	1.0	2024_Aug_08_2225	1.9903600302059203	r		306.5579365999438		SS MRS	12.5	2	f	2	48.5	
85	3007		Left Leg	2-back	1.0	2024_Aug_08_2225	1.9867679299786687	r		308.5680841000285		SS MRS	25.0	2	f	2	48.5	
86	3007		Left Leg	2-back	1.0	2024_Aug_08_2225	1.9882461298257113	r	2	310.567369800061	0.6302684000693262	SS MRS	37.5	2	f	2	48.5	
87	3007		Left Leg	2-back	1.0	2024_Aug_08_2225	1.9868964301422238	r	2	312.56806330010295	0.5469312998466194	SS MRS	50.0	2	f	2	48.5	
88	3007		Left Leg	2-back	1.0	2024_Aug_08_2225	1.987988730194047	r	0	314.5675447001122	0.41312530008144677	SS MRS	62.5	2	f	2	48.5	
89	3007		Left Leg	2-back	1.0	2024_Aug_08_2225	1.9879135300870985	r	2	316.56760410009883	0.44694610009901226	SS MRS	75.0	2	f	2	48.5	
90	3007		Left Leg	2-back	1.0	2024_Aug_08_2225	1.988078729948029	r	0	318.5675562999677	0.550202100072056	SS MRS	87.5	2	f	2	48.5	
91	3007		Left Leg	2-back	1.0	2024_Aug_08_2225	1.987318330211565	r	2	320.56794660002925	0.5303359997924417	SS MRS	100.0	2	f	2	48.5	
92	3007	48.0	Left Leg	ScoreReport		2024_Aug_08_2225	5.001960430061445	r		322.5773102999665		SS MRS		2	f	2		
93	3007	8	Left Leg	Post-trial Jitter		2024_Aug_08_2225	8.995803120080382	r		327.6388360001147		SS MRS		2	f	2		
94	3007	20	Left Leg	PainBinary		2024_Aug_08_2225	5.00135636003688	r		336.65281450003386	1.9669868999626487	SS MRS		2	f	2		1.0
95	3007	21	Left Leg	IntensityRating		2024_Aug_08_2225	5.013181060086936	r		341.67195870005526	3.916885299840942	SS MRS		2	f	2		57.71604938271605
96	3007	23	Left Leg	DistractBinary		2024_Aug_08_2225	5.003273959737271	r		346.7019668999128	1.0836808998137712	SS MRS		2	f	2		1.0
97	3007	9	Left Leg	Post-Q-Jitter		2024_Aug_08_2225	8.995196430245414	r		351.7060891999863		SS MRS		2	f	2		
98	3007	42	Left Leg	0-back Instruction		2024_Aug_08_2225	5.006740760058165	r		360.72539129992947		SS MRS		2	f	2		
99	3007	7	Left Leg	Pre-Trial Jitter		2024_Aug_08_2225	5.00202023005113	r		365.744477200089		SS MRS		2	f	2		
100	3007	44.0	Left Leg	pretrialfixation		2024_Aug_08_2225	0.9953352797310799	r		371.0061695999466		SS MRS		2	f	2		
101	3007		Left Leg	0-back	1.0	2024_Aug_08_2225	1.9900802299380302	r	0.0	372.00884029990993	0.5804976001381874	SS MRS	12.5	2	f	2	32.0	
102	3007		Left Leg	0-back	1.0	2024_Aug_08_2225	1.987550930120051	r	0.0	374.0184697001241	0.36373799992725253	SS MRS	25.0	2	f	2	32.0	
103	3007		Left Leg	0-back	1.0	2024_Aug_08_2225	1.9891637300606817	r	0.0	376.01768249995075	0.3304164002183825	SS MRS	37.5	2	f	2	32.0	
104	3007		Left Leg	0-back	1.0	2024_Aug_08_2225	1.988173230085522	r	0.0	378.01820689998567	0.3467438998632133	SS MRS	50.0	2	f	2	32.0	
105	3007		Left Leg	0-back	1.0	2024_Aug_08_2225	1.9891618301626295	r	0.0	380.0177466000896	0.2970599001273513	SS MRS	62.5	2	f	2	32.0	
106	3007		Left Leg	0-back	1.0	2024_Aug_08_2225	1.988583130063489	r	0.0	382.0180174000561	0.31770949997007847	SS MRS	75.0	2	f	2	32.0	
107	3007		Left Leg	0-back	1.0	2024_Aug_08_2225	1.989360730163753	r	0.0	384.0176204999443	0.3302233999129385	SS MRS	87.5	2	f	2	32.0	
108	3007		Left Leg	0-back	1.0	2024_Aug_08_2225	1.9889168301597238	r	0.0	386.0179312999826	0.29701229999773204	SS MRS	100.0	2	f	2	32.0	
109	3007	48.0	Left Leg	ScoreReport		2024_Aug_08_2225	5.005812730174512	r		388.0261751001235		SS MRS		2	f	2		
110	3007	8	Left Leg	Post-Trial Jitter		2024_Aug_08_2225	8.99698452022858	r		393.08901829994284		SS MRS		2	f	2		
111	3007	42	Left Leg	0-back Instruction		2024_Aug_08_2225	5.009204560192302	r		402.10799850011244		SS MRS		2	f	2		
112	3007	7	Left Leg	Pre-Trial Jitter		2024_Aug_08_2225	5.002021529944614	r		407.12831469997764		SS MRS		2	f	2		
113	3007	44.0	Left Leg	pretrialfixation		2024_Aug_08_2225	1.0048548795748502	r		412.3935869000852		SS MRS		2	f	2		
114	3007		Left Leg	0-back	1.0	2024_Aug_08_2225	1.9914724302943796	r	0.0	413.4086676000152	0.5633378000929952	SS MRS	12.5	2	f	2	32.0	
115	3007		Left Leg	0-back	1.0	2024_Aug_08_2225	1.9884192300960422	r	0.0	415.4185331000481	0.38026249990798533	SS MRS	25.0	2	f	2	32.0	
116	3007		Left Leg	0-back	1.0	2024_Aug_08_2225	1.989309329772368	r	0.0	417.41811039997265	0.34688360011205077	SS MRS	37.5	2	f	2	32.0	
117	3007		Left Leg	0-back	1.0	2024_Aug_08_2225	1.989387430017814	r	0.0	419.4180916000623	0.3136724999640137	SS MRS	50.0	2	f	2	32.0	
118	3007		Left Leg	0-back	1.0	2024_Aug_08_2225	1.9892659299075603	r	0.0	421.41818160004914	0.33408090006560087	SS MRS	62.5	2	f	2	32.0	
119	3007		Left Leg	0-back	1.0	2024_Aug_08_2225	1.9893360298592597	r	0.0	423.4181776000187	0.3505345999728888	SS MRS	75.0	2	f	2	32.0	
120	3007		Left Leg	0-back	1.0	2024_Aug_08_2225	1.988745030015707	r	0.0	425.41848240001127	0.3305961999576539	SS MRS	87.5	2	f	2	32.0	
121	3007		Left Leg	0-back	1.0	2024_Aug_08_2225	1.9893286300357431	r	0.0	427.4182184000965	0.296973500167951	SS MRS	100.0	2	f	2	32.0	
122	3007	48.0	Left Leg	ScoreReport		2024_Aug_08_2225	5.005747529910877	r		429.4266673999373		SS MRS		2	f	2		
123	3007	8	Left Leg	Post-Trial Jitter		2024_Aug_08_2225	8.998563520144671	r		434.4887103999499		SS MRS		2	f	2		
124	3007	51	Left Leg	Expectancy		2024_Aug_08_2225	5.000762050040066	r		443.72937810001895	2.8836795000825077	SS MRS		2	f	2		57.22222222222223
125	3007	45	Left Leg	2-back Instruction		2024_Aug_08_2225	5.0047021203208715	r		449.1274423999712		SS MRS		2	f	2		
126	3007	7	Left Leg	Pre-trial Jitter		2024_Aug_08_2225	5.002495230175555	r		454.1453003999777		SS MRS		2	f	2		
127	3007	44.0	Left Leg	pretrialfixation		2024_Aug_08_2225	1.01126254000701	r		459.43258560006507		SS MRS		2	f	2		
128	3007		Left Leg	2-back	1.0	2024_Aug_08_2225	1.991777430055663	r		460.4424004999455		SS MRS	12.5	2	f	2	48.5	
129	3007		Left Leg	2-back	1.0	2024_Aug_08_2225	1.9865407303441316	r		462.4533603999298		SS MRS	25.0	2	f	2	48.5	
130	3007		Left Leg	2-back	1.0	2024_Aug_08_2225	1.9877883300650865	r	0	464.4527644999325	0.6137866999488324	SS MRS	37.5	2	f	2	48.5	
131	3007		Left Leg	2-back	1.0	2024_Aug_08_2225	1.987137129995972	r	2	466.4531185000669	0.4137305999174714	SS MRS	50.0	2	f	2	48.5	
132	3007		Left Leg	2-back	1.0	2024_Aug_08_2225	1.9874067299533635	r	2	468.45301649998873	0.48048709984868765	SS MRS	62.5	2	f	2	48.5	
133	3007		Left Leg	2-back	1.0	2024_Aug_08_2225	1.9874855300877243	r	2	470.452989500016	0.5135051999241114	SS MRS	75.0	2	f	2	48.5	
134	3007		Left Leg	2-back	0.0	2024_Aug_08_2225	1.987857930129394	r	2	472.4528332001064	0.4134855999145657	SS MRS	75.0	2	f	2	48.5	
135	3007		Left Leg	2-back	1.0	2024_Aug_08_2225	1.9875493301078677	r	2	474.452998300083	0.413769300095737	SS MRS	87.5	2	f	2	48.5	
136	3007	48.0	Left Leg	ScoreReport		2024_Aug_08_2225	5.0117777599953115	r		476.46591660007834		SS MRS		2	f	2		
137	3007	8	Left Leg	Post-trial Jitter		2024_Aug_08_2225	4.9956180199515074	r		481.5240511999		SS MRS		2	f	2		
138	3007	20	Left Leg	PainBinary		2024_Aug_08_2225	5.001739660045132	r		486.53777959989384		SS MRS		2	f	2		1.0
139	3007	21	Left Leg	IntensityRating		2024_Aug_08_2225	5.011295860167593	r		491.5580126000568	3.5030858998652548	SS MRS		2	f	2		60.18518518518518
140	3007	23	Left Leg	DistractBinary		2024_Aug_08_2225	5.004606060218066	r		496.5864170999266	0.8169845000375062	SS MRS		2	f	2		1.0
141	3007	9	Left Leg	Post-Q-Jitter		2024_Aug_08_2225	4.99372953013517	r		501.59190619993024		SS MRS		2	f	2		
142	3007	51	Left Leg	Expectancy		2024_Aug_08_2225	5.000919990241528	r		507.12166820000857	3.8836828998755664	SS MRS		2	f	2		59.38271604938271
143	3007	45	Left Leg	2-back Instruction		2024_Aug_08_2225	5.003118920139968	r		512.5123368999921		SS MRS		2	f	2		
144	3007	7	Left Leg	Pre-trial Jitter		2024_Aug_08_2225	9.00080653023906	r		517.5303126999643		SS MRS		2	f	2		
145	3007	44.0	Left Leg	pretrialfixation		2024_Aug_08_2225	1.003455940168351	r		526.820679299999		SS MRS		2	f	2		
146	3007		Left Leg	2-back	1.0	2024_Aug_08_2225	1.990251730196178	r		527.8272893999238		SS MRS	12.5	2	f	2	48.5	
147	3007		Left Leg	2-back	1.0	2024_Aug_08_2225	1.9873150300700217	r		529.8370713000186		SS MRS	25.0	2	f	2	48.5	
148	3007		Left Leg	2-back	1.0	2024_Aug_08_2225	1.9879876298364252	r	2	531.8367888999637	0.4805582999251783	SS MRS	37.5	2	f	2	48.5	
149	3007		Left Leg	2-back	1.0	2024_Aug_08_2225	1.987936930032447	r	0	533.836849299958	0.6001756999175996	SS MRS	50.0	2	f	2	48.5	
150	3007		Left Leg	2-back	1.0	2024_Aug_08_2225	1.9880113299004734	r	2	535.8368349000812	0.5804760998580605	SS MRS	62.5	2	f	2	48.5	
151	3007		Left Leg	2-back	0.0	2024_Aug_08_2225	1.986979030072689	r		537.8373773000203		SS MRS	62.5	2	f	2	48.5	
152	3007		Left Leg	2-back	1.0	2024_Aug_08_2225	1.9882556300144643	r	2	539.8367512000259	0.8341402998194098	SS MRS	75.0	2	f	2	48.5	
153	3007		Left Leg	2-back	1.0	2024_Aug_08_2225	1.9876692299731076	r	0	541.8370823999867	0.6805562998633832	SS MRS	87.5	2	f	2	48.5	
154	3007	48.0	Left Leg	ScoreReport		2024_Aug_08_2225	5.012306559830904	r		543.8497925000265		SS MRS		2	f	2		
155	3007	8	Left Leg	Post-trial Jitter		2024_Aug_08_2225	4.998317720135674	r		548.9068392000627		SS MRS		2	f	2		
156	3007	20	Left Leg	PainBinary		2024_Aug_08_2225	5.001961960224435	r		553.921754400013	1.4169672999996692	SS MRS		2	f	2		1.0
157	3007	21	Left Leg	IntensityRating		2024_Aug_08_2225	5.010973260272294	r		558.9423060999252	2.9835259998217225	SS MRS		2	f	2		59.93827160493828
158	3007	23	Left Leg	DistractBinary		2024_Aug_08_2225	5.00449585984461	r		563.9705948000774	0.9836573998909444	SS MRS		2	f	2		1.0
159	3007	9	Left Leg	Post-Q-Jitter		2024_Aug_08_2225	4.994834729935974	r		568.9754943998996		SS MRS		2	f	2		
160	3007	51	Left Leg	Expectancy		2024_Aug_08_2225	5.015609160065651	r		574.4817830999382	2.33377579995431	SS MRS		2	f	2		60.06172839506173
161	3007	44	Left Leg	0-back Instruction		2024_Aug_08_2225	5.005932919913903	r		579.878356799949		SS MRS		2	f	2		
162	3007	7	Left Leg	Pre-Trial Jitter		2024_Aug_08_2225	9.001512530026957	r		584.8973656001035		SS MRS		2	f	2		
163	3007	44.0	Left Leg	pretrialfixation		2024_Aug_08_2225	1.0020889099687338	r		594.1804824999999		SS MRS		2	f	2		
164	3007		Left Leg	0-back	1.0	2024_Aug_08_2225	1.9901905299630016	r	0.0	595.1948448000476	0.6964286000002176	SS MRS	12.5	2	f	2	48.5	
165	3007		Left Leg	0-back	1.0	2024_Aug_08_2225	1.988440030021593	r	0.0	597.203972700052	0.3172786000650376	SS MRS	25.0	2	f	2	48.5	
166	3007		Left Leg	0-back	1.0	2024_Aug_08_2225	1.9888308299705386	r	0.0	599.2038380999584	0.2638003998436034	SS MRS	37.5	2	f	2	48.5	
167	3007		Left Leg	0-back	1.0	2024_Aug_08_2225	1.9887017300352454	r	0.0	601.2039383000229	0.36374330008402467	SS MRS	50.0	2	f	2	48.5	
168	3007		Left Leg	0-back	1.0	2024_Aug_08_2225	1.9889753297902644	r	0.0	603.203805499943	0.3305086998734623	SS MRS	62.5	2	f	2	48.5	
169	3007		Left Leg	0-back	1.0	2024_Aug_08_2225	1.9888270301744342	r	0.0	605.2038658999372	0.4342662999406457	SS MRS	75.0	2	f	2	48.5	
170	3007		Left Leg	0-back	1.0	2024_Aug_08_2225	1.987547229975462	r	0.0	607.2045666999184	0.29715240001678467	SS MRS	87.5	2	f	2	48.5	
171	3007		Left Leg	0-back	1.0	2024_Aug_08_2225	1.98915532999672	r	0.0	609.2037977001164	0.2801667000167072	SS MRS	100.0	2	f	2	48.5	
172	3007	48.0	Left Leg	ScoreReport		2024_Aug_08_2225	5.0042064297012985	r		611.2129734000191		SS MRS		2	f	2		
173	3007	8	Left Leg	Post-Trial Jitter		2024_Aug_08_2225	4.993399820290506	r		616.2767596999183		SS MRS		2	f	2		
174	3007	20	Left Leg	PainBinary		2024_Aug_08_2225	5.002595860045403	r		621.2889167999383	0.9859601999633014	SS MRS		2	f	2		1.0
175	3007	21	Left Leg	IntensityRating		2024_Aug_08_2225	5.011684660101309	r		626.309437799966	2.8002019999548793	SS MRS		2	f	2		61.172839506172835
176	3007	23	Left Leg	DistractBinary		2024_Aug_08_2225	5.005526860244572	r		631.3375683000777	0.883624600013718	SS MRS		2	f	2		1.0
177	3007	9	Left Leg	Post-Q-Jitter		2024_Aug_08_2225	4.994718530215323	r		636.3430343000218		SS MRS		2	f	2		
178	3007	51	Left Leg	Expectancy		2024_Aug_08_2225	5.009519630111754	r		641.8356483001262	3.050308500183746	SS MRS		2	f	2		60.06172839506173
179	3007	44	Left Leg	0-back Instruction		2024_Aug_08_2225	5.0059268202167	r		647.2291769001167		SS MRS		2	f	2		
180	3007	7	Left Leg	Pre-Trial Jitter		2024_Aug_08_2225	9.00305122998543	r		652.2474058000371		SS MRS		2	f	2		
181	3007	44.0	Left Leg	pretrialfixation		2024_Aug_08_2225	1.0063909098971635	r		661.5291122999042		SS MRS		2	f	2		
182	3007		Left Leg	0-back	1.0	2024_Aug_08_2225	1.9909607300069183	r	0.0	662.5452072001062	0.5469017000868917	SS MRS	12.5	2	f	2	48.5	
183	3007		Left Leg	0-back	1.0	2024_Aug_08_2225	1.9877146298531443	r	0.0	664.5551998000592	0.3136802001390606	SS MRS	25.0	2	f	2	48.5	
184	3007		Left Leg	0-back	1.0	2024_Aug_08_2225	1.9887733301147819	r	0.0	666.554671500111	0.33018859988078475	SS MRS	37.5	2	f	2	48.5	
185	3007		Left Leg	0-back	1.0	2024_Aug_08_2225	1.988358730217442	r	0.0	668.5549085999373	0.31375820003449917	SS MRS	50.0	2	f	2	48.5	
186	3007		Left Leg	0-back	1.0	2024_Aug_08_2225	1.988830529851839	r	0.0	670.5546858999878	0.3136972999200225	SS MRS	62.5	2	f	2	48.5	
187	3007		Left Leg	0-back	1.0	2024_Aug_08_2225	1.9892077299300581	r	0.0	672.554531800095	0.29713269998319447	SS MRS	75.0	2	f	2	48.5	
188	3007		Left Leg	0-back	1.0	2024_Aug_08_2225	1.988938630092889	r	0.0	674.5546884001233	0.3171930001117289	SS MRS	87.5	2	f	2	48.5	
189	3007		Left Leg	0-back	1.0	2024_Aug_08_2225	1.9887537299655378	r	0.0	676.5547974000219	0.3844121000729501	SS MRS	100.0	2	f	2	48.5	
190	3007	48.0	Left Leg	ScoreReport		2024_Aug_08_2225	5.003945330157876	r		678.5639088000171		SS MRS		2	f	2		
191	3007	8	Left Leg	Post-Trial Jitter		2024_Aug_08_2225	8.998535020276904	r		683.6250211999286		SS MRS		2	f	2		
192	3007	20	Left Leg	PainBinary		2024_Aug_08_2225	5.002572360215709	r		692.6397661999799	0.9668998999986798	SS MRS		2	f	2		1.0
193	3007	21	Left Leg	IntensityRating		2024_Aug_08_2225	5.0112143598962575	r		697.6605108000804	2.6334681001026183	SS MRS		2	f	2		58.08641975308642
194	3007	23	Left Leg	DistractBinary		2024_Aug_08_2225	5.003079359885305	r		702.6896126999054	0.8169758999720216	SS MRS		2	f	2		1.0
195	3007	9	Left Leg	Post-Q-Jitter		2024_Aug_08_2225	8.99499193020165	r		707.6937476000749		SS MRS		2	f	2		
196	3007	26	Left Leg	ComfortRating		2024_Aug_08_2225	4.359152360120788	r		716.7117995000444	4.333529599942267	SS MRS		2	f	2		-24.19753086419753
197	3007	24	Left Leg	ValenceRating		2024_Aug_08_2225	3.4250521599315107	r		721.0955646999646	3.3856178999412805	SS MRS		2	f	2		74.5679012345679
198	3007	26	Left Leg	IntensityRating		2024_Aug_08_2225	2.9145871601067483	r		724.5424613999203	2.88637170009315	SS MRS		2	f	2		72.28395061728395
199	3007	27	Left Leg	AvoidanceRating		2024_Aug_08_2225	3.2109260600991547	r		727.4776689999271	3.1835413000080734	SS MRS		2	f	2		60.98765432098767
200	3007	28	Left Leg	RelaxationRating		2024_Aug_08_2225	1.7326676598750055	r		730.708540600026	1.716998599935323	SS MRS		2	f	2		24.814814814814813
201	3007	29	Left Leg	AttentionRating		2024_Aug_08_2225	2.7941328601446003	r		732.4611686998978	2.766913700150326	SS MRS		2	f	2		54.567901234567906
202	3007	30	Left Leg	BoredomRating		2024_Aug_08_2225	2.982948660152033	r		735.2751307000872	2.967040400020778	SS MRS		2	f	2		48.39506172839506
203	3007	31	Left Leg	AlertnessRating		2024_Aug_08_2225	2.146678859833628	r		738.2766277000774	2.134471000172198	SS MRS		2	f	2		18.765432098765416
204	3007	32	Left Leg	PosThxRating		2024_Aug_08_2225	2.43018085998483	r		740.4432268000674	2.3852750998921692	SS MRS		2	f	2		-32.34567901234567
205	3007	33	Left Leg	NegThxRating		2024_Aug_08_2225	1.5129104601219296	r		742.8935493000317	1.4835127999540418	SS MRS		2	f	2		19.135802469135797
206	3007	34	Left Leg	SelfRating		2024_Aug_08_2225	1.5621976603288203	r		744.4272620000411	1.5188754999544472	SS MRS		2	f	2		29.506172839506178
207	3007	35	Left Leg	OtherRating		2024_Aug_08_2225	1.7295912601985037	r		746.0102510000579	1.7001974999438971	SS MRS		2	f	2		-44.32098765432099
208	3007	32	Left Leg	ImageryRating		2024_Aug_08_2225	2.3777793599292636	r		747.7611311001237	2.3500826000235975	SS MRS		2	f	2		21.604938271604922
209	3007	37	Left Leg	PresentRating		2024_Aug_08_2225	1.8405273600947112	r		750.1631199000403	1.816829500021413	SS MRS		2	f	2		42.71604938271605
