square,location,corrAns,trials.thisRepN,trials.thisTrialN,trials.thisN,trials.thisIndex,trials_2.thisRepN,trials_2.thisTrialN,trials_2.thisN,trials_2.thisIndex,fixation_1.started,fixation_1.stopped,grid_lines.started,grid_lines.stopped,target_square.started,target_square.stopped,fixation_2.started,fixation_2.stopped,response.corr,response.x,response.y,response.leftButton,response.click_left,response.click_right,response.started,response.stopped,ScoreReportText.started,ScoreReportText.stopped,ScoreReportResponse.keys,ScoreReportResponse.started,ScoreReportResponse.stopped,response.rt_left,response.rt_right,response_2.x,response_2.y,response_2.leftButton,grid_lines_2.started,grid_lines_2.stopped,target_square_2.started,target_square_2.stopped,fixation_3.started,fixation_3.stopped,response_2.click,response_2.corr,response_2.started,response_2.stopped,response_2.rt_left,response_2.rt_right,BodySiteInstructionText.started,BodySiteImg.started,BodySiteImg.stopped,BodySiteInstructionRead.keys,BodySiteInstructionRead.rt,BodySiteInstructionRead.started,BodySiteInstructionRead.stopped,response.click,IntensityRating.response,IntensityRating.rt,IntensityRating.started,IntensityRating.stopped,subject number,gender,distractMap first- or second-half (1 or 2),session,handedness,scanner,date,psychopyVersion,expName,frameRate,body_site_order,
6,"[0.2, 0]",None,0,0,0,0,,,,,966.6442372000311,None,967.6775941000087,None,967.6775941000087,968.6775757000432,968.6609173000325,None,1,-0.3925925925925926,-0.14722222222222223,"[0, 0, 0]",0,0,967.6775941000087,None,,,,,,,,,,,,,,,,,,,,,,,,,,,,,,,,,,,1002,M,1,5,R,SK,2022_Jan_21_1847,2020.2.10,distractmap1,59.950816359605646,"['Left Arm', 'Left Face', 'Abdomen', 'Right Arm']",
6,"[0.2, 0]",1,0,1,1,1,,,,,,,969.6609214000055,None,969.6609214000055,970.6609347999911,970.6442626999924,971.6442717000027,1,-0.3925925925925926,-0.14722222222222223,"[0, 0, 0]",0,0,969.6609214000055,None,,,,,,,,,,,,,,,,,,,,,,,,,,,,,,,,,,,1002,M,1,5,R,SK,2022_Jan_21_1847,2020.2.10,distractmap1,59.950816359605646,"['Left Arm', 'Left Face', 'Abdomen', 'Right Arm']",
2,"[0, 0.2]",0,0,2,2,2,,,,,,,971.6609174000332,None,971.6609174000332,972.6609204999986,972.6442833000328,973.6442656000145,0,-0.3925925925925926,-0.14722222222222223,"[0, 0, 0]",0,0,971.6609174000332,None,,,,,,,,,,,,,,,,,,,,,,,,,,,,,,,,,,,1002,M,1,5,R,SK,2022_Jan_21_1847,2020.2.10,distractmap1,59.950816359605646,"['Left Arm', 'Left Face', 'Abdomen', 'Right Arm']",
9,"[0.2, -0.2]",0,0,3,3,3,,,,,,,973.6609400000307,None,973.6609400000307,974.6609574999893,974.6442933999933,975.6442832000321,1,-0.3925925925925926,-0.14722222222222223,"[0, 0, 0]",0,0,973.6609400000307,None,,,,,,,,,,,,,,,,,,,,,,,,,,,,,,,,,,,1002,M,1,5,R,SK,2022_Jan_21_1847,2020.2.10,distractmap1,59.950816359605646,"['Left Arm', 'Left Face', 'Abdomen', 'Right Arm']",
9,"[0.2, -0.2]",1,0,4,4,4,,,,,,,975.6609651999897,None,975.6609651999897,976.6609678000095,976.6443041000166,977.6443081999896,0,-0.3925925925925926,-0.14722222222222223,"[0, 0, 0]",0,0,975.6609651999897,None,,,,,,,,,,,,,,,,,,,,,,,,,,,,,,,,,,,1002,M,1,5,R,SK,2022_Jan_21_1847,2020.2.10,distractmap1,59.950816359605646,"['Left Arm', 'Left Face', 'Abdomen', 'Right Arm']",
6,"[0.2, 0]",0,0,5,5,5,,,,,,,977.660913300002,None,977.660913300002,978.6776468000025,978.6443106000079,979.644325900008,1,-0.3925925925925926,-0.14722222222222223,"[0, 0, 0]",0,0,977.660913300002,None,,,,,,,,,,,,,,,,,,,,,,,,,,,,,,,,,,,1002,M,1,5,R,SK,2022_Jan_21_1847,2020.2.10,distractmap1,59.950816359605646,"['Left Arm', 'Left Face', 'Abdomen', 'Right Arm']",
4,"[-0.2, 0]",0,0,6,6,6,,,,,,,979.6609844000195,None,979.6609844000195,980.6610175000387,980.6442110000062,981.6443338000099,0,-0.3925925925925926,-0.14722222222222223,"[0, 0, 0]",0,0,979.6609844000195,None,,,,,,,,,,,,,,,,,,,,,,,,,,,,,,,,,,,1002,M,1,5,R,SK,2022_Jan_21_1847,2020.2.10,distractmap1,59.950816359605646,"['Left Arm', 'Left Face', 'Abdomen', 'Right Arm']",
3,"[0.2, 0.2]",0,0,7,7,7,,,,,,,981.6610093000345,None,981.6610093000345,982.6610232000239,982.644355700002,983.6443451000378,0,-0.3925925925925926,-0.14722222222222223,"[0, 0, 0]",0,0,981.6610093000345,None,,,,,,,,,,,,,,,,,,,,,,,,,,,,,,,,,,,1002,M,1,5,R,SK,2022_Jan_21_1847,2020.2.10,distractmap1,59.950816359605646,"['Left Arm', 'Left Face', 'Abdomen', 'Right Arm']",
3,"[0.2, 0.2]",1,0,8,8,8,,,,,,,983.6609060000046,None,983.6609060000046,984.6610306000221,984.6443669000291,985.6443852999946,0,-0.3925925925925926,-0.14722222222222223,"[0, 0, 0]",0,0,983.6609060000046,None,,,,,,,,,,,,,,,,,,,,,,,,,,,,,,,,,,,1002,M,1,5,R,SK,2022_Jan_21_1847,2020.2.10,distractmap1,59.950816359605646,"['Left Arm', 'Left Face', 'Abdomen', 'Right Arm']",
8,"[0, -0.2]",0,0,9,9,9,,,,,,,985.6610529000172,None,985.6610529000172,986.6610564999864,986.6443876000121,987.6443998999894,1,-0.3925925925925926,-0.14722222222222223,"[0, 0, 0]",0,0,985.6610529000172,None,,,,,,,,,,,,,,,,,,,,,,,,,,,,,,,,,,,1002,M,1,5,R,SK,2022_Jan_21_1847,2020.2.10,distractmap1,59.950816359605646,"['Left Arm', 'Left Face', 'Abdomen', 'Right Arm']",
1,"[-0.2, 0.2]",0,0,10,10,10,,,,,,,987.6610825000098,None,987.6610825000098,988.6610599000123,988.6444009999977,989.6444111000164,0,-0.3925925925925926,-0.14722222222222223,"[0, 0, 0]",0,0,987.6610825000098,None,,,,,,,,,,,,,,,,,,,,,,,,,,,,,,,,,,,1002,M,1,5,R,SK,2022_Jan_21_1847,2020.2.10,distractmap1,59.950816359605646,"['Left Arm', 'Left Face', 'Abdomen', 'Right Arm']",
2,"[0, 0.2]",0,0,11,11,11,,,,,,,989.6610778000322,None,989.6610778000322,990.6610804999946,990.6444267000188,991.6444062000373,1,-0.3925925925925926,-0.14722222222222223,"[0, 0, 0]",0,0,989.6610778000322,None,,,,,,,,,,,,,,,,,,,,,,,,,,,,,,,,,,,1002,M,1,5,R,SK,2022_Jan_21_1847,2020.2.10,distractmap1,59.950816359605646,"['Left Arm', 'Left Face', 'Abdomen', 'Right Arm']",
4,"[-0.2, 0]",0,0,12,12,12,,,,,,,991.6610840000212,None,991.6610840000212,992.6610987000167,992.6444228999899,993.6444580000243,0,-0.3925925925925926,-0.14722222222222223,"[0, 0, 0]",0,0,991.6610840000212,None,,,,,,,,,,,,,,,,,,,,,,,,,,,,,,,,,,,1002,M,1,5,R,SK,2022_Jan_21_1847,2020.2.10,distractmap1,59.950816359605646,"['Left Arm', 'Left Face', 'Abdomen', 'Right Arm']",
4,"[-0.2, 0]",1,0,13,13,13,,,,,,,993.6610921000247,None,993.6610921000247,994.6611082000309,994.6444435000303,995.6444714000099,1,-0.3925925925925926,-0.14722222222222223,"[0, 0, 0]",0,0,993.6610921000247,None,,,,,,,,,,,,,,,,,,,,,,,,,,,,,,,,,,,1002,M,1,5,R,SK,2022_Jan_21_1847,2020.2.10,distractmap1,59.950816359605646,"['Left Arm', 'Left Face', 'Abdomen', 'Right Arm']",
8,"[0, -0.2]",0,0,14,14,14,,,,,,,995.6611308000283,None,995.6611308000283,996.6611324000405,996.6443375000381,997.6444735000259,0,-0.3925925925925926,-0.14722222222222223,"[0, 0, 0]",0,0,995.6611308000283,None,,,,,,,,,,,,,,,,,,,,,,,,,,,,,,,,,,,1002,M,1,5,R,SK,2022_Jan_21_1847,2020.2.10,distractmap1,59.950816359605646,"['Left Arm', 'Left Face', 'Abdomen', 'Right Arm']",
5,"[0, 0]",0,0,15,15,15,,,,,,,997.6611295000184,None,997.6611295000184,998.6611521000159,998.6444879000192,999.6445028000162,1,-0.3925925925925926,-0.14722222222222223,"[0, 0, 0]",0,0,997.6611295000184,None,,,,,,,,,,,,,,,,,,,,,,,,,,,,,,,,,,,1002,M,1,5,R,SK,2022_Jan_21_1847,2020.2.10,distractmap1,59.950816359605646,"['Left Arm', 'Left Face', 'Abdomen', 'Right Arm']",
5,"[0, 0]",1,0,16,16,16,,,,,,,999.6611725999974,None,999.6611725999974,1000.6611704000388,1000.6444956000196,1001.6445522000431,0,-0.3925925925925926,-0.14722222222222223,"[0, 0, 0]",0,0,999.6611725999974,None,,,,,,,,,,,,,,,,,,,,,,,,,,,,,,,,,,,1002,M,1,5,R,SK,2022_Jan_21_1847,2020.2.10,distractmap1,59.950816359605646,"['Left Arm', 'Left Face', 'Abdomen', 'Right Arm']",
1,"[-0.2, 0.2]",0,0,17,17,17,,,,,,,1001.6611514000106,None,1001.6611514000106,1002.6611768000294,1002.6445208000368,1003.6444095000043,1,-0.3925925925925926,-0.14722222222222223,"[0, 0, 0]",0,0,1001.6611514000106,None,,,,,,,,,,,,,,,,,,,,,,,,,,,,,,,,,,,1002,M,1,5,R,SK,2022_Jan_21_1847,2020.2.10,distractmap1,59.950816359605646,"['Left Arm', 'Left Face', 'Abdomen', 'Right Arm']",
3,"[0.2, 0.2]",0,0,18,18,18,,,,,,,1003.6612030999968,None,1003.6612030999968,1004.6610775000299,1004.6445356000331,1005.6445354000316,0,-0.3925925925925926,-0.14722222222222223,"[0, 0, 0]",0,0,1003.6612030999968,None,,,,,,,,,,,,,,,,,,,,,,,,,,,,,,,,,,,1002,M,1,5,R,SK,2022_Jan_21_1847,2020.2.10,distractmap1,59.950816359605646,"['Left Arm', 'Left Face', 'Abdomen', 'Right Arm']",
6,"[0.2, 0]",0,0,19,19,19,,,,,,,1005.661198900023,None,1005.661198900023,1006.6612226000289,1006.6445508000324,1007.6445481000119,0,-0.3925925925925926,-0.14722222222222223,"[0, 0, 0]",0,0,1005.661198900023,None,,,,,,,,,,,,,,,,,,,,,,,,,,,,,,,,,,,1002,M,1,5,R,SK,2022_Jan_21_1847,2020.2.10,distractmap1,59.950816359605646,"['Left Arm', 'Left Face', 'Abdomen', 'Right Arm']",
1,"[-0.2, 0.2]",0,0,20,20,20,,,,,,,1007.661215900036,None,1007.661215900036,1008.6612250999897,1008.6445790000143,1009.6445666000363,0,-0.3925925925925926,-0.14722222222222223,"[0, 0, 0]",0,0,1007.661215900036,None,,,,,,,,,,,,,,,,,,,,,,,,,,,,,,,,,,,1002,M,1,5,R,SK,2022_Jan_21_1847,2020.2.10,distractmap1,59.950816359605646,"['Left Arm', 'Left Face', 'Abdomen', 'Right Arm']",
1,"[-0.2, 0.2]",1,0,21,21,21,,,,,,,1009.6612496000016,None,1009.6612496000016,1010.6612472000415,1010.6445750000421,1011.6445959000266,1,-0.3925925925925926,-0.14722222222222223,"[0, 0, 0]",0,0,1009.6612496000016,None,,,,,,,,,,,,,,,,,,,,,,,,,,,,,,,,,,,1002,M,1,5,R,SK,2022_Jan_21_1847,2020.2.10,distractmap1,59.950816359605646,"['Left Arm', 'Left Face', 'Abdomen', 'Right Arm']",
1,"[-0.2, 0.2]",1,0,22,22,22,,,,,,,1011.6611299000215,None,1011.6611299000215,1012.6612732000067,1012.6446256000199,1013.6445876000216,0,-0.3925925925925926,-0.14722222222222223,"[0, 0, 0]",0,0,1011.6611299000215,None,,,,,,,,,,,,,,,,,,,,,,,,,,,,,,,,,,,1002,M,1,5,R,SK,2022_Jan_21_1847,2020.2.10,distractmap1,59.950816359605646,"['Left Arm', 'Left Face', 'Abdomen', 'Right Arm']",
3,"[0.2, 0.2]",0,0,23,23,23,,,,,,,1013.661265600007,None,1013.661265600007,1014.6612695000367,1014.6446361000417,1015.6446040000301,1,-0.3925925925925926,-0.14722222222222223,"[0, 0, 0]",0,0,1013.661265600007,None,,,,,,,,,,,,,,,,,,,,,,,,,,,,,,,,,,,1002,M,1,5,R,SK,2022_Jan_21_1847,2020.2.10,distractmap1,59.950816359605646,"['Left Arm', 'Left Face', 'Abdomen', 'Right Arm']",
2,"[0, 0.2]",0,0,24,24,24,,,,,,,1015.6612918000319,None,1015.6612918000319,1016.661294199992,1016.6446178000188,1017.6446454999968,0,-0.3925925925925926,-0.14722222222222223,"[0, 0, 0]",0,0,1015.6612918000319,None,,,,,,,,,,,,,,,,,,,,,,,,,,,,,,,,,,,1002,M,1,5,R,SK,2022_Jan_21_1847,2020.2.10,distractmap1,59.950816359605646,"['Left Arm', 'Left Face', 'Abdomen', 'Right Arm']",
1,"[-0.2, 0.2]",0,0,25,25,25,,,,,,,1017.6612923000357,None,1017.6612923000357,1018.6613126000157,1018.644636400044,1019.6446494000265,1,-0.3925925925925926,-0.14722222222222223,"[0, 0, 0]",0,0,1017.6612923000357,None,,,,,,,,,,,,,,,,,,,,,,,,,,,,,,,,,,,1002,M,1,5,R,SK,2022_Jan_21_1847,2020.2.10,distractmap1,59.950816359605646,"['Left Arm', 'Left Face', 'Abdomen', 'Right Arm']",
7,"[-0.2, -0.2]",0,0,26,26,26,,,,,,,1019.6613124000141,None,1019.6613124000141,1020.6613197000115,1020.6446683999966,1021.6446516000433,0,-0.3925925925925926,-0.14722222222222223,"[0, 0, 0]",0,0,1019.6613124000141,None,,,,,,,,,,,,,,,,,,,,,,,,,,,,,,,,,,,1002,M,1,5,R,SK,2022_Jan_21_1847,2020.2.10,distractmap1,59.950816359605646,"['Left Arm', 'Left Face', 'Abdomen', 'Right Arm']",
7,"[-0.2, -0.2]",1,0,27,27,27,,,,,,,1021.661321600026,None,1021.661321600026,1022.6613346000086,1022.6446746999864,1023.6446697000065,1,-0.3925925925925926,-0.14722222222222223,"[0, 0, 0]",0,0,1021.661321600026,None,,,,,,,,,,,,,,,,,,,,,,,,,,,,,,,,,,,1002,M,1,5,R,SK,2022_Jan_21_1847,2020.2.10,distractmap1,59.950816359605646,"['Left Arm', 'Left Face', 'Abdomen', 'Right Arm']",
2,"[0, 0.2]",0,0,28,28,28,,,,,,,1023.6613491000026,None,1023.6613491000026,1024.661365500011,1024.6446711000171,1025.6445743000368,0,-0.3925925925925926,-0.14722222222222223,"[0, 0, 0]",0,0,1023.6613491000026,None,,,,,,,,,,,,,,,,,,,,,,,,,,,,,,,,,,,1002,M,1,5,R,SK,2022_Jan_21_1847,2020.2.10,distractmap1,59.950816359605646,"['Left Arm', 'Left Face', 'Abdomen', 'Right Arm']",
6,"[0.2, 0]",0,0,29,29,29,,,,,,,1025.6613748000236,None,1025.6613748000236,1026.661362999992,1026.6447055999888,1027.6447187000304,1,-0.3925925925925926,-0.14722222222222223,"[0, 0, 0]",0,0,1025.6613748000236,None,,,,,,,,,,,,,,,,,,,,,,,,,,,,,,,,,,,1002,M,1,5,R,SK,2022_Jan_21_1847,2020.2.10,distractmap1,59.950816359605646,"['Left Arm', 'Left Face', 'Abdomen', 'Right Arm']",
,,,,,,,,,,,,,,,,,,,,,,,,,,,1027.6780518000014,None,space,1027.6780518000014,None,,,,,,,,,,,,,,,,,,,,,,,,,,,,,,1002,M,1,5,R,SK,2022_Jan_21_1847,2020.2.10,distractmap1,59.950816359605646,"['Left Arm', 'Left Face', 'Abdomen', 'Right Arm']",
6,"[0.2, 0]",None,0,0,0,0,,,,,1083.6118455000105,None,1084.6284179000068,None,1084.6284179000068,1085.628532600007,1085.6118417000398,1086.6118676000042,1,-0.3925925925925926,-0.14722222222222223,"[0, 0, 0]",0,0,1084.6284179000068,None,,,,,,,,,,,,,,,,,,,,,,,,,,,,,,,,,,,1002,M,1,5,R,SK,2022_Jan_21_1847,2020.2.10,distractmap1,59.950816359605646,"['Left Arm', 'Left Face', 'Abdomen', 'Right Arm']",
6,"[0.2, 0]",1,0,1,1,1,,,,,,,1086.6285359000321,None,1086.6285359000321,1087.6285274000256,1087.6118614000152,1088.6118724000407,1,-0.3925925925925926,-0.14722222222222223,"[0, 0, 0]",0,0,1086.6285359000321,None,,,,,,,,,,,,,,,,,,,,,,,,,,,,,,,,,,,1002,M,1,5,R,SK,2022_Jan_21_1847,2020.2.10,distractmap1,59.950816359605646,"['Left Arm', 'Left Face', 'Abdomen', 'Right Arm']",
2,"[0, 0.2]",0,0,2,2,2,,,,,,,1088.62855329999,None,1088.62855329999,1089.6285533999908,1089.6118778000236,1090.6118728999863,0,-0.3925925925925926,-0.14722222222222223,"[0, 0, 0]",0,0,1088.62855329999,None,,,,,,,,,,,,,,,,,,,,,,,,,,,,,,,,,,,1002,M,1,5,R,SK,2022_Jan_21_1847,2020.2.10,distractmap1,59.950816359605646,"['Left Arm', 'Left Face', 'Abdomen', 'Right Arm']",
9,"[0.2, -0.2]",0,0,3,3,3,,,,,,,1090.6285613999935,None,1090.6285613999935,1091.6285789000103,1091.6118961999891,1092.6118953000405,1,-0.3925925925925926,-0.14722222222222223,"[0, 0, 0]",0,0,1090.6285613999935,None,,,,,,,,,,,,,,,,,,,,,,,,,,,,,,,,,,,1002,M,1,5,R,SK,2022_Jan_21_1847,2020.2.10,distractmap1,59.950816359605646,"['Left Arm', 'Left Face', 'Abdomen', 'Right Arm']",
9,"[0.2, -0.2]",1,0,4,4,4,,,,,,,1092.6285706000053,None,1092.6285706000053,1093.6285726000206,1093.6119063000078,1094.6119429999962,0,-0.3925925925925926,-0.14722222222222223,"[0, 0, 0]",0,0,1092.6285706000053,None,,,,,,,,,,,,,,,,,,,,,,,,,,,,,,,,,,,1002,M,1,5,R,SK,2022_Jan_21_1847,2020.2.10,distractmap1,59.950816359605646,"['Left Arm', 'Left Face', 'Abdomen', 'Right Arm']",
6,"[0.2, 0]",0,0,5,5,5,,,,,,,1094.6286009000032,None,1094.6286009000032,1095.6285920999944,1095.6119221000117,1096.6119339000434,0,-0.3925925925925926,-0.14722222222222223,"[0, 0, 0]",0,0,1094.6286009000032,None,,,,,,,,,,,,,,,,,,,,,,,,,,,,,,,,,,,1002,M,1,5,R,SK,2022_Jan_21_1847,2020.2.10,distractmap1,59.950816359605646,"['Left Arm', 'Left Face', 'Abdomen', 'Right Arm']",
4,"[-0.2, 0]",0,0,6,6,6,,,,,,,1096.6286292999866,None,1096.6286292999866,1097.6286230999976,1097.6119366000057,1098.6119542000233,0,-0.3925925925925926,-0.14722222222222223,"[0, 0, 0]",0,0,1096.6286292999866,None,,,,,,,,,,,,,,,,,,,,,,,,,,,,,,,,,,,1002,M,1,5,R,SK,2022_Jan_21_1847,2020.2.10,distractmap1,59.950816359605646,"['Left Arm', 'Left Face', 'Abdomen', 'Right Arm']",
3,"[0.2, 0.2]",0,0,7,7,7,,,,,,,1098.628627100028,None,1098.628627100028,1099.628628400038,1099.6119648999884,1100.6119714000379,1,-0.3925925925925926,-0.14722222222222223,"[0, 0, 0]",0,0,1098.628627100028,None,,,,,,,,,,,,,,,,,,,,,,,,,,,,,,,,,,,1002,M,1,5,R,SK,2022_Jan_21_1847,2020.2.10,distractmap1,59.950816359605646,"['Left Arm', 'Left Face', 'Abdomen', 'Right Arm']",
3,"[0.2, 0.2]",1,0,8,8,8,,,,,,,1100.6286243000068,None,1100.6286243000068,1101.6286511000362,1101.6119776000269,1102.611989099998,0,-0.3925925925925926,-0.14722222222222223,"[0, 0, 0]",0,0,1100.6286243000068,None,,,,,,,,,,,,,,,,,,,,,,,,,,,,,,,,,,,1002,M,1,5,R,SK,2022_Jan_21_1847,2020.2.10,distractmap1,59.950816359605646,"['Left Arm', 'Left Face', 'Abdomen', 'Right Arm']",
8,"[0, -0.2]",0,0,9,9,9,,,,,,,1102.6285542999976,None,1102.6285542999976,1103.6286588000366,1103.6119898000034,1104.6120105999871,1,-0.3925925925925926,-0.14722222222222223,"[0, 0, 0]",0,0,1102.6285542999976,None,,,,,,,,,,,,,,,,,,,,,,,,,,,,,,,,,,,1002,M,1,5,R,SK,2022_Jan_21_1847,2020.2.10,distractmap1,59.950816359605646,"['Left Arm', 'Left Face', 'Abdomen', 'Right Arm']",
1,"[-0.2, 0.2]",0,0,10,10,10,,,,,,,1104.6286697000032,None,1104.6286697000032,1105.6286708000116,1105.611998700013,1106.6120062000118,0,-0.3925925925925926,-0.14722222222222223,"[0, 0, 0]",0,0,1104.6286697000032,None,,,,,,,,,,,,,,,,,,,,,,,,,,,,,,,,,,,1002,M,1,5,R,SK,2022_Jan_21_1847,2020.2.10,distractmap1,59.950816359605646,"['Left Arm', 'Left Face', 'Abdomen', 'Right Arm']",
2,"[0, 0.2]",0,0,11,11,11,,,,,,,1106.6286725000245,None,1106.6286725000245,1107.6286909999908,1107.6120264999918,1108.612031400029,1,-0.3925925925925926,-0.14722222222222223,"[0, 0, 0]",0,0,1106.6286725000245,None,,,,,,,,,,,,,,,,,,,,,,,,,,,,,,,,,,,1002,M,1,5,R,SK,2022_Jan_21_1847,2020.2.10,distractmap1,59.950816359605646,"['Left Arm', 'Left Face', 'Abdomen', 'Right Arm']",
4,"[-0.2, 0]",0,0,12,12,12,,,,,,,1108.628681900038,None,1108.628681900038,1109.6287068999954,1109.6120422999957,1110.6120404000394,0,-0.3925925925925926,-0.14722222222222223,"[0, 0, 0]",0,0,1108.628681900038,None,,,,,,,,,,,,,,,,,,,,,,,,,,,,,,,,,,,1002,M,1,5,R,SK,2022_Jan_21_1847,2020.2.10,distractmap1,59.950816359605646,"['Left Arm', 'Left Face', 'Abdomen', 'Right Arm']",
4,"[-0.2, 0]",1,0,13,13,13,,,,,,,1110.6287235000054,None,1110.6287235000054,1111.6287156000035,1111.612058300001,1112.6120680000167,1,-0.3925925925925926,-0.14722222222222223,"[0, 0, 0]",0,0,1110.6287235000054,None,,,,,,,,,,,,,,,,,,,,,,,,,,,,,,,,,,,1002,M,1,5,R,SK,2022_Jan_21_1847,2020.2.10,distractmap1,59.950816359605646,"['Left Arm', 'Left Face', 'Abdomen', 'Right Arm']",
8,"[0, -0.2]",0,0,14,14,14,,,,,,,1112.6287431000383,None,1112.6287431000383,1113.6287492000265,1113.6120750000118,1114.6120729999966,0,-0.3925925925925926,-0.14722222222222223,"[0, 0, 0]",0,0,1112.6287431000383,None,,,,,,,,,,,,,,,,,,,,,,,,,,,,,,,,,,,1002,M,1,5,R,SK,2022_Jan_21_1847,2020.2.10,distractmap1,59.950816359605646,"['Left Arm', 'Left Face', 'Abdomen', 'Right Arm']",
5,"[0, 0]",0,0,15,15,15,,,,,,,1114.6287401000154,None,1114.6287401000154,1115.6287608999992,1115.612084500026,1116.6121080000303,1,-0.3925925925925926,-0.14722222222222223,"[0, 0, 0]",0,0,1114.6287401000154,None,,,,,,,,,,,,,,,,,,,,,,,,,,,,,,,,,,,1002,M,1,5,R,SK,2022_Jan_21_1847,2020.2.10,distractmap1,59.950816359605646,"['Left Arm', 'Left Face', 'Abdomen', 'Right Arm']",
5,"[0, 0]",1,0,16,16,16,,,,,,,1116.62875730003,None,1116.62875730003,1117.6287621000083,1117.6119960999931,1118.6121163000353,0,-0.3925925925925926,-0.14722222222222223,"[0, 0, 0]",0,0,1116.62875730003,None,,,,,,,,,,,,,,,,,,,,,,,,,,,,,,,,,,,1002,M,1,5,R,SK,2022_Jan_21_1847,2020.2.10,distractmap1,59.950816359605646,"['Left Arm', 'Left Face', 'Abdomen', 'Right Arm']",
1,"[-0.2, 0.2]",0,0,17,17,17,,,,,,,1118.628768399998,None,1118.628768399998,1119.628790399991,1119.612114700023,1120.6121324000414,1,-0.3925925925925926,-0.14722222222222223,"[0, 0, 0]",0,0,1118.628768399998,None,,,,,,,,,,,,,,,,,,,,,,,,,,,,,,,,,,,1002,M,1,5,R,SK,2022_Jan_21_1847,2020.2.10,distractmap1,59.950816359605646,"['Left Arm', 'Left Face', 'Abdomen', 'Right Arm']",
3,"[0.2, 0.2]",0,0,18,18,18,,,,,,,1120.6287961000344,None,1120.6287961000344,1121.6287952000275,1121.612145000021,1122.6121510000085,0,-0.3925925925925926,-0.14722222222222223,"[0, 0, 0]",0,0,1120.6287961000344,None,,,,,,,,,,,,,,,,,,,,,,,,,,,,,,,,,,,1002,M,1,5,R,SK,2022_Jan_21_1847,2020.2.10,distractmap1,59.950816359605646,"['Left Arm', 'Left Face', 'Abdomen', 'Right Arm']",
6,"[0.2, 0]",0,0,19,19,19,,,,,,,1122.6288193000364,None,1122.6288193000364,1123.6287931000115,1123.6121626000386,1124.6121631000424,1,-0.3925925925925926,-0.14722222222222223,"[0, 0, 0]",0,0,1122.6288193000364,None,,,,,,,,,,,,,,,,,,,,,,,,,,,,,,,,,,,1002,M,1,5,R,SK,2022_Jan_21_1847,2020.2.10,distractmap1,59.950816359605646,"['Left Arm', 'Left Face', 'Abdomen', 'Right Arm']",
1,"[-0.2, 0.2]",0,0,20,20,20,,,,,,,1124.6287441999884,None,1124.6287441999884,1125.6288289999939,1125.6121877999976,1126.6120648999931,0,-0.3925925925925926,-0.14722222222222223,"[0, 0, 0]",0,0,1124.6287441999884,None,,,,,,,,,,,,,,,,,,,,,,,,,,,,,,,,,,,1002,M,1,5,R,SK,2022_Jan_21_1847,2020.2.10,distractmap1,59.950816359605646,"['Left Arm', 'Left Face', 'Abdomen', 'Right Arm']",
1,"[-0.2, 0.2]",1,0,21,21,21,,,,,,,1126.628854700015,None,1126.628854700015,1127.6288688000059,1127.6121768000303,1128.612199300027,1,-0.3925925925925926,-0.14722222222222223,"[0, 0, 0]",0,0,1126.628854700015,None,,,,,,,,,,,,,,,,,,,,,,,,,,,,,,,,,,,1002,M,1,5,R,SK,2022_Jan_21_1847,2020.2.10,distractmap1,59.950816359605646,"['Left Arm', 'Left Face', 'Abdomen', 'Right Arm']",
1,"[-0.2, 0.2]",1,0,22,22,22,,,,,,,1128.6288583000423,None,1128.6288583000423,1129.6288765000063,1129.6122128000134,1130.6122069000266,0,-0.3925925925925926,-0.14722222222222223,"[0, 0, 0]",0,0,1128.6288583000423,None,,,,,,,,,,,,,,,,,,,,,,,,,,,,,,,,,,,1002,M,1,5,R,SK,2022_Jan_21_1847,2020.2.10,distractmap1,59.950816359605646,"['Left Arm', 'Left Face', 'Abdomen', 'Right Arm']",
3,"[0.2, 0.2]",0,0,23,23,23,,,,,,,1130.6288935000193,None,1130.6288935000193,1131.6288872000296,1131.6122162000393,1132.6122176999925,1,-0.3925925925925926,-0.14722222222222223,"[0, 0, 0]",0,0,1130.6288935000193,None,,,,,,,,,,,,,,,,,,,,,,,,,,,,,,,,,,,1002,M,1,5,R,SK,2022_Jan_21_1847,2020.2.10,distractmap1,59.950816359605646,"['Left Arm', 'Left Face', 'Abdomen', 'Right Arm']",
2,"[0, 0.2]",0,0,24,24,24,,,,,,,1132.6289114000392,None,1132.6289114000392,1133.628795400029,1133.6122397999861,1134.6122552999877,0,-0.3925925925925926,-0.14722222222222223,"[0, 0, 0]",0,0,1132.6289114000392,None,,,,,,,,,,,,,,,,,,,,,,,,,,,,,,,,,,,1002,M,1,5,R,SK,2022_Jan_21_1847,2020.2.10,distractmap1,59.950816359605646,"['Left Arm', 'Left Face', 'Abdomen', 'Right Arm']",
1,"[-0.2, 0.2]",0,0,25,25,25,,,,,,,1134.6288988000015,None,1134.6288988000015,1135.6289920000127,1135.6122793999966,1136.6122683000285,1,-0.3925925925925926,-0.14722222222222223,"[0, 0, 0]",0,0,1134.6288988000015,None,,,,,,,,,,,,,,,,,,,,,,,,,,,,,,,,,,,1002,M,1,5,R,SK,2022_Jan_21_1847,2020.2.10,distractmap1,59.950816359605646,"['Left Arm', 'Left Face', 'Abdomen', 'Right Arm']",
7,"[-0.2, -0.2]",0,0,26,26,26,,,,,,,1136.628920499992,None,1136.628920499992,1137.6289336000336,1137.6122860999894,1138.6122653000057,0,-0.3925925925925926,-0.14722222222222223,"[0, 0, 0]",0,0,1136.628920499992,None,,,,,,,,,,,,,,,,,,,,,,,,,,,,,,,,,,,1002,M,1,5,R,SK,2022_Jan_21_1847,2020.2.10,distractmap1,59.950816359605646,"['Left Arm', 'Left Face', 'Abdomen', 'Right Arm']",
7,"[-0.2, -0.2]",1,0,27,27,27,,,,,,,1138.6289494000375,None,1138.6289494000375,1139.628953300009,1139.61229010002,1140.6123095999938,1,-0.3925925925925926,-0.14722222222222223,"[0, 0, 0]",0,0,1138.6289494000375,None,,,,,,,,,,,,,,,,,,,,,,,,,,,,,,,,,,,1002,M,1,5,R,SK,2022_Jan_21_1847,2020.2.10,distractmap1,59.950816359605646,"['Left Arm', 'Left Face', 'Abdomen', 'Right Arm']",
2,"[0, 0.2]",0,0,28,28,28,,,,,,,1140.6289887999883,None,1140.6289887999883,1141.6289796000347,1141.612307100033,1142.612300000037,0,-0.3925925925925926,-0.14722222222222223,"[0, 0, 0]",0,0,1140.6289887999883,None,,,,,,,,,,,,,,,,,,,,,,,,,,,,,,,,,,,1002,M,1,5,R,SK,2022_Jan_21_1847,2020.2.10,distractmap1,59.950816359605646,"['Left Arm', 'Left Face', 'Abdomen', 'Right Arm']",
6,"[0.2, 0]",0,0,29,29,29,,,,,,,1142.628977400018,None,1142.628977400018,1143.6460465000127,1143.612331899989,1144.6123222000315,1,-0.3925925925925926,-0.14722222222222223,"[0, 0, 0]",0,0,1142.628977400018,None,,,,,,,,,,,,,,,,,,,,,,,,,,,,,,,,,,,1002,M,1,5,R,SK,2022_Jan_21_1847,2020.2.10,distractmap1,59.950816359605646,"['Left Arm', 'Left Face', 'Abdomen', 'Right Arm']",
,,,,,,,,,,,,,,,,,,,,,,,,,,,1144.6289880000404,None,space,1144.6289880000404,None,,,,,,,,,,,,,,,,,,,,,,,,,,,,,,1002,M,1,5,R,SK,2022_Jan_21_1847,2020.2.10,distractmap1,59.950816359605646,"['Left Arm', 'Left Face', 'Abdomen', 'Right Arm']",
6,"[0.2, 0]",None,0,0,0,0,,,,,1329.2638599000056,None,1330.2804428000236,None,1330.2804428000236,1331.2805239000008,1331.2638850000221,1332.263871800038,1,-0.3925925925925926,-0.14722222222222223,"[0, 0, 0]",0,0,1330.2804428000236,None,,,,,,,,,,,,,,,,,,,,,,,,,,,,,,,,,,,1002,M,1,5,R,SK,2022_Jan_21_1847,2020.2.10,distractmap1,59.950816359605646,"['Left Arm', 'Left Face', 'Abdomen', 'Right Arm']",
6,"[0.2, 0]",1,0,1,1,1,,,,,,,1332.2805476000067,None,1332.2805476000067,1333.2972291000187,1333.2810152000166,None,1,-0.3925925925925926,-0.14722222222222223,"[0, 0, 0]",0,0,1332.2805476000067,None,,,,,,,,,,,,,,,,,,,,,,,,,,,,,,,,,,,1002,M,1,5,R,SK,2022_Jan_21_1847,2020.2.10,distractmap1,59.950816359605646,"['Left Arm', 'Left Face', 'Abdomen', 'Right Arm']",
2,"[0, 0.2]",0,0,2,2,2,,,,,,,1334.2805598000414,None,1334.2805598000414,1335.2805797000183,1335.2639020000352,1336.263979200041,0,-0.3925925925925926,-0.14722222222222223,"[0, 0, 0]",0,0,1334.2805598000414,None,,,,,,,,,,,,,,,,,,,,,,,,,,,,,,,,,,,1002,M,1,5,R,SK,2022_Jan_21_1847,2020.2.10,distractmap1,59.950816359605646,"['Left Arm', 'Left Face', 'Abdomen', 'Right Arm']",
9,"[0.2, -0.2]",0,0,3,3,3,,,,,,,1336.280586000008,None,1336.280586000008,1337.2805851000012,1337.2633993999916,1338.2639328000369,1,-0.3925925925925926,-0.14722222222222223,"[0, 0, 0]",0,0,1336.280586000008,None,,,,,,,,,,,,,,,,,,,,,,,,,,,,,,,,,,,1002,M,1,5,R,SK,2022_Jan_21_1847,2020.2.10,distractmap1,59.950816359605646,"['Left Arm', 'Left Face', 'Abdomen', 'Right Arm']",
9,"[0.2, -0.2]",1,0,4,4,4,,,,,,,1338.2804655000218,None,1338.2804655000218,1339.2804954000167,1339.2639454000164,1340.2639640000416,0,-0.3925925925925926,-0.14722222222222223,"[0, 0, 0]",0,0,1338.2804655000218,None,,,,,,,,,,,,,,,,,,,,,,,,,,,,,,,,,,,1002,M,1,5,R,SK,2022_Jan_21_1847,2020.2.10,distractmap1,59.950816359605646,"['Left Arm', 'Left Face', 'Abdomen', 'Right Arm']",
6,"[0.2, 0]",0,0,5,5,5,,,,,,,1340.2806322000106,None,1340.2806322000106,1341.2806058000424,1341.2639669000055,1342.263961700024,1,-0.3925925925925926,-0.14722222222222223,"[0, 0, 0]",0,0,1340.2806322000106,None,,,,,,,,,,,,,,,,,,,,,,,,,,,,,,,,,,,1002,M,1,5,R,SK,2022_Jan_21_1847,2020.2.10,distractmap1,59.950816359605646,"['Left Arm', 'Left Face', 'Abdomen', 'Right Arm']",
4,"[-0.2, 0]",0,0,6,6,6,,,,,,,1342.280620000034,None,1342.280620000034,1343.2806336000212,1343.2639752000105,1344.2639888999984,0,-0.3925925925925926,-0.14722222222222223,"[0, 0, 0]",0,0,1342.280620000034,None,,,,,,,,,,,,,,,,,,,,,,,,,,,,,,,,,,,1002,M,1,5,R,SK,2022_Jan_21_1847,2020.2.10,distractmap1,59.950816359605646,"['Left Arm', 'Left Face', 'Abdomen', 'Right Arm']",
3,"[0.2, 0.2]",0,0,7,7,7,,,,,,,1344.2806483000168,None,1344.2806483000168,1345.2806471000076,1345.2639791000402,1346.264009000035,0,-0.3925925925925926,-0.14722222222222223,"[0, 0, 0]",0,0,1344.2806483000168,None,,,,,,,,,,,,,,,,,,,,,,,,,,,,,,,,,,,1002,M,1,5,R,SK,2022_Jan_21_1847,2020.2.10,distractmap1,59.950816359605646,"['Left Arm', 'Left Face', 'Abdomen', 'Right Arm']",
3,"[0.2, 0.2]",1,0,8,8,8,,,,,,,1346.2806562000187,None,1346.2806562000187,1347.2806738000363,1347.2640096000396,1348.2640116999974,0,-0.3925925925925926,-0.14722222222222223,"[0, 0, 0]",0,0,1346.2806562000187,None,,,,,,,,,,,,,,,,,,,,,,,,,,,,,,,,,,,1002,M,1,5,R,SK,2022_Jan_21_1847,2020.2.10,distractmap1,59.950816359605646,"['Left Arm', 'Left Face', 'Abdomen', 'Right Arm']",
8,"[0, -0.2]",0,0,9,9,9,,,,,,,1348.280674800044,None,1348.280674800044,1349.2806926000048,1349.2640223000199,1350.2640511000063,1,-0.3925925925925926,-0.14722222222222223,"[0, 0, 0]",0,0,1348.280674800044,None,,,,,,,,,,,,,,,,,,,,,,,,,,,,,,,,,,,1002,M,1,5,R,SK,2022_Jan_21_1847,2020.2.10,distractmap1,59.950816359605646,"['Left Arm', 'Left Face', 'Abdomen', 'Right Arm']",
1,"[-0.2, 0.2]",0,0,10,10,10,,,,,,,1350.280710800027,None,1350.280710800027,1351.2807137999916,1351.264023900032,1352.2640850000316,0,-0.3925925925925926,-0.14722222222222223,"[0, 0, 0]",0,0,1350.280710800027,None,,,,,,,,,,,,,,,,,,,,,,,,,,,,,,,,,,,1002,M,1,5,R,SK,2022_Jan_21_1847,2020.2.10,distractmap1,59.950816359605646,"['Left Arm', 'Left Face', 'Abdomen', 'Right Arm']",
2,"[0, 0.2]",0,0,11,11,11,,,,,,,1352.2807117000339,None,1352.2807117000339,1353.2806701000081,1353.2640605000197,1354.264064499992,1,-0.3925925925925926,-0.14722222222222223,"[0, 0, 0]",0,0,1352.2807117000339,None,,,,,,,,,,,,,,,,,,,,,,,,,,,,,,,,,,,1002,M,1,5,R,SK,2022_Jan_21_1847,2020.2.10,distractmap1,59.950816359605646,"['Left Arm', 'Left Face', 'Abdomen', 'Right Arm']",
4,"[-0.2, 0]",0,0,12,12,12,,,,,,,1354.2807234000065,None,1354.2807234000065,1355.2807347000344,1355.264085300034,1356.2640739000053,0,-0.3925925925925926,-0.14722222222222223,"[0, 0, 0]",0,0,1354.2807234000065,None,,,,,,,,,,,,,,,,,,,,,,,,,,,,,,,,,,,1002,M,1,5,R,SK,2022_Jan_21_1847,2020.2.10,distractmap1,59.950816359605646,"['Left Arm', 'Left Face', 'Abdomen', 'Right Arm']",
4,"[-0.2, 0]",1,0,13,13,13,,,,,,,1356.2807445999933,None,1356.2807445999933,1357.2807680999977,1357.2640802999958,1358.2641109999968,0,-0.3925925925925926,-0.14722222222222223,"[0, 0, 0]",0,0,1356.2807445999933,None,,,,,,,,,,,,,,,,,,,,,,,,,,,,,,,,,,,1002,M,1,5,R,SK,2022_Jan_21_1847,2020.2.10,distractmap1,59.950816359605646,"['Left Arm', 'Left Face', 'Abdomen', 'Right Arm']",
8,"[0, -0.2]",0,0,14,14,14,,,,,,,1358.280764300027,None,1358.280764300027,1359.2807784000179,1359.2641061000177,1360.2641167000402,1,-0.3925925925925926,-0.14722222222222223,"[0, 0, 1]",0,1,1358.280764300027,None,,,,,,0.0,1.8466770999948494,,,,,,,,,,,,,,,,,,,,,,,,,,,,1002,M,1,5,R,SK,2022_Jan_21_1847,2020.2.10,distractmap1,59.950816359605646,"['Left Arm', 'Left Face', 'Abdomen', 'Right Arm']",
5,"[0, 0]",0,0,15,15,15,,,,,,,1360.2807665000437,None,1360.2807665000437,1361.2808138999972,1361.2641326999874,1362.2641262999969,0,-0.3925925925925926,-0.14722222222222223,"[0, 0, 0]",0,0,1360.2807665000437,None,,,,,,,,,,,,,,,,,,,,,,,,,,,,,,,,,,,1002,M,1,5,R,SK,2022_Jan_21_1847,2020.2.10,distractmap1,59.950816359605646,"['Left Arm', 'Left Face', 'Abdomen', 'Right Arm']",
5,"[0, 0]",1,0,16,16,16,,,,,,,1362.2807823999901,None,1362.2807823999901,1363.2808021000237,1363.2641252999892,1364.2641535000294,0,-0.3925925925925926,-0.14722222222222223,"[0, 0, 0]",0,0,1362.2807823999901,None,,,,,,,,,,,,,,,,,,,,,,,,,,,,,,,,,,,1002,M,1,5,R,SK,2022_Jan_21_1847,2020.2.10,distractmap1,59.950816359605646,"['Left Arm', 'Left Face', 'Abdomen', 'Right Arm']",
1,"[-0.2, 0.2]",0,0,17,17,17,,,,,,,1364.2808033000329,None,1364.2808033000329,1365.2808089000173,1365.2641606000252,1366.264161500032,0,-0.3925925925925926,-0.14722222222222223,"[0, 0, 0]",0,0,1364.2808033000329,None,,,,,,,,,,,,,,,,,,,,,,,,,,,,,,,,,,,1002,M,1,5,R,SK,2022_Jan_21_1847,2020.2.10,distractmap1,59.950816359605646,"['Left Arm', 'Left Face', 'Abdomen', 'Right Arm']",
3,"[0.2, 0.2]",0,0,18,18,18,,,,,,,1366.2808342000353,None,1366.2808342000353,1367.2808396000182,1367.264174800017,1368.2642552999896,0,-0.3925925925925926,-0.14722222222222223,"[0, 0, 0]",0,0,1366.2808342000353,None,,,,,,,,,,,,,,,,,,,,,,,,,,,,,,,,,,,1002,M,1,5,R,SK,2022_Jan_21_1847,2020.2.10,distractmap1,59.950816359605646,"['Left Arm', 'Left Face', 'Abdomen', 'Right Arm']",
6,"[0.2, 0]",0,0,19,19,19,,,,,,,1368.2808607000043,None,1368.2808607000043,1369.2808693000115,1369.2641923000338,1370.264192600036,0,-0.3925925925925926,-0.14722222222222223,"[0, 0, 0]",0,0,1368.2808607000043,None,,,,,,,,,,,,,,,,,,,,,,,,,,,,,,,,,,,1002,M,1,5,R,SK,2022_Jan_21_1847,2020.2.10,distractmap1,59.950816359605646,"['Left Arm', 'Left Face', 'Abdomen', 'Right Arm']",
1,"[-0.2, 0.2]",0,0,20,20,20,,,,,,,1370.2808502000407,None,1370.2808502000407,1371.2808848000132,1371.2641908000223,1372.264209999994,1,-0.3925925925925926,-0.14722222222222223,"[0, 0, 0]",0,0,1370.2808502000407,None,,,,,,,,,,,,,,,,,,,,,,,,,,,,,,,,,,,1002,M,1,5,R,SK,2022_Jan_21_1847,2020.2.10,distractmap1,59.950816359605646,"['Left Arm', 'Left Face', 'Abdomen', 'Right Arm']",
1,"[-0.2, 0.2]",1,0,21,21,21,,,,,,,1372.28090230003,None,1372.28090230003,1373.2808749999967,1373.264211600006,1374.2642468000413,0,-0.3925925925925926,-0.14722222222222223,"[0, 0, 0]",0,0,1372.28090230003,None,,,,,,,,,,,,,,,,,,,,,,,,,,,,,,,,,,,1002,M,1,5,R,SK,2022_Jan_21_1847,2020.2.10,distractmap1,59.950816359605646,"['Left Arm', 'Left Face', 'Abdomen', 'Right Arm']",
1,"[-0.2, 0.2]",1,0,22,22,22,,,,,,,1374.280910600035,None,1374.280910600035,1375.2809111000388,1375.2642283000168,1376.264256800001,0,-0.3925925925925926,-0.14722222222222223,"[0, 0, 0]",0,0,1374.280910600035,None,,,,,,,,,,,,,,,,,,,,,,,,,,,,,,,,,,,1002,M,1,5,R,SK,2022_Jan_21_1847,2020.2.10,distractmap1,59.950816359605646,"['Left Arm', 'Left Face', 'Abdomen', 'Right Arm']",
3,"[0.2, 0.2]",0,0,23,23,23,,,,,,,1376.2809256000328,None,1376.2809256000328,1377.2809218000039,1377.2642556999926,1378.2642499000067,0,-0.3925925925925926,-0.14722222222222223,"[0, 0, 0]",0,0,1376.2809256000328,None,,,,,,,,,,,,,,,,,,,,,,,,,,,,,,,,,,,1002,M,1,5,R,SK,2022_Jan_21_1847,2020.2.10,distractmap1,59.950816359605646,"['Left Arm', 'Left Face', 'Abdomen', 'Right Arm']",
2,"[0, 0.2]",0,0,24,24,24,,,,,,,1378.2809328000294,None,1378.2809328000294,1379.280936199997,1379.2642812000122,1380.2642699000426,0,-0.3925925925925926,-0.14722222222222223,"[0, 0, 0]",0,0,1378.2809328000294,None,,,,,,,,,,,,,,,,,,,,,,,,,,,,,,,,,,,1002,M,1,5,R,SK,2022_Jan_21_1847,2020.2.10,distractmap1,59.950816359605646,"['Left Arm', 'Left Face', 'Abdomen', 'Right Arm']",
1,"[-0.2, 0.2]",0,0,25,25,25,,,,,,,1380.2809540000162,None,1380.2809540000162,1381.2809493000386,1381.2642767000361,1382.2643063000287,0,-0.3925925925925926,-0.14722222222222223,"[0, 0, 0]",0,0,1380.2809540000162,None,,,,,,,,,,,,,,,,,,,,,,,,,,,,,,,,,,,1002,M,1,5,R,SK,2022_Jan_21_1847,2020.2.10,distractmap1,59.950816359605646,"['Left Arm', 'Left Face', 'Abdomen', 'Right Arm']",
7,"[-0.2, -0.2]",0,0,26,26,26,,,,,,,1382.2809688000125,None,1382.2809688000125,1383.2809584999923,1383.264298300026,1384.2643159000436,0,-0.3925925925925926,-0.14722222222222223,"[0, 0, 0]",0,0,1382.2809688000125,None,,,,,,,,,,,,,,,,,,,,,,,,,,,,,,,,,,,1002,M,1,5,R,SK,2022_Jan_21_1847,2020.2.10,distractmap1,59.950816359605646,"['Left Arm', 'Left Face', 'Abdomen', 'Right Arm']",
7,"[-0.2, -0.2]",1,0,27,27,27,,,,,,,1384.280981399992,None,1384.280981399992,1385.2809958000435,1385.2643125000177,1386.2643350000144,0,-0.3925925925925926,-0.14722222222222223,"[0, 0, 0]",0,0,1384.280981399992,None,,,,,,,,,,,,,,,,,,,,,,,,,,,,,,,,,,,1002,M,1,5,R,SK,2022_Jan_21_1847,2020.2.10,distractmap1,59.950816359605646,"['Left Arm', 'Left Face', 'Abdomen', 'Right Arm']",
2,"[0, 0.2]",0,0,28,28,28,,,,,,,1386.2810582999955,None,1386.2810582999955,1387.2810107000405,1387.264336400025,1388.2643453000346,0,-0.3925925925925926,-0.14722222222222223,"[0, 0, 0]",0,0,1386.2810582999955,None,,,,,,,,,,,,,,,,,,,,,,,,,,,,,,,,,,,1002,M,1,5,R,SK,2022_Jan_21_1847,2020.2.10,distractmap1,59.950816359605646,"['Left Arm', 'Left Face', 'Abdomen', 'Right Arm']",
6,"[0.2, 0]",0,0,29,29,29,,,,,,,1388.2810207000002,None,1388.2810207000002,1389.2809140000027,1389.2643586000195,1390.2643659000169,0,-0.3925925925925926,-0.14722222222222223,"[0, 0, 0]",0,0,1388.2810207000002,None,,,,,,,,,,,,,,,,,,,,,,,,,,,,,,,,,,,1002,M,1,5,R,SK,2022_Jan_21_1847,2020.2.10,distractmap1,59.950816359605646,"['Left Arm', 'Left Face', 'Abdomen', 'Right Arm']",
,,,,,,,,,,,,,,,,,,,,,,,,,,,1390.2810311000212,None,space,1390.2810311000212,None,,,,,,,,,,,,,,,,,,,,,,,,,,,,,,1002,M,1,5,R,SK,2022_Jan_21_1847,2020.2.10,distractmap1,59.950816359605646,"['Left Arm', 'Left Face', 'Abdomen', 'Right Arm']",
6,"[0.2, 0]",None,0,0,0,0,,,,,1435.198042700009,None,1436.2147494000383,None,1436.2147494000383,1437.214755700028,1437.1980761000304,1438.1980805000057,1,-0.3925925925925926,-0.14722222222222223,"[0, 0, 0]",0,0,1436.2147494000383,None,,,,,,,,,,,,,,,,,,,,,,,,,,,,,,,,,,,1002,M,1,5,R,SK,2022_Jan_21_1847,2020.2.10,distractmap1,59.950816359605646,"['Left Arm', 'Left Face', 'Abdomen', 'Right Arm']",
6,"[0.2, 0]",1,0,1,1,1,,,,,,,1438.2147614000132,None,1438.2147614000132,1439.2147637000307,1439.198102800001,1440.198102800001,1,-0.3925925925925926,-0.14722222222222223,"[0, 0, 0]",0,0,1438.2147614000132,None,,,,,,,,,,,,,,,,,,,,,,,,,,,,,,,,,,,1002,M,1,5,R,SK,2022_Jan_21_1847,2020.2.10,distractmap1,59.950816359605646,"['Left Arm', 'Left Face', 'Abdomen', 'Right Arm']",
2,"[0, 0.2]",0,0,2,2,2,,,,,,,1440.2147662999923,None,1440.2147662999923,1441.2147911000066,1441.1981096999953,1442.1981177999987,1,-0.3925925925925926,-0.14722222222222223,"[0, 0, 0]",0,0,1440.2147662999923,None,,,,,,,,,,,,,,,,,,,,,,,,,,,,,,,,,,,1002,M,1,5,R,SK,2022_Jan_21_1847,2020.2.10,distractmap1,59.950816359605646,"['Left Arm', 'Left Face', 'Abdomen', 'Right Arm']",
9,"[0.2, -0.2]",0,0,3,3,3,,,,,,,1442.2147993000108,None,1442.2147993000108,1443.214793400024,1443.1981342000072,None,1,-0.3925925925925926,-0.14722222222222223,"[0, 0, 0]",0,0,1442.2147993000108,None,,,,,,,,,,,,,,,,,,,,,,,,,,,,,,,,,,,1002,M,1,5,R,SK,2022_Jan_21_1847,2020.2.10,distractmap1,59.950816359605646,"['Left Arm', 'Left Face', 'Abdomen', 'Right Arm']",
9,"[0.2, -0.2]",1,0,4,4,4,,,,,,,1444.1981469999882,None,1444.1981469999882,1445.1981440000236,1445.1814925000072,1446.1815018000198,1,-0.3925925925925926,-0.14722222222222223,"[0, 0, 0]",0,0,1444.1981469999882,None,,,,,,,,,,,,,,,,,,,,,,,,,,,,,,,,,,,1002,M,1,5,R,SK,2022_Jan_21_1847,2020.2.10,distractmap1,59.950816359605646,"['Left Arm', 'Left Face', 'Abdomen', 'Right Arm']",
6,"[0.2, 0]",0,0,5,5,5,,,,,,,1446.1981606000336,None,1446.1981606000336,1447.1981692000409,1447.1815109000308,1448.1815258000279,1,-0.3925925925925926,-0.14722222222222223,"[0, 0, 0]",0,0,1446.1981606000336,None,,,,,,,,,,,,,,,,,,,,,,,,,,,,,,,,,,,1002,M,1,5,R,SK,2022_Jan_21_1847,2020.2.10,distractmap1,59.950816359605646,"['Left Arm', 'Left Face', 'Abdomen', 'Right Arm']",
4,"[-0.2, 0]",0,0,6,6,6,,,,,,,1448.1981657000142,None,1448.1981657000142,1449.1976936000283,1449.181528999994,1450.1815449999995,1,-0.3925925925925926,-0.14722222222222223,"[0, 0, 0]",0,0,1448.1981657000142,None,,,,,,,,,,,,,,,,,,,,,,,,,,,,,,,,,,,1002,M,1,5,R,SK,2022_Jan_21_1847,2020.2.10,distractmap1,59.950816359605646,"['Left Arm', 'Left Face', 'Abdomen', 'Right Arm']",
3,"[0.2, 0.2]",0,0,7,7,7,,,,,,,1450.1982253000024,None,1450.1982253000024,1451.198192400043,1451.181550200039,1452.181550200039,1,-0.3925925925925926,-0.14722222222222223,"[0, 0, 0]",0,0,1450.1982253000024,None,,,,,,,,,,,,,,,,,,,,,,,,,,,,,,,,,,,1002,M,1,5,R,SK,2022_Jan_21_1847,2020.2.10,distractmap1,59.950816359605646,"['Left Arm', 'Left Face', 'Abdomen', 'Right Arm']",
3,"[0.2, 0.2]",1,0,8,8,8,,,,,,,1452.1982003999874,None,1452.1982003999874,1453.198217600002,1453.181548500026,1454.1815553000197,1,-0.3925925925925926,-0.14722222222222223,"[0, 0, 0]",0,0,1452.1982003999874,None,,,,,,,,,,,,,,,,,,,,,,,,,,,,,,,,,,,1002,M,1,5,R,SK,2022_Jan_21_1847,2020.2.10,distractmap1,59.950816359605646,"['Left Arm', 'Left Face', 'Abdomen', 'Right Arm']",
8,"[0, -0.2]",0,0,9,9,9,,,,,,,1454.198179900006,None,1454.198179900006,1455.198225900007,1455.181582099991,1456.1815717000281,0,-0.3925925925925926,-0.14722222222222223,"[0, 0, 0]",0,0,1454.198179900006,None,,,,,,,,,,,,,,,,,,,,,,,,,,,,,,,,,,,1002,M,1,5,R,SK,2022_Jan_21_1847,2020.2.10,distractmap1,59.950816359605646,"['Left Arm', 'Left Face', 'Abdomen', 'Right Arm']",
1,"[-0.2, 0.2]",0,0,10,10,10,,,,,,,1456.1982315999921,None,1456.1982315999921,1457.1982566000079,1457.1816057999968,1458.1816053999937,1,-0.3925925925925926,-0.14722222222222223,"[0, 0, 0]",0,0,1456.1982315999921,None,,,,,,,,,,,,,,,,,,,,,,,,,,,,,,,,,,,1002,M,1,5,R,SK,2022_Jan_21_1847,2020.2.10,distractmap1,59.950816359605646,"['Left Arm', 'Left Face', 'Abdomen', 'Right Arm']",
2,"[0, 0.2]",0,0,11,11,11,,,,,,,1458.1982490000082,None,1458.1982490000082,1459.1982646000106,1459.181650899991,1460.1816117000417,1,-0.3925925925925926,-0.14722222222222223,"[0, 0, 0]",0,0,1458.1982490000082,None,,,,,,,,,,,,,,,,,,,,,,,,,,,,,,,,,,,1002,M,1,5,R,SK,2022_Jan_21_1847,2020.2.10,distractmap1,59.950816359605646,"['Left Arm', 'Left Face', 'Abdomen', 'Right Arm']",
4,"[-0.2, 0]",0,0,12,12,12,,,,,,,1460.1982691999874,None,1460.1982691999874,1461.198274400027,1461.181626100035,1462.1816195000429,1,-0.3925925925925926,-0.14722222222222223,"[0, 0, 0]",0,0,1460.1982691999874,None,,,,,,,,,,,,,,,,,,,,,,,,,,,,,,,,,,,1002,M,1,5,R,SK,2022_Jan_21_1847,2020.2.10,distractmap1,59.950816359605646,"['Left Arm', 'Left Face', 'Abdomen', 'Right Arm']",
4,"[-0.2, 0]",1,0,13,13,13,,,,,,,1462.1982847999898,None,1462.1982847999898,1463.1982957000146,1463.181645500008,1464.1816502999864,1,-0.3925925925925926,-0.14722222222222223,"[0, 0, 0]",0,0,1462.1982847999898,None,,,,,,,,,,,,,,,,,,,,,,,,,,,,,,,,,,,1002,M,1,5,R,SK,2022_Jan_21_1847,2020.2.10,distractmap1,59.950816359605646,"['Left Arm', 'Left Face', 'Abdomen', 'Right Arm']",
8,"[0, -0.2]",0,0,14,14,14,,,,,,,1464.1982099000015,None,1464.1982099000015,1465.1983089999994,1465.1816550000221,1466.181671700033,1,-0.3925925925925926,-0.14722222222222223,"[0, 0, 0]",0,0,1464.1982099000015,None,,,,,,,,,,,,,,,,,,,,,,,,,,,,,,,,,,,1002,M,1,5,R,SK,2022_Jan_21_1847,2020.2.10,distractmap1,59.950816359605646,"['Left Arm', 'Left Face', 'Abdomen', 'Right Arm']",
5,"[0, 0]",0,0,15,15,15,,,,,,,1466.198321700038,None,1466.198321700038,1467.1983286000323,1467.1816644000355,1468.1816765000112,1,-0.3925925925925926,-0.14722222222222223,"[0, 0, 0]",0,0,1466.198321700038,None,,,,,,,,,,,,,,,,,,,,,,,,,,,,,,,,,,,1002,M,1,5,R,SK,2022_Jan_21_1847,2020.2.10,distractmap1,59.950816359605646,"['Left Arm', 'Left Face', 'Abdomen', 'Right Arm']",
5,"[0, 0]",1,0,16,16,16,,,,,,,1468.1983367000357,None,1468.1983367000357,1469.1983395999996,1469.181697699998,1470.1816868000315,1,-0.3925925925925926,-0.14722222222222223,"[0, 0, 0]",0,0,1468.1983367000357,None,,,,,,,,,,,,,,,,,,,,,,,,,,,,,,,,,,,1002,M,1,5,R,SK,2022_Jan_21_1847,2020.2.10,distractmap1,59.950816359605646,"['Left Arm', 'Left Face', 'Abdomen', 'Right Arm']",
1,"[-0.2, 0.2]",0,0,17,17,17,,,,,,,1470.198373900028,None,1470.198373900028,1471.198373000021,1471.1816898999969,1472.1817252000328,1,-0.3925925925925926,-0.14722222222222223,"[0, 0, 0]",0,0,1470.198373900028,None,,,,,,,,,,,,,,,,,,,,,,,,,,,,,,,,,,,1002,M,1,5,R,SK,2022_Jan_21_1847,2020.2.10,distractmap1,59.950816359605646,"['Left Arm', 'Left Face', 'Abdomen', 'Right Arm']",
3,"[0.2, 0.2]",0,0,18,18,18,,,,,,,1472.198397900036,None,1472.198397900036,1473.1983916999889,1473.1817145000095,1474.181725500035,1,-0.3925925925925926,-0.14722222222222223,"[0, 0, 0]",0,0,1472.198397900036,None,,,,,,,,,,,,,,,,,,,,,,,,,,,,,,,,,,,1002,M,1,5,R,SK,2022_Jan_21_1847,2020.2.10,distractmap1,59.950816359605646,"['Left Arm', 'Left Face', 'Abdomen', 'Right Arm']",
6,"[0.2, 0]",0,0,19,19,19,,,,,,,1474.198386700009,None,1474.198386700009,1475.1984048000304,1475.1817504999926,1476.181748300034,1,-0.3925925925925926,-0.14722222222222223,"[0, 0, 0]",0,0,1474.198386700009,None,,,,,,,,,,,,,,,,,,,,,,,,,,,,,,,,,,,1002,M,1,5,R,SK,2022_Jan_21_1847,2020.2.10,distractmap1,59.950816359605646,"['Left Arm', 'Left Face', 'Abdomen', 'Right Arm']",
1,"[-0.2, 0.2]",0,0,20,20,20,,,,,,,1476.1984017000068,None,1476.1984017000068,1477.1984125000308,1477.1817559000337,1478.1817723000422,1,-0.3925925925925926,-0.14722222222222223,"[0, 0, 0]",0,0,1476.1984017000068,None,,,,,,,,,,,,,,,,,,,,,,,,,,,,,,,,,,,1002,M,1,5,R,SK,2022_Jan_21_1847,2020.2.10,distractmap1,59.950816359605646,"['Left Arm', 'Left Face', 'Abdomen', 'Right Arm']",
1,"[-0.2, 0.2]",1,0,21,21,21,,,,,,,1478.1984310999978,1480.1984509000322,1478.1984310999978,1479.1984336000169,1479.181770300027,1480.1812618999975,1,-0.3925925925925926,-0.14722222222222223,"[0, 0, 0]",0,0,1478.1984310999978,1480.1984509000322,,,,,,,,,,,,,,,,,,,,,,,,,,,,,,,,,,,1002,M,1,5,R,SK,2022_Jan_21_1847,2020.2.10,distractmap1,59.950816359605646,"['Left Arm', 'Left Face', 'Abdomen', 'Right Arm']",
1,"[-0.2, 0.2]",1,0,22,22,22,,,,,,,1480.2151289000176,None,1480.2151289000176,1481.2151120000053,1481.1984512000345,None,1,-0.3925925925925926,-0.14722222222222223,"[0, 0, 0]",0,0,1480.2151289000176,None,,,,,,,,,,,,,,,,,,,,,,,,,,,,,,,,,,,1002,M,1,5,R,SK,2022_Jan_21_1847,2020.2.10,distractmap1,59.950816359605646,"['Left Arm', 'Left Face', 'Abdomen', 'Right Arm']",
3,"[0.2, 0.2]",0,0,23,23,23,,,,,,,1482.1984752000426,None,1482.1984752000426,1483.1984724000213,1483.1818064000108,1484.181828700006,1,-0.3925925925925926,-0.14722222222222223,"[0, 0, 0]",0,0,1482.1984752000426,None,,,,,,,,,,,,,,,,,,,,,,,,,,,,,,,,,,,1002,M,1,5,R,SK,2022_Jan_21_1847,2020.2.10,distractmap1,59.950816359605646,"['Left Arm', 'Left Face', 'Abdomen', 'Right Arm']",
2,"[0, 0.2]",0,0,24,24,24,,,,,,,1484.1985065999907,None,1484.1985065999907,1485.1984909999883,1485.1818247000338,1486.1818275999976,1,-0.3925925925925926,-0.14722222222222223,"[0, 0, 0]",0,0,1484.1985065999907,None,,,,,,,,,,,,,,,,,,,,,,,,,,,,,,,,,,,1002,M,1,5,R,SK,2022_Jan_21_1847,2020.2.10,distractmap1,59.950816359605646,"['Left Arm', 'Left Face', 'Abdomen', 'Right Arm']",
1,"[-0.2, 0.2]",0,0,25,25,25,,,,,,,1486.1985066999914,None,1486.1985066999914,1487.1985128000379,1487.181831200025,1488.1818409000407,1,-0.3925925925925926,-0.14722222222222223,"[0, 0, 0]",0,0,1486.1985066999914,None,,,,,,,,,,,,,,,,,,,,,,,,,,,,,,,,,,,1002,M,1,5,R,SK,2022_Jan_21_1847,2020.2.10,distractmap1,59.950816359605646,"['Left Arm', 'Left Face', 'Abdomen', 'Right Arm']",
7,"[-0.2, -0.2]",0,0,26,26,26,,,,,,,1488.1985118000302,None,1488.1985118000302,1489.1985293999896,1489.1818920000223,1490.181858099997,1,-0.3925925925925926,-0.14722222222222223,"[0, 0, 0]",0,0,1488.1985118000302,None,,,,,,,,,,,,,,,,,,,,,,,,,,,,,,,,,,,1002,M,1,5,R,SK,2022_Jan_21_1847,2020.2.10,distractmap1,59.950816359605646,"['Left Arm', 'Left Face', 'Abdomen', 'Right Arm']",
7,"[-0.2, -0.2]",1,0,27,27,27,,,,,,,1490.198534300027,None,1490.198534300027,1491.1985547000077,1491.1818670000066,1492.1818986000144,1,-0.3925925925925926,-0.14722222222222223,"[0, 0, 0]",0,0,1490.198534300027,None,,,,,,,,,,,,,,,,,,,,,,,,,,,,,,,,,,,1002,M,1,5,R,SK,2022_Jan_21_1847,2020.2.10,distractmap1,59.950816359605646,"['Left Arm', 'Left Face', 'Abdomen', 'Right Arm']",
2,"[0, 0.2]",0,0,28,28,28,,,,,,,1492.1985708000138,None,1492.1985708000138,1493.1985489000217,1493.1818795999861,1494.1818810999976,1,-0.3925925925925926,-0.14722222222222223,"[0, 0, 0]",0,0,1492.1985708000138,None,,,,,,,,,,,,,,,,,,,,,,,,,,,,,,,,,,,1002,M,1,5,R,SK,2022_Jan_21_1847,2020.2.10,distractmap1,59.950816359605646,"['Left Arm', 'Left Face', 'Abdomen', 'Right Arm']",
6,"[0.2, 0]",0,0,29,29,29,,,,,,,1494.198576499999,None,1494.198576499999,1495.1985773000051,1495.181900400028,1496.181911599997,1,-0.3925925925925926,-0.14722222222222223,"[0, 0, 0]",0,0,1494.198576499999,None,,,,,,,,,,,,,,,,,,,,,,,,,,,,,,,,,,,1002,M,1,5,R,SK,2022_Jan_21_1847,2020.2.10,distractmap1,59.950816359605646,"['Left Arm', 'Left Face', 'Abdomen', 'Right Arm']",
,,,,,,,,,,,,,,,,,,,,,,,,,,,1496.2152525000274,None,space,1496.2152525000274,None,,,,,,,,,,,,,,,,,,,,,,,,,,,,,,1002,M,1,5,R,SK,2022_Jan_21_1847,2020.2.10,distractmap1,59.950816359605646,"['Left Arm', 'Left Face', 'Abdomen', 'Right Arm']",
6,"[0.2, 0]",None,,,,,0,0,0,0,1620.6162916999892,None,,,,,,,,,,,,,,,,,,,,,,None,None,"[0, 0, 0]",1621.6329241000349,None,1621.6329241000349,1622.6329753000173,1622.616316300002,1623.6163137000403,"[0, 0, 0]",1,1621.6329241000349,None,,,,,,,,,,,,,,,1002,M,1,5,R,SK,2022_Jan_21_1847,2020.2.10,distractmap1,59.950816359605646,"['Left Arm', 'Left Face', 'Abdomen', 'Right Arm']",
7,"[-0.2, -0.2]",None,,,,,0,1,1,1,,,,,,,,,,,,,,,,,,,,,,,,None,None,"[0, 0, 0]",1623.6329840000253,1625.6330036,1623.6329840000253,1624.6329882999999,1624.6163378999918,1625.6163309999974,"[0, 0, 0]",1,1623.6329840000253,1625.6330036,,,,,,,,,,,,,,,1002,M,1,5,R,SK,2022_Jan_21_1847,2020.2.10,distractmap1,59.950816359605646,"['Left Arm', 'Left Face', 'Abdomen', 'Right Arm']",
6,"[0.2, 0]",1,,,,,0,2,2,2,,,,,,,,,,,,,,,,,,,,,,,,None,None,"[0, 0, 0]",1625.6496716000256,1627.6496819999884,1625.6496716000256,1626.6496885000379,1626.633010599995,1627.6330213000183,"[0, 0, 0]",1,1625.6496716000256,1627.6496819999884,,,,,,,,,,,,,,,1002,M,1,5,R,SK,2022_Jan_21_1847,2020.2.10,distractmap1,59.950816359605646,"['Left Arm', 'Left Face', 'Abdomen', 'Right Arm']",
2,"[0, 0.2]",0,,,,,0,3,3,3,,,,,,,,,,,,,,,,,,,,,,,,None,None,"[0, 0, 1]",1627.6663449000334,1629.6663693999872,1627.6663449000334,1628.666374900029,1628.6496914000018,1629.649703400035,"[0, 0, 1]",1,1627.6663449000334,1629.6663693999872,0.0,1.8670093000400811,,,,,,,,,,,,,1002,M,1,5,R,SK,2022_Jan_21_1847,2020.2.10,distractmap1,59.950816359605646,"['Left Arm', 'Left Face', 'Abdomen', 'Right Arm']",
5,"[0, 0]",0,,,,,0,4,4,4,,,,,,,,,,,,,,,,,,,,,,,,None,None,"[0, 0, 0]",1629.6830431999988,1631.6830565000419,1629.6830431999988,1630.6830745000043,1630.6663838000386,1631.6663834000356,"[0, 0, 0]",1,1629.6830431999988,1631.6830565000419,,,,,,,,,,,,,,,1002,M,1,5,R,SK,2022_Jan_21_1847,2020.2.10,distractmap1,59.950816359605646,"['Left Arm', 'Left Face', 'Abdomen', 'Right Arm']",
4,"[-0.2, 0]",0,,,,,0,5,5,5,,,,,,,,,,,,,,,,,,,,,,,,None,None,"[0, 0, 0]",1631.6997320000082,1633.6997322000097,1631.6997320000082,1632.6997358000372,1632.683066700003,1633.6830670000054,"[0, 0, 0]",1,1631.6997320000082,1633.6997322000097,,,,,,,,,,,,,,,1002,M,1,5,R,SK,2022_Jan_21_1847,2020.2.10,distractmap1,59.950816359605646,"['Left Arm', 'Left Face', 'Abdomen', 'Right Arm']",
4,"[-0.2, 0]",0,,,,,0,6,6,6,,,,,,,,,,,,,,,,,,,,,,,,None,None,"[0, 0, 0]",1633.7164099999936,1635.7164239000413,1633.7164099999936,1634.7330787000246,1634.7167899000342,1635.7164239000413,"[0, 0, 0]",1,1633.7164099999936,1635.7164239000413,,,,,,,,,,,,,,,1002,M,1,5,R,SK,2022_Jan_21_1847,2020.2.10,distractmap1,59.950816359605646,"['Left Arm', 'Left Face', 'Abdomen', 'Right Arm']",
7,"[-0.2, -0.2]",0,,,,,0,7,7,7,,,,,,,,,,,,,,,,,,,,,,,,None,None,"[0, 0, 0]",1635.733089699992,1637.7330969999894,1635.733089699992,1636.7331062000012,1636.7164239000413,1637.7164267000044,"[0, 0, 0]",0,1635.733089699992,1637.7330969999894,,,,,,,,,,,,,,,1002,M,1,5,R,SK,2022_Jan_21_1847,2020.2.10,distractmap1,59.950816359605646,"['Left Arm', 'Left Face', 'Abdomen', 'Right Arm']",
4,"[-0.2, 0]",1,,,,,0,8,8,8,,,,,,,,,,,,,,,,,,,,,,,,None,None,"[0, 0, 0]",1637.7497740000254,1639.7497988000396,1637.7497740000254,1638.74977460003,1638.7331153000123,1639.7331199999899,"[0, 0, 0]",1,1637.7497740000254,1639.7497988000396,,,,,,,,,,,,,,,1002,M,1,5,R,SK,2022_Jan_21_1847,2020.2.10,distractmap1,59.950816359605646,"['Left Arm', 'Left Face', 'Abdomen', 'Right Arm']",
3,"[0.2, 0.2]",0,,,,,0,9,9,9,,,,,,,,,,,,,,,,,,,,,,,,None,None,"[0, 0, 0]",1639.7663518000045,1641.7664860000368,1639.7663518000045,1640.7665056000114,1640.7497906000353,1641.7497376000392,"[0, 0, 0]",1,1639.7663518000045,1641.7664860000368,,,,,,,,,,,,,,,1002,M,1,5,R,SK,2022_Jan_21_1847,2020.2.10,distractmap1,59.950816359605646,"['Left Arm', 'Left Face', 'Abdomen', 'Right Arm']",
5,"[0, 0]",0,,,,,0,10,10,10,,,,,,,,,,,,,,,,,,,,,,,,None,None,"[0, 0, 0]",1641.7831352000358,1643.7831556000165,1641.7831352000358,1642.7831472000107,1642.7665078000282,1643.7664889000007,"[0, 0, 0]",0,1641.7831352000358,1643.7831556000165,,,,,,,,,,,,,,,1002,M,1,5,R,SK,2022_Jan_21_1847,2020.2.10,distractmap1,59.950816359605646,"['Left Arm', 'Left Face', 'Abdomen', 'Right Arm']",
3,"[0.2, 0.2]",1,,,,,0,11,11,11,,,,,,,,,,,,,,,,,,,,,,,,None,None,"[0, 0, 0]",1643.7998300000327,1645.7998600000283,1643.7998300000327,1644.8168775000377,1644.78318269999,1645.7831700000097,"[0, 0, 0]",1,1643.7998300000327,1645.7998600000283,,,,,,,,,,,,,,,1002,M,1,5,R,SK,2022_Jan_21_1847,2020.2.10,distractmap1,59.950816359605646,"['Left Arm', 'Left Face', 'Abdomen', 'Right Arm']",
1,"[-0.2, 0.2]",0,,,,,0,12,12,12,,,,,,,,,,,,,,,,,,,,,,,,None,None,"[0, 0, 0]",1645.8165060000028,1647.8165334000369,1645.8165060000028,1646.8165260000387,1646.799854300043,1647.7998559999978,"[0, 0, 0]",1,1645.8165060000028,1647.8165334000369,,,,,,,,,,,,,,,1002,M,1,5,R,SK,2022_Jan_21_1847,2020.2.10,distractmap1,59.950816359605646,"['Left Arm', 'Left Face', 'Abdomen', 'Right Arm']",
9,"[0.2, -0.2]",0,,,,,0,13,13,13,,,,,,,,,,,,,,,,,,,,,,,,None,None,"[0, 0, 0]",1647.8331943000085,1649.8332051000325,1647.8331943000085,1648.8332022000104,1648.8165267999866,1649.8165397000266,"[0, 0, 0]",1,1647.8331943000085,1649.8332051000325,,,,,,,,,,,,,,,1002,M,1,5,R,SK,2022_Jan_21_1847,2020.2.10,distractmap1,59.950816359605646,"['Left Arm', 'Left Face', 'Abdomen', 'Right Arm']",
9,"[0.2, -0.2]",0,,,,,0,14,14,14,,,,,,,,,,,,,,,,,,,,,,,,None,None,"[0, 0, 0]",1649.8498927000328,1651.84988470003,1649.8498927000328,1650.84988970001,1650.8332193000242,1651.833219800028,"[0, 0, 0]",1,1649.8498927000328,1651.84988470003,,,,,,,,,,,,,,,1002,M,1,5,R,SK,2022_Jan_21_1847,2020.2.10,distractmap1,59.950816359605646,"['Left Arm', 'Left Face', 'Abdomen', 'Right Arm']",
8,"[0, -0.2]",0,,,,,0,15,15,15,,,,,,,,,,,,,,,,,,,,,,,,None,None,"[0, 0, 0]",1651.8665666999877,1653.866622600006,1651.8665666999877,1652.8665609000018,1652.8498962000012,1653.8499098999891,"[0, 0, 0]",1,1651.8665666999877,1653.866622600006,,,,,,,,,,,,,,,1002,M,1,5,R,SK,2022_Jan_21_1847,2020.2.10,distractmap1,59.950816359605646,"['Left Arm', 'Left Face', 'Abdomen', 'Right Arm']",
6,"[0.2, 0]",0,,,,,0,16,16,16,,,,,,,,,,,,,,,,,,,,,,,,None,None,"[0, 0, 0]",1653.8832445000298,1655.8832620999892,1653.8832445000298,1654.8832520000287,1654.8665985999978,1655.866594400024,"[0, 0, 0]",1,1653.8832445000298,1655.8832620999892,,,,,,,,,,,,,,,1002,M,1,5,R,SK,2022_Jan_21_1847,2020.2.10,distractmap1,59.950816359605646,"['Left Arm', 'Left Face', 'Abdomen', 'Right Arm']",
3,"[0.2, 0.2]",0,,,,,0,17,17,17,,,,,,,,,,,,,,,,,,,,,,,,None,None,"[0, 0, 0]",1655.899920099997,1657.899941300042,1655.899920099997,1656.89993340004,1656.8832843000419,1657.88327510003,"[0, 0, 0]",1,1655.899920099997,1657.899941300042,,,,,,,,,,,,,,,1002,M,1,5,R,SK,2022_Jan_21_1847,2020.2.10,distractmap1,59.950816359605646,"['Left Arm', 'Left Face', 'Abdomen', 'Right Arm']",
6,"[0.2, 0]",1,,,,,0,18,18,18,,,,,,,,,,,,,,,,,,,,,,,,None,None,"[0, 0, 0]",1657.9166339000221,1659.9166208000388,1657.9166339000221,1658.9166358000366,1658.8999457000173,1659.899955800036,"[0, 0, 0]",1,1657.9166339000221,1659.9166208000388,,,,,,,,,,,,,,,1002,M,1,5,R,SK,2022_Jan_21_1847,2020.2.10,distractmap1,59.950816359605646,"['Left Arm', 'Left Face', 'Abdomen', 'Right Arm']",
5,"[0, 0]",0,,,,,0,19,19,19,,,,,,,,,,,,,,,,,,,,,,,,None,None,"[0, 0, 0]",1659.9332924000337,1661.9333026999957,1659.9332924000337,1660.9333104999969,1660.916651400039,1661.9166502000298,"[0, 0, 0]",1,1659.9332924000337,1661.9333026999957,,,,,,,,,,,,,,,1002,M,1,5,R,SK,2022_Jan_21_1847,2020.2.10,distractmap1,59.950816359605646,"['Left Arm', 'Left Face', 'Abdomen', 'Right Arm']",
7,"[-0.2, -0.2]",0,,,,,0,20,20,20,,,,,,,,,,,,,,,,,,,,,,,,None,None,"[0, 0, 0]",1661.9499863000237,1663.9500030000345,1661.9499863000237,1662.94998080004,1662.9333226000308,1663.9333249999909,"[0, 0, 0]",1,1661.9499863000237,1663.9500030000345,,,,,,,,,,,,,,,1002,M,1,5,R,SK,2022_Jan_21_1847,2020.2.10,distractmap1,59.950816359605646,"['Left Arm', 'Left Face', 'Abdomen', 'Right Arm']",
5,"[0, 0]",1,,,,,0,21,21,21,,,,,,,,,,,,,,,,,,,,,,,,None,None,"[0, 0, 0]",1663.9666741000256,1665.9666877000127,1663.9666741000256,1664.9666021000012,1664.950000300014,1665.9499606000027,"[0, 0, 0]",1,1663.9666741000256,1665.9666877000127,,,,,,,,,,,,,,,1002,M,1,5,R,SK,2022_Jan_21_1847,2020.2.10,distractmap1,59.950816359605646,"['Left Arm', 'Left Face', 'Abdomen', 'Right Arm']",
1,"[-0.2, 0.2]",0,,,,,0,22,22,22,,,,,,,,,,,,,,,,,,,,,,,,None,None,"[0, 0, 0]",1665.9833530000178,1667.9833606000175,1665.9833530000178,1666.9833618000266,1666.9666943000047,1667.9667061000364,"[0, 0, 0]",1,1665.9833530000178,1667.9833606000175,,,,,,,,,,,,,,,1002,M,1,5,R,SK,2022_Jan_21_1847,2020.2.10,distractmap1,59.950816359605646,"['Left Arm', 'Left Face', 'Abdomen', 'Right Arm']",
7,"[-0.2, -0.2]",0,,,,,0,23,23,23,,,,,,,,,,,,,,,,,,,,,,,,None,None,"[0, 0, 0]",1668.0000303999986,1670.000039400009,1668.0000303999986,1669.0000381999998,1668.9833795999875,1669.9833814000012,"[0, 0, 0]",0,1668.0000303999986,1670.000039400009,,,,,,,,,,,,,,,1002,M,1,5,R,SK,2022_Jan_21_1847,2020.2.10,distractmap1,59.950816359605646,"['Left Arm', 'Left Face', 'Abdomen', 'Right Arm']",
9,"[0.2, -0.2]",0,,,,,0,24,24,24,,,,,,,,,,,,,,,,,,,,,,,,None,None,"[0, 0, 0]",1670.016722200031,1672.01672710001,1670.016722200031,1671.0167436000193,1671.0000516999862,1672.0000653000316,"[0, 0, 0]",1,1670.016722200031,1672.01672710001,,,,,,,,,,,,,,,1002,M,1,5,R,SK,2022_Jan_21_1847,2020.2.10,distractmap1,59.950816359605646,"['Left Arm', 'Left Face', 'Abdomen', 'Right Arm']",
3,"[0.2, 0.2]",0,,,,,0,25,25,25,,,,,,,,,,,,,,,,,,,,,,,,None,None,"[0, 0, 0]",1672.0333907000022,1674.0334100000327,1672.0333907000022,1673.0334204999963,1673.0167522000265,1674.0167464000406,"[0, 0, 0]",1,1672.0333907000022,1674.0334100000327,,,,,,,,,,,,,,,1002,M,1,5,R,SK,2022_Jan_21_1847,2020.2.10,distractmap1,59.950816359605646,"['Left Arm', 'Left Face', 'Abdomen', 'Right Arm']",
9,"[0.2, -0.2]",1,,,,,0,26,26,26,,,,,,,,,,,,,,,,,,,,,,,,None,None,"[0, 0, 0]",1674.0500818000291,1676.0500859000022,1674.0500818000291,1675.0500829000375,1675.0334238000214,1676.0334337000386,"[0, 0, 0]",1,1674.0500818000291,1676.0500859000022,,,,,,,,,,,,,,,1002,M,1,5,R,SK,2022_Jan_21_1847,2020.2.10,distractmap1,59.950816359605646,"['Left Arm', 'Left Face', 'Abdomen', 'Right Arm']",
6,"[0.2, 0]",0,,,,,0,27,27,27,,,,,,,,,,,,,,,,,,,,,,,,None,None,"[0, 0, 0]",1676.0667724999948,1678.0667797999922,1676.0667724999948,1677.0667834000196,1677.050113000034,1678.0501090000034,"[0, 0, 0]",1,1676.0667724999948,1678.0667797999922,,,,,,,,,,,,,,,1002,M,1,5,R,SK,2022_Jan_21_1847,2020.2.10,distractmap1,59.950816359605646,"['Left Arm', 'Left Face', 'Abdomen', 'Right Arm']",
2,"[0, 0.2]",0,,,,,0,28,28,28,,,,,,,,,,,,,,,,,,,,,,,,None,None,"[0, 0, 0]",1678.0834510000423,1680.0834612000035,1678.0834510000423,1679.0834539000061,1679.0667918000254,1680.0668084000354,"[0, 0, 0]",1,1678.0834510000423,1680.0834612000035,,,,,,,,,,,,,,,1002,M,1,5,R,SK,2022_Jan_21_1847,2020.2.10,distractmap1,59.950816359605646,"['Left Arm', 'Left Face', 'Abdomen', 'Right Arm']",
5,"[0, 0]",0,,,,,0,29,29,29,,,,,,,,,,,,,,,,,,,,,,,,None,None,"[0, 0, 0]",1680.100125099998,1682.1001499000122,1680.100125099998,1681.1001444000285,1681.0834692000062,1682.0834834999987,"[0, 0, 0]",1,1680.100125099998,1682.1001499000122,,,,,,,,,,,,,,,1002,M,1,5,R,SK,2022_Jan_21_1847,2020.2.10,distractmap1,59.950816359605646,"['Left Arm', 'Left Face', 'Abdomen', 'Right Arm']",
,,,,,,,,,,,,,,,,,,,,,,,,,,,1682.1168143000104,None,space,1682.1168143000104,None,,,,,,,,,,,,,,,,,,,,,,,,,,,,,,1002,M,1,5,R,SK,2022_Jan_21_1847,2020.2.10,distractmap1,59.950816359605646,"['Left Arm', 'Left Face', 'Abdomen', 'Right Arm']",
5,"[0, 0]",None,0,0,0,0,,,,,1838.0851773000322,None,1842.7181761999964,None,1842.7181761999964,1843.7181832999922,1843.6848651000182,1844.6848749000346,1,None,None,"[0, 0, 0]",,,1842.7181761999964,None,,,,,,,,,,,,,,,,,,,,,,,1725.617197900021,1725.617197900021,None,space,88.67231669998728,1725.617197900021,None,"[0, 0, 0]",,,,,1002,M,1,5,R,SK,2022_Jan_21_1847,2020.2.10,distractmap1,59.950816359605646,"['Left Arm', 'Left Face', 'Abdomen', 'Right Arm']",
5,"[0, 0]",1,0,1,1,1,,,,,,,1844.718193800014,None,1844.718193800014,1845.7182043000357,1845.7015353000024,1846.7015428000013,1,None,None,"[0, 0, 0]",,,1844.718193800014,None,,,,,,,,,,,,,,,,,,,,,,,,,,,,,,"[0, 0, 0]",,,,,1002,M,1,5,R,SK,2022_Jan_21_1847,2020.2.10,distractmap1,59.950816359605646,"['Left Arm', 'Left Face', 'Abdomen', 'Right Arm']",
4,"[-0.2, 0]",0,0,2,2,2,,,,,,,1846.7182154000038,1846.7182154000038,1846.7182154000038,1847.7181823000428,1847.701558700006,1848.7015621000319,1,None,None,"[0, 0, 0]",,,1846.7182154000038,1846.7182154000038,,,,,,,,,,,,,,,,,,,,,,,,,,,,,,"[0, 0, 0]",,,,,1002,M,1,5,R,SK,2022_Jan_21_1847,2020.2.10,distractmap1,59.950816359605646,"['Left Arm', 'Left Face', 'Abdomen', 'Right Arm']",
2,"[0, 0.2]",0,0,3,3,3,,,,,,,1848.7182218999951,1848.7182218999951,1848.7182218999951,1849.7181392000057,1849.7015735000023,1850.7015768000274,1,None,None,"[0, 0, 0]",,,1848.7182218999951,1848.7182218999951,,,,,,,,,,,,,,,,,,,,,,,,,,,,,,"[0, 0, 0]",,,,,1002,M,1,5,R,SK,2022_Jan_21_1847,2020.2.10,distractmap1,59.950816359605646,"['Left Arm', 'Left Face', 'Abdomen', 'Right Arm']",
6,"[0.2, 0]",0,0,4,4,4,,,,,,,1850.767970099987,1850.767970099987,1850.767970099987,1851.7682550000027,1851.7515899999999,None,1,None,None,"[0, 0, 0]",,,1850.767970099987,1850.767970099987,,,,,,,,,,,,,,,,,,,,,,,,,,,,,,"[0, 0, 0]",,,,,1002,M,1,5,R,SK,2022_Jan_21_1847,2020.2.10,distractmap1,59.950816359605646,"['Left Arm', 'Left Face', 'Abdomen', 'Right Arm']",
8,"[0, -0.2]",0,0,5,5,5,,,,,,,1852.7349317999906,None,1852.7349317999906,1853.7349353000172,1853.7182777000125,1854.7182780000148,1,None,None,"[0, 0, 0]",,,1852.7349317999906,None,,,,,,,,,,,,,,,,,,,,,,,,,,,,,,"[0, 0, 0]",,,,,1002,M,1,5,R,SK,2022_Jan_21_1847,2020.2.10,distractmap1,59.950816359605646,"['Left Arm', 'Left Face', 'Abdomen', 'Right Arm']",
1,"[-0.2, 0.2]",0,0,6,6,6,,,,,,,1854.734913000022,1854.734913000022,1854.734913000022,1855.7349678000319,1855.7182963000378,1856.7182997000054,1,None,None,"[0, 0, 0]",,,1854.734913000022,1854.734913000022,,,,,,,,,,,,,,,,,,,,,,,,,,,,,,"[0, 0, 0]",,,,,1002,M,1,5,R,SK,2022_Jan_21_1847,2020.2.10,distractmap1,59.950816359605646,"['Left Arm', 'Left Face', 'Abdomen', 'Right Arm']",
4,"[-0.2, 0]",0,0,7,7,7,,,,,,,1856.7348885000101,1856.7348885000101,1856.7348885000101,1857.7349940999993,1857.718325600028,1858.7183135999949,1,None,None,"[0, 0, 0]",,,1856.7348885000101,1856.7348885000101,,,,,,,,,,,,,,,,,,,,,,,,,,,,,,"[0, 0, 0]",,,,,1002,M,1,5,R,SK,2022_Jan_21_1847,2020.2.10,distractmap1,59.950816359605646,"['Left Arm', 'Left Face', 'Abdomen', 'Right Arm']",
8,"[0, -0.2]",0,0,8,8,8,,,,,,,1858.734993799997,1858.734993799997,1858.734993799997,1859.7349947000039,1859.7183179000276,1860.7183258000296,1,None,None,"[0, 0, 0]",,,1858.734993799997,1858.734993799997,,,,,,,,,,,,,,,,,,,,,,,,,,,,,,"[0, 0, 0]",,,,,1002,M,1,5,R,SK,2022_Jan_21_1847,2020.2.10,distractmap1,59.950816359605646,"['Left Arm', 'Left Face', 'Abdomen', 'Right Arm']",
8,"[0, -0.2]",1,0,9,9,9,,,,,,,1860.7350202000234,1860.7350202000234,1860.7350202000234,1861.7350163999945,1861.7183388000121,1862.7183810000424,1,None,None,"[0, 0, 0]",,,1860.7350202000234,1860.7350202000234,,,,,,,,,,,,,,,,,,,,,,,,,,,,,,"[0, 0, 0]",,,,,1002,M,1,5,R,SK,2022_Jan_21_1847,2020.2.10,distractmap1,59.950816359605646,"['Left Arm', 'Left Face', 'Abdomen', 'Right Arm']",
,,,,,,,,,,,1862.7350293000345,None,,,,,,,,,,,,,,,,,,,,,,,,,,,,,,,,,,,,,,,,,,,,,15.864197530864196,1816.2492036799085,,,1002,M,1,5,R,SK,2022_Jan_21_1847,2020.2.10,distractmap1,59.950816359605646,"['Left Arm', 'Left Face', 'Abdomen', 'Right Arm']",
3,"[0.2, 0.2]",None,,,,,0,0,0,0,1875.9686158000259,None,,,,,,,,,,,,,,,,,,,,,,None,None,"[0, 0, 0]",1882.8018572000437,None,1882.8018572000437,1883.8018627000274,1883.78512830002,1884.7851958000101,"[0, 0, 0]",1,1882.8018572000437,None,,,,,,,,,,,,,0.01483452005777508,5.012287220044527,1002,M,1,5,R,SK,2022_Jan_21_1847,2020.2.10,distractmap1,59.950816359605646,"['Left Arm', 'Left Face', 'Abdomen', 'Right Arm']",
3,"[0.2, 0.2]",None,,,,,0,1,1,1,,,,,,,,,,,,,,,,,,,,,,,,None,None,"[0, 0, 0]",1884.8018738999963,1886.8018824000028,1884.8018738999963,1885.8018831000081,1885.7852052000235,1886.7852072000387,"[0, 0, 0]",1,1884.8018738999963,1886.8018824000028,,,,,,,,,,,,,,,1002,M,1,5,R,SK,2022_Jan_21_1847,2020.2.10,distractmap1,59.950816359605646,"['Left Arm', 'Left Face', 'Abdomen', 'Right Arm']",
5,"[0, 0]",0,,,,,0,2,2,2,,,,,,,,,,,,,,,,,,,,,,,,None,None,"[0, 0, 0]",1886.8184514000313,1888.8185599000426,1886.8184514000313,1887.818560499989,1887.8019028000417,1888.8018939000322,"[0, 0, 0]",1,1886.8184514000313,1888.8185599000426,,,,,,,,,,,,,,,1002,M,1,5,R,SK,2022_Jan_21_1847,2020.2.10,distractmap1,59.950816359605646,"['Left Arm', 'Left Face', 'Abdomen', 'Right Arm']",
1,"[-0.2, 0.2]",0,,,,,0,3,3,3,,,,,,,,,,,,,,,,,,,,,,,,None,None,"[0, 0, 0]",1888.835243300011,1890.8352444000193,1888.835243300011,1889.8352447000216,1889.818576199992,1890.8185784000088,"[0, 0, 0]",1,1888.835243300011,1890.8352444000193,,,,,,,,,,,,,,,1002,M,1,5,R,SK,2022_Jan_21_1847,2020.2.10,distractmap1,59.950816359605646,"['Left Arm', 'Left Face', 'Abdomen', 'Right Arm']",
5,"[0, 0]",1,,,,,0,4,4,4,,,,,,,,,,,,,,,,,,,,,,,,None,None,"[0, 0, 0]",1890.9187435000204,None,1890.9187435000204,1891.9186078000348,1891.9019361000392,None,"[0, 0, 0]",1,1890.9187435000204,None,,,,,,,,,,,,,,,1002,M,1,5,R,SK,2022_Jan_21_1847,2020.2.10,distractmap1,59.950816359605646,"['Left Arm', 'Left Face', 'Abdomen', 'Right Arm']",
8,"[0, -0.2]",0,,,,,0,5,5,5,,,,,,,,,,,,,,,,,,,,,,,,None,None,"[0, 0, 0]",1892.8686311999918,1894.8686235999921,1892.8686311999918,1893.8686024000053,1893.8520072000101,1894.8519767000107,"[0, 0, 0]",1,1892.8686311999918,1894.8686235999921,,,,,,,,,,,,,,,1002,M,1,5,R,SK,2022_Jan_21_1847,2020.2.10,distractmap1,59.950816359605646,"['Left Arm', 'Left Face', 'Abdomen', 'Right Arm']",
5,"[0, 0]",1,,,,,0,6,6,6,,,,,,,,,,,,,,,,,,,,,,,,None,None,"[0, 0, 0]",1894.8852848000242,1896.8853163000313,1894.8852848000242,1895.8852969,1895.868631099991,1896.8686309999903,"[0, 0, 0]",1,1894.8852848000242,1896.8853163000313,,,,,,,,,,,,,,,1002,M,1,5,R,SK,2022_Jan_21_1847,2020.2.10,distractmap1,59.950816359605646,"['Left Arm', 'Left Face', 'Abdomen', 'Right Arm']",
7,"[-0.2, -0.2]",0,,,,,0,7,7,7,,,,,,,,,,,,,,,,,,,,,,,,None,None,"[0, 0, 0]",1896.9019800000242,1898.9019989999942,1896.9019800000242,1897.9019835999934,1897.8853142000153,1898.885310499987,"[0, 0, 0]",1,1896.9019800000242,1898.9019989999942,,,,,,,,,,,,,,,1002,M,1,5,R,SK,2022_Jan_21_1847,2020.2.10,distractmap1,59.950816359605646,"['Left Arm', 'Left Face', 'Abdomen', 'Right Arm']",
5,"[0, 0]",1,,,,,0,8,8,8,,,,,,,,,,,,,,,,,,,,,,,,None,None,"[0, 0, 0]",1898.9186536000343,1900.9186805000063,1898.9186536000343,1899.9186563999974,1899.9020042000338,1900.9019974000403,"[0, 0, 0]",0,1898.9186536000343,1900.9186805000063,,,,,,,,,,,,,,,1002,M,1,5,R,SK,2022_Jan_21_1847,2020.2.10,distractmap1,59.950816359605646,"['Left Arm', 'Left Face', 'Abdomen', 'Right Arm']",
7,"[-0.2, -0.2]",1,,,,,0,9,9,9,,,,,,,,,,,,,,,,,,,,,,,,None,None,"[0, 0, 0]",1900.935338100011,1902.9353486000327,1900.935338100011,1901.9353494000388,1901.9186778999865,1902.9186888000113,"[0, 0, 0]",1,1900.935338100011,1902.9353486000327,,,,,,,,,,,,,,,1002,M,1,5,R,SK,2022_Jan_21_1847,2020.2.10,distractmap1,59.950816359605646,"['Left Arm', 'Left Face', 'Abdomen', 'Right Arm']",
,,,,,,,,,,,1902.9520110000158,None,,,,,,,,,,,,,,,,,,,,,,,,,,,,,,,,,,,,,,,,,,,,,15.185185185185182,1856.4660422799643,,,1002,M,1,5,R,SK,2022_Jan_21_1847,2020.2.10,distractmap1,59.950816359605646,"['Left Arm', 'Left Face', 'Abdomen', 'Right Arm']",
6,"[0.2, 0]",None,,,,,0,0,0,0,1916.185717299988,None,,,,,,,,,,,,,,,,,,,,,,None,None,"[0, 0, 0]",1923.002189700026,None,1923.002189700026,1924.002185099991,1923.985533100029,1924.9855349000427,"[0, 0, 0]",1,1923.002189700026,None,,,,,,,,,,,,,0.015013320022262633,5.012744220031891,1002,M,1,5,R,SK,2022_Jan_21_1847,2020.2.10,distractmap1,59.950816359605646,"['Left Arm', 'Left Face', 'Abdomen', 'Right Arm']",
1,"[-0.2, 0.2]",None,,,,,0,1,1,1,,,,,,,,,,,,,,,,,,,,,,,,None,None,"[0, 0, 0]",1925.0022027000086,1927.002223699994,1925.0022027000086,1926.0022119000205,1925.985556300031,1926.985576200008,"[0, 0, 0]",1,1925.0022027000086,1927.002223699994,,,,,,,,,,,,,,,1002,M,1,5,R,SK,2022_Jan_21_1847,2020.2.10,distractmap1,59.950816359605646,"['Left Arm', 'Left Face', 'Abdomen', 'Right Arm']",
6,"[0.2, 0]",1,,,,,0,2,2,2,,,,,,,,,,,,,,,,,,,,,,,,None,None,"[0, 0, 0]",1927.0188888999983,1929.0189039999968,1927.0188888999983,1928.0188958999934,1928.0021430000197,1929.0022450000397,"[0, 0, 0]",1,1927.0188888999983,1929.0189039999968,,,,,,,,,,,,,,,1002,M,1,5,R,SK,2022_Jan_21_1847,2020.2.10,distractmap1,59.950816359605646,"['Left Arm', 'Left Face', 'Abdomen', 'Right Arm']",
4,"[-0.2, 0]",0,,,,,0,3,3,3,,,,,,,,,,,,,,,,,,,,,,,,None,None,"[0, 0, 0]",1929.0355845000013,1931.0356101000216,1929.0355845000013,1930.035582200042,1930.018883200013,1931.0189215000137,"[0, 0, 0]",1,1929.0355845000013,1931.0356101000216,,,,,,,,,,,,,,,1002,M,1,5,R,SK,2022_Jan_21_1847,2020.2.10,distractmap1,59.950816359605646,"['Left Arm', 'Left Face', 'Abdomen', 'Right Arm']",
1,"[-0.2, 0.2]",0,,,,,0,4,4,4,,,,,,,,,,,,,,,,,,,,,,,,None,None,"[0, 0, 0]",1931.085950000037,None,1931.085950000037,1932.0856017000042,1932.0689320000238,None,"[0, 0, 0]",0,1931.085950000037,None,,,,,,,,,,,,,,,1002,M,1,5,R,SK,2022_Jan_21_1847,2020.2.10,distractmap1,59.950816359605646,"['Left Arm', 'Left Face', 'Abdomen', 'Right Arm']",
8,"[0, -0.2]",0,,,,,0,5,5,5,,,,,,,,,,,,,,,,,,,,,,,,None,None,"[0, 0, 0]",1933.0689712000312,1935.0689693000168,1933.0689712000312,1934.068969600019,1934.0522779999883,1935.0522874000017,"[0, 0, 0]",1,1933.0689712000312,1935.0689693000168,,,,,,,,,,,,,,,1002,M,1,5,R,SK,2022_Jan_21_1847,2020.2.10,distractmap1,59.950816359605646,"['Left Arm', 'Left Face', 'Abdomen', 'Right Arm']",
1,"[-0.2, 0.2]",1,,,,,0,6,6,6,,,,,,,,,,,,,,,,,,,,,,,,None,None,"[0, 0, 0]",1935.0856313999975,1937.0856421000208,1935.0856313999975,1936.0856305999914,1936.0689729000442,1937.0689865000313,"[0, 0, 0]",1,1935.0856313999975,1937.0856421000208,,,,,,,,,,,,,,,1002,M,1,5,R,SK,2022_Jan_21_1847,2020.2.10,distractmap1,59.950816359605646,"['Left Arm', 'Left Face', 'Abdomen', 'Right Arm']",
8,"[0, -0.2]",1,,,,,0,7,7,7,,,,,,,,,,,,,,,,,,,,,,,,None,None,"[0, 0, 0]",1937.102317699988,1939.1023238000344,1937.102317699988,1938.1023166000377,1938.0856522000395,1939.0856595000369,"[0, 0, 0]",0,1937.102317699988,1939.1023238000344,,,,,,,,,,,,,,,1002,M,1,5,R,SK,2022_Jan_21_1847,2020.2.10,distractmap1,59.950816359605646,"['Left Arm', 'Left Face', 'Abdomen', 'Right Arm']",
1,"[-0.2, 0.2]",1,,,,,0,8,8,8,,,,,,,,,,,,,,,,,,,,,,,,None,None,"[0, 0, 0]",1939.1190054999897,1941.1190226000035,1939.1190054999897,1940.1190126999863,1940.1023415999953,1941.1023449000204,"[0, 0, 0]",1,1939.1190054999897,1941.1190226000035,,,,,,,,,,,,,,,1002,M,1,5,R,SK,2022_Jan_21_1847,2020.2.10,distractmap1,59.950816359605646,"['Left Arm', 'Left Face', 'Abdomen', 'Right Arm']",
6,"[0.2, 0]",0,,,,,0,9,9,9,,,,,,,,,,,,,,,,,,,,,,,,None,None,"[0, 0, 0]",1941.1356874000048,1943.1356923000421,1941.1356874000048,1942.1356885000132,1942.1190243000165,1943.1190459000063,"[0, 0, 0]",1,1941.1356874000048,1943.1356923000421,,,,,,,,,,,,,,,1002,M,1,5,R,SK,2022_Jan_21_1847,2020.2.10,distractmap1,59.950816359605646,"['Left Arm', 'Left Face', 'Abdomen', 'Right Arm']",
,,,,,,,,,,,1943.1523765000165,None,,,,,,,,,,,,,,,,,,,,,,,,,,,,,,,,,,,,,,,,,,,,,13.950617283950617,1898.6661034799763,,,1002,M,1,5,R,SK,2022_Jan_21_1847,2020.2.10,distractmap1,59.950816359605646,"['Left Arm', 'Left Face', 'Abdomen', 'Right Arm']",
7,"[-0.2, -0.2]",None,,,,,0,0,0,0,1958.3693672000081,None,,,,,,,,,,,,,,,,,,,,,,None,None,"[0, 0, 0]",1963.2025275999913,None,1963.2025275999913,1964.2025441000005,1964.1858694000402,1965.1858767000376,"[0, 0, 0]",1,1963.2025275999913,None,,,,,,,,,,,,,0.01529512001434341,5.013287320034578,1002,M,1,5,R,SK,2022_Jan_21_1847,2020.2.10,distractmap1,59.950816359605646,"['Left Arm', 'Left Face', 'Abdomen', 'Right Arm']",
7,"[-0.2, -0.2]",None,,,,,0,1,1,1,,,,,,,,,,,,,,,,,,,,,,,,None,None,"[0, 0, 0]",1965.2025517000002,1967.2025576999877,1965.2025517000002,1966.202561300015,1966.1858992000343,1967.1858935999917,"[0, 0, 0]",1,1965.2025517000002,1967.2025576999877,,,,,,,,,,,,,,,1002,M,1,5,R,SK,2022_Jan_21_1847,2020.2.10,distractmap1,59.950816359605646,"['Left Arm', 'Left Face', 'Abdomen', 'Right Arm']",
7,"[-0.2, -0.2]",1,,,,,0,2,2,2,,,,,,,,,,,,,,,,,,,,,,,,None,None,"[0, 0, 0]",1967.2192348000244,1969.219273100025,1967.2192348000244,1968.2192560000112,1968.2025863000308,1969.2025886999909,"[0, 0, 0]",1,1967.2192348000244,1969.219273100025,,,,,,,,,,,,,,,1002,M,1,5,R,SK,2022_Jan_21_1847,2020.2.10,distractmap1,59.950816359605646,"['Left Arm', 'Left Face', 'Abdomen', 'Right Arm']",
5,"[0, 0]",0,,,,,0,3,3,3,,,,,,,,,,,,,,,,,,,,,,,,None,None,"[0, 0, 0]",1969.2359147000243,1971.2359330999898,1969.2359147000243,1970.235925999994,1970.2192764999927,1971.2192705000052,"[0, 0, 0]",1,1969.2359147000243,1971.2359330999898,,,,,,,,,,,,,,,1002,M,1,5,R,SK,2022_Jan_21_1847,2020.2.10,distractmap1,59.950816359605646,"['Left Arm', 'Left Face', 'Abdomen', 'Right Arm']",
1,"[-0.2, 0.2]",0,,,,,0,4,4,4,,,,,,,,,,,,,,,,,,,,,,,,None,None,"[0, 0, 0]",1971.2851156000397,None,1971.2851156000397,1972.285944000003,1972.285944000003,None,"[0, 0, 0]",1,1971.2851156000397,None,,,,,,,,,,,,,,,1002,M,1,5,R,SK,2022_Jan_21_1847,2020.2.10,distractmap1,59.950816359605646,"['Left Arm', 'Left Face', 'Abdomen', 'Right Arm']",
6,"[0.2, 0]",0,,,,,0,5,5,5,,,,,,,,,,,,,,,,,,,,,,,,None,None,"[0, 0, 0]",1973.269311400014,1975.2692946000025,1973.269311400014,1974.2693168999976,1974.2526197000407,1975.2526273000403,"[0, 0, 0]",1,1973.269311400014,1975.2692946000025,,,,,,,,,,,,,,,1002,M,1,5,R,SK,2022_Jan_21_1847,2020.2.10,distractmap1,59.950816359605646,"['Left Arm', 'Left Face', 'Abdomen', 'Right Arm']",
1,"[-0.2, 0.2]",1,,,,,0,6,6,6,,,,,,,,,,,,,,,,,,,,,,,,None,None,"[0, 0, 0]",1975.2859645000426,1977.2859941000352,1975.2859645000426,1976.2859800999868,1976.2693087999942,1977.2693128000246,"[0, 0, 0]",1,1975.2859645000426,1977.2859941000352,,,,,,,,,,,,,,,1002,M,1,5,R,SK,2022_Jan_21_1847,2020.2.10,distractmap1,59.950816359605646,"['Left Arm', 'Left Face', 'Abdomen', 'Right Arm']",
7,"[-0.2, -0.2]",0,,,,,0,7,7,7,,,,,,,,,,,,,,,,,,,,,,,,None,None,"[0, 0, 0]",1977.3026646000217,1979.3026662000339,1977.3026646000217,1978.302660299989,1978.2859920000192,1979.2860100000398,"[0, 0, 0]",1,1977.3026646000217,1979.3026662000339,,,,,,,,,,,,,,,1002,M,1,5,R,SK,2022_Jan_21_1847,2020.2.10,distractmap1,59.950816359605646,"['Left Arm', 'Left Face', 'Abdomen', 'Right Arm']",
6,"[0.2, 0]",0,,,,,0,8,8,8,,,,,,,,,,,,,,,,,,,,,,,,None,None,"[0, 0, 0]",1979.3193414999987,1981.3193603000254,1979.3193414999987,1980.3193258999963,1980.3029620000161,1981.3027124000364,"[0, 0, 0]",1,1979.3193414999987,1981.3193603000254,,,,,,,,,,,,,,,1002,M,1,5,R,SK,2022_Jan_21_1847,2020.2.10,distractmap1,59.950816359605646,"['Left Arm', 'Left Face', 'Abdomen', 'Right Arm']",
7,"[-0.2, -0.2]",1,,,,,0,9,9,9,,,,,,,,,,,,,,,,,,,,,,,,None,None,"[0, 0, 0]",1981.3360327000264,1983.3359738000436,1981.3360327000264,1982.3360411000322,1982.3193681000266,1983.3192726999987,"[0, 0, 0]",1,1981.3360327000264,1983.3359738000436,,,,,,,,,,,,,,,1002,M,1,5,R,SK,2022_Jan_21_1847,2020.2.10,distractmap1,59.950816359605646,"['Left Arm', 'Left Face', 'Abdomen', 'Right Arm']",
,,,,,,,,,,,1983.3526951000094,None,,,,,,,,,,,,,,,,,,,,,,,,,,,,,,,,,,,,,,,,,,,,,16.04938271604938,1938.866480179946,,,1002,M,1,5,R,SK,2022_Jan_21_1847,2020.2.10,distractmap1,59.950816359605646,"['Left Arm', 'Left Face', 'Abdomen', 'Right Arm']",
3,"[0.2, 0.2]",None,0,0,0,0,,,,,1999.3530223999987,None,2003.4195351999952,None,2003.4195351999952,2004.4195579999941,2004.3862325000227,2005.3862280999892,1,None,None,"[0, 0, 0]",,,2003.4195351999952,None,,,,,,,,,,,,,,,,,,,,,,,,,,,,,,"[0, 0, 0]",,,0.0152716200100258,5.013261420011986,1002,M,1,5,R,SK,2022_Jan_21_1847,2020.2.10,distractmap1,59.950816359605646,"['Left Arm', 'Left Face', 'Abdomen', 'Right Arm']",
4,"[-0.2, 0]",0,0,1,1,1,,,,,,,2005.4195620000246,None,2005.4195620000246,2006.4195595000056,2006.4029278000235,2007.4028888000175,1,None,None,"[0, 0, 0]",,,2005.4195620000246,None,,,,,,,,,,,,,,,,,,,,,,,,,,,,,,"[0, 0, 0]",,,,,1002,M,1,5,R,SK,2022_Jan_21_1847,2020.2.10,distractmap1,59.950816359605646,"['Left Arm', 'Left Face', 'Abdomen', 'Right Arm']",
1,"[-0.2, 0.2]",0,0,2,2,2,,,,,,,2007.4195836000144,2007.4195836000144,2007.4195836000144,2008.4195809999947,2008.4029137000325,2009.4029314999934,1,None,None,"[0, 0, 0]",,,2007.4195836000144,2007.4195836000144,,,,,,,,,,,,,,,,,,,,,,,,,,,,,,"[0, 0, 0]",,,,,1002,M,1,5,R,SK,2022_Jan_21_1847,2020.2.10,distractmap1,59.950816359605646,"['Left Arm', 'Left Face', 'Abdomen', 'Right Arm']",
2,"[0, 0.2]",0,0,3,3,3,,,,,,,2009.4195883999928,2009.4195883999928,2009.4195883999928,2010.4195984000107,2010.402932500001,2011.4029431000235,1,None,None,"[0, 0, 0]",,,2009.4195883999928,2009.4195883999928,,,,,,,,,,,,,,,,,,,,,,,,,,,,,,"[0, 0, 0]",,,,,1002,M,1,5,R,SK,2022_Jan_21_1847,2020.2.10,distractmap1,59.950816359605646,"['Left Arm', 'Left Face', 'Abdomen', 'Right Arm']",
2,"[0, 0.2]",1,0,4,4,4,,,,,,,2011.4696089000208,2011.4696089000208,2011.4696089000208,2012.4696210999973,2012.4529466000386,None,1,None,None,"[0, 0, 0]",,,2011.4696089000208,2011.4696089000208,,,,,,,,,,,,,,,,,,,,,,,,,,,,,,"[0, 0, 0]",,,,,1002,M,1,5,R,SK,2022_Jan_21_1847,2020.2.10,distractmap1,59.950816359605646,"['Left Arm', 'Left Face', 'Abdomen', 'Right Arm']",
5,"[0, 0]",0,0,5,5,5,,,,,,,2013.4357767000329,None,2013.4357767000329,2014.4363178000203,2014.4196332000429,2015.4196378000197,1,None,None,"[0, 0, 0]",,,2013.4357767000329,None,,,,,,,,,,,,,,,,,,,,,,,,,,,,,,"[0, 0, 0]",,,,,1002,M,1,5,R,SK,2022_Jan_21_1847,2020.2.10,distractmap1,59.950816359605646,"['Left Arm', 'Left Face', 'Abdomen', 'Right Arm']",
1,"[-0.2, 0.2]",0,0,6,6,6,,,,,,,2015.4363082000054,2015.4363082000054,2015.4363082000054,2016.4363193000318,2016.4196508000023,2017.4196606000187,1,None,None,"[0, 0, 0]",,,2015.4363082000054,2015.4363082000054,,,,,,,,,,,,,,,,,,,,,,,,,,,,,,"[0, 0, 0]",,,,,1002,M,1,5,R,SK,2022_Jan_21_1847,2020.2.10,distractmap1,59.950816359605646,"['Left Arm', 'Left Face', 'Abdomen', 'Right Arm']",
1,"[-0.2, 0.2]",1,0,7,7,7,,,,,,,2017.4363376999972,2017.4363376999972,2017.4363376999972,2018.43632540002,2018.4196765000233,2019.4196729999967,1,None,None,"[0, 0, 0]",,,2017.4363376999972,2017.4363376999972,,,,,,,,,,,,,,,,,,,,,,,,,,,,,,"[0, 0, 0]",,,,,1002,M,1,5,R,SK,2022_Jan_21_1847,2020.2.10,distractmap1,59.950816359605646,"['Left Arm', 'Left Face', 'Abdomen', 'Right Arm']",
8,"[0, -0.2]",0,0,8,8,8,,,,,,,2019.4362530999933,2019.4362530999933,2019.4362530999933,2020.436364400026,2020.419601600035,2021.4196901000105,1,None,None,"[0, 0, 0]",,,2019.4362530999933,2019.4362530999933,,,,,,,,,,,,,,,,,,,,,,,,,,,,,,"[0, 0, 0]",,,,,1002,M,1,5,R,SK,2022_Jan_21_1847,2020.2.10,distractmap1,59.950816359605646,"['Left Arm', 'Left Face', 'Abdomen', 'Right Arm']",
7,"[-0.2, -0.2]",0,0,9,9,9,,,,,,,2021.436360199994,2021.436360199994,2021.436360199994,2022.4363682999974,2022.4197000000277,2023.419709400041,1,None,None,"[0, 0, 0]",,,2021.436360199994,2021.436360199994,,,,,,,,,,,,,,,,,,,,,,,,,,,,,,"[0, 0, 0]",,,,,1002,M,1,5,R,SK,2022_Jan_21_1847,2020.2.10,distractmap1,59.950816359605646,"['Left Arm', 'Left Face', 'Abdomen', 'Right Arm']",
,,,,,,,,,,,2023.4363744000439,None,,,,,,,,,,,,,,,,,,,,,,,,,,,,,,,,,,,,,,,,,,,,,17.469135802469136,1978.9510498800082,,,1002,M,1,5,R,SK,2022_Jan_21_1847,2020.2.10,distractmap1,59.950816359605646,"['Left Arm', 'Left Face', 'Abdomen', 'Right Arm']",
6,"[0.2, 0]",None,0,0,0,0,,,,,2038.6700574000133,None,2043.4865636000177,None,2043.4865636000177,2044.486580100027,2044.469899400021,2045.469899000018,1,None,None,"[0, 0, 0]",,,2043.4865636000177,None,,,,,,,,,,,,,,,,,,,,,,,,,,,,,,"[0, 0, 0]",,,0.014373919984791428,5.011445219977759,1002,M,1,5,R,SK,2022_Jan_21_1847,2020.2.10,distractmap1,59.950816359605646,"['Left Arm', 'Left Face', 'Abdomen', 'Right Arm']",
6,"[0.2, 0]",1,0,1,1,1,,,,,,,2045.4865578000317,None,2045.4865578000317,2046.4865654000314,2046.4699021000415,2047.4699083000305,1,None,None,"[0, 0, 0]",,,2045.4865578000317,None,,,,,,,,,,,,,,,,,,,,,,,,,,,,,,"[0, 0, 0]",,,,,1002,M,1,5,R,SK,2022_Jan_21_1847,2020.2.10,distractmap1,59.950816359605646,"['Left Arm', 'Left Face', 'Abdomen', 'Right Arm']",
1,"[-0.2, 0.2]",0,0,2,2,2,,,,,,,2047.4865893000388,2047.4865893000388,2047.4865893000388,2048.4865905999904,2048.4699161000317,2049.469929200015,1,None,None,"[0, 0, 0]",,,2047.4865893000388,2047.4865893000388,,,,,,,,,,,,,,,,,,,,,,,,,,,,,,"[0, 0, 0]",,,,,1002,M,1,5,R,SK,2022_Jan_21_1847,2020.2.10,distractmap1,59.950816359605646,"['Left Arm', 'Left Face', 'Abdomen', 'Right Arm']",
8,"[0, -0.2]",0,0,3,3,3,,,,,,,2049.4865947000217,2049.4865947000217,2049.4865947000217,2050.486606999999,2050.4699578,2051.469949099992,1,None,None,"[0, 0, 0]",,,2049.4865947000217,2049.4865947000217,,,,,,,,,,,,,,,,,,,,,,,,,,,,,,"[0, 0, 0]",,,,,1002,M,1,5,R,SK,2022_Jan_21_1847,2020.2.10,distractmap1,59.950816359605646,"['Left Arm', 'Left Face', 'Abdomen', 'Right Arm']",
1,"[-0.2, 0.2]",0,0,4,4,4,,,,,,,2051.520303600002,2051.520303600002,2051.520303600002,2052.5199524000054,2052.5032948000007,None,1,None,None,"[0, 0, 0]",,,2051.520303600002,2051.520303600002,,,,,,,,,,,,,,,,,,,,,,,,,,,,,,"[0, 0, 0]",,,,,1002,M,1,5,R,SK,2022_Jan_21_1847,2020.2.10,distractmap1,59.950816359605646,"['Left Arm', 'Left Face', 'Abdomen', 'Right Arm']",
4,"[-0.2, 0]",0,0,5,5,5,,,,,,,2053.503312100016,None,2053.503312100016,2054.503313000023,2054.4866424000356,2055.4866478000185,1,None,None,"[0, 0, 0]",,,2053.503312100016,None,,,,,,,,,,,,,,,,,,,,,,,,,,,,,,"[0, 0, 0]",,,,,1002,M,1,5,R,SK,2022_Jan_21_1847,2020.2.10,distractmap1,59.950816359605646,"['Left Arm', 'Left Face', 'Abdomen', 'Right Arm']",
5,"[0, 0]",0,0,6,6,6,,,,,,,2055.5033159999875,2055.5033159999875,2055.5033159999875,2056.5033329,2056.4866589999874,2057.4866611000034,1,None,None,"[0, 0, 0]",,,2055.5033159999875,2055.5033159999875,,,,,,,,,,,,,,,,,,,,,,,,,,,,,,"[0, 0, 0]",,,,,1002,M,1,5,R,SK,2022_Jan_21_1847,2020.2.10,distractmap1,59.950816359605646,"['Left Arm', 'Left Face', 'Abdomen', 'Right Arm']",
7,"[-0.2, -0.2]",0,0,7,7,7,,,,,,,2057.5033321999945,2057.5033321999945,2057.5033321999945,2058.503337800037,2058.4866786000202,2059.486685700016,1,None,None,"[0, 0, 0]",,,2057.5033321999945,2057.5033321999945,,,,,,,,,,,,,,,,,,,,,,,,,,,,,,"[0, 0, 0]",,,,,1002,M,1,5,R,SK,2022_Jan_21_1847,2020.2.10,distractmap1,59.950816359605646,"['Left Arm', 'Left Face', 'Abdomen', 'Right Arm']",
7,"[-0.2, -0.2]",1,0,8,8,8,,,,,,,2059.5033579000155,2059.5033579000155,2059.5033579000155,2060.5033591000247,2060.486740000022,2061.486694500025,1,None,None,"[0, 0, 0]",,,2059.5033579000155,2059.5033579000155,,,,,,,,,,,,,,,,,,,,,,,,,,,,,,"[0, 0, 0]",,,,,1002,M,1,5,R,SK,2022_Jan_21_1847,2020.2.10,distractmap1,59.950816359605646,"['Left Arm', 'Left Face', 'Abdomen', 'Right Arm']",
7,"[-0.2, -0.2]",1,0,9,9,9,,,,,,,2061.5033744000248,2061.5033744000248,2061.5033744000248,2062.5033710999996,2062.4867767000105,2063.4867140999995,1,None,None,"[0, 0, 0]",,,2061.5033744000248,2061.5033744000248,,,,,,,,,,,,,,,,,,,,,,,,,,,,,,"[0, 0, 0]",,,,,1002,M,1,5,R,SK,2022_Jan_21_1847,2020.2.10,distractmap1,59.950816359605646,"['Left Arm', 'Left Face', 'Abdomen', 'Right Arm']",
,,,,,,,,,,,2063.5033777999924,None,,,,,,,,,,,,,,,,,,,,,,,,,,,,,,,,,,,,,,,,,,,,,14.876543209876539,2021.0175237799995,,,1002,M,1,5,R,SK,2022_Jan_21_1847,2020.2.10,distractmap1,59.950816359605646,"['Left Arm', 'Left Face', 'Abdomen', 'Right Arm']",
4,"[-0.2, 0]",None,,,,,0,0,0,0,2080.737118799996,None,,,,,,,,,,,,,,,,,,,,,,None,None,"[0, 0, 0]",2083.5702314000227,None,2083.5702314000227,2084.5702365000034,2084.5535575000104,2085.5535682000336,"[0, 0, 0]",1,2083.5702314000227,None,,,,,,,,,,,,,0.014918419998139143,5.012538819981273,1002,M,1,5,R,SK,2022_Jan_21_1847,2020.2.10,distractmap1,59.950816359605646,"['Left Arm', 'Left Face', 'Abdomen', 'Right Arm']",
5,"[0, 0]",None,,,,,0,1,1,1,,,,,,,,,,,,,,,,,,,,,,,,None,None,"[0, 0, 0]",2085.5702461000183,2087.570275700011,2085.5702461000183,2086.570266399998,2086.5535819000215,2087.5535836000345,"[0, 0, 0]",1,2085.5702461000183,2087.570275700011,,,,,,,,,,,,,,,1002,M,1,5,R,SK,2022_Jan_21_1847,2020.2.10,distractmap1,59.950816359605646,"['Left Arm', 'Left Face', 'Abdomen', 'Right Arm']",
6,"[0.2, 0]",0,,,,,0,2,2,2,,,,,,,,,,,,,,,,,,,,,,,,None,None,"[0, 0, 0]",2087.586932300008,2089.5869479000103,2087.586932300008,2088.586937699991,2088.570278900035,2089.570288099989,"[0, 0, 0]",1,2087.586932300008,2089.5869479000103,,,,,,,,,,,,,,,1002,M,1,5,R,SK,2022_Jan_21_1847,2020.2.10,distractmap1,59.950816359605646,"['Left Arm', 'Left Face', 'Abdomen', 'Right Arm']",
1,"[-0.2, 0.2]",0,,,,,0,3,3,3,,,,,,,,,,,,,,,,,,,,,,,,None,None,"[0, 0, 0]",2089.6035996000282,2091.6036315000383,2089.6035996000282,2090.6036160000367,2090.5869574000244,2091.5869469000027,"[0, 0, 0]",1,2089.6035996000282,2091.6036315000383,,,,,,,,,,,,,,,1002,M,1,5,R,SK,2022_Jan_21_1847,2020.2.10,distractmap1,59.950816359605646,"['Left Arm', 'Left Face', 'Abdomen', 'Right Arm']",
6,"[0.2, 0]",1,,,,,0,4,4,4,,,,,,,,,,,,,,,,,,,,,,,,None,None,"[0, 0, 0]",2091.6538969000103,None,2091.6538969000103,2092.6536355999997,2092.63697230001,None,"[0, 0, 0]",0,2091.6538969000103,None,,,,,,,,,,,,,,,1002,M,1,5,R,SK,2022_Jan_21_1847,2020.2.10,distractmap1,59.950816359605646,"['Left Arm', 'Left Face', 'Abdomen', 'Right Arm']",
1,"[-0.2, 0.2]",1,,,,,0,5,5,5,,,,,,,,,,,,,,,,,,,,,,,,None,None,"[0, 0, 0]",2093.6369808000163,2095.6369877000106,2093.6369808000163,2094.6369791000034,2094.6203258000314,2095.6203183000325,"[0, 0, 0]",1,2093.6369808000163,2095.6369877000106,,,,,,,,,,,,,,,1002,M,1,5,R,SK,2022_Jan_21_1847,2020.2.10,distractmap1,59.950816359605646,"['Left Arm', 'Left Face', 'Abdomen', 'Right Arm']",
2,"[0, 0.2]",0,,,,,0,6,6,6,,,,,,,,,,,,,,,,,,,,,,,,None,None,"[0, 0, 0]",2095.6536575999926,2097.653667900013,2095.6536575999926,2096.653662100027,2096.6370004999917,2097.6370098000043,"[0, 0, 0]",1,2095.6536575999926,2097.653667900013,,,,,,,,,,,,,,,1002,M,1,5,R,SK,2022_Jan_21_1847,2020.2.10,distractmap1,59.950816359605646,"['Left Arm', 'Left Face', 'Abdomen', 'Right Arm']",
3,"[0.2, 0.2]",0,,,,,0,7,7,7,,,,,,,,,,,,,,,,,,,,,,,,None,None,"[0, 0, 0]",2097.670355600014,2099.670361299999,2097.670355600014,2098.6703505000332,2098.6536862000357,2099.653689300001,"[0, 0, 0]",1,2097.670355600014,2099.670361299999,,,,,,,,,,,,,,,1002,M,1,5,R,SK,2022_Jan_21_1847,2020.2.10,distractmap1,59.950816359605646,"['Left Arm', 'Left Face', 'Abdomen', 'Right Arm']",
6,"[0.2, 0]",0,,,,,0,8,8,8,,,,,,,,,,,,,,,,,,,,,,,,None,None,"[0, 0, 0]",2099.6870310000377,2101.687043600017,2099.6870310000377,2100.687026200001,2100.6703669000417,2101.67038830003,"[0, 0, 0]",1,2099.6870310000377,2101.687043600017,,,,,,,,,,,,,,,1002,M,1,5,R,SK,2022_Jan_21_1847,2020.2.10,distractmap1,59.950816359605646,"['Left Arm', 'Left Face', 'Abdomen', 'Right Arm']",
3,"[0.2, 0.2]",1,,,,,0,9,9,9,,,,,,,,,,,,,,,,,,,,,,,,None,None,"[0, 0, 0]",2101.7037018000265,2103.703715700016,2101.7037018000265,2102.7037132999976,2102.687050700013,2103.687057400006,"[0, 0, 0]",1,2101.7037018000265,2103.703715700016,,,,,,,,,,,,,,,1002,M,1,5,R,SK,2022_Jan_21_1847,2020.2.10,distractmap1,59.950816359605646,"['Left Arm', 'Left Face', 'Abdomen', 'Right Arm']",
,,,,,,,,,,,2103.7204084999976,None,,,,,,,,,,,,,,,,,,,,,,,,,,,,,,,,,,,,,,,,,,,,,14.691358024691356,2061.2344699799432,,,1002,M,1,5,R,SK,2022_Jan_21_1847,2020.2.10,distractmap1,59.950816359605646,"['Left Arm', 'Left Face', 'Abdomen', 'Right Arm']",
8,"[0, -0.2]",None,0,0,0,0,,,,,2120.953456700023,None,2123.7872514000046,None,2123.7872514000046,2124.7872477000346,2124.7539053999935,2125.753910600033,1,None,None,"[0, 0, 0]",,,2123.7872514000046,None,,,,,,,,,,,,,,,,,,,,,,,,,,,,,,"[0, 0, 0]",,,0.014976920036133379,5.012657520011999,1002,M,1,5,R,SK,2022_Jan_21_1847,2020.2.10,distractmap1,59.950816359605646,"['Left Arm', 'Left Face', 'Abdomen', 'Right Arm']",
6,"[0.2, 0]",0,0,1,1,1,,,,,,,2125.7872519000084,None,2125.7872519000084,2126.7872800999903,2126.770557300013,2127.770593399997,1,None,None,"[0, 0, 0]",,,2125.7872519000084,None,,,,,,,,,,,,,,,,,,,,,,,,,,,,,,"[0, 0, 0]",,,,,1002,M,1,5,R,SK,2022_Jan_21_1847,2020.2.10,distractmap1,59.950816359605646,"['Left Arm', 'Left Face', 'Abdomen', 'Right Arm']",
6,"[0.2, 0]",1,0,2,2,2,,,,,,,2127.787264499988,2127.787264499988,2127.787264499988,2128.7872871000436,2128.770613700035,2129.7706115000183,1,None,None,"[0, 0, 0]",,,2127.787264499988,2127.787264499988,,,,,,,,,,,,,,,,,,,,,,,,,,,,,,"[0, 0, 0]",,,,,1002,M,1,5,R,SK,2022_Jan_21_1847,2020.2.10,distractmap1,59.950816359605646,"['Left Arm', 'Left Face', 'Abdomen', 'Right Arm']",
2,"[0, 0.2]",0,0,3,3,3,,,,,,,2129.7873013000353,2129.7873013000353,2129.7873013000353,2130.7872922000242,2130.770628600032,2131.7706460999907,1,None,None,"[0, 0, 0]",,,2129.7873013000353,2129.7873013000353,,,,,,,,,,,,,,,,,,,,,,,,,,,,,,"[0, 0, 0]",,,,,1002,M,1,5,R,SK,2022_Jan_21_1847,2020.2.10,distractmap1,59.950816359605646,"['Left Arm', 'Left Face', 'Abdomen', 'Right Arm']",
1,"[-0.2, 0.2]",0,0,4,4,4,,,,,,,2131.8209730000235,2131.8209730000235,2131.8209730000235,2132.820637900033,2132.8039716000203,None,1,None,None,"[0, 0, 0]",,,2131.8209730000235,2131.8209730000235,,,,,,,,,,,,,,,,,,,,,,,,,,,,,,"[0, 0, 0]",,,,,1002,M,1,5,R,SK,2022_Jan_21_1847,2020.2.10,distractmap1,59.950816359605646,"['Left Arm', 'Left Face', 'Abdomen', 'Right Arm']",
6,"[0.2, 0]",0,0,5,5,5,,,,,,,2133.803976700001,None,2133.803976700001,2134.803994100017,2134.787321800017,2135.787333199987,1,None,None,"[0, 0, 0]",,,2133.803976700001,None,,,,,,,,,,,,,,,,,,,,,,,,,,,,,,"[0, 0, 0]",,,,,1002,M,1,5,R,SK,2022_Jan_21_1847,2020.2.10,distractmap1,59.950816359605646,"['Left Arm', 'Left Face', 'Abdomen', 'Right Arm']",
9,"[0.2, -0.2]",0,0,6,6,6,,,,,,,2135.803993700014,2135.803993700014,2135.803993700014,2136.8040034000296,2136.7873567999923,2137.7873500999995,1,None,None,"[0, 0, 0]",,,2135.803993700014,2135.803993700014,,,,,,,,,,,,,,,,,,,,,,,,,,,,,,"[0, 0, 0]",,,,,1002,M,1,5,R,SK,2022_Jan_21_1847,2020.2.10,distractmap1,59.950816359605646,"['Left Arm', 'Left Face', 'Abdomen', 'Right Arm']",
1,"[-0.2, 0.2]",0,0,7,7,7,,,,,,,2137.8039090000093,2137.8039090000093,2137.8039090000093,2138.8040298999986,2138.7873550000368,2139.787376000022,1,None,None,"[0, 0, 0]",,,2137.8039090000093,2137.8039090000093,,,,,,,,,,,,,,,,,,,,,,,,,,,,,,"[0, 0, 0]",,,,,1002,M,1,5,R,SK,2022_Jan_21_1847,2020.2.10,distractmap1,59.950816359605646,"['Left Arm', 'Left Face', 'Abdomen', 'Right Arm']",
6,"[0.2, 0]",0,0,8,8,8,,,,,,,2139.804029299994,2139.804029299994,2139.804029299994,2140.8040312000085,2140.7873882999993,2141.787402999995,1,None,None,"[0, 0, 0]",,,2139.804029299994,2139.804029299994,,,,,,,,,,,,,,,,,,,,,,,,,,,,,,"[0, 0, 0]",,,,,1002,M,1,5,R,SK,2022_Jan_21_1847,2020.2.10,distractmap1,59.950816359605646,"['Left Arm', 'Left Face', 'Abdomen', 'Right Arm']",
6,"[0.2, 0]",1,0,9,9,9,,,,,,,2141.8040444999933,2141.8040444999933,2141.8040444999933,2142.8040552000166,2142.787402899994,2143.7873987000203,1,None,None,"[0, 0, 0]",,,2141.8040444999933,2141.8040444999933,,,,,,,,,,,,,,,,,,,,,,,,,,,,,,"[0, 0, 0]",,,,,1002,M,1,5,R,SK,2022_Jan_21_1847,2020.2.10,distractmap1,59.950816359605646,"['Left Arm', 'Left Face', 'Abdomen', 'Right Arm']",
,,,,,,,,,,,2143.8040640000254,None,,,,,,,,,,,,,,,,,,,,,,,,,,,,,,,,,,,,,,,,,,,,,15.061728395061733,2101.3185595799587,,,1002,M,1,5,R,SK,2022_Jan_21_1847,2020.2.10,distractmap1,59.950816359605646,"['Left Arm', 'Left Face', 'Abdomen', 'Right Arm']",
9,"[0.2, -0.2]",None,0,0,0,0,,,,,2161.071320099989,None,2163.854245499999,None,2163.854245499999,2164.8542522999924,2164.837573800003,2165.8375890000025,1,None,None,"[0, 0, 0]",,,2163.854245499999,None,,,,,,,,,,,,,,,,,,,,,,,,,,,,,,"[0, 0, 0]",,,0.014562720025423914,5.011750020028558,1002,M,1,5,R,SK,2022_Jan_21_1847,2020.2.10,distractmap1,59.950816359605646,"['Left Arm', 'Left Face', 'Abdomen', 'Right Arm']",
9,"[0.2, -0.2]",1,0,1,1,1,,,,,,,2165.8542560000205,None,2165.8542560000205,2166.8541606999934,2166.8376006000326,2167.8376077000285,1,None,None,"[0, 0, 0]",,,2165.8542560000205,None,,,,,,,,,,,,,,,,,,,,,,,,,,,,,,"[0, 0, 0]",,,,,1002,M,1,5,R,SK,2022_Jan_21_1847,2020.2.10,distractmap1,59.950816359605646,"['Left Arm', 'Left Face', 'Abdomen', 'Right Arm']",
9,"[0.2, -0.2]",1,0,2,2,2,,,,,,,2167.8542833999963,2167.8542833999963,2167.8542833999963,2168.854286400019,2168.8376175999874,2169.8376340999966,1,None,None,"[0, 0, 0]",,,2167.8542833999963,2167.8542833999963,,,,,,,,,,,,,,,,,,,,,,,,,,,,,,"[0, 0, 0]",,,,,1002,M,1,5,R,SK,2022_Jan_21_1847,2020.2.10,distractmap1,59.950816359605646,"['Left Arm', 'Left Face', 'Abdomen', 'Right Arm']",
3,"[0.2, 0.2]",0,0,3,3,3,,,,,,,2169.85428150004,2169.85428150004,2169.85428150004,2170.8542906999937,2170.8376318000373,2171.837654300034,1,None,None,"[0, 0, 0]",,,2169.85428150004,2169.85428150004,,,,,,,,,,,,,,,,,,,,,,,,,,,,,,"[0, 0, 0]",,,,,1002,M,1,5,R,SK,2022_Jan_21_1847,2020.2.10,distractmap1,59.950816359605646,"['Left Arm', 'Left Face', 'Abdomen', 'Right Arm']",
5,"[0, 0]",0,0,4,4,4,,,,,,,2171.9042599000386,2171.9042599000386,2171.9042599000386,2172.9043088000035,2172.9043088000035,None,1,None,None,"[0, 0, 0]",,,2171.9042599000386,2171.9042599000386,,,,,,,,,,,,,,,,,,,,,,,,,,,,,,"[0, 0, 0]",,,,,1002,M,1,5,R,SK,2022_Jan_21_1847,2020.2.10,distractmap1,59.950816359605646,"['Left Arm', 'Left Face', 'Abdomen', 'Right Arm']",
4,"[-0.2, 0]",0,0,5,5,5,,,,,,,2173.8709794000024,None,2173.8709794000024,2174.871004400018,2174.8543283999898,2175.8543430000427,1,None,None,"[0, 0, 0]",,,2173.8709794000024,None,,,,,,,,,,,,,,,,,,,,,,,,,,,,,,"[0, 0, 0]",,,,,1002,M,1,5,R,SK,2022_Jan_21_1847,2020.2.10,distractmap1,59.950816359605646,"['Left Arm', 'Left Face', 'Abdomen', 'Right Arm']",
9,"[0.2, -0.2]",0,0,6,6,6,,,,,,,2175.8709084999864,2175.8709084999864,2175.8709084999864,2176.8710133000277,2176.854355700023,2177.8543559000245,1,None,None,"[0, 0, 0]",,,2175.8709084999864,2175.8709084999864,,,,,,,,,,,,,,,,,,,,,,,,,,,,,,"[0, 0, 0]",,,,,1002,M,1,5,R,SK,2022_Jan_21_1847,2020.2.10,distractmap1,59.950816359605646,"['Left Arm', 'Left Face', 'Abdomen', 'Right Arm']",
6,"[0.2, 0]",0,0,7,7,7,,,,,,,2177.871028000023,2177.871028000023,2177.871028000023,2178.8710332000046,2178.854374799994,2179.854368900007,1,None,None,"[0, 0, 0]",,,2177.871028000023,2177.871028000023,,,,,,,,,,,,,,,,,,,,,,,,,,,,,,"[0, 0, 0]",,,,,1002,M,1,5,R,SK,2022_Jan_21_1847,2020.2.10,distractmap1,59.950816359605646,"['Left Arm', 'Left Face', 'Abdomen', 'Right Arm']",
2,"[0, 0.2]",0,0,8,8,8,,,,,,,2179.8709407999995,2179.8709407999995,2179.8709407999995,2180.8710472999956,2180.8543833000003,2181.8543907999992,1,None,None,"[0, 0, 0]",,,2179.8709407999995,2179.8709407999995,,,,,,,,,,,,,,,,,,,,,,,,,,,,,,"[0, 0, 0]",,,,,1002,M,1,5,R,SK,2022_Jan_21_1847,2020.2.10,distractmap1,59.950816359605646,"['Left Arm', 'Left Face', 'Abdomen', 'Right Arm']",
2,"[0, 0.2]",1,0,9,9,9,,,,,,,2181.871066300024,2181.871066300024,2181.871066300024,2182.8710581000196,2182.8544007000164,2183.854287300026,1,None,None,"[0, 0, 0]",,,2181.871066300024,2181.871066300024,,,,,,,,,,,,,,,,,,,,,,,,,,,,,,"[0, 0, 0]",,,,,1002,M,1,5,R,SK,2022_Jan_21_1847,2020.2.10,distractmap1,59.950816359605646,"['Left Arm', 'Left Face', 'Abdomen', 'Right Arm']",
,,,,,,,,,,,2183.8710727000143,None,,,,,,,,,,,,,,,,,,,,,,,,,,,,,,,,,,,,,,,,,,,,,14.876543209876539,2141.3856905800058,,,1002,M,1,5,R,SK,2022_Jan_21_1847,2020.2.10,distractmap1,59.950816359605646,"['Left Arm', 'Left Face', 'Abdomen', 'Right Arm']",
2,"[0, 0.2]",None,0,0,0,0,,,,,2201.1047712000436,None,2203.921255299996,None,2203.921255299996,2204.921255299996,2204.9046002000105,2205.9045882000355,1,None,None,"[0, 0, 0]",,,2203.921255299996,None,,,,,,,,,,,,,,,,,,,,,,,,,,,,,,"[0, 0, 0]",,,0.014426019974052906,5.0115670199738815,1002,M,1,5,R,SK,2022_Jan_21_1847,2020.2.10,distractmap1,59.950816359605646,"['Left Arm', 'Left Face', 'Abdomen', 'Right Arm']",
8,"[0, -0.2]",0,0,1,1,1,,,,,,,2205.9212573000113,None,2205.9212573000113,2206.9212671000278,2206.904604999989,2207.9046068000025,1,None,None,"[0, 0, 0]",,,2205.9212573000113,None,,,,,,,,,,,,,,,,,,,,,,,,,,,,,,"[0, 0, 0]",,,,,1002,M,1,5,R,SK,2022_Jan_21_1847,2020.2.10,distractmap1,59.950816359605646,"['Left Arm', 'Left Face', 'Abdomen', 'Right Arm']",
1,"[-0.2, 0.2]",0,0,2,2,2,,,,,,,2207.9211700999876,2207.9211700999876,2207.9211700999876,2208.9213090999983,2208.9046212999965,2209.9046275000437,1,None,None,"[0, 0, 0]",,,2207.9211700999876,2207.9211700999876,,,,,,,,,,,,,,,,,,,,,,,,,,,,,,"[0, 0, 0]",,,,,1002,M,1,5,R,SK,2022_Jan_21_1847,2020.2.10,distractmap1,59.950816359605646,"['Left Arm', 'Left Face', 'Abdomen', 'Right Arm']",
2,"[0, 0.2]",0,0,3,3,3,,,,,,,2209.921315499989,2209.921315499989,2209.921315499989,2210.921314700041,2210.9046283999924,2211.904636399995,1,None,None,"[0, 0, 0]",,,2209.921315499989,2209.921315499989,,,,,,,,,,,,,,,,,,,,,,,,,,,,,,"[0, 0, 0]",,,,,1002,M,1,5,R,SK,2022_Jan_21_1847,2020.2.10,distractmap1,59.950816359605646,"['Left Arm', 'Left Face', 'Abdomen', 'Right Arm']",
2,"[0, 0.2]",1,0,4,4,4,,,,,,,2211.9881270999904,2211.9881270999904,2211.9881270999904,2212.98799210001,2212.971317599993,None,1,None,None,"[0, 0, 0]",,,2211.9881270999904,2211.9881270999904,,,,,,,,,,,,,,,,,,,,,,,,,,,,,,"[0, 0, 0]",,,,,1002,M,1,5,R,SK,2022_Jan_21_1847,2020.2.10,distractmap1,59.950816359605646,"['Left Arm', 'Left Face', 'Abdomen', 'Right Arm']",
7,"[-0.2, -0.2]",0,0,5,5,5,,,,,,,2213.9379902000073,None,2213.9379902000073,2214.9380067000166,2214.9213610000443,2215.9213564000092,1,None,None,"[0, 0, 0]",,,2213.9379902000073,None,,,,,,,,,,,,,,,,,,,,,,,,,,,,,,"[0, 0, 0]",,,,,1002,M,1,5,R,SK,2022_Jan_21_1847,2020.2.10,distractmap1,59.950816359605646,"['Left Arm', 'Left Face', 'Abdomen', 'Right Arm']",
9,"[0.2, -0.2]",0,0,6,6,6,,,,,,,2215.9380116999964,2215.9380116999964,2215.9380116999964,2216.9380209000083,2216.921360200038,2217.9213832000387,1,None,None,"[0, 0, 0]",,,2215.9380116999964,2215.9380116999964,,,,,,,,,,,,,,,,,,,,,,,,,,,,,,"[0, 0, 0]",,,,,1002,M,1,5,R,SK,2022_Jan_21_1847,2020.2.10,distractmap1,59.950816359605646,"['Left Arm', 'Left Face', 'Abdomen', 'Right Arm']",
9,"[0.2, -0.2]",1,0,7,7,7,,,,,,,2217.9380307000247,2217.9380307000247,2217.9380307000247,2218.938053800026,2218.9213770999922,2219.921394600009,1,None,None,"[0, 0, 0]",,,2217.9380307000247,2217.9380307000247,,,,,,,,,,,,,,,,,,,,,,,,,,,,,,"[0, 0, 0]",,,,,1002,M,1,5,R,SK,2022_Jan_21_1847,2020.2.10,distractmap1,59.950816359605646,"['Left Arm', 'Left Face', 'Abdomen', 'Right Arm']",
4,"[-0.2, 0]",0,0,8,8,8,,,,,,,2219.9380444000126,2219.9380444000126,2219.9380444000126,2220.93805300002,2220.9212667000247,2221.9213987000403,1,None,None,"[0, 0, 0]",,,2219.9380444000126,2219.9380444000126,,,,,,,,,,,,,,,,,,,,,,,,,,,,,,"[0, 0, 0]",,,,,1002,M,1,5,R,SK,2022_Jan_21_1847,2020.2.10,distractmap1,59.950816359605646,"['Left Arm', 'Left Face', 'Abdomen', 'Right Arm']",
5,"[0, 0]",0,0,9,9,9,,,,,,,2221.9375886000344,2221.9375886000344,2221.9375886000344,2222.938065800001,2222.9214256000123,2223.9214395000017,1,None,None,"[0, 0, 0]",,,2221.9375886000344,2221.9375886000344,,,,,,,,,,,,,,,,,,,,,,,,,,,,,,"[0, 0, 0]",,,,,1002,M,1,5,R,SK,2022_Jan_21_1847,2020.2.10,distractmap1,59.950816359605646,"['Left Arm', 'Left Face', 'Abdomen', 'Right Arm']",
,,,,,,,,,,,2223.9380777000333,None,,,,,,,,,,,,,,,,,,,,,,,,,,,,,,,,,,,,,,,,,,,,,14.814814814814813,2177.4523997799843,,,1002,M,1,5,R,SK,2022_Jan_21_1847,2020.2.10,distractmap1,59.950816359605646,"['Left Arm', 'Left Face', 'Abdomen', 'Right Arm']",
2,"[0, 0.2]",None,,,,,0,0,0,0,2237.1717327000224,None,,,,,,,,,,,,,,,,,,,,,,None,None,"[0, 0, 0]",2243.9882515000063,None,2243.9882515000063,2244.9882617000258,2244.9716005999944,2245.9716246000025,"[0, 0, 0]",1,2243.9882515000063,None,,,,,,,,,,,,,0.014720720006152987,5.012131419964135,1002,M,1,5,R,SK,2022_Jan_21_1847,2020.2.10,distractmap1,59.950816359605646,"['Left Arm', 'Left Face', 'Abdomen', 'Right Arm']",
