	SID	date	sex	session	handedness	scanner	onset	duration	repetition	rating	body_site	keys	temperature	conditionrt	mouseclick	biopac_channel	condition	rt	value
0	2512	2022_Nov_30_1133	f	1	r	MS MH	2.7765715001150966	5.011696499539539								19	Instructions		
1	2512	2022_Nov_30_1133	f	1	r	MS MH	8.507316200062633	2.0054624998010695								6	Cue		
2	2512	2022_Nov_30_1133	f	1	r	MS MH	10.521705700084567	7.993713099975139								7	Pre-Jitter		
3	2512	2022_Nov_30_1133	f	1	r	MS MH	18.59760670014657	15.008803399978206			Left Arm		48.0			13	Heat-Stimulation		
4	2512	2022_Nov_30_1133	f	1	r	MS MH	33.68236420000903	9.006190399872139								8	Mid-Jitter		
5	2512	2022_Nov_30_1133	f	1	r	MS MH	42.7067821000237	5.007504999870434								20	PainBinary	1.4836368998512626	1.0
6	2512	2022_Nov_30_1133	f	1	r	MS MH	47.73890969995409	5.010028599994257								21	IntensityRating	4.7004106000531465	21.48148148148148
7	2512	2022_Nov_30_1133	f	1	r	MS MH	52.7691119001247	4.999692700104788								22	ToleranceRating	1.4503465997986495	1.0
8	2512	2022_Nov_30_1133	f	1	r	MS MH	57.77404860011302	9.006617800099775								9	Post-Q-Jitter		
9	2512	2022_Nov_30_1133	f	1	r	MS MH	67.4448939000722	2.014939300250262								6	Cue		
10	2512	2022_Nov_30_1133	f	1	r	MS MH	69.45549260010011	3.9939780000131577								7	Pre-Jitter		
11	2512	2022_Nov_30_1133	f	1	r	MS MH	73.52289690007456	15.009313699789345			Left Arm		48.5			13	Heat-Stimulation		
12	2512	2022_Nov_30_1133	f	1	r	MS MH	88.6136445000302	7.011370800202712								8	Mid-Jitter		
13	2512	2022_Nov_30_1133	f	1	r	MS MH	95.64055150002241	5.007725699804723								20	PainBinary	1.6190677999984473	1.0
14	2512	2022_Nov_30_1133	f	1	r	MS MH	100.6721278000623	5.0114621999673545								21	IntensityRating	3.550421299878508	23.271604938271608
15	2512	2022_Nov_30_1133	f	1	r	MS MH	105.70294150011614	4.999939299887046								22	ToleranceRating	1.4838370999787003	1.0
16	2512	2022_Nov_30_1133	f	1	r	MS MH	110.70808030012995	7.006356100086123								9	Post-Q-Jitter		
17	2512	2022_Nov_30_1133	f	1	r	MS MH	118.36740710004233	2.00424259994179								6	Cue		
18	2512	2022_Nov_30_1133	f	1	r	MS MH	120.37162790005095	5.996060400037095								7	Pre-Jitter		
19	2512	2022_Nov_30_1133	f	1	r	MS MH	126.42146970005706	14.996582999825478			Left Arm		48.5			13	Heat-Stimulation		
20	2512	2022_Nov_30_1133	f	1	r	MS MH	141.49882820015773	9.00876050023362								8	Mid-Jitter		
21	2512	2022_Nov_30_1133	f	1	r	MS MH	150.5238968001213	5.008843899937347								20	PainBinary	1.5833595001604408	1.0
22	2512	2022_Nov_30_1133	f	1	r	MS MH	155.55609229998663	5.011192899895832								21	IntensityRating	3.5838427001144737	23.950617283950617
23	2512	2022_Nov_30_1133	f	1	r	MS MH	160.5857947000768	5.0019045998342335								22	ToleranceRating	1.5338771999813616	1.0
24	2512	2022_Nov_30_1133	f	1	r	MS MH	165.59250260004774	9.005371500039473								9	Post-Q-Jitter		
25	2512	2022_Nov_30_1133	f	1	r	MS MH	175.26486039999872	2.010577600216493								6	Cue		
26	2512	2022_Nov_30_1133	f	1	r	MS MH	177.2720576999709	5.996271000010893								7	Pre-Jitter		
27	2512	2022_Nov_30_1133	f	1	r	MS MH	183.32371550006792	14.993018200155348			Left Arm		48.5			13	Heat-Stimulation		
28	2512	2022_Nov_30_1133	f	1	r	MS MH	198.396734100068	7.013995400164276								8	Mid-Jitter		
29	2512	2022_Nov_30_1133	f	1	r	MS MH	205.42417729995213	5.009399299975485								20	PainBinary	1.4002003001514822	1.0
30	2512	2022_Nov_30_1133	f	1	r	MS MH	210.45641830004752	5.011669399915263								21	IntensityRating	3.218894900055602	22.901234567901234
31	2512	2022_Nov_30_1133	f	1	r	MS MH	215.48683169996366	5.000957399839535								22	ToleranceRating	1.6003598999232054	1.0
32	2512	2022_Nov_30_1133	f	1	r	MS MH	220.49268310004845	7.006029000040144								9	Post-Q-Jitter		
33	2512	2022_Nov_30_1133	f	1	r	MS MH	228.1169368000701	2.0073935997206718								6	Cue		
34	2512	2022_Nov_30_1133	f	1	r	MS MH	230.12208819994703	7.997381800087169								7	Pre-Jitter		
35	2512	2022_Nov_30_1133	f	1	r	MS MH	238.15844750008546	15.00826370017603			Left Arm		48.5			13	Heat-Stimulation		
36	2512	2022_Nov_30_1133	f	1	r	MS MH	253.2471551001072	7.014450900256634								8	Mid-Jitter		
37	2512	2022_Nov_30_1133	f	1	r	MS MH	260.2765083000995	5.005845400039107								20	PainBinary	1.7835989999584854	1.0
38	2512	2022_Nov_30_1133	f	1	r	MS MH	265.31675290013663	5.0087767001241446								21	IntensityRating	3.3669601001311094	26.172839506172842
39	2512	2022_Nov_30_1133	f	1	r	MS MH	270.337755799992	5.000226499978453								22	ToleranceRating	1.450393799925223	1.0
40	2512	2022_Nov_30_1133	f	1	r	MS MH	275.34299389994703	7.006529800361022								9	Post-Q-Jitter		
41	2512	2022_Nov_30_1133	f	1	r	MS MH	283.0026531999465	2.0037885999772698								6	Cue		
42	2512	2022_Nov_30_1133	f	1	r	MS MH	285.00642900005914	7.996540599968284								7	Pre-Jitter		
43	2512	2022_Nov_30_1133	f	1	r	MS MH	293.04102150001563	15.010927699971944			Left Arm		48.5			13	Heat-Stimulation		
44	2512	2022_Nov_30_1133	f	1	r	MS MH	308.13246810017154	9.011622300371528								8	Mid-Jitter		
45	2512	2022_Nov_30_1133	f	1	r	MS MH	317.1586583000608	5.009371199877933								20	PainBinary	1.6836453001014888	1.0
46	2512	2022_Nov_30_1133	f	1	r	MS MH	322.191598800011	5.010267599951476								21	IntensityRating	3.10027729999274	26.543209876543212
47	2512	2022_Nov_30_1133	f	1	r	MS MH	327.2209373000078	5.001699599670246								22	ToleranceRating	1.4687709999270737	1.0
48	2512	2022_Nov_30_1133	f	1	r	MS MH	332.2264898000285	9.007393800187856								9	Post-Q-Jitter		
49	2512	2022_Nov_30_1133	f	1	r	MS MH	341.9162990001496	2.010996100027114								6	Cue		
50	2512	2022_Nov_30_1133	f	1	r	MS MH	343.9234846001491	7.997028599958867								7	Pre-Jitter		
51	2512	2022_Nov_30_1133	f	1	r	MS MH	351.9618327000644	15.00389609998092			Left Arm		48.5			13	Heat-Stimulation		
52	2512	2022_Nov_30_1133	f	1	r	MS MH	367.0516244000755	9.007835400057957								8	Mid-Jitter		
53	2512	2022_Nov_30_1133	f	1	r	MS MH	376.0761067001149	5.009022300131619								20	PainBinary	1.300335800042376	1.0
54	2512	2022_Nov_30_1133	f	1	r	MS MH	381.108051400166	5.011894800001755								21	IntensityRating	2.7502715999726206	31.851851851851855
55	2512	2022_Nov_30_1133	f	1	r	MS MH	386.1381405000575	5.001864599995315								22	ToleranceRating	1.4170151001308113	1.0
56	2512	2022_Nov_30_1133	f	1	r	MS MH	391.1438986000139	9.007199400104582								9	Post-Q-Jitter		
57	2512	2022_Nov_30_1133	f	1	r	MS MH	400.18245860002935	5.4303839998319745								26	ComfortRating	5.400416000047699	-4.938271604938265
58	2512	2022_Nov_30_1133	f	1	r	MS MH	405.62906730012037	4.753864699974656								24	ValenceRating	4.73371999990195	42.71604938271605
59	2512	2022_Nov_30_1133	f	1	r	MS MH	410.40614460012875	4.049792899983004								26	IntensityRating	4.033764400053769	48.82716049382716
60	2512	2022_Nov_30_1133	f	1	r	MS MH	414.47472000005655	5.096064700046554								27	AvoidanceRating	5.0670646000653505	4.691358024691368
61	2512	2022_Nov_30_1133	f	1	r	MS MH	419.5878423000686	4.369804200017825								28	RelaxationRating	4.3502842001616955	49.074074074074076
62	2512	2022_Nov_30_1133	f	1	r	MS MH	423.97430959995836	4.730247200233862								29	AttentionRating	4.7003080998547375	56.851851851851855
63	2512	2022_Nov_30_1133	f	1	r	MS MH	428.72093609999865	3.470542100025341								30	BoredomRating	3.450411600060761	43.20987654320987
64	2512	2022_Nov_30_1133	f	1	r	MS MH	432.20679550012574	4.432268099859357								31	AlertnessRating	4.417044699890539	30.864197530864203
65	2512	2022_Nov_30_1133	f	1	r	MS MH	436.6567637999542	4.18247350002639								32	PosThxRating	4.167166200000793	-0.3703703703703667
66	2512	2022_Nov_30_1133	f	1	r	MS MH	440.85705620003864	2.6986748001072556								33	NegThxRating	2.6842622000258416	-12.71604938271605
67	2512	2022_Nov_30_1133	f	1	r	MS MH	443.5727548999712	2.450478100217879								34	SelfRating	2.419038400053978	21.604938271604922
68	2512	2022_Nov_30_1133	f	1	r	MS MH	446.03980290004984	2.3997194999828935								35	OtherRating	2.383709699846804	-28.148148148148152
69	2512	2022_Nov_30_1133	f	1	r	MS MH	448.4574291999452	3.4146054999437183								32	ImageryRating	3.400887900032103	12.098765432098773
70	2512	2022_Nov_30_1133	f	1	r	MS MH	451.89212500001304	4.278646900085732								37	PresentRating	4.236410999903455	25.061728395061735
