	SID	date	sex	session	handedness	scanner	onset	duration	repetition	rating	body_site	keys	temperature	conditionrt	mouseclick	biopac_channel	condition	rt	value
0	2388	2023_Apr_10_1530	F	01	R	MH JD 	2.774883799953386	5.002620954066515								19	Instructions		
1	2388	2023_Apr_10_1530	F	01	R	MH JD 	8.418141899863258	1.9992391197010875								6	Cue		
2	2388	2023_Apr_10_1530	F	01	R	MH JD 	10.42084789997898	3.993875280022621								7	Pre-Jitter		
3	2388	2023_Apr_10_1530	F	01	R	MH JD 	14.45404260000214	14.994308240246028			Right Arm		48.0			14	Heat-Stimulation		
4	2388	2023_Apr_10_1530	F	01	R	MH JD 	29.52955810003914	9.01019527995959								8	Mid-Jitter		
5	2388	2023_Apr_10_1530	F	01	R	MH JD 	38.55426530004479	5.010909059783444								20	PainBinary	1.700048099970445	1.0
6	2388	2023_Apr_10_1530	F	01	R	MH JD 	43.587943699909374	5.010319460183382								21	IntensityRating	2.0333279001060873	89.44444444444444
7	2388	2023_Apr_10_1530	F	01	R	MH JD 	48.61809909995645	5.000108760083094								22	ToleranceRating	1.616986099863425	-1.0
8	2388	2023_Apr_10_1530	F	01	R	MH JD 	53.62337199994363	9.006368479924276								9	Post-Q-Jitter		
9	2388	2023_Apr_10_1530	F	01	R	MH JD 	63.13452469999902	2.000861680135131								6	Cue		
10	2388	2023_Apr_10_1530	F	01	R	MH JD 	65.13735980005004	7.995291979983449								7	Pre-Jitter		
11	2388	2023_Apr_10_1530	F	01	R	MH JD 	73.16560279997066	15.00570574006997			Right Arm		47.5			14	Heat-Stimulation		
12	2388	2023_Apr_10_1530	F	01	R	MH JD 	88.24462309991941	9.014577079797164								8	Mid-Jitter		
13	2388	2023_Apr_10_1530	F	01	R	MH JD 	97.27430269983597	5.00539345969446								20	PainBinary	1.4833895000629127	1.0
14	2388	2023_Apr_10_1530	F	01	R	MH JD 	102.30431329994462	5.012124760076404								21	IntensityRating	3.1666785997804254	80.4320987654321
15	2388	2023_Apr_10_1530	F	01	R	MH JD 	107.33445089985617	5.001921360148117								22	ToleranceRating	1.300297300098464	-1.0
16	2388	2023_Apr_10_1530	F	01	R	MH JD 	112.34032049984671	9.006974480114877								9	Post-Q-Jitter		
17	2388	2023_Apr_10_1530	F	01	R	MH JD 	121.86706630000845	2.0036139599978924								6	Cue		
18	2388	2023_Apr_10_1530	F	01	R	MH JD 	123.8706670999527	3.996455180225894								7	Pre-Jitter		
19	2388	2023_Apr_10_1530	F	01	R	MH JD 	127.9184047000017	15.001176320016384			Right Arm		47.0			14	Heat-Stimulation		
20	2388	2023_Apr_10_1530	F	01	R	MH JD 	142.9943265998736	5.0162835801020265								8	Mid-Jitter		
21	2388	2023_Apr_10_1530	F	01	R	MH JD 	148.02307559992187	5.0088848599698395								20	PainBinary	1.1861064000986516	1.0
22	2388	2023_Apr_10_1530	F	01	R	MH JD 	153.05548790004104	5.010772560024634								21	IntensityRating	2.4837398000527173	80.92592592592594
23	2388	2023_Apr_10_1530	F	01	R	MH JD 	158.08563129999675	5.0006310602184385								22	ToleranceRating	1.5520884001161903	-1.0
24	2388	2023_Apr_10_1530	F	01	R	MH JD 	163.09116329997778	5.0062900797929615								9	Post-Q-Jitter		
25	2388	2023_Apr_10_1530	F	01	R	MH JD 	168.60111159994267	2.0031202798709273								6	Cue		
26	2388	2023_Apr_10_1530	F	01	R	MH JD 	170.6040182998404	5.997349980054423								7	Pre-Jitter		
27	2388	2023_Apr_10_1530	F	01	R	MH JD 	176.63319660001434	15.005883839912713			Right Arm		46.5			14	Heat-Stimulation		
28	2388	2023_Apr_10_1530	F	01	R	MH JD 	191.7115340998862	9.016118979780003								8	Mid-Jitter		
29	2388	2023_Apr_10_1530	F	01	R	MH JD 	200.74133039987646	5.006596760125831								20	PainBinary	1.516649299999699	1.0
30	2388	2023_Apr_10_1530	F	01	R	MH JD 	205.77257549995556	5.010898059699684								21	IntensityRating	2.2667022000532597	79.320987654321
31	2388	2023_Apr_10_1530	F	01	R	MH JD 	210.8032569999341	4.999705360038206								22	ToleranceRating	0.7836748999543488	-1.0
32	2388	2023_Apr_10_1530	F	01	R	MH JD 	215.80821619997732	9.006598779698834								9	Post-Q-Jitter		
33	2388	2023_Apr_10_1530	F	01	R	MH JD 	225.336069899844	2.001028360100463								6	Cue		
34	2388	2023_Apr_10_1530	F	01	R	MH JD 	227.33850799989887	7.996218379819766								7	Pre-Jitter		
35	2388	2023_Apr_10_1530	F	01	R	MH JD 	235.38665040000342	15.00016061984934			Right Arm		46.0			14	Heat-Stimulation		
36	2388	2023_Apr_10_1530	F	01	R	MH JD 	250.46695459983312	7.0064405801240355								8	Mid-Jitter		
37	2388	2023_Apr_10_1530	F	01	R	MH JD 	257.49137049983256	5.007736459840089								20	PainBinary	3.8332091998308897	1.0
38	2388	2023_Apr_10_1530	F	01	R	MH JD 	262.5232995999977	5.010643359972164								21	IntensityRating	4.533409300027415	72.77777777777779
39	2388	2023_Apr_10_1530	F	01	R	MH JD 	267.5536863000598	4.999977960018441								22	ToleranceRating	1.1865605001803488	-1.0
40	2388	2023_Apr_10_1530	F	01	R	MH JD 	272.55922309984453	7.005708479788154								9	Post-Q-Jitter		
41	2388	2023_Apr_10_1530	F	01	R	MH JD 	280.6235769998748	2.0104455198161304								6	Cue		
42	2388	2023_Apr_10_1530	F	01	R	MH JD 	282.6390754999593	3.9961641798727214								7	Pre-Jitter		
43	2388	2023_Apr_10_1530	F	01	R	MH JD 	286.67876789998263	15.000318040139973			Right Arm		45.5			14	Heat-Stimulation		
44	2388	2023_Apr_10_1530	F	01	R	MH JD 	301.76359199988656	7.014217680087313								8	Mid-Jitter		
45	2388	2023_Apr_10_1530	F	01	R	MH JD 	308.7913544999901	5.008820859948173								20	PainBinary	1.4833408000413328	1.0
46	2388	2023_Apr_10_1530	F	01	R	MH JD 	313.8234246999491	5.01145775988698								21	IntensityRating	2.083349000196904	68.08641975308643
47	2388	2023_Apr_10_1530	F	01	R	MH JD 	318.85375739983283	5.000873560085893								22	ToleranceRating	1.4504142999649048	-1.0
48	2388	2023_Apr_10_1530	F	01	R	MH JD 	323.87113530002534	3.2329524599481374								26	ComfortRating	3.217926000012085	-41.11111111111111
49	2388	2023_Apr_10_1530	F	01	R	MH JD 	327.1257239000406	2.2405099601019174								24	ValenceRating	2.216731399996206	73.58024691358024
50	2388	2023_Apr_10_1530	F	01	R	MH JD 	329.3873162998352	2.78403255995363								26	IntensityRating	2.7669921000488102	89.81481481481482
51	2388	2023_Apr_10_1530	F	01	R	MH JD 	332.1895093000494	2.646370860049501								27	AvoidanceRating	2.616680100094527	100.0
52	2388	2023_Apr_10_1530	F	01	R	MH JD 	334.8531947999727	2.535640560090542								28	RelaxationRating	2.516919800080359	2.71604938271605
53	2388	2023_Apr_10_1530	F	01	R	MH JD 	337.40467269998044	1.7493863601703197								29	AttentionRating	1.7336522999685258	30.617283950617285
54	2388	2023_Apr_10_1530	F	01	R	MH JD 	339.168958599912	1.720920859836042								30	BoredomRating	1.7002570999320596	5.06172839506173
55	2388	2023_Apr_10_1530	F	01	R	MH JD 	340.90492949984036	1.3657234602142125								31	AlertnessRating	1.3502901999745518	-16.913580246913583
56	2388	2023_Apr_10_1530	F	01	R	MH JD 	342.28853609994985	3.731885760324076								32	PosThxRating	3.717097300104797	-39.50617283950617
57	2388	2023_Apr_10_1530	F	01	R	MH JD 	346.0382802998647	2.3324236599728465								33	NegThxRating	2.3171312999911606	55.55555555555557
58	2388	2023_Apr_10_1530	F	01	R	MH JD 	348.3875784999691	2.2005426599644125								34	SelfRating	2.183637799927965	12.098765432098773
59	2388	2023_Apr_10_1530	F	01	R	MH JD 	350.6043995998334	1.900277960114181								35	OtherRating	1.8836600000504404	12.34567901234567
60	2388	2023_Apr_10_1530	F	01	R	MH JD 	352.5227850000374	3.5302110598422587								32	ImageryRating	3.5169232999905944	-9.506172839506178
61	2388	2023_Apr_10_1530	F	01	R	MH JD 	356.07475390005857	4.276338459923863								37	PresentRating	4.249999799998477	5.92592592592591
