RestT1,TaskT1,square,location,corrAns,counterbalancer.thisRepN,counterbalancer.thisTrialN,counterbalancer.thisN,counterbalancer.thisIndex,RestT1Loop.thisRepN,RestT1Loop.thisTrialN,RestT1Loop.thisN,RestT1Loop.thisIndex,TaskT1Loop.thisRepN,TaskT1Loop.thisTrialN,TaskT1Loop.thisN,TaskT1Loop.thisIndex,trials_2.thisRepN,trials_2.thisTrialN,trials_2.thisN,trials_2.thisIndex,fixation_1.started,fixation_1.stopped,NbackInstructions.started,NbackInstructions.stopped,NbackStart.keys,NbackStart.rt,NbackStart.started,NbackStart.stopped,fixation_2.started,fixation_2.stopped,grid_lines_2.started,grid_lines_2.stopped,target_square_2.started,target_square_2.stopped,fixation_3.started,fixation_3.stopped,response_2.click,response_2.corr,response_2.rt,response_2.started,response_2.stopped,subject number,gender,session,handedness,scanner,date,expName,psychopyVersion,frameRate,
1,0,,,,0,0,0,0,0,0,0,0,,,,,,,,,175.1457515999209,None,,,,,,,,,,,,,,,,,,,,1,M,8,R,CIB,2021_May_25_1403,WASABI Nback,2020.2.10,60.00686478171714,
0,1,,,,0,1,1,1,,,,,0,0,0,0,,,,,,,484.23160830000415,None,space,36.776328299893066,484.23160830000415,None,,,,,,,,,,,,,,1,M,8,R,CIB,2021_May_25_1403,WASABI Nback,2020.2.10,60.00686478171714,
0,1,5,"[0, 0]",None,0,1,1,1,,,,,0,0,0,0,0,0,0,0,,,,,,,,,None,None,None,None,None,None,None,None,[],[],[],None,None,1,M,8,R,CIB,2021_May_25_1403,WASABI Nback,2020.2.10,60.00686478171714,
0,1,2,"[0, 0.2]",None,0,1,1,1,,,,,0,0,0,0,0,1,1,1,,,,,,,,,,,525.5319755999371,None,525.5319755999371,None,None,None,None,1,,525.5319755999371,None,1,M,8,R,CIB,2021_May_25_1403,WASABI Nback,2020.2.10,60.00686478171714,
0,1,6,"[0.2, 0]",None,0,1,1,1,,,,,0,0,0,0,0,2,2,2,,,,,,,,,,,526.0486439999659,None,526.0486439999659,527.0486463999841,527.0319788998459,528.0319802998565,None,1,,526.0486439999659,None,1,M,8,R,CIB,2021_May_25_1403,WASABI Nback,2020.2.10,60.00686478171714,
0,1,9,"[0.2, -0.2]",None,0,1,1,1,,,,,0,0,0,0,0,3,3,3,,,,,,,,,,,528.0486567998305,None,528.0486567998305,529.0486765999813,529.0320162998978,530.0320158000104,None,1,,528.0486567998305,None,1,M,8,R,CIB,2021_May_25_1403,WASABI Nback,2020.2.10,60.00686478171714,
0,1,3,"[0.2, 0.2]",None,0,1,1,1,,,,,0,0,0,0,0,4,4,4,,,,,,,,,,,530.0486667999066,None,530.0486667999066,531.0486613998655,531.0319933998398,532.0320282999892,None,1,,530.0486667999066,None,1,M,8,R,CIB,2021_May_25_1403,WASABI Nback,2020.2.10,60.00686478171714,
0,1,9,"[0.2, -0.2]",1,0,1,1,1,,,,,0,0,0,0,0,5,5,5,,,,,,,,,,,532.0486854999326,None,532.0486854999326,533.0486910999753,533.0320315998979,534.0319153999444,None,0,,532.0486854999326,None,1,M,8,R,CIB,2021_May_25_1403,WASABI Nback,2020.2.10,60.00686478171714,
0,1,7,"[-0.2, -0.2]",None,0,1,1,1,,,,,0,0,0,0,0,6,6,6,,,,,,,,,,,534.0487112000119,None,534.0487112000119,535.0487110000104,535.0320418998599,536.032056099968,None,1,,534.0487112000119,None,1,M,8,R,CIB,2021_May_25_1403,WASABI Nback,2020.2.10,60.00686478171714,
0,1,1,"[-0.2, 0.2]",None,0,1,1,1,,,,,0,0,0,0,0,7,7,7,,,,,,,,,,,536.0487124999054,None,536.0487124999054,537.0487224999815,537.0320625000168,538.0320790999103,None,1,,536.0487124999054,None,1,M,8,R,CIB,2021_May_25_1403,WASABI Nback,2020.2.10,60.00686478171714,
0,1,5,"[0, 0]",None,0,1,1,1,,,,,0,0,0,0,0,8,8,8,,,,,,,,,,,538.0487306998111,None,538.0487306998111,539.0487484999467,539.0320688998327,540.0320921998937,None,1,,538.0487306998111,None,1,M,8,R,CIB,2021_May_25_1403,WASABI Nback,2020.2.10,60.00686478171714,
0,1,7,"[-0.2, -0.2]",None,0,1,1,1,,,,,0,0,0,0,0,9,9,9,,,,,,,,,,,540.0487577000167,None,540.0487577000167,541.0487642998341,541.0320901998784,542.0321862997953,None,1,,540.0487577000167,None,1,M,8,R,CIB,2021_May_25_1403,WASABI Nback,2020.2.10,60.00686478171714,
0,1,5,"[0, 0]",1,0,1,1,1,,,,,0,0,0,0,0,10,10,10,,,,,,,,,,,542.0487720998935,None,542.0487720998935,543.0487816999666,543.0321100999136,544.0321130999364,None,0,,542.0487720998935,None,1,M,8,R,CIB,2021_May_25_1403,WASABI Nback,2020.2.10,60.00686478171714,
0,1,6,"[0.2, 0]",None,0,1,1,1,,,,,0,0,0,0,0,11,11,11,,,,,,,,,,,544.048780299956,None,544.048780299956,545.0487518999726,545.032138499897,546.0321400000248,None,1,,544.048780299956,None,1,M,8,R,CIB,2021_May_25_1403,WASABI Nback,2020.2.10,60.00686478171714,
0,1,3,"[0.2, 0.2]",None,0,1,1,1,,,,,0,0,0,0,0,12,12,12,,,,,,,,,,,546.048809299944,None,546.048809299944,547.0487155998126,547.0321523998864,548.032149199862,None,1,,546.048809299944,None,1,M,8,R,CIB,2021_May_25_1403,WASABI Nback,2020.2.10,60.00686478171714,
0,1,6,"[0.2, 0]",1,0,1,1,1,,,,,0,0,0,0,0,13,13,13,,,,,,,,,,,548.0488223999273,None,548.0488223999273,549.0488360999152,549.0321604998317,550.0322317997925,None,0,,548.0488223999273,None,1,M,8,R,CIB,2021_May_25_1403,WASABI Nback,2020.2.10,60.00686478171714,
0,1,8,"[0, -0.2]",None,0,1,1,1,,,,,0,0,0,0,0,14,14,14,,,,,,,,,,,550.0488342000172,None,550.0488342000172,551.0488481998909,551.0321849999018,552.032167899888,None,1,,550.0488342000172,None,1,M,8,R,CIB,2021_May_25_1403,WASABI Nback,2020.2.10,60.00686478171714,
0,1,9,"[0.2, -0.2]",None,0,1,1,1,,,,,0,0,0,0,0,15,15,15,,,,,,,,,,,552.0488495999016,None,552.0488495999016,553.0488187000155,553.0321909999475,554.0322125998791,None,1,,552.0488495999016,None,1,M,8,R,CIB,2021_May_25_1403,WASABI Nback,2020.2.10,60.00686478171714,
0,1,9,"[0.2, -0.2]",None,0,1,1,1,,,,,0,0,0,0,0,16,16,16,,,,,,,,,,,554.0488628000021,None,554.0488628000021,555.0488664999139,555.0321930998471,556.0322169999126,None,1,,554.0488628000021,None,1,M,8,R,CIB,2021_May_25_1403,WASABI Nback,2020.2.10,60.00686478171714,
0,1,1,"[-0.2, 0.2]",None,0,1,1,1,,,,,0,0,0,0,0,17,17,17,,,,,,,,,,,556.0488705998287,None,556.0488705998287,557.0488974999171,557.0322214998305,558.0322447000071,None,1,,556.0488705998287,None,1,M,8,R,CIB,2021_May_25_1403,WASABI Nback,2020.2.10,60.00686478171714,
0,1,3,"[0.2, 0.2]",None,0,1,1,1,,,,,0,0,0,0,0,18,18,18,,,,,,,,,,,558.048897799803,None,558.048897799803,559.0489067998715,559.03225379996,560.0322494998109,None,1,,558.048897799803,None,1,M,8,R,CIB,2021_May_25_1403,WASABI Nback,2020.2.10,60.00686478171714,
0,1,5,"[0, 0]",None,0,1,1,1,,,,,0,0,0,0,0,19,19,19,,,,,,,,,,,560.0489142998122,None,560.0489142998122,561.0489225999918,561.0322715998627,562.0321458999533,None,1,,560.0489142998122,None,1,M,8,R,CIB,2021_May_25_1403,WASABI Nback,2020.2.10,60.00686478171714,
0,1,3,"[0.2, 0.2]",1,0,1,1,1,,,,,0,0,0,0,0,20,20,20,,,,,,,,,,,562.0489361998625,None,562.0489361998625,563.0490388998296,563.032264799811,564.0322891999967,None,0,,562.0489361998625,None,1,M,8,R,CIB,2021_May_25_1403,WASABI Nback,2020.2.10,60.00686478171714,
0,1,4,"[-0.2, 0]",None,0,1,1,1,,,,,0,0,0,0,0,21,21,21,,,,,,,,,,,564.0489483999554,None,564.0489483999554,565.0489642999601,565.0323065998964,566.0323120998219,None,1,,564.0489483999554,None,1,M,8,R,CIB,2021_May_25_1403,WASABI Nback,2020.2.10,60.00686478171714,
0,1,7,"[-0.2, -0.2]",None,0,1,1,1,,,,,0,0,0,0,0,22,22,22,,,,,,,,,,,566.0489632999524,None,566.0489632999524,567.048982599983,567.0323129999451,568.0323158998508,None,1,,566.0489632999524,None,1,M,8,R,CIB,2021_May_25_1403,WASABI Nback,2020.2.10,60.00686478171714,
0,1,4,"[-0.2, 0]",1,0,1,1,1,,,,,0,0,0,0,0,23,23,23,,,,,,,,,,,568.048982599983,None,568.048982599983,569.0489888999145,569.0323299998417,570.0323324999772,None,0,,568.048982599983,None,1,M,8,R,CIB,2021_May_25_1403,WASABI Nback,2020.2.10,60.00686478171714,
0,1,4,"[-0.2, 0]",None,0,1,1,1,,,,,0,0,0,0,0,24,24,24,,,,,,,,,,,570.0490089999512,None,570.0490089999512,571.0490050998051,571.0323451999575,572.0323540999088,None,1,,570.0490089999512,None,1,M,8,R,CIB,2021_May_25_1403,WASABI Nback,2020.2.10,60.00686478171714,
0,1,5,"[0, 0]",None,0,1,1,1,,,,,0,0,0,0,0,25,25,25,,,,,,,,,,,572.0490103999618,None,572.0490103999618,573.0490296999924,573.0323621998541,574.0323792998679,None,1,,572.0490103999618,None,1,M,8,R,CIB,2021_May_25_1403,WASABI Nback,2020.2.10,60.00686478171714,
0,1,2,"[0, 0.2]",None,0,1,1,1,,,,,0,0,0,0,0,26,26,26,,,,,,,,,,,574.04902759986,None,574.04902759986,575.0490454998799,575.0323838999029,576.032384699909,None,1,,574.04902759986,None,1,M,8,R,CIB,2021_May_25_1403,WASABI Nback,2020.2.10,60.00686478171714,
0,1,6,"[0.2, 0]",None,0,1,1,1,,,,,0,0,0,0,0,27,27,27,,,,,,,,,,,576.0490635999013,None,576.0490635999013,577.0490480998997,577.0323923998512,578.0324166999198,None,1,,576.0490635999013,None,1,M,8,R,CIB,2021_May_25_1403,WASABI Nback,2020.2.10,60.00686478171714,
0,1,7,"[-0.2, -0.2]",None,0,1,1,1,,,,,0,0,0,0,0,28,28,28,,,,,,,,,,,578.0490742998663,None,578.0490742998663,579.0490594999865,579.0323933998588,580.0324237998575,None,1,,578.0490742998663,None,1,M,8,R,CIB,2021_May_25_1403,WASABI Nback,2020.2.10,60.00686478171714,
0,1,6,"[0.2, 0]",1,0,1,1,1,,,,,0,0,0,0,0,29,29,29,,,,,,,,,,,580.0490786998998,None,580.0490786998998,581.049079899909,581.0324652998243,582.0324379999656,None,0,,580.0490786998998,None,1,M,8,R,CIB,2021_May_25_1403,WASABI Nback,2020.2.10,60.00686478171714,
0,1,6,"[0.2, 0]",None,0,1,1,1,,,,,0,0,0,0,0,30,30,30,,,,,,,,,,,582.0490977999289,None,582.0490977999289,583.0491136999335,583.0324585998897,584.0324662998319,None,1,,582.0490977999289,None,1,M,8,R,CIB,2021_May_25_1403,WASABI Nback,2020.2.10,60.00686478171714,
0,1,7,"[-0.2, -0.2]",None,0,1,1,1,,,,,0,0,0,0,0,31,31,31,,,,,,,,,,,584.0491225000005,None,584.0491225000005,585.0491243998986,585.0324646998197,586.0325004998595,None,1,,584.0491225000005,None,1,M,8,R,CIB,2021_May_25_1403,WASABI Nback,2020.2.10,60.00686478171714,
0,1,6,"[0.2, 0]",1,0,1,1,1,,,,,0,0,0,0,0,32,32,32,,,,,,,,,,,586.049134099856,None,586.049134099856,587.0491388998926,587.0324631999247,588.0324882999994,None,0,,586.049134099856,None,1,M,8,R,CIB,2021_May_25_1403,WASABI Nback,2020.2.10,60.00686478171714,
0,1,2,"[0, 0.2]",None,0,1,1,1,,,,,0,0,0,0,0,33,33,33,,,,,,,,,,,588.0491444999352,None,588.0491444999352,589.0491493998561,589.0325040000025,590.0325154999737,None,1,,588.0491444999352,None,1,M,8,R,CIB,2021_May_25_1403,WASABI Nback,2020.2.10,60.00686478171714,
0,1,5,"[0, 0]",None,0,1,1,1,,,,,0,0,0,0,0,34,34,34,,,,,,,,,,,590.049166899873,None,590.049166899873,591.0491807998624,591.0325115998276,592.0325376999099,None,1,,590.049166899873,None,1,M,8,R,CIB,2021_May_25_1403,WASABI Nback,2020.2.10,60.00686478171714,
0,1,4,"[-0.2, 0]",None,0,1,1,1,,,,,0,0,0,0,0,35,35,35,,,,,,,,,,,592.049182199873,None,592.049182199873,593.0491889999248,593.0325471998658,594.0324358998332,None,1,,592.049182199873,None,1,M,8,R,CIB,2021_May_25_1403,WASABI Nback,2020.2.10,60.00686478171714,
0,1,4,"[-0.2, 0]",None,0,1,1,1,,,,,0,0,0,0,0,36,36,36,,,,,,,,,,,594.0492064999416,None,594.0492064999416,595.0492098999675,595.0325738999527,596.0325433998369,None,1,,594.0492064999416,None,1,M,8,R,CIB,2021_May_25_1403,WASABI Nback,2020.2.10,60.00686478171714,
0,1,7,"[-0.2, -0.2]",None,0,1,1,1,,,,,0,0,0,0,0,37,37,37,,,,,,,,,,,596.0492120999843,None,596.0492120999843,597.0492231999524,597.0325748999603,598.0325111998245,None,1,,596.0492120999843,None,1,M,8,R,CIB,2021_May_25_1403,WASABI Nback,2020.2.10,60.00686478171714,
0,1,4,"[-0.2, 0]",1,0,1,1,1,,,,,0,0,0,0,0,38,38,38,,,,,,,,,,,598.0492341998033,None,598.0492341998033,599.0492486997973,599.0325855999254,600.0325917999726,None,0,,598.0492341998033,None,1,M,8,R,CIB,2021_May_25_1403,WASABI Nback,2020.2.10,60.00686478171714,
0,1,3,"[0.2, 0.2]",None,0,1,1,1,,,,,0,0,0,0,0,39,39,39,,,,,,,,,,,600.0492495999206,None,600.0492495999206,601.0492576998658,601.0325929999817,602.0326121000107,None,1,,600.0492495999206,None,1,M,8,R,CIB,2021_May_25_1403,WASABI Nback,2020.2.10,60.00686478171714,
0,1,5,"[0, 0]",None,0,1,1,1,,,,,0,0,0,0,0,40,40,40,,,,,,,,,,,602.0492647998035,None,602.0492647998035,603.0492757000029,603.0325958998874,604.0326002999209,None,1,,602.0492647998035,None,1,M,8,R,CIB,2021_May_25_1403,WASABI Nback,2020.2.10,60.00686478171714,
0,1,3,"[0.2, 0.2]",1,0,1,1,1,,,,,0,0,0,0,0,41,41,41,,,,,,,,,,,604.0492736999877,None,604.0492736999877,605.0492928000167,605.0326369998511,606.0326387998648,None,0,,604.0492736999877,None,1,M,8,R,CIB,2021_May_25_1403,WASABI Nback,2020.2.10,60.00686478171714,
0,1,1,"[-0.2, 0.2]",None,0,1,1,1,,,,,0,0,0,0,0,42,42,42,,,,,,,,,,,606.0492987998296,None,606.0492987998296,607.0492971998174,607.0326578000095,608.0326483999379,None,1,,606.0492987998296,None,1,M,8,R,CIB,2021_May_25_1403,WASABI Nback,2020.2.10,60.00686478171714,
0,1,9,"[0.2, -0.2]",None,0,1,1,1,,,,,0,0,0,0,0,43,43,43,,,,,,,,,,,608.0493258999195,None,608.0493258999195,609.0493201999925,609.0326715998817,610.0326684999745,None,1,,608.0493258999195,None,1,M,8,R,CIB,2021_May_25_1403,WASABI Nback,2020.2.10,60.00686478171714,
0,1,9,"[0.2, -0.2]",None,0,1,1,1,,,,,0,0,0,0,0,44,44,44,,,,,,,,,,,610.0493393000215,None,610.0493393000215,611.049346299842,611.0326805999503,612.0326820998453,None,1,,610.0493393000215,None,1,M,8,R,CIB,2021_May_25_1403,WASABI Nback,2020.2.10,60.00686478171714,
0,1,8,"[0, -0.2]",None,0,1,1,1,,,,,0,0,0,0,0,45,45,45,,,,,,,,,,,612.0493528998923,None,612.0493528998923,613.0493491999805,613.0327110998333,614.0326884000096,None,1,,612.0493528998923,None,1,M,8,R,CIB,2021_May_25_1403,WASABI Nback,2020.2.10,60.00686478171714,
0,1,6,"[0.2, 0]",None,0,1,1,1,,,,,0,0,0,0,0,46,46,46,,,,,,,,,,,614.0493496998679,None,614.0493496998679,615.0493725999258,615.0327152998652,616.0327347998973,None,1,,614.0493496998679,None,1,M,8,R,CIB,2021_May_25_1403,WASABI Nback,2020.2.10,60.00686478171714,
0,1,3,"[0.2, 0.2]",None,0,1,1,1,,,,,0,0,0,0,0,47,47,47,,,,,,,,,,,616.0492716999725,None,616.0492716999725,617.049384099897,617.0327359000221,618.0327343000099,None,1,,616.0492716999725,None,1,M,8,R,CIB,2021_May_25_1403,WASABI Nback,2020.2.10,60.00686478171714,
0,1,6,"[0.2, 0]",1,0,1,1,1,,,,,0,0,0,0,0,48,48,48,,,,,,,,,,,618.0494140998926,None,618.0494140998926,619.0494136998896,619.032759899972,620.0327551998198,None,0,,618.0494140998926,None,1,M,8,R,CIB,2021_May_25_1403,WASABI Nback,2020.2.10,60.00686478171714,
0,1,5,"[0, 0]",None,0,1,1,1,,,,,0,0,0,0,0,49,49,49,,,,,,,,,,,620.0494165997952,None,620.0494165997952,621.0494338998105,621.0327740998473,622.0327500998974,None,1,,620.0494165997952,None,1,M,8,R,CIB,2021_May_25_1403,WASABI Nback,2020.2.10,60.00686478171714,
0,1,7,"[-0.2, -0.2]",None,0,1,1,1,,,,,0,0,0,0,0,50,50,50,,,,,,,,,,,622.0494094998576,None,622.0494094998576,623.0494768000208,623.0327827997971,624.0327878999524,None,1,,622.0494094998576,None,1,M,8,R,CIB,2021_May_25_1403,WASABI Nback,2020.2.10,60.00686478171714,
0,1,5,"[0, 0]",1,0,1,1,1,,,,,0,0,0,0,0,51,51,51,,,,,,,,,,,624.049465799937,None,624.049465799937,625.0494560999796,625.0328087999951,626.0328184999526,None,0,,624.049465799937,None,1,M,8,R,CIB,2021_May_25_1403,WASABI Nback,2020.2.10,60.00686478171714,
0,1,1,"[-0.2, 0.2]",None,0,1,1,1,,,,,0,0,0,0,0,52,52,52,,,,,,,,,,,626.049465399934,None,626.049465399934,627.0494860999752,627.032819799846,628.0328241998795,None,1,,626.049465399934,None,1,M,8,R,CIB,2021_May_25_1403,WASABI Nback,2020.2.10,60.00686478171714,
0,1,7,"[-0.2, -0.2]",None,0,1,1,1,,,,,0,0,0,0,0,53,53,53,,,,,,,,,,,628.0494883998763,None,628.0494883998763,629.0494917999022,629.032852599863,630.0328204999678,None,1,,628.0494883998763,None,1,M,8,R,CIB,2021_May_25_1403,WASABI Nback,2020.2.10,60.00686478171714,
0,1,9,"[0.2, -0.2]",None,0,1,1,1,,,,,0,0,0,0,0,54,54,54,,,,,,,,,,,630.049521900015,None,630.049521900015,631.0495058000088,631.0328571000136,632.0328330998309,None,1,,630.049521900015,None,1,M,8,R,CIB,2021_May_25_1403,WASABI Nback,2020.2.10,60.00686478171714,
0,1,3,"[0.2, 0.2]",None,0,1,1,1,,,,,0,0,0,0,0,55,55,55,,,,,,,,,,,632.0495190999936,None,632.0495190999936,633.04953259998,633.0328603999224,634.0328779998235,None,1,,632.0495190999936,None,1,M,8,R,CIB,2021_May_25_1403,WASABI Nback,2020.2.10,60.00686478171714,
0,1,9,"[0.2, -0.2]",1,0,1,1,1,,,,,0,0,0,0,0,56,56,56,,,,,,,,,,,634.049513899954,None,634.049513899954,635.0495445998386,635.0328895999119,636.0328795998357,None,0,,634.049513899954,None,1,M,8,R,CIB,2021_May_25_1403,WASABI Nback,2020.2.10,60.00686478171714,
0,1,6,"[0.2, 0]",None,0,1,1,1,,,,,0,0,0,0,0,57,57,57,,,,,,,,,,,636.0495579999406,None,636.0495579999406,637.0495593999512,637.0329078999348,638.0329114999622,None,1,,636.0495579999406,None,1,M,8,R,CIB,2021_May_25_1403,WASABI Nback,2020.2.10,60.00686478171714,
0,1,2,"[0, 0.2]",None,0,1,1,1,,,,,0,0,0,0,0,58,58,58,,,,,,,,,,,638.0495740999468,None,638.0495740999468,639.0495751998387,639.0329126999713,640.0329320998862,None,1,,638.0495740999468,None,1,M,8,R,CIB,2021_May_25_1403,WASABI Nback,2020.2.10,60.00686478171714,
0,1,5,"[0, 0]",None,0,1,1,1,,,,,0,0,0,0,0,59,59,59,,,,,,,,,,,640.049581799889,None,640.049581799889,641.0495861999225,641.0328116000164,642.0329656000249,None,1,,640.049581799889,None,1,M,8,R,CIB,2021_May_25_1403,WASABI Nback,2020.2.10,60.00686478171714,
0,1,5,"[0, 0]",None,0,1,1,1,,,,,0,0,0,0,0,60,60,60,,,,,,,,,,,642.0496007998008,None,642.0496007998008,643.0496114999987,643.0329671998043,644.032967899926,None,1,,642.0496007998008,None,1,M,8,R,CIB,2021_May_25_1403,WASABI Nback,2020.2.10,60.00686478171714,
0,1,2,"[0, 0.2]",None,0,1,1,1,,,,,0,0,0,0,0,61,61,61,,,,,,,,,,,644.0496165999211,None,644.0496165999211,645.0496270998847,645.0329654999077,646.0329863999505,None,1,,644.0496165999211,None,1,M,8,R,CIB,2021_May_25_1403,WASABI Nback,2020.2.10,60.00686478171714,
0,1,6,"[0.2, 0]",None,0,1,1,1,,,,,0,0,0,0,0,62,62,62,,,,,,,,,,,646.0496236998588,None,646.0496236998588,647.0496492998209,647.0330177999567,648.0329852998257,None,1,,646.0496236998588,None,1,M,8,R,CIB,2021_May_25_1403,WASABI Nback,2020.2.10,60.00686478171714,
0,1,9,"[0.2, -0.2]",None,0,1,1,1,,,,,0,0,0,0,0,63,63,63,,,,,,,,,,,648.0496403998695,None,648.0496403998695,649.0496374999639,649.0330165999476,650.033010999905,None,1,,648.0496403998695,None,1,M,8,R,CIB,2021_May_25_1403,WASABI Nback,2020.2.10,60.00686478171714,
0,1,3,"[0.2, 0.2]",None,0,1,1,1,,,,,0,0,0,0,0,64,64,64,,,,,,,,,,,650.0496808998287,None,650.0496808998287,651.0496815999504,651.0330123999156,652.0330326999538,None,1,,650.0496808998287,None,1,M,8,R,CIB,2021_May_25_1403,WASABI Nback,2020.2.10,60.00686478171714,
0,1,9,"[0.2, -0.2]",1,0,1,1,1,,,,,0,0,0,0,0,65,65,65,,,,,,,,,,,652.049692499917,None,652.049692499917,653.049701699987,653.0330413999036,654.0330366999842,None,0,,652.049692499917,None,1,M,8,R,CIB,2021_May_25_1403,WASABI Nback,2020.2.10,60.00686478171714,
0,1,7,"[-0.2, -0.2]",None,0,1,1,1,,,,,0,0,0,0,0,66,66,66,,,,,,,,,,,654.0497082998045,None,654.0497082998045,655.0497031998821,655.0330940999556,656.0330334999599,None,1,,654.0497082998045,None,1,M,8,R,CIB,2021_May_25_1403,WASABI Nback,2020.2.10,60.00686478171714,
0,1,1,"[-0.2, 0.2]",None,0,1,1,1,,,,,0,0,0,0,0,67,67,67,,,,,,,,,,,656.0497198998928,None,656.0497198998928,657.0497266999446,657.0330858000088,658.0330967998598,None,1,,656.0497198998928,None,1,M,8,R,CIB,2021_May_25_1403,WASABI Nback,2020.2.10,60.00686478171714,
0,1,5,"[0, 0]",None,0,1,1,1,,,,,0,0,0,0,0,68,68,68,,,,,,,,,,,658.0497388998047,None,658.0497388998047,659.0497455999721,659.0330942999572,660.0330957998522,None,1,,658.0497388998047,None,1,M,8,R,CIB,2021_May_25_1403,WASABI Nback,2020.2.10,60.00686478171714,
0,1,7,"[-0.2, -0.2]",None,0,1,1,1,,,,,0,0,0,0,0,69,69,69,,,,,,,,,,,660.0497711999342,None,660.0497711999342,661.0497536999173,661.0331484000199,662.0330915998202,None,1,,660.0497711999342,None,1,M,8,R,CIB,2021_May_25_1403,WASABI Nback,2020.2.10,60.00686478171714,
0,1,5,"[0, 0]",1,0,1,1,1,,,,,0,0,0,0,0,70,70,70,,,,,,,,,,,662.0497804000042,None,662.0497804000042,663.0497828000225,663.033118999796,664.0331389999483,None,0,,662.0497804000042,None,1,M,8,R,CIB,2021_May_25_1403,WASABI Nback,2020.2.10,60.00686478171714,
0,1,6,"[0.2, 0]",None,0,1,1,1,,,,,0,0,0,0,0,71,71,71,,,,,,,,,,,664.0497931998689,None,664.0497931998689,665.0497934999876,665.0331331999041,666.0331430998631,None,1,,664.0497931998689,None,1,M,8,R,CIB,2021_May_25_1403,WASABI Nback,2020.2.10,60.00686478171714,
0,1,3,"[0.2, 0.2]",None,0,1,1,1,,,,,0,0,0,0,0,72,72,72,,,,,,,,,,,666.0498038998339,None,666.0498038998339,667.0498205998447,667.0331596999895,668.0331664998084,None,1,,666.0498038998339,None,1,M,8,R,CIB,2021_May_25_1403,WASABI Nback,2020.2.10,60.00686478171714,
0,1,6,"[0.2, 0]",1,0,1,1,1,,,,,0,0,0,0,0,73,73,73,,,,,,,,,,,668.0498139997944,None,668.0498139997944,669.0498144999146,669.0331692998298,670.0331837998237,None,0,,668.0498139997944,None,1,M,8,R,CIB,2021_May_25_1403,WASABI Nback,2020.2.10,60.00686478171714,
0,1,8,"[0, -0.2]",None,0,1,1,1,,,,,0,0,0,0,0,74,74,74,,,,,,,,,,,670.0498691999819,None,670.0498691999819,671.0498467998113,671.0331704998389,672.0331937998999,None,1,,670.0498691999819,None,1,M,8,R,CIB,2021_May_25_1403,WASABI Nback,2020.2.10,60.00686478171714,
0,1,9,"[0.2, -0.2]",None,0,1,1,1,,,,,0,0,0,0,0,75,75,75,,,,,,,,,,,672.0498581000138,None,672.0498581000138,673.049865799956,673.0332137998194,674.033210599795,None,1,,672.0498581000138,None,1,M,8,R,CIB,2021_May_25_1403,WASABI Nback,2020.2.10,60.00686478171714,
0,1,9,"[0.2, -0.2]",None,0,1,1,1,,,,,0,0,0,0,0,76,76,76,,,,,,,,,,,674.0498680998571,None,674.0498680998571,675.0498949999455,675.0332195998635,676.0332357999869,None,1,,674.0498680998571,None,1,M,8,R,CIB,2021_May_25_1403,WASABI Nback,2020.2.10,60.00686478171714,
0,1,1,"[-0.2, 0.2]",None,0,1,1,1,,,,,0,0,0,0,0,77,77,77,,,,,,,,,,,676.049892099807,None,676.049892099807,677.0498966998421,677.0332436999306,678.0332467998378,None,1,,676.049892099807,None,1,M,8,R,CIB,2021_May_25_1403,WASABI Nback,2020.2.10,60.00686478171714,
0,1,3,"[0.2, 0.2]",None,0,1,1,1,,,,,0,0,0,0,0,78,78,78,,,,,,,,,,,678.0499285999686,None,678.0499285999686,679.049914599862,679.0332469998393,680.0332714999095,None,1,,678.0499285999686,None,1,M,8,R,CIB,2021_May_25_1403,WASABI Nback,2020.2.10,60.00686478171714,
0,1,5,"[0, 0]",None,0,1,1,1,,,,,0,0,0,0,0,79,79,79,,,,,,,,,,,680.0499276998453,None,680.0499276998453,681.0499289999716,681.0332676998805,682.0332740999293,None,1,,680.0499276998453,None,1,M,8,R,CIB,2021_May_25_1403,WASABI Nback,2020.2.10,60.00686478171714,
0,1,3,"[0.2, 0.2]",1,0,1,1,1,,,,,0,0,0,0,0,80,80,80,,,,,,,,,,,682.0499405998271,None,682.0499405998271,683.0499536998104,683.0332873999141,684.0332934998441,None,0,,682.0499405998271,None,1,M,8,R,CIB,2021_May_25_1403,WASABI Nback,2020.2.10,60.00686478171714,
0,1,4,"[-0.2, 0]",None,0,1,1,1,,,,,0,0,0,0,0,81,81,81,,,,,,,,,,,684.0499638000038,None,684.0499638000038,685.0500558998901,685.0333104999736,686.033302599797,None,1,,684.0499638000038,None,1,M,8,R,CIB,2021_May_25_1403,WASABI Nback,2020.2.10,60.00686478171714,
0,1,7,"[-0.2, -0.2]",None,0,1,1,1,,,,,0,0,0,0,0,82,82,82,,,,,,,,,,,686.0499684999231,None,686.0499684999231,687.0499801000115,687.033321299823,688.033334699925,None,1,,686.0499684999231,None,1,M,8,R,CIB,2021_May_25_1403,WASABI Nback,2020.2.10,60.00686478171714,
0,1,4,"[-0.2, 0]",1,0,1,1,1,,,,,0,0,0,0,0,83,83,83,,,,,,,,,,,688.0499831999186,None,688.0499831999186,689.0499644000083,689.033347700024,690.0333453998901,None,0,,688.0499831999186,None,1,M,8,R,CIB,2021_May_25_1403,WASABI Nback,2020.2.10,60.00686478171714,
0,1,4,"[-0.2, 0]",None,0,1,1,1,,,,,0,0,0,0,0,84,84,84,,,,,,,,,,,690.0500133999158,None,690.0500133999158,691.0500496998429,691.0333486997988,692.0333679998294,None,1,,690.0500133999158,None,1,M,8,R,CIB,2021_May_25_1403,WASABI Nback,2020.2.10,60.00686478171714,
0,1,5,"[0, 0]",None,0,1,1,1,,,,,0,0,0,0,0,85,85,85,,,,,,,,,,,692.0500323998276,None,692.0500323998276,693.0500479999464,693.0333628999069,694.0333967998158,None,1,,692.0500323998276,None,1,M,8,R,CIB,2021_May_25_1403,WASABI Nback,2020.2.10,60.00686478171714,
0,1,2,"[0, 0.2]",None,0,1,1,1,,,,,0,0,0,0,0,86,86,86,,,,,,,,,,,694.0499566998333,None,694.0499566998333,695.0500558000058,695.0334096997976,696.0333984999452,None,1,,694.0499566998333,None,1,M,8,R,CIB,2021_May_25_1403,WASABI Nback,2020.2.10,60.00686478171714,
0,1,6,"[0.2, 0]",None,0,1,1,1,,,,,0,0,0,0,0,87,87,87,,,,,,,,,,,696.0500693998765,None,696.0500693998765,697.0500662999693,697.0333879999816,698.0334260999225,None,1,,696.0500693998765,None,1,M,8,R,CIB,2021_May_25_1403,WASABI Nback,2020.2.10,60.00686478171714,
0,1,7,"[-0.2, -0.2]",None,0,1,1,1,,,,,0,0,0,0,0,88,88,88,,,,,,,,,,,698.050083699869,None,698.050083699869,699.0501006999984,699.033417099854,700.0334191999864,None,1,,698.050083699869,None,1,M,8,R,CIB,2021_May_25_1403,WASABI Nback,2020.2.10,60.00686478171714,
0,1,6,"[0.2, 0]",1,0,1,1,1,,,,,0,0,0,0,0,89,89,89,,,,,,,,,,,700.0500952999573,None,700.0500952999573,701.0501294999849,701.0334417999256,702.0334824998863,None,0,,700.0500952999573,None,1,M,8,R,CIB,2021_May_25_1403,WASABI Nback,2020.2.10,60.00686478171714,
0,1,6,"[0.2, 0]",None,0,1,1,1,,,,,0,0,0,0,0,90,90,90,,,,,,,,,,,702.0499972999096,None,702.0499972999096,703.0501300999895,703.0334536998998,704.0334631998558,None,1,,702.0499972999096,None,1,M,8,R,CIB,2021_May_25_1403,WASABI Nback,2020.2.10,60.00686478171714,
0,1,7,"[-0.2, -0.2]",None,0,1,1,1,,,,,0,0,0,0,0,91,91,91,,,,,,,,,,,704.0501247998327,None,704.0501247998327,705.0501245998312,705.0334802998696,706.033489599824,None,1,,704.0501247998327,None,1,M,8,R,CIB,2021_May_25_1403,WASABI Nback,2020.2.10,60.00686478171714,
0,1,6,"[0.2, 0]",1,0,1,1,1,,,,,0,0,0,0,0,92,92,92,,,,,,,,,,,706.0501413999591,None,706.0501413999591,707.0500959998462,707.0334832998924,708.0334995999001,None,0,,706.0501413999591,None,1,M,8,R,CIB,2021_May_25_1403,WASABI Nback,2020.2.10,60.00686478171714,
0,1,2,"[0, 0.2]",None,0,1,1,1,,,,,0,0,0,0,0,93,93,93,,,,,,,,,,,708.050156599842,None,708.050156599842,709.0501761999913,709.0335119999945,710.0335123999976,None,1,,708.050156599842,None,1,M,8,R,CIB,2021_May_25_1403,WASABI Nback,2020.2.10,60.00686478171714,
0,1,5,"[0, 0]",None,0,1,1,1,,,,,0,0,0,0,0,94,94,94,,,,,,,,,,,710.0501786998939,None,710.0501786998939,711.0501754998695,711.0335242999718,712.0335238999687,None,1,,710.0501786998939,None,1,M,8,R,CIB,2021_May_25_1403,WASABI Nback,2020.2.10,60.00686478171714,
0,1,4,"[-0.2, 0]",None,0,1,1,1,,,,,0,0,0,0,0,95,95,95,,,,,,,,,,,712.0501906999853,None,712.0501906999853,713.0502019999549,713.0335442000069,714.0335289000068,None,1,,712.0501906999853,None,1,M,8,R,CIB,2021_May_25_1403,WASABI Nback,2020.2.10,60.00686478171714,
0,1,4,"[-0.2, 0]",None,0,1,1,1,,,,,0,0,0,0,0,96,96,96,,,,,,,,,,,714.0502104000188,None,714.0502104000188,715.0502137998119,715.0335660998244,716.033569799969,None,1,,714.0502104000188,None,1,M,8,R,CIB,2021_May_25_1403,WASABI Nback,2020.2.10,60.00686478171714,
0,1,7,"[-0.2, -0.2]",None,0,1,1,1,,,,,0,0,0,0,0,97,97,97,,,,,,,,,,,716.0502324998379,None,716.0502324998379,717.050247799838,717.0335488999262,718.033580499934,None,1,,716.0502324998379,None,1,M,8,R,CIB,2021_May_25_1403,WASABI Nback,2020.2.10,60.00686478171714,
0,1,4,"[-0.2, 0]",1,0,1,1,1,,,,,0,0,0,0,0,98,98,98,,,,,,,,,,,718.0502524999902,None,718.0502524999902,719.0502492999658,719.0335856999736,720.0334733999334,None,0,,718.0502524999902,None,1,M,8,R,CIB,2021_May_25_1403,WASABI Nback,2020.2.10,60.00686478171714,
0,1,3,"[0.2, 0.2]",None,0,1,1,1,,,,,0,0,0,0,0,99,99,99,,,,,,,,,,,720.0502618998289,None,720.0502618998289,721.0502572997939,721.0336129998323,722.0336603999604,None,1,,720.0502618998289,None,1,M,8,R,CIB,2021_May_25_1403,WASABI Nback,2020.2.10,60.00686478171714,
0,1,5,"[0, 0]",None,0,1,1,1,,,,,0,0,0,0,0,100,100,100,,,,,,,,,,,722.0502383999992,None,722.0502383999992,723.0502926998306,723.0336196999997,724.0336448999587,None,1,,722.0502383999992,None,1,M,8,R,CIB,2021_May_25_1403,WASABI Nback,2020.2.10,60.00686478171714,
0,1,3,"[0.2, 0.2]",1,0,1,1,1,,,,,0,0,0,0,0,101,101,101,,,,,,,,,,,724.0502987999935,None,724.0502987999935,725.0503095998429,725.033637400018,726.0336490999907,None,0,,724.0502987999935,None,1,M,8,R,CIB,2021_May_25_1403,WASABI Nback,2020.2.10,60.00686478171714,
0,1,1,"[-0.2, 0.2]",None,0,1,1,1,,,,,0,0,0,0,0,102,102,102,,,,,,,,,,,726.0503094999585,None,726.0503094999585,727.0503257999662,727.033654099796,728.0336771998554,None,1,,726.0503094999585,None,1,M,8,R,CIB,2021_May_25_1403,WASABI Nback,2020.2.10,60.00686478171714,
0,1,9,"[0.2, -0.2]",None,0,1,1,1,,,,,0,0,0,0,0,103,103,103,,,,,,,,,,,728.0503226998262,None,728.0503226998262,729.0503441998735,729.0336744999513,730.0336781998631,None,1,,728.0503226998262,None,1,M,8,R,CIB,2021_May_25_1403,WASABI Nback,2020.2.10,60.00686478171714,
0,1,9,"[0.2, -0.2]",None,0,1,1,1,,,,,0,0,0,0,0,104,104,104,,,,,,,,,,,730.0503553999588,None,730.0503553999588,731.0503510998096,731.0336913999636,732.0336085997988,None,1,,730.0503553999588,None,1,M,8,R,CIB,2021_May_25_1403,WASABI Nback,2020.2.10,60.00686478171714,
0,1,8,"[0, -0.2]",None,0,1,1,1,,,,,0,0,0,0,0,105,105,105,,,,,,,,,,,732.0503713998478,None,732.0503713998478,733.0503743998706,733.0337016999256,734.0337177999318,None,1,,732.0503713998478,None,1,M,8,R,CIB,2021_May_25_1403,WASABI Nback,2020.2.10,60.00686478171714,
0,1,6,"[0.2, 0]",None,0,1,1,1,,,,,0,0,0,0,0,106,106,106,,,,,,,,,,,734.0503767998889,None,734.0503767998889,735.0503868998494,735.0337262998801,736.0337500998285,None,1,,734.0503767998889,None,1,M,8,R,CIB,2021_May_25_1403,WASABI Nback,2020.2.10,60.00686478171714,
0,1,3,"[0.2, 0.2]",None,0,1,1,1,,,,,0,0,0,0,0,107,107,107,,,,,,,,,,,736.0503942999057,None,736.0503942999057,737.0504015998449,737.033754899865,738.033730099909,None,1,,736.0503942999057,None,1,M,8,R,CIB,2021_May_25_1403,WASABI Nback,2020.2.10,60.00686478171714,
0,1,6,"[0.2, 0]",1,0,1,1,1,,,,,0,0,0,0,0,108,108,108,,,,,,,,,,,738.0504113999195,None,738.0504113999195,739.0504244999029,739.0337745998986,740.0337578998879,None,0,,738.0504113999195,None,1,M,8,R,CIB,2021_May_25_1403,WASABI Nback,2020.2.10,60.00686478171714,
0,1,5,"[0, 0]",None,0,1,1,1,,,,,0,0,0,0,0,109,109,109,,,,,,,,,,,740.0504204998724,None,740.0504204998724,741.05048789992,741.0337733998895,742.0337824998423,None,1,,740.0504204998724,None,1,M,8,R,CIB,2021_May_25_1403,WASABI Nback,2020.2.10,60.00686478171714,
0,1,7,"[-0.2, -0.2]",None,0,1,1,1,,,,,0,0,0,0,0,110,110,110,,,,,,,,,,,742.0504424998071,None,742.0504424998071,743.0504526998848,743.0338012999855,744.0338504998945,None,1,,742.0504424998071,None,1,M,8,R,CIB,2021_May_25_1403,WASABI Nback,2020.2.10,60.00686478171714,
0,1,5,"[0, 0]",1,0,1,1,1,,,,,0,0,0,0,0,111,111,111,,,,,,,,,,,744.0503566998523,None,744.0503566998523,745.0504717999138,745.0338037000038,746.0338148998562,None,0,,744.0503566998523,None,1,M,8,R,CIB,2021_May_25_1403,WASABI Nback,2020.2.10,60.00686478171714,
0,1,1,"[-0.2, 0.2]",None,0,1,1,1,,,,,0,0,0,0,0,112,112,112,,,,,,,,,,,746.0504948999733,None,746.0504948999733,747.0504963998683,747.033826999832,748.033834700007,None,1,,746.0504948999733,None,1,M,8,R,CIB,2021_May_25_1403,WASABI Nback,2020.2.10,60.00686478171714,
0,1,7,"[-0.2, -0.2]",None,0,1,1,1,,,,,0,0,0,0,0,113,113,113,,,,,,,,,,,748.05049709999,None,748.05049709999,749.0505848999601,749.0338538999204,750.0338316999841,None,1,,748.05049709999,None,1,M,8,R,CIB,2021_May_25_1403,WASABI Nback,2020.2.10,60.00686478171714,
0,1,9,"[0.2, -0.2]",None,0,1,1,1,,,,,0,0,0,0,0,114,114,114,,,,,,,,,,,750.0505536999553,None,750.0505536999553,751.0505284999963,751.0338596999645,752.0338455999736,None,1,,750.0505536999553,None,1,M,8,R,CIB,2021_May_25_1403,WASABI Nback,2020.2.10,60.00686478171714,
0,1,3,"[0.2, 0.2]",None,0,1,1,1,,,,,0,0,0,0,0,115,115,115,,,,,,,,,,,752.0505361999385,None,752.0505361999385,753.0505562999751,753.0338946999982,754.0339026998263,None,1,,752.0505361999385,None,1,M,8,R,CIB,2021_May_25_1403,WASABI Nback,2020.2.10,60.00686478171714,
0,1,9,"[0.2, -0.2]",1,0,1,1,1,,,,,0,0,0,0,0,116,116,116,,,,,,,,,,,754.0505482999142,None,754.0505482999142,755.0505681999493,755.0339061999694,756.0339021999389,None,0,,754.0505482999142,None,1,M,8,R,CIB,2021_May_25_1403,WASABI Nback,2020.2.10,60.00686478171714,
0,1,6,"[0.2, 0]",None,0,1,1,1,,,,,0,0,0,0,0,117,117,117,,,,,,,,,,,756.0505758000072,None,756.0505758000072,757.0505724998657,757.0339056998491,758.0339233998675,None,1,,756.0505758000072,None,1,M,8,R,CIB,2021_May_25_1403,WASABI Nback,2020.2.10,60.00686478171714,
0,1,2,"[0, 0.2]",None,0,1,1,1,,,,,0,0,0,0,0,118,118,118,,,,,,,,,,,758.0506209998857,None,758.0506209998857,759.0505959999282,759.0339139997959,760.0339472999331,None,1,,758.0506209998857,None,1,M,8,R,CIB,2021_May_25_1403,WASABI Nback,2020.2.10,60.00686478171714,
0,1,5,"[0, 0]",None,0,1,1,1,,,,,0,0,0,0,0,119,119,119,,,,,,,,,,,760.0506120999344,None,760.0506120999344,761.0506129998248,761.0339573000092,762.0339633999392,None,1,,760.0506120999344,None,1,M,8,R,CIB,2021_May_25_1403,WASABI Nback,2020.2.10,60.00686478171714,
