square,location,corrAns,TaskT1Loop.thisRepN,TaskT1Loop.thisTrialN,TaskT1Loop.thisN,TaskT1Loop.thisIndex,trials_2.thisRepN,trials_2.thisTrialN,trials_2.thisN,trials_2.thisIndex,NbackInstructions.started,NbackInstructions.stopped,NbackStart.keys,NbackStart.rt,NbackStart.started,NbackStart.stopped,fixation_2.started,fixation_2.stopped,response_2.x,response_2.y,response_2.leftButton,response_2.rt,grid_lines_2.started,grid_lines_2.stopped,target_square_2.started,target_square_2.stopped,fixation_3.started,fixation_3.stopped,response_2.click,response_2.corr,response_2.started,response_2.stopped,subject number,gender,session,handedness,scanner,date,expName,psychopyVersion,frameRate,
,,,0,0,0,0,,,,,10.971174300007988,None,space,3.080779700016137,10.971174300007988,None,,,,,,,,,,,,,,,,,99,m,99,r,MS,2021_Jun_03_1100,WASABI Nback,2020.2.10,59.552557812571486,
5,"[0, 0]",None,0,0,0,0,0,0,0,0,,,,,,,None,None,None,None,[],[],None,None,None,None,None,None,[],[],None,None,99,m,99,r,MS,2021_Jun_03_1100,WASABI Nback,2020.2.10,59.552557812571486,
2,"[0, 0.2]",None,0,0,0,0,0,1,1,1,,,,,,,,,None,None,0,0.0,18.393948999990243,None,18.393948999990243,None,None,None,None,1,18.393948999990243,None,99,m,99,r,MS,2021_Jun_03_1100,WASABI Nback,2020.2.10,59.552557812571486,
6,"[0.2, 0]",None,0,0,0,0,0,2,2,2,,,,,,,,,None,None,0,0.0,19.089943400002085,None,19.089943400002085,20.091977100004442,20.07438390000607,21.077642099990044,None,1,19.089943400002085,None,99,m,99,r,MS,2021_Jun_03_1100,WASABI Nback,2020.2.10,59.552557812571486,
9,"[0.2, -0.2]",None,0,0,0,0,0,3,3,3,,,,,,,,,None,None,0,0.0,21.091455799993128,None,21.091455799993128,22.09098290000111,22.074452600005316,23.074780099996133,None,1,21.091455799993128,None,99,m,99,r,MS,2021_Jun_03_1100,WASABI Nback,2020.2.10,59.552557812571486,
3,"[0.2, 0.2]",None,0,0,0,0,0,4,4,4,,,,,,,,,None,None,0,0.0,23.091330499999458,None,23.091330499999458,24.091749399987748,24.075244100007694,25.07563969999319,None,1,23.091330499999458,None,99,m,99,r,MS,2021_Jun_03_1100,WASABI Nback,2020.2.10,59.552557812571486,
9,"[0.2, -0.2]",1,0,0,0,0,0,5,5,5,,,,,,,,,None,None,0,0.0,25.09286040000734,None,25.09286040000734,26.0938182999962,26.07611920000636,None,None,0,25.09286040000734,None,99,m,99,r,MS,2021_Jun_03_1100,WASABI Nback,2020.2.10,59.552557812571486,
7,"[-0.2, -0.2]",None,0,0,0,0,0,6,6,6,,,,,,,,,None,None,0,0.0,27.07676039999933,None,27.07676039999933,28.077062500000466,28.060425999981817,29.06077459998778,None,1,27.07676039999933,None,99,m,99,r,MS,2021_Jun_03_1100,WASABI Nback,2020.2.10,59.552557812571486,
1,"[-0.2, 0.2]",None,0,0,0,0,0,7,7,7,,,,,,,,,None,None,0,1.6852228000061586,29.07746619998943,None,29.07746619998943,30.078029099997366,30.061266100005014,31.061779299983755,None,1,29.07746619998943,None,99,m,99,r,MS,2021_Jun_03_1100,WASABI Nback,2020.2.10,59.552557812571486,
5,"[0, 0]",None,0,0,0,0,0,8,8,8,,,,,,,,,None,None,0,1.6348204999812879,31.078485000005458,None,31.078485000005458,32.07912219999707,32.062325100007,33.06277200000477,None,1,31.078485000005458,None,99,m,99,r,MS,2021_Jun_03_1100,WASABI Nback,2020.2.10,59.552557812571486,
7,"[-0.2, -0.2]",None,0,0,0,0,0,9,9,9,,,,,,,,,None,None,0,1.7525145999970846,33.07950799999526,None,33.07950799999526,34.079976999986684,34.06346309999935,35.0636891000031,None,1,33.07950799999526,None,99,m,99,r,MS,2021_Jun_03_1100,WASABI Nback,2020.2.10,59.552557812571486,
5,"[0, 0]",1,0,0,0,0,0,10,10,10,,,,,,,,,None,None,1,1.9354153999884147,35.08039109999663,None,35.08039109999663,36.08087049997994,36.06410990000586,37.06546349998098,1,1,35.08039109999663,None,99,m,99,r,MS,2021_Jun_03_1100,WASABI Nback,2020.2.10,59.552557812571486,
6,"[0.2, 0]",None,0,0,0,0,0,11,11,11,,,,,,,,,None,None,0,0.0,37.08229739998933,None,37.08229739998933,38.08178849998512,38.06509499999811,39.065569099999266,None,1,37.08229739998933,None,99,m,99,r,MS,2021_Jun_03_1100,WASABI Nback,2020.2.10,59.552557812571486,
3,"[0.2, 0.2]",None,0,0,0,0,0,12,12,12,,,,,,,,,None,None,0,0.13399699999717996,39.082227399980184,None,39.082227399980184,40.083257599995704,40.066656499984674,41.066683999990346,None,1,39.082227399980184,None,99,m,99,r,MS,2021_Jun_03_1100,WASABI Nback,2020.2.10,59.552557812571486,
6,"[0.2, 0]",1,0,0,0,0,0,13,13,13,,,,,,,,,None,None,0,0.2889681999804452,41.08325289998902,None,41.08325289998902,42.083519399981014,42.066883999999845,43.067481300007785,None,0,41.08325289998902,None,99,m,99,r,MS,2021_Jun_03_1100,WASABI Nback,2020.2.10,59.552557812571486,
8,"[0, -0.2]",None,0,0,0,0,0,14,14,14,,,,,,,,,None,None,0,0.23470450000604615,43.08408309999504,None,43.08408309999504,44.08465000000433,44.0678665000014,45.06836020000628,None,1,43.08408309999504,None,99,m,99,r,MS,2021_Jun_03_1100,WASABI Nback,2020.2.10,59.552557812571486,
9,"[0.2, -0.2]",None,0,0,0,0,0,15,15,15,,,,,,,,,None,None,0,0.21941859999787994,45.0851030999911,None,45.0851030999911,46.08553489999031,46.06921359998523,47.069283999997424,None,1,45.0851030999911,None,99,m,99,r,MS,2021_Jun_03_1100,WASABI Nback,2020.2.10,59.552557812571486,
9,"[0.2, -0.2]",None,0,0,0,0,0,16,16,16,,,,,,,,,None,None,0,0.13738080000621267,47.08646029999363,None,47.08646029999363,48.08650519998628,48.06976980000036,49.070209199999226,None,1,47.08646029999363,None,99,m,99,r,MS,2021_Jun_03_1100,WASABI Nback,2020.2.10,59.552557812571486,
1,"[-0.2, 0.2]",None,0,0,0,0,0,17,17,17,,,,,,,,,None,None,0,1.785274900001241,49.08697289999691,None,49.08697289999691,50.08737789999577,50.0707085999893,51.071210499998415,None,1,49.08697289999691,None,99,m,99,r,MS,2021_Jun_03_1100,WASABI Nback,2020.2.10,59.552557812571486,
3,"[0.2, 0.2]",None,0,0,0,0,0,18,18,18,,,,,,,,,None,None,0,0.0,51.08846450000419,None,51.08846450000419,52.08827539999038,52.071625099983066,53.07216310000513,None,1,51.08846450000419,None,99,m,99,r,MS,2021_Jun_03_1100,WASABI Nback,2020.2.10,59.552557812571486,
5,"[0, 0]",None,0,0,0,0,0,19,19,19,,,,,,,,,None,None,0,0.0009763999842107296,53.089598199992906,None,53.089598199992906,54.08927729999414,54.07255609999993,55.073267400002806,None,1,53.089598199992906,None,99,m,99,r,MS,2021_Jun_03_1100,WASABI Nback,2020.2.10,59.552557812571486,
3,"[0.2, 0.2]",1,0,0,0,0,0,20,20,20,,,,,,,,,None,None,0,0.0,55.09003920000396,None,55.09003920000396,56.090236399992136,56.073498099984135,57.07409949999419,None,0,55.09003920000396,None,99,m,99,r,MS,2021_Jun_03_1100,WASABI Nback,2020.2.10,59.552557812571486,
4,"[-0.2, 0]",None,0,0,0,0,0,21,21,21,,,,,,,,,None,None,0,0.03423369998927228,57.0907215999905,None,57.0907215999905,58.09116419998463,58.07491949998075,59.07501109997975,None,1,57.0907215999905,None,99,m,99,r,MS,2021_Jun_03_1100,WASABI Nback,2020.2.10,59.552557812571486,
7,"[-0.2, -0.2]",None,0,0,0,0,0,22,22,22,,,,,,,,,None,None,0,0.2856076999742072,59.09158350000507,None,59.09158350000507,60.092479999992065,60.07572369999252,None,None,1,59.09158350000507,None,99,m,99,r,MS,2021_Jun_03_1100,WASABI Nback,2020.2.10,59.552557812571486,
4,"[-0.2, 0]",1,0,0,0,0,0,23,23,23,,,,,,,,,None,None,0,0.419039000000339,61.07625199999893,None,61.07625199999893,62.07645299998694,62.06010679999599,63.060462099994766,None,0,61.07625199999893,None,99,m,99,r,MS,2021_Jun_03_1100,WASABI Nback,2020.2.10,59.552557812571486,
4,"[-0.2, 0]",None,0,0,0,0,0,24,24,24,,,,,,,,,None,None,0,1.725222399982158,63.076899200008484,None,63.076899200008484,64.0774284999934,64.06060110000544,65.06100309998146,None,1,63.076899200008484,None,99,m,99,r,MS,2021_Jun_03_1100,WASABI Nback,2020.2.10,59.552557812571486,
5,"[0, 0]",None,0,0,0,0,0,25,25,25,,,,,,,,,None,None,0,1.503236399992602,65.07768279997981,None,65.07768279997981,66.078202100005,66.0615026000014,67.06224769999972,None,1,65.07768279997981,None,99,m,99,r,MS,2021_Jun_03_1100,WASABI Nback,2020.2.10,59.552557812571486,
2,"[0, 0.2]",None,0,0,0,0,0,26,26,26,,,,,,,,,None,None,0,0.8510123000014573,67.07891079998808,None,67.07891079998808,68.07966299998225,68.0630999999994,69.06277849999606,None,1,67.07891079998808,None,99,m,99,r,MS,2021_Jun_03_1100,WASABI Nback,2020.2.10,59.552557812571486,
6,"[0.2, 0]",None,0,0,0,0,0,27,27,27,,,,,,,,,None,None,1,1.9019056999823079,69.07951909999247,None,69.07951909999247,70.08031839999603,70.06347829999868,71.06444809999084,1,0,69.07951909999247,None,99,m,99,r,MS,2021_Jun_03_1100,WASABI Nback,2020.2.10,59.552557812571486,
7,"[-0.2, -0.2]",None,0,0,0,0,0,28,28,28,,,,,,,,,None,None,0,1.5515435000124853,71.08119629998691,None,71.08119629998691,72.08105079998495,72.06430259998888,73.06481369998073,None,1,71.08119629998691,None,99,m,99,r,MS,2021_Jun_03_1100,WASABI Nback,2020.2.10,59.552557812571486,
6,"[0.2, 0]",1,0,0,0,0,0,29,29,29,,,,,,,,,None,None,0,1.735697700001765,73.08135379999294,None,73.08135379999294,74.08196479998878,74.06555860000663,75.0658173999982,None,0,73.08135379999294,None,99,m,99,r,MS,2021_Jun_03_1100,WASABI Nback,2020.2.10,59.552557812571486,
6,"[0.2, 0]",None,0,0,0,0,0,30,30,30,,,,,,,,,None,None,0,1.9692473000031896,75.08242439999594,None,75.08242439999594,76.08346779999556,76.06685400000424,77.06730080000125,None,1,75.08242439999594,None,99,m,99,r,MS,2021_Jun_03_1100,WASABI Nback,2020.2.10,59.552557812571486,
7,"[-0.2, -0.2]",None,0,0,0,0,0,31,31,31,,,,,,,,,None,None,0,1.7022743999841623,77.08386889999383,None,77.08386889999383,78.08382329999586,78.06713089998811,79.06757729998208,None,1,77.08386889999383,None,99,m,99,r,MS,2021_Jun_03_1100,WASABI Nback,2020.2.10,59.552557812571486,
6,"[0.2, 0]",1,0,0,0,0,0,32,32,32,,,,,,,,,None,None,0,1.9358610000053886,79.08420719997957,None,79.08420719997957,80.08534200000577,80.06809819999035,81.06921570000122,None,0,79.08420719997957,None,99,m,99,r,MS,2021_Jun_03_1100,WASABI Nback,2020.2.10,59.552557812571486,
2,"[0, 0.2]",None,0,0,0,0,0,33,33,33,,,,,,,,,None,None,1,1.9346820999926422,81.08541830000468,None,81.08541830000468,82.08581489999779,82.06951400000253,83.0704596999858,1,0,81.08541830000468,None,99,m,99,r,MS,2021_Jun_03_1100,WASABI Nback,2020.2.10,59.552557812571486,
5,"[0, 0]",None,0,0,0,0,0,34,34,34,,,,,,,,,None,None,0,1.6683999999950174,83.08674020000035,None,83.08674020000035,84.08757889998378,84.0708747000026,85.07044929999392,None,1,83.08674020000035,None,99,m,99,r,MS,2021_Jun_03_1100,WASABI Nback,2020.2.10,59.552557812571486,
4,"[-0.2, 0]",None,0,0,0,0,0,35,35,35,,,,,,,,,None,None,0,1.552410800009966,85.08717600000091,None,85.08717600000091,86.08755649998784,86.07105629998841,87.0718676999968,None,1,85.08717600000091,None,99,m,99,r,MS,2021_Jun_03_1100,WASABI Nback,2020.2.10,59.552557812571486,
4,"[-0.2, 0]",None,0,0,0,0,0,36,36,36,,,,,,,,,None,None,0,1.7551094999944326,87.08850449998863,None,87.08850449998863,88.08847620000597,88.07223089999752,89.07230490000802,None,1,87.08850449998863,None,99,m,99,r,MS,2021_Jun_03_1100,WASABI Nback,2020.2.10,59.552557812571486,
7,"[-0.2, -0.2]",None,0,0,0,0,0,37,37,37,,,,,,,,,None,None,0,1.818545099988114,89.08898359999876,None,89.08898359999876,90.08949029998621,90.07274770000367,91.07330899999943,None,1,89.08898359999876,None,99,m,99,r,MS,2021_Jun_03_1100,WASABI Nback,2020.2.10,59.552557812571486,
4,"[-0.2, 0]",1,0,0,0,0,0,38,38,38,,,,,,,,,None,None,0,1.3718206000048667,91.08994119998533,None,91.08994119998533,92.09054330000072,92.07385389998672,93.07426199998008,None,0,91.08994119998533,None,99,m,99,r,MS,2021_Jun_03_1100,WASABI Nback,2020.2.10,59.552557812571486,
3,"[0.2, 0.2]",None,0,0,0,0,0,39,39,39,,,,,,,,,None,None,0,1.6518081999965943,93.09087689997978,None,93.09087689997978,94.0913127999811,94.07468930000323,95.07521429998451,None,1,93.09087689997978,None,99,m,99,r,MS,2021_Jun_03_1100,WASABI Nback,2020.2.10,59.552557812571486,
5,"[0, 0]",None,0,0,0,0,0,40,40,40,,,,,,,,,None,None,0,1.6023807000019588,95.0918149999925,None,95.0918149999925,96.0923414999852,96.0756415000069,97.07604300000821,None,1,95.0918149999925,None,99,m,99,r,MS,2021_Jun_03_1100,WASABI Nback,2020.2.10,59.552557812571486,
3,"[0.2, 0.2]",1,0,0,0,0,0,41,41,41,,,,,,,,,None,None,1,1.8395590000145603,97.09277630000724,None,97.09277630000724,98.09320040000603,98.07652070000768,None,1,1,97.09277630000724,None,99,m,99,r,MS,2021_Jun_03_1100,WASABI Nback,2020.2.10,59.552557812571486,
1,"[-0.2, 0.2]",None,0,0,0,0,0,42,42,42,,,,,,,,,None,None,0,1.3678730000101496,99.0776103999815,None,99.0776103999815,100.07747349998681,100.06083810000564,101.06137159999344,None,1,99.0776103999815,None,99,m,99,r,MS,2021_Jun_03_1100,WASABI Nback,2020.2.10,59.552557812571486,
9,"[0.2, -0.2]",None,0,0,0,0,0,43,43,43,,,,,,,,,None,None,0,1.769603399996413,101.07799339998746,None,101.07799339998746,102.07932140000048,102.06223889999092,103.06234820000827,None,1,101.07799339998746,None,99,m,99,r,MS,2021_Jun_03_1100,WASABI Nback,2020.2.10,59.552557812571486,
9,"[0.2, -0.2]",None,0,0,0,0,0,44,44,44,,,,,,,,,None,None,0,1.5735933000105433,103.0791704999865,None,103.0791704999865,104.07993290000013,104.06352679998963,105.0631343999994,None,1,103.0791704999865,None,99,m,99,r,MS,2021_Jun_03_1100,WASABI Nback,2020.2.10,59.552557812571486,
8,"[0, -0.2]",None,0,0,0,0,0,45,45,45,,,,,,,,,None,None,0,1.1189209000149276,105.07982079999056,None,105.07982079999056,106.08038579998538,106.06425279998803,107.06409020000137,None,1,105.07982079999056,None,99,m,99,r,MS,2021_Jun_03_1100,WASABI Nback,2020.2.10,59.552557812571486,
6,"[0.2, 0]",None,0,0,0,0,0,46,46,46,,,,,,,,,None,None,0,1.1050070000055712,107.08070150000276,None,107.08070150000276,108.08125729998574,108.0646657999896,109.06566200000816,None,1,107.08070150000276,None,99,m,99,r,MS,2021_Jun_03_1100,WASABI Nback,2020.2.10,59.552557812571486,
3,"[0.2, 0.2]",None,0,0,0,0,0,47,47,47,,,,,,,,,None,None,0,0.21738620000542141,109.08210119997966,None,109.08210119997966,110.08247249998385,110.06584689998999,111.0660624000011,None,1,109.08210119997966,None,99,m,99,r,MS,2021_Jun_03_1100,WASABI Nback,2020.2.10,59.552557812571486,
6,"[0.2, 0]",1,0,0,0,0,0,48,48,48,,,,,,,,,None,None,0,0.0,111.0828940999927,None,111.0828940999927,112.08813789999112,112.06833109998843,113.07101359998342,None,0,111.0828940999927,None,99,m,99,r,MS,2021_Jun_03_1100,WASABI Nback,2020.2.10,59.552557812571486,
5,"[0, 0]",None,0,0,0,0,0,49,49,49,,,,,,,,,None,None,0,0.0,113.08900629999698,None,113.08900629999698,114.10079430000042,114.06803269998636,115.06836189999012,None,1,113.08900629999698,None,99,m,99,r,MS,2021_Jun_03_1100,WASABI Nback,2020.2.10,59.552557812571486,
7,"[-0.2, -0.2]",None,0,0,0,0,0,50,50,50,,,,,,,,,None,None,0,0.0,115.08449989999644,None,115.08449989999644,116.08491559998947,116.06821379999747,117.06891750000068,None,1,115.08449989999644,None,99,m,99,r,MS,2021_Jun_03_1100,WASABI Nback,2020.2.10,59.552557812571486,
5,"[0, 0]",1,0,0,0,0,0,51,51,51,,,,,,,,,None,None,0,0.0,117.08566199999768,None,117.08566199999768,118.08588020000025,118.06925460000639,119.06974099998479,None,0,117.08566199999768,None,99,m,99,r,MS,2021_Jun_03_1100,WASABI Nback,2020.2.10,59.552557812571486,
1,"[-0.2, 0.2]",None,0,0,0,0,0,52,52,52,,,,,,,,,None,None,0,0.0,119.08629010000732,None,119.08629010000732,120.08691559999716,120.07022190000862,121.07063319999725,None,1,119.08629010000732,None,99,m,99,r,MS,2021_Jun_03_1100,WASABI Nback,2020.2.10,59.552557812571486,
7,"[-0.2, -0.2]",None,0,0,0,0,0,53,53,53,,,,,,,,,None,None,0,0.0,121.08732550000423,None,121.08732550000423,122.08785079998779,122.07114549999824,123.07186219998403,None,1,121.08732550000423,None,99,m,99,r,MS,2021_Jun_03_1100,WASABI Nback,2020.2.10,59.552557812571486,
9,"[0.2, -0.2]",None,0,0,0,0,0,54,54,54,,,,,,,,,None,None,0,0.0,123.08851189998677,None,123.08851189998677,124.08893539998098,124.07204909998109,125.07257369998842,None,1,123.08851189998677,None,99,m,99,r,MS,2021_Jun_03_1100,WASABI Nback,2020.2.10,59.552557812571486,
3,"[0.2, 0.2]",None,0,0,0,0,0,55,55,55,,,,,,,,,None,None,0,0.0,125.08934839998255,None,125.08934839998255,126.0896959999809,126.07321329999832,127.07341280000401,None,1,125.08934839998255,None,99,m,99,r,MS,2021_Jun_03_1100,WASABI Nback,2020.2.10,59.552557812571486,
9,"[0.2, -0.2]",1,0,0,0,0,0,56,56,56,,,,,,,,,None,None,0,0.0,127.09018269999069,None,127.09018269999069,128.09078440000303,128.07389759999933,129.07444999998552,None,0,127.09018269999069,None,99,m,99,r,MS,2021_Jun_03_1100,WASABI Nback,2020.2.10,59.552557812571486,
6,"[0.2, 0]",None,0,0,0,0,0,57,57,57,,,,,,,,,None,None,0,0.0,129.09112739999546,None,129.09112739999546,130.09156820000499,130.07485229999293,131.07523650000803,None,1,129.09112739999546,None,99,m,99,r,MS,2021_Jun_03_1100,WASABI Nback,2020.2.10,59.552557812571486,
2,"[0, 0.2]",None,0,0,0,0,0,58,58,58,,,,,,,,,None,None,0,0.0,131.0922656999901,None,131.0922656999901,132.09238230000483,132.07585540000582,None,None,1,131.0922656999901,None,99,m,99,r,MS,2021_Jun_03_1100,WASABI Nback,2020.2.10,59.552557812571486,
5,"[0, 0]",None,0,0,0,0,0,59,59,59,,,,,,,,,None,None,0,0.0,133.07650599998306,None,133.07650599998306,134.0766512999835,134.06041909998748,135.0606504000025,None,1,133.07650599998306,None,99,m,99,r,MS,2021_Jun_03_1100,WASABI Nback,2020.2.10,59.552557812571486,
5,"[0, 0]",None,0,0,0,0,0,60,60,60,,,,,,,,,None,None,0,0.0,135.0770857000025,None,135.0770857000025,136.07762339999317,136.0609429999895,137.06149029999506,None,1,135.0770857000025,None,99,m,99,r,MS,2021_Jun_03_1100,WASABI Nback,2020.2.10,59.552557812571486,
2,"[0, 0.2]",None,0,0,0,0,0,61,61,61,,,,,,,,,None,None,0,0.0,137.0781480000005,None,137.0781480000005,138.0799727999838,138.06209190000664,139.0623201999988,None,1,137.0781480000005,None,99,m,99,r,MS,2021_Jun_03_1100,WASABI Nback,2020.2.10,59.552557812571486,
6,"[0.2, 0]",None,0,0,0,0,0,62,62,62,,,,,,,,,None,None,0,0.0,139.07904680000502,None,139.07904680000502,140.0794101000065,140.06286800000817,141.06335089998902,None,1,139.07904680000502,None,99,m,99,r,MS,2021_Jun_03_1100,WASABI Nback,2020.2.10,59.552557812571486,
9,"[0.2, -0.2]",None,0,0,0,0,0,63,63,63,,,,,,,,,None,None,0,0.0,141.0802229999972,None,141.0802229999972,142.0804850999848,142.06422100000782,143.07018379998044,None,1,141.0802229999972,None,99,m,99,r,MS,2021_Jun_03_1100,WASABI Nback,2020.2.10,59.552557812571486,
3,"[0.2, 0.2]",None,0,0,0,0,0,64,64,64,,,,,,,,,None,None,0,0.0,143.08506270000362,None,143.08506270000362,144.09807569999248,144.06476939999266,145.06520379998256,None,1,143.08506270000362,None,99,m,99,r,MS,2021_Jun_03_1100,WASABI Nback,2020.2.10,59.552557812571486,
9,"[0.2, -0.2]",1,0,0,0,0,0,65,65,65,,,,,,,,,None,None,0,0.0,145.0818641000078,None,145.0818641000078,146.0823522999999,146.0657314999844,147.067791199981,None,0,145.0818641000078,None,99,m,99,r,MS,2021_Jun_03_1100,WASABI Nback,2020.2.10,59.552557812571486,
7,"[-0.2, -0.2]",None,0,0,0,0,0,66,66,66,,,,,,,,,None,None,0,0.0,147.08324949999223,None,147.08324949999223,148.08337879998726,148.0667880999972,149.06731369998306,None,1,147.08324949999223,None,99,m,99,r,MS,2021_Jun_03_1100,WASABI Nback,2020.2.10,59.552557812571486,
1,"[-0.2, 0.2]",None,0,0,0,0,0,67,67,67,,,,,,,,,None,None,0,0.0,149.08380399999442,None,149.08380399999442,150.08416139998008,150.06758780000382,151.07200799998827,None,1,149.08380399999442,None,99,m,99,r,MS,2021_Jun_03_1100,WASABI Nback,2020.2.10,59.552557812571486,
5,"[0, 0]",None,0,0,0,0,0,68,68,68,,,,,,,,,None,None,0,0.0,151.08909870000207,None,151.08909870000207,152.102375699993,152.06854449998355,153.06903139999486,None,1,151.08909870000207,None,99,m,99,r,MS,2021_Jun_03_1100,WASABI Nback,2020.2.10,59.552557812571486,
7,"[-0.2, -0.2]",None,0,0,0,0,0,69,69,69,,,,,,,,,None,None,0,0.0,153.08556539998972,None,153.08556539998972,154.0861154999875,154.0694874000037,155.06995790000656,None,1,153.08556539998972,None,99,m,99,r,MS,2021_Jun_03_1100,WASABI Nback,2020.2.10,59.552557812571486,
5,"[0, 0]",1,0,0,0,0,0,70,70,70,,,,,,,,,None,None,0,0.0,155.0865444999945,None,155.0865444999945,156.0903963999881,156.05863839999074,157.058529300004,None,0,155.0865444999945,None,99,m,99,r,MS,2021_Jun_03_1100,WASABI Nback,2020.2.10,59.552557812571486,
6,"[0.2, 0]",None,0,0,0,0,0,71,71,71,,,,,,,,,None,None,0,0.0,157.0913270000019,None,157.0913270000019,158.10496769999736,158.07169449998764,159.07774899998913,None,1,157.0913270000019,None,99,m,99,r,MS,2021_Jun_03_1100,WASABI Nback,2020.2.10,59.552557812571486,
3,"[0.2, 0.2]",None,0,0,0,0,0,72,72,72,,,,,,,,,None,None,0,0.0,159.10605929998565,None,159.10605929998565,160.10762619998422,160.0742878000019,161.07434039999498,None,1,159.10605929998565,None,99,m,99,r,MS,2021_Jun_03_1100,WASABI Nback,2020.2.10,59.552557812571486,
6,"[0.2, 0]",1,0,0,0,0,0,73,73,73,,,,,,,,,None,None,0,0.0,161.0959864000033,None,161.0959864000033,162.10728540000855,162.0737615999824,163.0775642999797,None,0,161.0959864000033,None,99,m,99,r,MS,2021_Jun_03_1100,WASABI Nback,2020.2.10,59.552557812571486,
8,"[0, -0.2]",None,0,0,0,0,0,74,74,74,,,,,,,,,None,None,0,0.0,163.09118439999293,None,163.09118439999293,164.09553229997982,164.07487779998337,165.0773310000077,None,1,163.09118439999293,None,99,m,99,r,MS,2021_Jun_03_1100,WASABI Nback,2020.2.10,59.552557812571486,
9,"[0.2, -0.2]",None,0,0,0,0,0,75,75,75,,,,,,,,,None,None,1,1.9050017000117805,165.0932480999909,None,165.0932480999909,166.09264439999242,166.07557149999775,None,1,0,165.0932480999909,None,99,m,99,r,MS,2021_Jun_03_1100,WASABI Nback,2020.2.10,59.552557812571486,
9,"[0.2, -0.2]",None,0,0,0,0,0,76,76,76,,,,,,,,,None,None,0,0.06669959999271668,167.07612129999325,None,167.07612129999325,168.07812259998173,168.06067629999598,169.06544109998504,None,1,167.07612129999325,None,99,m,99,r,MS,2021_Jun_03_1100,WASABI Nback,2020.2.10,59.552557812571486,
1,"[-0.2, 0.2]",None,0,0,0,0,0,77,77,77,,,,,,,,,None,None,0,0.0,169.08021620000363,None,169.08021620000363,170.0936967000016,170.06043339997996,171.06077139999252,None,1,169.08021620000363,None,99,m,99,r,MS,2021_Jun_03_1100,WASABI Nback,2020.2.10,59.552557812571486,
3,"[0.2, 0.2]",None,0,0,0,0,0,78,78,78,,,,,,,,,None,None,0,0.0,171.07793619998847,None,171.07793619998847,172.0782012999989,172.06132129998878,173.06165540000075,None,1,171.07793619998847,None,99,m,99,r,MS,2021_Jun_03_1100,WASABI Nback,2020.2.10,59.552557812571486,
5,"[0, 0]",None,0,0,0,0,0,79,79,79,,,,,,,,,None,None,0,0.0,173.0787246999971,None,173.0787246999971,174.07893279998098,174.0631558999885,175.06282619998092,None,1,173.0787246999971,None,99,m,99,r,MS,2021_Jun_03_1100,WASABI Nback,2020.2.10,59.552557812571486,
3,"[0.2, 0.2]",1,0,0,0,0,0,80,80,80,,,,,,,,,None,None,0,0.0,175.07939709999482,None,175.07939709999482,176.0798012999876,176.0630983999872,177.063617399981,None,0,175.07939709999482,None,99,m,99,r,MS,2021_Jun_03_1100,WASABI Nback,2020.2.10,59.552557812571486,
4,"[-0.2, 0]",None,0,0,0,0,0,81,81,81,,,,,,,,,None,None,0,0.0,177.0802732000011,None,177.0802732000011,178.08069820000674,178.06412229998386,179.06465399998706,None,1,177.0802732000011,None,99,m,99,r,MS,2021_Jun_03_1100,WASABI Nback,2020.2.10,59.552557812571486,
7,"[-0.2, -0.2]",None,0,0,0,0,0,82,82,82,,,,,,,,,None,None,0,0.0,179.08124949998455,None,179.08124949998455,180.0820917999954,180.06548269998166,181.0653861000028,None,1,179.08124949998455,None,99,m,99,r,MS,2021_Jun_03_1100,WASABI Nback,2020.2.10,59.552557812571486,
4,"[-0.2, 0]",1,0,0,0,0,0,83,83,83,,,,,,,,,None,None,0,0.0,181.0834402999899,None,181.0834402999899,182.0825336999842,182.0663224000018,183.06645159999607,None,0,181.0834402999899,None,99,m,99,r,MS,2021_Jun_03_1100,WASABI Nback,2020.2.10,59.552557812571486,
4,"[-0.2, 0]",None,0,0,0,0,0,84,84,84,,,,,,,,,None,None,0,0.0,183.08307269998477,None,183.08307269998477,184.0838839999924,184.06725209997967,185.06726059998618,None,1,183.08307269998477,None,99,m,99,r,MS,2021_Jun_03_1100,WASABI Nback,2020.2.10,59.552557812571486,
5,"[0, 0]",None,0,0,0,0,0,85,85,85,,,,,,,,,None,None,0,0.0,185.08425220000208,None,185.08425220000208,186.08446270000422,186.06785439999658,187.0681872999994,None,1,185.08425220000208,None,99,m,99,r,MS,2021_Jun_03_1100,WASABI Nback,2020.2.10,59.552557812571486,
2,"[0, 0.2]",None,0,0,0,0,0,86,86,86,,,,,,,,,None,None,0,0.0,187.0848796000064,None,187.0848796000064,188.0853278999857,188.0686990999966,189.06916469999123,None,1,187.0848796000064,None,99,m,99,r,MS,2021_Jun_03_1100,WASABI Nback,2020.2.10,59.552557812571486,
6,"[0.2, 0]",None,0,0,0,0,0,87,87,87,,,,,,,,,None,None,0,0.0,189.08572529998492,None,189.08572529998492,190.08624119998422,190.06954969998333,191.07013279999956,None,1,189.08572529998492,None,99,m,99,r,MS,2021_Jun_03_1100,WASABI Nback,2020.2.10,59.552557812571486,
7,"[-0.2, -0.2]",None,0,0,0,0,0,88,88,88,,,,,,,,,None,None,0,0.0,191.0867045999912,None,191.0867045999912,192.0872265000071,192.07055559998844,193.0711333999934,None,1,191.0867045999912,None,99,m,99,r,MS,2021_Jun_03_1100,WASABI Nback,2020.2.10,59.552557812571486,
6,"[0.2, 0]",1,0,0,0,0,0,89,89,89,,,,,,,,,None,None,0,0.0,193.08772569999564,None,193.08772569999564,194.0882292999886,194.07147739999346,195.0724699999846,None,0,193.08772569999564,None,99,m,99,r,MS,2021_Jun_03_1100,WASABI Nback,2020.2.10,59.552557812571486,
6,"[0.2, 0]",None,0,0,0,0,0,90,90,90,,,,,,,,,None,None,0,0.0,195.08886099999654,None,195.08886099999654,196.08999189999304,196.07262900000205,197.0729967999796,None,1,195.08886099999654,None,99,m,99,r,MS,2021_Jun_03_1100,WASABI Nback,2020.2.10,59.552557812571486,
7,"[-0.2, -0.2]",None,0,0,0,0,0,91,91,91,,,,,,,,,None,None,0,0.0,197.08958749999874,None,197.08958749999874,198.09003329998814,198.0735227999976,199.07392039999831,None,1,197.08958749999874,None,99,m,99,r,MS,2021_Jun_03_1100,WASABI Nback,2020.2.10,59.552557812571486,
6,"[0.2, 0]",1,0,0,0,0,0,92,92,92,,,,,,,,,None,None,0,0.0,199.0905480000074,None,199.0905480000074,200.09107209998183,200.07432260000496,201.07510299998103,None,0,199.0905480000074,None,99,m,99,r,MS,2021_Jun_03_1100,WASABI Nback,2020.2.10,59.552557812571486,
2,"[0, 0.2]",None,0,0,0,0,0,93,93,93,,,,,,,,,None,None,0,0.0,201.09147029998712,None,201.09147029998712,202.09243190000416,202.07537700000103,203.07562329998473,None,1,201.09147029998712,None,99,m,99,r,MS,2021_Jun_03_1100,WASABI Nback,2020.2.10,59.552557812571486,
5,"[0, 0]",None,0,0,0,0,0,94,94,94,,,,,,,,,None,None,0,0.0,203.09247559998767,None,203.09247559998767,204.09276899998076,204.0761332999973,None,None,1,203.09247559998767,None,99,m,99,r,MS,2021_Jun_03_1100,WASABI Nback,2020.2.10,59.552557812571486,
4,"[-0.2, 0]",None,0,0,0,0,0,95,95,95,,,,,,,,,None,None,0,0.0,205.07674329998554,None,205.07674329998554,206.0770843999926,206.06076920000487,207.06504029998905,None,1,205.07674329998554,None,99,m,99,r,MS,2021_Jun_03_1100,WASABI Nback,2020.2.10,59.552557812571486,
4,"[-0.2, 0]",None,0,0,0,0,0,96,96,96,,,,,,,,,None,None,0,0.0,207.07794269997976,None,207.07794269997976,208.07806609998806,208.06181630000356,209.061864599993,None,1,207.07794269997976,None,99,m,99,r,MS,2021_Jun_03_1100,WASABI Nback,2020.2.10,59.552557812571486,
7,"[-0.2, -0.2]",None,0,0,0,0,0,97,97,97,,,,,,,,,None,None,0,0.0,209.0789947999874,None,209.0789947999874,210.07891869999003,210.06234770000447,211.0628034999827,None,1,209.0789947999874,None,99,m,99,r,MS,2021_Jun_03_1100,WASABI Nback,2020.2.10,59.552557812571486,
4,"[-0.2, 0]",1,0,0,0,0,0,98,98,98,,,,,,,,,None,None,0,0.0,211.07956579999882,None,211.07956579999882,212.07997449999675,212.06335979999858,213.06374509999296,None,0,211.07956579999882,None,99,m,99,r,MS,2021_Jun_03_1100,WASABI Nback,2020.2.10,59.552557812571486,
3,"[0.2, 0.2]",None,0,0,0,0,0,99,99,99,,,,,,,,,None,None,0,0.0,213.08057109999936,None,213.08057109999936,214.08090229998925,214.0643136999861,215.0646349999879,None,1,213.08057109999936,None,99,m,99,r,MS,2021_Jun_03_1100,WASABI Nback,2020.2.10,59.552557812571486,
5,"[0, 0]",None,0,0,0,0,0,100,100,100,,,,,,,,,None,None,0,0.0,215.08141759998398,None,215.08141759998398,216.08664709998993,216.05292019998888,217.06552340000053,None,1,215.08141759998398,None,99,m,99,r,MS,2021_Jun_03_1100,WASABI Nback,2020.2.10,59.552557812571486,
3,"[0.2, 0.2]",1,0,0,0,0,0,101,101,101,,,,,,,,,None,None,0,0.0,217.08229970000684,None,217.08229970000684,218.08276980000664,218.06628810000257,219.06656350000412,None,0,217.08229970000684,None,99,m,99,r,MS,2021_Jun_03_1100,WASABI Nback,2020.2.10,59.552557812571486,
1,"[-0.2, 0.2]",None,0,0,0,0,0,102,102,102,,,,,,,,,None,None,0,0.0,219.08326839999063,None,219.08326839999063,220.08376139999018,220.0670918999822,221.06758689999697,None,1,219.08326839999063,None,99,m,99,r,MS,2021_Jun_03_1100,WASABI Nback,2020.2.10,59.552557812571486,
9,"[0.2, -0.2]",None,0,0,0,0,0,103,103,103,,,,,,,,,None,None,0,0.0,221.08422869999777,None,221.08422869999777,222.0846135999891,222.06811399999424,223.06852309999522,None,1,221.08422869999777,None,99,m,99,r,MS,2021_Jun_03_1100,WASABI Nback,2020.2.10,59.552557812571486,
9,"[0.2, -0.2]",None,0,0,0,0,0,104,104,104,,,,,,,,,None,None,0,0.0,223.08538649999537,None,223.08538649999537,224.08596150000812,224.06901700000162,225.06955069999094,None,1,223.08538649999537,None,99,m,99,r,MS,2021_Jun_03_1100,WASABI Nback,2020.2.10,59.552557812571486,
8,"[0, -0.2]",None,0,0,0,0,0,105,105,105,,,,,,,,,None,None,0,0.0,225.08620980000705,None,225.08620980000705,226.08646669998416,226.06985749999876,227.07026469998527,None,1,225.08620980000705,None,99,m,99,r,MS,2021_Jun_03_1100,WASABI Nback,2020.2.10,59.552557812571486,
6,"[0.2, 0]",None,0,0,0,0,0,106,106,106,,,,,,,,,None,None,0,0.0,227.08699630000046,None,227.08699630000046,228.08740829999442,228.07077659998322,229.07202799999504,None,1,227.08699630000046,None,99,m,99,r,MS,2021_Jun_03_1100,WASABI Nback,2020.2.10,59.552557812571486,
3,"[0.2, 0.2]",None,0,0,0,0,0,107,107,107,,,,,,,,,None,None,0,0.0,229.08801279999898,None,229.08801279999898,230.0884007999848,230.07182690000627,231.07214720000047,None,1,229.08801279999898,None,99,m,99,r,MS,2021_Jun_03_1100,WASABI Nback,2020.2.10,59.552557812571486,
6,"[0.2, 0]",1,0,0,0,0,0,108,108,108,,,,,,,,,None,None,0,0.0,231.08892909999122,None,231.08892909999122,232.08938560000388,232.07267199998023,233.07349849998718,None,0,231.08892909999122,None,99,m,99,r,MS,2021_Jun_03_1100,WASABI Nback,2020.2.10,59.552557812571486,
5,"[0, 0]",None,0,0,0,0,0,109,109,109,,,,,,,,,None,None,0,0.0,233.08982130000368,None,233.08982130000368,234.09027769998647,234.073622099997,None,None,1,233.08982130000368,None,99,m,99,r,MS,2021_Jun_03_1100,WASABI Nback,2020.2.10,59.552557812571486,
7,"[-0.2, -0.2]",None,0,0,0,0,0,110,110,110,,,,,,,,,None,None,0,0.0,235.0793069000065,None,235.0793069000065,236.09119849998388,236.05789769999683,237.0582579000038,None,1,235.0793069000065,None,99,m,99,r,MS,2021_Jun_03_1100,WASABI Nback,2020.2.10,59.552557812571486,
5,"[0, 0]",1,0,0,0,0,0,111,111,111,,,,,,,,,None,None,0,0.0,237.0919763999991,None,237.0919763999991,238.0960855000012,238.06247030000668,239.07598629998392,None,0,237.0919763999991,None,99,m,99,r,MS,2021_Jun_03_1100,WASABI Nback,2020.2.10,59.552557812571486,
1,"[-0.2, 0.2]",None,0,0,0,0,0,112,112,112,,,,,,,,,None,None,0,0.0,239.09265189999132,None,239.09265189999132,240.0930742000055,240.07643479999388,None,None,1,239.09265189999132,None,99,m,99,r,MS,2021_Jun_03_1100,WASABI Nback,2020.2.10,59.552557812571486,
7,"[-0.2, -0.2]",None,0,0,0,0,0,113,113,113,,,,,,,,,None,None,0,0.0,241.0770910999854,None,241.0770910999854,242.07741669999086,242.06076950000715,243.06152079999447,None,1,241.0770910999854,None,99,m,99,r,MS,2021_Jun_03_1100,WASABI Nback,2020.2.10,59.552557812571486,
9,"[0.2, -0.2]",None,0,0,0,0,0,114,114,114,,,,,,,,,None,None,0,0.0,243.07776580000063,None,243.07776580000063,244.08274369998253,244.05003859999124,245.04846259998158,None,1,243.07776580000063,None,99,m,99,r,MS,2021_Jun_03_1100,WASABI Nback,2020.2.10,59.552557812571486,
3,"[0.2, 0.2]",None,0,0,0,0,0,115,115,115,,,,,,,,,None,None,0,0.0,245.0800670000026,None,245.0800670000026,246.0967568999913,246.06304529999034,247.0661206000077,None,1,245.0800670000026,None,99,m,99,r,MS,2021_Jun_03_1100,WASABI Nback,2020.2.10,59.552557812571486,
9,"[0.2, -0.2]",1,0,0,0,0,0,116,116,116,,,,,,,,,None,None,0,0.0,247.08000139999785,None,247.08000139999785,248.08460050000576,248.0695973999973,None,None,0,247.08000139999785,None,99,m,99,r,MS,2021_Jun_03_1100,WASABI Nback,2020.2.10,59.552557812571486,
6,"[0.2, 0]",None,0,0,0,0,0,117,117,117,,,,,,,,,None,None,0,0.0,249.08060950000072,None,249.08060950000072,250.0814935999806,250.06453060000786,251.06489769998007,None,1,249.08060950000072,None,99,m,99,r,MS,2021_Jun_03_1100,WASABI Nback,2020.2.10,59.552557812571486,
2,"[0, 0.2]",None,0,0,0,0,0,118,118,118,,,,,,,,,None,None,0,0.0,251.08153409999795,None,251.08153409999795,252.08202959998744,252.06529769999906,253.06626719998894,None,1,251.08153409999795,None,99,m,99,r,MS,2021_Jun_03_1100,WASABI Nback,2020.2.10,59.552557812571486,
5,"[0, 0]",None,0,0,0,0,0,119,119,119,,,,,,,,,None,None,0,0.0,253.0825108999852,None,253.0825108999852,254.08306780000567,254.06625139998505,255.06744859999162,None,1,253.0825108999852,None,99,m,99,r,MS,2021_Jun_03_1100,WASABI Nback,2020.2.10,59.552557812571486,
