RestT1,TaskT1,square,location,corrAns,counterbalancer.thisRepN,counterbalancer.thisTrialN,counterbalancer.thisN,counterbalancer.thisIndex,RestT1Loop.thisRepN,RestT1Loop.thisTrialN,RestT1Loop.thisN,RestT1Loop.thisIndex,TaskT1Loop.thisRepN,TaskT1Loop.thisTrialN,TaskT1Loop.thisN,TaskT1Loop.thisIndex,trials_2.thisRepN,trials_2.thisTrialN,trials_2.thisN,trials_2.thisIndex,fixation_1.started,fixation_1.stopped,NbackInstructions.started,NbackInstructions.stopped,NbackStart.keys,NbackStart.rt,NbackStart.started,NbackStart.stopped,fixation_2.started,fixation_2.stopped,response_2.x,response_2.y,response_2.leftButton,grid_lines_2.started,grid_lines_2.stopped,target_square_2.started,target_square_2.stopped,fixation_3.started,fixation_3.stopped,response_2.click,response_2.corr,response_2.started,response_2.stopped,subject number,gender,session,handedness,scanner,date,expName,psychopyVersion,frameRate,
1,0,,,,0,0,0,0,0,0,0,0,,,,,,,,,101.52585999993607,None,,,,,,,,,,,,,,,,,,,,,,5,m,10,r,mck,2021_Sep_21_1526,WASABI Nback,2020.2.10,60.00009598691471,
0,1,,,,0,1,1,1,,,,,0,0,0,0,,,,,,,371.7282976999413,None,space,52.61145129997749,371.7282976999413,None,,,,,,,,,,,,,,,,5,m,10,r,mck,2021_Sep_21_1526,WASABI Nback,2020.2.10,60.00009598691471,
0,1,5,"[0, 0]",None,0,1,1,1,,,,,0,0,0,0,0,0,0,0,,,,,,,,,None,None,None,None,[],None,None,None,None,None,None,[],[],None,None,5,m,10,r,mck,2021_Sep_21_1526,WASABI Nback,2020.2.10,60.00009598691471,
0,1,2,"[0, 0.2]",None,0,1,1,1,,,,,0,0,0,0,0,1,1,1,,,,,,,,,,,None,None,0,427.61201649997383,None,427.61201649997383,428.61204079992604,428.59538399998564,None,0,1,427.61201649997383,None,5,m,10,r,mck,2021_Sep_21_1526,WASABI Nback,2020.2.10,60.00009598691471,
0,1,6,"[0.2, 0]",None,0,1,1,1,,,,,0,0,0,0,0,2,2,2,,,,,,,,,,,None,None,0,429.37872059992515,None,429.37872059992515,430.37871799990535,430.3620649999939,431.3620680999011,0,1,429.37872059992515,None,5,m,10,r,mck,2021_Sep_21_1526,WASABI Nback,2020.2.10,60.00009598691471,
0,1,9,"[0.2, -0.2]",None,0,1,1,1,,,,,0,0,0,0,0,3,3,3,,,,,,,,,,,None,None,0,431.3787455999991,None,431.3787455999991,432.3787398999557,432.3620571999345,433.3620829998981,0,1,431.3787455999991,None,5,m,10,r,mck,2021_Sep_21_1526,WASABI Nback,2020.2.10,60.00009598691471,
0,1,3,"[0.2, 0.2]",None,0,1,1,1,,,,,0,0,0,0,0,4,4,4,,,,,,,,,,,None,None,0,433.37875599996187,None,433.37875599996187,434.37873839994427,434.36208839993924,435.3620768999681,0,1,433.37875599996187,None,5,m,10,r,mck,2021_Sep_21_1526,WASABI Nback,2020.2.10,60.00009598691471,
0,1,9,"[0.2, -0.2]",1,0,1,1,1,,,,,0,0,0,0,0,5,5,5,,,,,,,,,,,None,None,0,435.378752599936,None,435.378752599936,436.3787594999885,436.3621101999888,437.3621013999218,0,1,435.378752599936,None,5,m,10,r,mck,2021_Sep_21_1526,WASABI Nback,2020.2.10,60.00009598691471,
0,1,7,"[-0.2, -0.2]",None,0,1,1,1,,,,,0,0,0,0,0,6,6,6,,,,,,,,,,,None,None,0,437.3787705999566,None,437.3787705999566,438.37878239993006,438.3621018999256,439.3621181999333,0,1,437.3787705999566,None,5,m,10,r,mck,2021_Sep_21_1526,WASABI Nback,2020.2.10,60.00009598691471,
0,1,1,"[-0.2, 0.2]",None,0,1,1,1,,,,,0,0,0,0,0,7,7,7,,,,,,,,,,,None,None,0,439.37880519998726,None,439.37880519998726,440.3788093999028,440.3621143999044,441.3621334999334,0,1,439.37880519998726,None,5,m,10,r,mck,2021_Sep_21_1526,WASABI Nback,2020.2.10,60.00009598691471,
0,1,5,"[0, 0]",None,0,1,1,1,,,,,0,0,0,0,0,8,8,8,,,,,,,,,,,None,None,0,441.37880389997736,None,441.37880389997736,442.3788238998968,442.36211059999187,443.36213779996615,0,1,441.37880389997736,None,5,m,10,r,mck,2021_Sep_21_1526,WASABI Nback,2020.2.10,60.00009598691471,
0,1,7,"[-0.2, -0.2]",None,0,1,1,1,,,,,0,0,0,0,0,9,9,9,,,,,,,,,,,None,None,0,443.37881709996145,None,443.37881709996145,444.3788205999881,444.3621679999633,445.3621546999784,0,1,443.37881709996145,None,5,m,10,r,mck,2021_Sep_21_1526,WASABI Nback,2020.2.10,60.00009598691471,
0,1,5,"[0, 0]",1,0,1,1,1,,,,,0,0,0,0,0,10,10,10,,,,,,,,,,,None,None,0,445.3788280999288,None,445.3788280999288,446.3788301999448,446.36215849989094,447.36217529990245,0,1,445.3788280999288,None,5,m,10,r,mck,2021_Sep_21_1526,WASABI Nback,2020.2.10,60.00009598691471,
0,1,6,"[0.2, 0]",None,0,1,1,1,,,,,0,0,0,0,0,11,11,11,,,,,,,,,,,None,None,0,447.3788471999578,None,447.3788471999578,448.3788547998993,448.36219469993375,449.36220499989577,0,1,447.3788471999578,None,5,m,10,r,mck,2021_Sep_21_1526,WASABI Nback,2020.2.10,60.00009598691471,
0,1,3,"[0.2, 0.2]",None,0,1,1,1,,,,,0,0,0,0,0,12,12,12,,,,,,,,,,,None,None,0,449.3788492999738,None,449.3788492999738,450.37886989989784,450.36212279996835,451.3622004999779,0,1,449.3788492999738,None,5,m,10,r,mck,2021_Sep_21_1526,WASABI Nback,2020.2.10,60.00009598691471,
0,1,6,"[0.2, 0]",1,0,1,1,1,,,,,0,0,0,0,0,13,13,13,,,,,,,,,,,None,None,0,451.3788826999953,None,451.3788826999953,452.3788813999854,452.36219729995355,453.36222389992326,0,1,451.3788826999953,None,5,m,10,r,mck,2021_Sep_21_1526,WASABI Nback,2020.2.10,60.00009598691471,
0,1,8,"[0, -0.2]",None,0,1,1,1,,,,,0,0,0,0,0,14,14,14,,,,,,,,,,,None,None,0,453.3788940999657,None,453.3788940999657,454.3788965999847,454.3622320999857,455.36224459996447,0,1,453.3788940999657,None,5,m,10,r,mck,2021_Sep_21_1526,WASABI Nback,2020.2.10,60.00009598691471,
0,1,9,"[0.2, -0.2]",None,0,1,1,1,,,,,0,0,0,0,0,15,15,15,,,,,,,,,,,None,None,0,455.3788950999733,None,455.3788950999733,456.3788976999931,456.362249400001,457.36225319991354,0,1,455.3788950999733,None,5,m,10,r,mck,2021_Sep_21_1526,WASABI Nback,2020.2.10,60.00009598691471,
0,1,9,"[0.2, -0.2]",None,0,1,1,1,,,,,0,0,0,0,0,16,16,16,,,,,,,,,,,None,None,0,457.3789137999993,None,457.3789137999993,458.37892859999556,458.36225029989146,459.3623448999133,0,1,457.3789137999993,None,5,m,10,r,mck,2021_Sep_21_1526,WASABI Nback,2020.2.10,60.00009598691471,
0,1,1,"[-0.2, 0.2]",None,0,1,1,1,,,,,0,0,0,0,0,17,17,17,,,,,,,,,,,None,None,0,459.37893969996367,None,459.37893969996367,460.37893479992636,460.36226219998207,461.36227079993114,0,1,459.37893969996367,None,5,m,10,r,mck,2021_Sep_21_1526,WASABI Nback,2020.2.10,60.00009598691471,
0,1,3,"[0.2, 0.2]",None,0,1,1,1,,,,,0,0,0,0,0,18,18,18,,,,,,,,,,,None,None,0,461.3789372999454,None,461.3789372999454,462.37894179997966,462.3622930999845,463.36230469995644,0,1,461.3789372999454,None,5,m,10,r,mck,2021_Sep_21_1526,WASABI Nback,2020.2.10,60.00009598691471,
0,1,5,"[0, 0]",None,0,1,1,1,,,,,0,0,0,0,0,19,19,19,,,,,,,,,,,None,None,0,463.3789535999531,None,463.3789535999531,464.37896969995927,464.3622946999967,465.3623122998979,0,1,463.3789535999531,None,5,m,10,r,mck,2021_Sep_21_1526,WASABI Nback,2020.2.10,60.00009598691471,
0,1,3,"[0.2, 0.2]",1,0,1,1,1,,,,,0,0,0,0,0,20,20,20,,,,,,,,,,,None,None,0,465.37898159993347,None,465.37898159993347,466.3790013999678,466.36233599996194,467.3623156999238,0,1,465.37898159993347,None,5,m,10,r,mck,2021_Sep_21_1526,WASABI Nback,2020.2.10,60.00009598691471,
0,1,4,"[-0.2, 0]",None,0,1,1,1,,,,,0,0,0,0,0,21,21,21,,,,,,,,,,,None,None,0,467.37899979995564,None,467.37899979995564,468.37899279990233,468.36233289993834,469.36235309997573,0,1,467.37899979995564,None,5,m,10,r,mck,2021_Sep_21_1526,WASABI Nback,2020.2.10,60.00009598691471,
0,1,7,"[-0.2, -0.2]",None,0,1,1,1,,,,,0,0,0,0,0,22,22,22,,,,,,,,,,,None,None,0,469.3789928999031,None,469.3789928999031,470.37901499995496,470.3623329999391,471.36235559999477,0,1,469.3789928999031,None,5,m,10,r,mck,2021_Sep_21_1526,WASABI Nback,2020.2.10,60.00009598691471,
0,1,4,"[-0.2, 0]",1,0,1,1,1,,,,,0,0,0,0,0,23,23,23,,,,,,,,,,,None,None,0,471.37901789997704,None,471.37901789997704,472.37901919998694,472.3623676999705,473.36237039999105,0,1,471.37901789997704,None,5,m,10,r,mck,2021_Sep_21_1526,WASABI Nback,2020.2.10,60.00009598691471,
0,1,4,"[-0.2, 0]",None,0,1,1,1,,,,,0,0,0,0,0,24,24,24,,,,,,,,,,,None,None,0,473.37902689992916,None,473.37902689992916,474.3790551999118,474.36237499990966,475.36239419993944,0,1,473.37902689992916,None,5,m,10,r,mck,2021_Sep_21_1526,WASABI Nback,2020.2.10,60.00009598691471,
0,1,5,"[0, 0]",None,0,1,1,1,,,,,0,0,0,0,0,25,25,25,,,,,,,,,,,None,None,0,475.3790450999513,None,475.3790450999513,476.3790487999795,476.3623961999547,477.362392299925,0,1,475.3790450999513,None,5,m,10,r,mck,2021_Sep_21_1526,WASABI Nback,2020.2.10,60.00009598691471,
0,1,2,"[0, 0.2]",None,0,1,1,1,,,,,0,0,0,0,0,26,26,26,,,,,,,,,,,None,None,0,477.3790709999157,None,477.3790709999157,478.3790640999796,478.36240270000417,479.3624201999046,0,1,477.3790709999157,None,5,m,10,r,mck,2021_Sep_21_1526,WASABI Nback,2020.2.10,60.00009598691471,
0,1,6,"[0.2, 0]",None,0,1,1,1,,,,,0,0,0,0,0,27,27,27,,,,,,,,,,,None,None,0,479.37908489990514,None,479.37908489990514,480.37909259996377,480.3624273999594,481.36244339996483,0,1,479.37908489990514,None,5,m,10,r,mck,2021_Sep_21_1526,WASABI Nback,2020.2.10,60.00009598691471,
0,1,7,"[-0.2, -0.2]",None,0,1,1,1,,,,,0,0,0,0,0,28,28,28,,,,,,,,,,,None,None,0,481.37909599998966,None,481.37909599998966,482.37910999997985,482.36242389993276,483.36247979989275,0,1,481.37909599998966,None,5,m,10,r,mck,2021_Sep_21_1526,WASABI Nback,2020.2.10,60.00009598691471,
0,1,6,"[0.2, 0]",1,0,1,1,1,,,,,0,0,0,0,0,29,29,29,,,,,,,,,,,None,None,0,483.37904369994067,None,483.37904369994067,484.37911439989693,484.36245129990857,485.36246579990257,0,1,483.37904369994067,None,5,m,10,r,mck,2021_Sep_21_1526,WASABI Nback,2020.2.10,60.00009598691471,
0,1,6,"[0.2, 0]",None,0,1,1,1,,,,,0,0,0,0,0,30,30,30,,,,,,,,,,,None,None,0,485.37913449993357,None,485.37913449993357,486.3791356999427,486.36247359996196,487.36247099994216,0,1,485.37913449993357,None,5,m,10,r,mck,2021_Sep_21_1526,WASABI Nback,2020.2.10,60.00009598691471,
0,1,7,"[-0.2, -0.2]",None,0,1,1,1,,,,,0,0,0,0,0,31,31,31,,,,,,,,,,,None,None,0,487.3791421999922,None,487.3791421999922,488.37913789995946,488.3624871999491,489.36249460000545,0,1,487.3791421999922,None,5,m,10,r,mck,2021_Sep_21_1526,WASABI Nback,2020.2.10,60.00009598691471,
0,1,6,"[0.2, 0]",1,0,1,1,1,,,,,0,0,0,0,0,32,32,32,,,,,,,,,,,None,None,0,489.3791573999915,None,489.3791573999915,490.3791700999718,490.3624988999218,491.36250729998574,0,1,489.3791573999915,None,5,m,10,r,mck,2021_Sep_21_1526,WASABI Nback,2020.2.10,60.00009598691471,
0,1,2,"[0, 0.2]",None,0,1,1,1,,,,,0,0,0,0,0,33,33,33,,,,,,,,,,,None,None,0,491.37917309999466,None,491.37917309999466,492.3791850999696,492.36250129994005,493.362525699893,0,1,491.37917309999466,None,5,m,10,r,mck,2021_Sep_21_1526,WASABI Nback,2020.2.10,60.00009598691471,
0,1,5,"[0, 0]",None,0,1,1,1,,,,,0,0,0,0,0,34,34,34,,,,,,,,,,,None,None,0,493.3791811999399,None,493.3791811999399,494.3791891000001,494.36253049992956,495.3625391999958,0,1,493.3791811999399,None,5,m,10,r,mck,2021_Sep_21_1526,WASABI Nback,2020.2.10,60.00009598691471,
0,1,4,"[-0.2, 0]",None,0,1,1,1,,,,,0,0,0,0,0,35,35,35,,,,,,,,,,,None,None,0,495.3792045000009,None,495.3792045000009,496.379203199991,496.36253489996307,497.3624768999871,0,1,495.3792045000009,None,5,m,10,r,mck,2021_Sep_21_1526,WASABI Nback,2020.2.10,60.00009598691471,
0,1,4,"[-0.2, 0]",None,0,1,1,1,,,,,0,0,0,0,0,36,36,36,,,,,,,,,,,None,None,0,497.37921609997284,None,497.37921609997284,498.37923159997445,498.36255109997,499.3625691999914,0,1,497.37921609997284,None,5,m,10,r,mck,2021_Sep_21_1526,WASABI Nback,2020.2.10,60.00009598691471,
0,1,7,"[-0.2, -0.2]",None,0,1,1,1,,,,,0,0,0,0,0,37,37,37,,,,,,,,,,,None,None,0,499.3792308999691,None,499.3792308999691,500.3792412999319,500.36257759993896,501.3625727999024,0,1,499.3792308999691,None,5,m,10,r,mck,2021_Sep_21_1526,WASABI Nback,2020.2.10,60.00009598691471,
0,1,4,"[-0.2, 0]",1,0,1,1,1,,,,,0,0,0,0,0,38,38,38,,,,,,,,,,,None,None,0,501.3792406999273,None,501.3792406999273,502.3792479999829,502.36259189993143,503.3626108999597,0,1,501.3792406999273,None,5,m,10,r,mck,2021_Sep_21_1526,WASABI Nback,2020.2.10,60.00009598691471,
0,1,3,"[0.2, 0.2]",None,0,1,1,1,,,,,0,0,0,0,0,39,39,39,,,,,,,,,,,None,None,0,503.37927789997775,None,503.37927789997775,504.3792727999389,504.3626108999597,505.3626120999688,0,1,503.37927789997775,None,5,m,10,r,mck,2021_Sep_21_1526,WASABI Nback,2020.2.10,60.00009598691471,
0,1,5,"[0, 0]",None,0,1,1,1,,,,,0,0,0,0,0,40,40,40,,,,,,,,,,,None,None,0,505.37927889998537,None,505.37927889998537,506.37927659996785,506.36262189992703,507.3626263999613,0,1,505.37927889998537,None,5,m,10,r,mck,2021_Sep_21_1526,WASABI Nback,2020.2.10,60.00009598691471,
0,1,3,"[0.2, 0.2]",1,0,1,1,1,,,,,0,0,0,0,0,41,41,41,,,,,,,,,,,None,None,0,507.3792875999352,None,507.3792875999352,508.37929059995804,508.3625112998998,509.3626491999021,0,1,507.3792875999352,None,5,m,10,r,mck,2021_Sep_21_1526,WASABI Nback,2020.2.10,60.00009598691471,
0,1,1,"[-0.2, 0.2]",None,0,1,1,1,,,,,0,0,0,0,0,42,42,42,,,,,,,,,,,None,None,0,509.3793286998989,None,509.3793286998989,510.3793007999193,510.362657199963,511.3626667999197,0,1,509.3793286998989,None,5,m,10,r,mck,2021_Sep_21_1526,WASABI Nback,2020.2.10,60.00009598691471,
0,1,9,"[0.2, -0.2]",None,0,1,1,1,,,,,0,0,0,0,0,43,43,43,,,,,,,,,,,None,None,0,511.37931509991176,None,511.37931509991176,512.3793434998952,512.3626714999555,513.3626837999327,0,1,511.37931509991176,None,5,m,10,r,mck,2021_Sep_21_1526,WASABI Nback,2020.2.10,60.00009598691471,
0,1,9,"[0.2, -0.2]",None,0,1,1,1,,,,,0,0,0,0,0,44,44,44,,,,,,,,,,,None,None,0,513.3793245999841,None,513.3793245999841,514.3793530999683,514.3626811999129,515.3626928000012,0,1,513.3793245999841,None,5,m,10,r,mck,2021_Sep_21_1526,WASABI Nback,2020.2.10,60.00009598691471,
0,1,8,"[0, -0.2]",None,0,1,1,1,,,,,0,0,0,0,0,45,45,45,,,,,,,,,,,None,None,0,515.3793522999622,None,515.3793522999622,516.3793653999455,516.3626891999738,517.3626994999358,0,1,515.3793522999622,None,5,m,10,r,mck,2021_Sep_21_1526,WASABI Nback,2020.2.10,60.00009598691471,
0,1,6,"[0.2, 0]",None,0,1,1,1,,,,,0,0,0,0,0,46,46,46,,,,,,,,,,,None,None,0,517.379367699963,None,517.379367699963,518.3793902999023,518.3627098998986,519.36272799992,0,1,517.379367699963,None,5,m,10,r,mck,2021_Sep_21_1526,WASABI Nback,2020.2.10,60.00009598691471,
0,1,3,"[0.2, 0.2]",None,0,1,1,1,,,,,0,0,0,0,0,47,47,47,,,,,,,,,,,None,None,0,519.379377999925,None,519.379377999925,520.3793888998916,520.362722299993,521.3627365999855,0,1,519.379377999925,None,5,m,10,r,mck,2021_Sep_21_1526,WASABI Nback,2020.2.10,60.00009598691471,
0,1,6,"[0.2, 0]",1,0,1,1,1,,,,,0,0,0,0,0,48,48,48,,,,,,,,,,,None,None,0,521.3794186000014,None,521.3794186000014,522.3794039998902,522.3627334999619,523.3627463999437,0,1,521.3794186000014,None,5,m,10,r,mck,2021_Sep_21_1526,WASABI Nback,2020.2.10,60.00009598691471,
0,1,5,"[0, 0]",None,0,1,1,1,,,,,0,0,0,0,0,49,49,49,,,,,,,,,,,None,None,0,523.37940659991,None,523.37940659991,524.379454299924,524.3627545000054,525.3627707998967,0,1,523.37940659991,None,5,m,10,r,mck,2021_Sep_21_1526,WASABI Nback,2020.2.10,60.00009598691471,
0,1,7,"[-0.2, -0.2]",None,0,1,1,1,,,,,0,0,0,0,0,50,50,50,,,,,,,,,,,None,None,0,525.3794152999762,None,525.3794152999762,526.3794329999946,526.3627488999628,527.3628595999908,0,1,525.3794152999762,None,5,m,10,r,mck,2021_Sep_21_1526,WASABI Nback,2020.2.10,60.00009598691471,
0,1,5,"[0, 0]",1,0,1,1,1,,,,,0,0,0,0,0,51,51,51,,,,,,,,,,,None,None,0,527.379456799943,None,527.379456799943,528.3794572999468,528.3627952999668,529.3627841999987,0,1,527.379456799943,None,5,m,10,r,mck,2021_Sep_21_1526,WASABI Nback,2020.2.10,60.00009598691471,
0,1,1,"[-0.2, 0.2]",None,0,1,1,1,,,,,0,0,0,0,0,52,52,52,,,,,,,,,,,None,None,0,529.379454299924,None,529.379454299924,530.3793799999403,530.3627944999607,531.3628081999486,0,1,529.379454299924,None,5,m,10,r,mck,2021_Sep_21_1526,WASABI Nback,2020.2.10,60.00009598691471,
0,1,7,"[-0.2, -0.2]",None,0,1,1,1,,,,,0,0,0,0,0,53,53,53,,,,,,,,,,,None,None,0,531.379456799943,None,531.379456799943,532.3794873999432,532.3628165998962,533.3628168998985,0,1,531.379456799943,None,5,m,10,r,mck,2021_Sep_21_1526,WASABI Nback,2020.2.10,60.00009598691471,
0,1,9,"[0.2, -0.2]",None,0,1,1,1,,,,,0,0,0,0,0,54,54,54,,,,,,,,,,,None,None,0,533.3795028999448,None,533.3795028999448,534.3794980999082,534.3628500999184,535.3628303000005,0,1,533.3795028999448,None,5,m,10,r,mck,2021_Sep_21_1526,WASABI Nback,2020.2.10,60.00009598691471,
0,1,3,"[0.2, 0.2]",None,0,1,1,1,,,,,0,0,0,0,0,55,55,55,,,,,,,,,,,None,None,0,535.3794983999105,None,535.3794983999105,536.3795258000027,536.3628393999534,537.3628537999466,0,1,535.3794983999105,None,5,m,10,r,mck,2021_Sep_21_1526,WASABI Nback,2020.2.10,60.00009598691471,
0,1,9,"[0.2, -0.2]",1,0,1,1,1,,,,,0,0,0,0,0,56,56,56,,,,,,,,,,,None,None,0,537.379519799957,None,537.379519799957,538.379514799919,538.3628723999718,539.3628684999421,0,1,537.379519799957,None,5,m,10,r,mck,2021_Sep_21_1526,WASABI Nback,2020.2.10,60.00009598691471,
0,1,6,"[0.2, 0]",None,0,1,1,1,,,,,0,0,0,0,0,57,57,57,,,,,,,,,,,None,None,0,539.3795461999252,None,539.3795461999252,540.3795249999966,540.3628736999817,541.3628679999383,0,1,539.3795461999252,None,5,m,10,r,mck,2021_Sep_21_1526,WASABI Nback,2020.2.10,60.00009598691471,
0,1,2,"[0, 0.2]",None,0,1,1,1,,,,,0,0,0,0,0,58,58,58,,,,,,,,,,,None,None,0,541.3795411000028,None,541.3795411000028,542.3795694999862,542.362892499892,543.3628890999826,0,1,541.3795411000028,None,5,m,10,r,mck,2021_Sep_21_1526,WASABI Nback,2020.2.10,60.00009598691471,
0,1,5,"[0, 0]",None,0,1,1,1,,,,,0,0,0,0,0,59,59,59,,,,,,,,,,,None,None,0,543.3795556999976,None,543.3795556999976,544.3795574998949,544.3628111999715,545.3629035999766,0,1,543.3795556999976,None,5,m,10,r,mck,2021_Sep_21_1526,WASABI Nback,2020.2.10,60.00009598691471,
0,1,5,"[0, 0]",None,0,1,1,1,,,,,0,0,0,0,0,60,60,60,,,,,,,,,,,None,None,0,545.3795919999247,None,545.3795919999247,546.3795689999824,546.3629141999409,547.3629282999318,0,1,545.3795919999247,None,5,m,10,r,mck,2021_Sep_21_1526,WASABI Nback,2020.2.10,60.00009598691471,
0,1,2,"[0, 0.2]",None,0,1,1,1,,,,,0,0,0,0,0,61,61,61,,,,,,,,,,,None,None,0,547.3795910999179,None,547.3795910999179,548.3795921999263,548.362925299909,549.3629404999083,0,1,547.3795910999179,None,5,m,10,r,mck,2021_Sep_21_1526,WASABI Nback,2020.2.10,60.00009598691471,
0,1,6,"[0.2, 0]",None,0,1,1,1,,,,,0,0,0,0,0,62,62,62,,,,,,,,,,,None,None,0,549.3795988999773,None,549.3795988999773,550.3796106999507,550.3629593999358,551.362942699925,0,1,549.3795988999773,None,5,m,10,r,mck,2021_Sep_21_1526,WASABI Nback,2020.2.10,60.00009598691471,
0,1,9,"[0.2, -0.2]",None,0,1,1,1,,,,,0,0,0,0,0,63,63,63,,,,,,,,,,,None,None,0,551.3796252999455,None,551.3796252999455,552.3796412999509,552.3629711999092,553.362973799929,0,1,551.3796252999455,None,5,m,10,r,mck,2021_Sep_21_1526,WASABI Nback,2020.2.10,60.00009598691471,
0,1,3,"[0.2, 0.2]",None,0,1,1,1,,,,,0,0,0,0,0,64,64,64,,,,,,,,,,,None,None,0,553.3796619999921,None,553.3796619999921,554.3796443999745,554.362963499967,555.3629688998917,0,1,553.3796619999921,None,5,m,10,r,mck,2021_Sep_21_1526,WASABI Nback,2020.2.10,60.00009598691471,
0,1,9,"[0.2, -0.2]",1,0,1,1,1,,,,,0,0,0,0,0,65,65,65,,,,,,,,,,,None,None,0,555.3796581999632,None,555.3796581999632,556.3796747999731,556.362980099977,557.3629887999268,0,1,555.3796581999632,None,5,m,10,r,mck,2021_Sep_21_1526,WASABI Nback,2020.2.10,60.00009598691471,
0,1,7,"[-0.2, -0.2]",None,0,1,1,1,,,,,0,0,0,0,0,66,66,66,,,,,,,,,,,None,None,0,557.379663700005,None,557.379663700005,558.3796712999465,558.3630075999536,559.3630150998943,0,1,557.379663700005,None,5,m,10,r,mck,2021_Sep_21_1526,WASABI Nback,2020.2.10,60.00009598691471,
0,1,1,"[-0.2, 0.2]",None,0,1,1,1,,,,,0,0,0,0,0,67,67,67,,,,,,,,,,,None,None,0,559.3796969999094,None,559.3796969999094,560.3796723999549,560.3629415999167,561.3630295000039,0,1,559.3796969999094,None,5,m,10,r,mck,2021_Sep_21_1526,WASABI Nback,2020.2.10,60.00009598691471,
0,1,5,"[0, 0]",None,0,1,1,1,,,,,0,0,0,0,0,68,68,68,,,,,,,,,,,None,None,0,561.3797111999011,None,561.3797111999011,562.3797278999118,562.3630211999407,563.3630320999073,0,1,561.3797111999011,None,5,m,10,r,mck,2021_Sep_21_1526,WASABI Nback,2020.2.10,60.00009598691471,
0,1,7,"[-0.2, -0.2]",None,0,1,1,1,,,,,0,0,0,0,0,69,69,69,,,,,,,,,,,None,None,0,563.3797234999947,None,563.3797234999947,564.3797275999095,564.363052599947,565.3630685999524,0,1,563.3797234999947,None,5,m,10,r,mck,2021_Sep_21_1526,WASABI Nback,2020.2.10,60.00009598691471,
0,1,5,"[0, 0]",1,0,1,1,1,,,,,0,0,0,0,0,70,70,70,,,,,,,,,,,None,None,0,565.3797429999104,None,565.3797429999104,566.379731999943,566.3630684999516,567.3630751000019,0,1,565.3797429999104,None,5,m,10,r,mck,2021_Sep_21_1526,WASABI Nback,2020.2.10,60.00009598691471,
0,1,6,"[0.2, 0]",None,0,1,1,1,,,,,0,0,0,0,0,71,71,71,,,,,,,,,,,None,None,0,567.379751099972,None,567.379751099972,568.3797621999402,568.3630800999235,569.3630734999897,0,1,567.379751099972,None,5,m,10,r,mck,2021_Sep_21_1526,WASABI Nback,2020.2.10,60.00009598691471,
0,1,3,"[0.2, 0.2]",None,0,1,1,1,,,,,0,0,0,0,0,72,72,72,,,,,,,,,,,None,None,0,569.3797561998945,None,569.3797561998945,570.3797769999364,570.3631000999594,571.3630937999114,0,1,569.3797561998945,None,5,m,10,r,mck,2021_Sep_21_1526,WASABI Nback,2020.2.10,60.00009598691471,
0,1,6,"[0.2, 0]",1,0,1,1,1,,,,,0,0,0,0,0,73,73,73,,,,,,,,,,,None,None,0,571.3797677999828,None,571.3797677999828,572.3797812999692,572.3631056000013,573.3631118999328,0,1,571.3797677999828,None,5,m,10,r,mck,2021_Sep_21_1526,WASABI Nback,2020.2.10,60.00009598691471,
0,1,8,"[0, -0.2]",None,0,1,1,1,,,,,0,0,0,0,0,74,74,74,,,,,,,,,,,None,None,0,573.3798012000043,None,573.3798012000043,574.3797915999312,574.3631208000006,575.3631400999147,0,1,573.3798012000043,None,5,m,10,r,mck,2021_Sep_21_1526,WASABI Nback,2020.2.10,60.00009598691471,
0,1,9,"[0.2, -0.2]",None,0,1,1,1,,,,,0,0,0,0,0,75,75,75,,,,,,,,,,,None,None,0,575.379864599905,None,575.379864599905,576.3798148999922,576.3631475999719,577.3631404999178,0,1,575.379864599905,None,5,m,10,r,mck,2021_Sep_21_1526,WASABI Nback,2020.2.10,60.00009598691471,
0,1,9,"[0.2, -0.2]",None,0,1,1,1,,,,,0,0,0,0,0,76,76,76,,,,,,,,,,,None,None,0,577.3797126999125,None,577.3797126999125,578.3798264999641,578.3631478999741,579.3631604999537,0,1,577.3797126999125,None,5,m,10,r,mck,2021_Sep_21_1526,WASABI Nback,2020.2.10,60.00009598691471,
0,1,1,"[-0.2, 0.2]",None,0,1,1,1,,,,,0,0,0,0,0,77,77,77,,,,,,,,,,,None,None,0,579.3798423999688,None,579.3798423999688,580.3798411999596,580.3631793999812,581.363185599912,0,1,579.3798423999688,None,5,m,10,r,mck,2021_Sep_21_1526,WASABI Nback,2020.2.10,60.00009598691471,
0,1,3,"[0.2, 0.2]",None,0,1,1,1,,,,,0,0,0,0,0,78,78,78,,,,,,,,,,,None,None,0,581.37985259993,None,581.37985259993,582.3798668999225,582.3631822000025,583.363187699928,0,1,581.37985259993,None,5,m,10,r,mck,2021_Sep_21_1526,WASABI Nback,2020.2.10,60.00009598691471,
0,1,5,"[0, 0]",None,0,1,1,1,,,,,0,0,0,0,0,79,79,79,,,,,,,,,,,None,None,0,583.3798700999469,None,583.3798700999469,584.3798735999735,584.3632076999638,585.3632094999775,0,1,583.3798700999469,None,5,m,10,r,mck,2021_Sep_21_1526,WASABI Nback,2020.2.10,60.00009598691471,
0,1,3,"[0.2, 0.2]",1,0,1,1,1,,,,,0,0,0,0,0,80,80,80,,,,,,,,,,,None,None,0,585.3798906999873,None,585.3798906999873,586.3798827999271,586.3632171999197,587.3631220998941,0,1,585.3798906999873,None,5,m,10,r,mck,2021_Sep_21_1526,WASABI Nback,2020.2.10,60.00009598691471,
0,1,4,"[-0.2, 0]",None,0,1,1,1,,,,,0,0,0,0,0,81,81,81,,,,,,,,,,,None,None,0,587.379892500001,None,587.379892500001,588.3799136999296,588.3632358999457,589.3632438000059,0,1,587.379892500001,None,5,m,10,r,mck,2021_Sep_21_1526,WASABI Nback,2020.2.10,60.00009598691471,
0,1,7,"[-0.2, -0.2]",None,0,1,1,1,,,,,0,0,0,0,0,82,82,82,,,,,,,,,,,None,None,0,589.3798974999227,None,589.3798974999227,590.3799170999555,590.3632398999762,591.3632590000052,0,1,589.3798974999227,None,5,m,10,r,mck,2021_Sep_21_1526,WASABI Nback,2020.2.10,60.00009598691471,
0,1,4,"[-0.2, 0]",1,0,1,1,1,,,,,0,0,0,0,0,83,83,83,,,,,,,,,,,None,None,0,591.3799308999442,None,591.3799308999442,592.3799318999518,592.3632519999519,593.3632769999094,0,1,591.3799308999442,None,5,m,10,r,mck,2021_Sep_21_1526,WASABI Nback,2020.2.10,60.00009598691471,
0,1,4,"[-0.2, 0]",None,0,1,1,1,,,,,0,0,0,0,0,84,84,84,,,,,,,,,,,None,None,0,593.3799243998947,None,593.3799243998947,594.3799398998963,594.3632798999315,595.3632928999141,0,1,593.3799243998947,None,5,m,10,r,mck,2021_Sep_21_1526,WASABI Nback,2020.2.10,60.00009598691471,
0,1,5,"[0, 0]",None,0,1,1,1,,,,,0,0,0,0,0,85,85,85,,,,,,,,,,,None,None,0,595.3799498999724,None,595.3799498999724,596.3799684999976,596.3632955999346,597.3632943999255,0,1,595.3799498999724,None,5,m,10,r,mck,2021_Sep_21_1526,WASABI Nback,2020.2.10,60.00009598691471,
0,1,2,"[0, 0.2]",None,0,1,1,1,,,,,0,0,0,0,0,86,86,86,,,,,,,,,,,None,None,0,597.3799703998957,None,597.3799703998957,598.3800312998937,598.3633108999347,599.3633172999835,0,1,597.3799703998957,None,5,m,10,r,mck,2021_Sep_21_1526,WASABI Nback,2020.2.10,60.00009598691471,
0,1,6,"[0.2, 0]",None,0,1,1,1,,,,,0,0,0,0,0,87,87,87,,,,,,,,,,,None,None,0,599.379969200003,None,599.379969200003,600.3799932999536,600.3633425999433,601.3633171999827,0,1,599.379969200003,None,5,m,10,r,mck,2021_Sep_21_1526,WASABI Nback,2020.2.10,60.00009598691471,
0,1,7,"[-0.2, -0.2]",None,0,1,1,1,,,,,0,0,0,0,0,88,88,88,,,,,,,,,,,None,None,0,601.3799828999909,None,601.3799828999909,602.3799974999856,602.3633398999227,603.3633472999791,0,1,601.3799828999909,None,5,m,10,r,mck,2021_Sep_21_1526,WASABI Nback,2020.2.10,60.00009598691471,
0,1,6,"[0.2, 0]",1,0,1,1,1,,,,,0,0,0,0,0,89,89,89,,,,,,,,,,,None,None,0,603.380010999972,None,603.380010999972,604.3800097999629,604.3633612999693,605.3633598999586,0,1,603.380010999972,None,5,m,10,r,mck,2021_Sep_21_1526,WASABI Nback,2020.2.10,60.00009598691471,
0,1,6,"[0.2, 0]",None,0,1,1,1,,,,,0,0,0,0,0,90,90,90,,,,,,,,,,,None,None,0,605.3800178999081,None,605.3800178999081,606.3800368999364,606.3633755999617,607.3632897998905,0,1,605.3800178999081,None,5,m,10,r,mck,2021_Sep_21_1526,WASABI Nback,2020.2.10,60.00009598691471,
0,1,7,"[-0.2, -0.2]",None,0,1,1,1,,,,,0,0,0,0,0,91,91,91,,,,,,,,,,,None,None,0,607.3800351999234,None,607.3800351999234,608.3800637999084,608.3633872999344,609.3633741999511,0,1,607.3800351999234,None,5,m,10,r,mck,2021_Sep_21_1526,WASABI Nback,2020.2.10,60.00009598691471,
0,1,6,"[0.2, 0]",1,0,1,1,1,,,,,0,0,0,0,0,92,92,92,,,,,,,,,,,None,None,0,609.3800632999046,None,609.3800632999046,610.3800749999937,610.3634096999886,611.3634254999924,0,1,609.3800632999046,None,5,m,10,r,mck,2021_Sep_21_1526,WASABI Nback,2020.2.10,60.00009598691471,
0,1,2,"[0, 0.2]",None,0,1,1,1,,,,,0,0,0,0,0,93,93,93,,,,,,,,,,,None,None,0,611.3800072999438,None,611.3800072999438,612.3800874999724,612.3634195999475,613.3634078999748,0,1,611.3800072999438,None,5,m,10,r,mck,2021_Sep_21_1526,WASABI Nback,2020.2.10,60.00009598691471,
0,1,5,"[0, 0]",None,0,1,1,1,,,,,0,0,0,0,0,94,94,94,,,,,,,,,,,None,None,0,613.3800857999595,None,613.3800857999595,614.3800861999625,614.3634580998914,615.3634421000024,0,1,613.3800857999595,None,5,m,10,r,mck,2021_Sep_21_1526,WASABI Nback,2020.2.10,60.00009598691471,
0,1,4,"[-0.2, 0]",None,0,1,1,1,,,,,0,0,0,0,0,95,95,95,,,,,,,,,,,None,None,0,615.3800892999861,None,615.3800892999861,616.3801030999748,616.3634308999171,617.3634556999896,0,1,615.3800892999861,None,5,m,10,r,mck,2021_Sep_21_1526,WASABI Nback,2020.2.10,60.00009598691471,
0,1,4,"[-0.2, 0]",None,0,1,1,1,,,,,0,0,0,0,0,96,96,96,,,,,,,,,,,None,None,0,617.3801318999613,None,617.3801318999613,618.380098399939,618.3634526999667,619.363455099985,0,1,617.3801318999613,None,5,m,10,r,mck,2021_Sep_21_1526,WASABI Nback,2020.2.10,60.00009598691471,
0,1,7,"[-0.2, -0.2]",None,0,1,1,1,,,,,0,0,0,0,0,97,97,97,,,,,,,,,,,None,None,0,619.3801264999202,None,619.3801264999202,620.3801568999188,620.3634776999243,621.3634814999532,0,1,619.3801264999202,None,5,m,10,r,mck,2021_Sep_21_1526,WASABI Nback,2020.2.10,60.00009598691471,
0,1,4,"[-0.2, 0]",1,0,1,1,1,,,,,0,0,0,0,0,98,98,98,,,,,,,,,,,None,None,0,621.3801479999674,None,621.3801479999674,622.3801491999766,622.3634791999357,623.3635210999055,0,1,621.3801479999674,None,5,m,10,r,mck,2021_Sep_21_1526,WASABI Nback,2020.2.10,60.00009598691471,
0,1,3,"[0.2, 0.2]",None,0,1,1,1,,,,,0,0,0,0,0,99,99,99,,,,,,,,,,,None,None,0,623.380170499906,None,623.380170499906,624.3801772999577,624.3634899999015,625.3635159999831,0,1,623.380170499906,None,5,m,10,r,mck,2021_Sep_21_1526,WASABI Nback,2020.2.10,60.00009598691471,
0,1,5,"[0, 0]",None,0,1,1,1,,,,,0,0,0,0,0,100,100,100,,,,,,,,,,,None,None,0,625.3801755999448,None,625.3801755999448,626.3801911999471,626.3635003999807,627.3635348998941,0,1,625.3801755999448,None,5,m,10,r,mck,2021_Sep_21_1526,WASABI Nback,2020.2.10,60.00009598691471,
0,1,3,"[0.2, 0.2]",1,0,1,1,1,,,,,0,0,0,0,0,101,101,101,,,,,,,,,,,None,None,0,627.3801787999691,None,627.3801787999691,628.3802010999061,628.3635334999999,629.3635453999741,0,1,627.3801787999691,None,5,m,10,r,mck,2021_Sep_21_1526,WASABI Nback,2020.2.10,60.00009598691471,
0,1,1,"[-0.2, 0.2]",None,0,1,1,1,,,,,0,0,0,0,0,102,102,102,,,,,,,,,,,None,None,0,629.380220699939,None,629.380220699939,630.3802240999648,630.363549899892,631.3635545999277,0,1,629.380220699939,None,5,m,10,r,mck,2021_Sep_21_1526,WASABI Nback,2020.2.10,60.00009598691471,
0,1,9,"[0.2, -0.2]",None,0,1,1,1,,,,,0,0,0,0,0,103,103,103,,,,,,,,,,,None,None,0,631.3802250999724,None,631.3802250999724,632.3802366999444,632.3635529999156,633.3635635999963,0,1,631.3802250999724,None,5,m,10,r,mck,2021_Sep_21_1526,WASABI Nback,2020.2.10,60.00009598691471,
0,1,9,"[0.2, -0.2]",None,0,1,1,1,,,,,0,0,0,0,0,104,104,104,,,,,,,,,,,None,None,0,633.3802294000052,None,633.3802294000052,634.3802510999376,634.3635882999515,635.3635805998929,0,1,633.3802294000052,None,5,m,10,r,mck,2021_Sep_21_1526,WASABI Nback,2020.2.10,60.00009598691471,
0,1,8,"[0, -0.2]",None,0,1,1,1,,,,,0,0,0,0,0,105,105,105,,,,,,,,,,,None,None,0,635.380256399978,None,635.380256399978,636.3802506999345,636.3636282999068,637.3635921999812,0,1,635.380256399978,None,5,m,10,r,mck,2021_Sep_21_1526,WASABI Nback,2020.2.10,60.00009598691471,
0,1,6,"[0.2, 0]",None,0,1,1,1,,,,,0,0,0,0,0,106,106,106,,,,,,,,,,,None,None,0,637.3802706999704,None,637.3802706999704,638.3802774999058,638.3636213999707,639.3636232999852,0,1,637.3802706999704,None,5,m,10,r,mck,2021_Sep_21_1526,WASABI Nback,2020.2.10,60.00009598691471,
0,1,3,"[0.2, 0.2]",None,0,1,1,1,,,,,0,0,0,0,0,107,107,107,,,,,,,,,,,None,None,0,639.3802722999826,None,639.3802722999826,640.3803082999075,640.3636348999571,641.3636305999244,0,1,639.3802722999826,None,5,m,10,r,mck,2021_Sep_21_1526,WASABI Nback,2020.2.10,60.00009598691471,
0,1,6,"[0.2, 0]",1,0,1,1,1,,,,,0,0,0,0,0,108,108,108,,,,,,,,,,,None,None,0,641.3803008999676,None,641.3803008999676,642.3802934999112,642.363636199967,643.3636537999846,0,1,641.3803008999676,None,5,m,10,r,mck,2021_Sep_21_1526,WASABI Nback,2020.2.10,60.00009598691471,
0,1,5,"[0, 0]",None,0,1,1,1,,,,,0,0,0,0,0,109,109,109,,,,,,,,,,,None,None,0,643.3803371998947,None,643.3803371998947,644.380325499922,644.3636597999139,645.3636847999878,0,1,643.3803371998947,None,5,m,10,r,mck,2021_Sep_21_1526,WASABI Nback,2020.2.10,60.00009598691471,
0,1,7,"[-0.2, -0.2]",None,0,1,1,1,,,,,0,0,0,0,0,110,110,110,,,,,,,,,,,None,None,0,645.3802311999025,None,645.3802311999025,646.380336400005,646.363687499892,647.3636871000053,0,1,645.3802311999025,None,5,m,10,r,mck,2021_Sep_21_1526,WASABI Nback,2020.2.10,60.00009598691471,
0,1,5,"[0, 0]",1,0,1,1,1,,,,,0,0,0,0,0,111,111,111,,,,,,,,,,,None,None,0,647.3803352999967,None,647.3803352999967,648.3803373998962,648.363704099902,649.3637088999385,0,1,647.3803352999967,None,5,m,10,r,mck,2021_Sep_21_1526,WASABI Nback,2020.2.10,60.00009598691471,
0,1,1,"[-0.2, 0.2]",None,0,1,1,1,,,,,0,0,0,0,0,112,112,112,,,,,,,,,,,None,None,0,649.3803622999694,None,649.3803622999694,650.3803729999345,650.363704099902,651.3637060999172,0,1,649.3803622999694,None,5,m,10,r,mck,2021_Sep_21_1526,WASABI Nback,2020.2.10,60.00009598691471,
0,1,7,"[-0.2, -0.2]",None,0,1,1,1,,,,,0,0,0,0,0,113,113,113,,,,,,,,,,,None,None,0,651.380360799958,None,651.380360799958,652.3803898999467,652.3637290999759,653.363732400001,0,1,651.380360799958,None,5,m,10,r,mck,2021_Sep_21_1526,WASABI Nback,2020.2.10,60.00009598691471,
0,1,9,"[0.2, -0.2]",None,0,1,1,1,,,,,0,0,0,0,0,114,114,114,,,,,,,,,,,None,None,0,653.3803948999848,None,653.3803948999848,654.3803884999361,654.3637534999289,655.3637533999281,0,1,653.3803948999848,None,5,m,10,r,mck,2021_Sep_21_1526,WASABI Nback,2020.2.10,60.00009598691471,
0,1,3,"[0.2, 0.2]",None,0,1,1,1,,,,,0,0,0,0,0,115,115,115,,,,,,,,,,,None,None,0,655.3804133998929,None,655.3804133998929,656.3804296999006,656.3637519999174,657.3637514999136,0,1,655.3804133998929,None,5,m,10,r,mck,2021_Sep_21_1526,WASABI Nback,2020.2.10,60.00009598691471,
0,1,9,"[0.2, -0.2]",1,0,1,1,1,,,,,0,0,0,0,0,116,116,116,,,,,,,,,,,None,None,0,657.3804114999948,None,657.3804114999948,658.3804284998914,658.3637745999731,659.3637739999685,0,1,657.3804114999948,None,5,m,10,r,mck,2021_Sep_21_1526,WASABI Nback,2020.2.10,60.00009598691471,
0,1,6,"[0.2, 0]",None,0,1,1,1,,,,,0,0,0,0,0,117,117,117,,,,,,,,,,,None,None,0,659.3804366999539,None,659.3804366999539,660.3804480999243,660.3637812999077,661.3637954998994,0,1,659.3804366999539,None,5,m,10,r,mck,2021_Sep_21_1526,WASABI Nback,2020.2.10,60.00009598691471,
0,1,2,"[0, 0.2]",None,0,1,1,1,,,,,0,0,0,0,0,118,118,118,,,,,,,,,,,None,None,0,661.3804483999265,None,661.3804483999265,662.380463099922,662.3637962999055,663.3637984999223,0,1,661.3804483999265,None,5,m,10,r,mck,2021_Sep_21_1526,WASABI Nback,2020.2.10,60.00009598691471,
0,1,5,"[0, 0]",None,0,1,1,1,,,,,0,0,0,0,0,119,119,119,,,,,,,,,,,None,None,0,663.3804499999387,None,663.3804499999387,664.3804707999807,664.3638227999909,665.3638180999551,0,1,663.3804499999387,None,5,m,10,r,mck,2021_Sep_21_1526,WASABI Nback,2020.2.10,60.00009598691471,
