RestT1,TaskT1,square,location,corrAns,counterbalancer.thisRepN,counterbalancer.thisTrialN,counterbalancer.thisN,counterbalancer.thisIndex,RestT1Loop.thisRepN,RestT1Loop.thisTrialN,RestT1Loop.thisN,RestT1Loop.thisIndex,TaskT1Loop.thisRepN,TaskT1Loop.thisTrialN,TaskT1Loop.thisN,TaskT1Loop.thisIndex,trials_2.thisRepN,trials_2.thisTrialN,trials_2.thisN,trials_2.thisIndex,fixation_1.started,fixation_1.stopped,NbackInstructions.started,NbackInstructions.stopped,NbackStart.keys,NbackStart.rt,NbackStart.started,NbackStart.stopped,fixation_2.started,fixation_2.stopped,response_2.x,response_2.y,response_2.leftButton,grid_lines_2.started,grid_lines_2.stopped,target_square_2.started,target_square_2.stopped,fixation_3.started,fixation_3.stopped,response_2.click,response_2.corr,response_2.started,response_2.stopped,subject number,gender,session,handedness,scanner,date,expName,psychopyVersion,frameRate,
1,0,,,,0,0,0,0,0,0,0,0,,,,,,,,,75.16478349990211,None,,,,,,,,,,,,,,,,,,,,,,1,m,32,r,MCK,2022_Jan_06_1409,WASABI Nback,2020.2.10,59.97803602957353,
0,1,,,,0,1,1,1,,,,,0,0,0,0,,,,,,,347.5338377999142,None,space,54.213076800107956,347.5338377999142,None,,,,,,,,,,,,,,,,1,m,32,r,MCK,2022_Jan_06_1409,WASABI Nback,2020.2.10,59.97803602957353,
0,1,5,"[0, 0]",None,0,1,1,1,,,,,0,0,0,0,0,0,0,0,,,,,,,,,None,None,None,None,[],None,None,None,None,None,None,[],[],None,None,1,m,32,r,MCK,2022_Jan_06_1409,WASABI Nback,2020.2.10,59.97803602957353,
0,1,2,"[0, 0.2]",None,0,1,1,1,,,,,0,0,0,0,0,1,1,1,,,,,,,,,,,None,None,0,406.00096209999174,None,406.00096209999174,None,None,None,0,1,406.00096209999174,None,1,m,32,r,MCK,2022_Jan_06_1409,WASABI Nback,2020.2.10,59.97803602957353,
0,1,6,"[0.2, 0]",None,0,1,1,1,,,,,0,0,0,0,0,2,2,2,,,,,,,,,,,None,None,0,406.7843279999215,None,406.7843279999215,407.7843243998941,407.7676494999323,408.76767319999635,0,1,406.7843279999215,None,1,m,32,r,MCK,2022_Jan_06_1409,WASABI Nback,2020.2.10,59.97803602957353,
0,1,9,"[0.2, -0.2]",None,0,1,1,1,,,,,0,0,0,0,0,3,3,3,,,,,,,,,,,None,None,0,408.7843386998866,None,408.7843386998866,409.7843378998805,409.7676823998336,410.76767680002376,0,1,408.7843386998866,None,1,m,32,r,MCK,2022_Jan_06_1409,WASABI Nback,2020.2.10,59.97803602957353,
0,1,3,"[0.2, 0.2]",None,0,1,1,1,,,,,0,0,0,0,0,4,4,4,,,,,,,,,,,None,None,0,410.7843424999155,None,410.7843424999155,411.78436599997804,411.76769849983975,412.7677096000407,0,1,410.7843424999155,None,1,m,32,r,MCK,2022_Jan_06_1409,WASABI Nback,2020.2.10,59.97803602957353,
0,1,9,"[0.2, -0.2]",1,0,1,1,1,,,,,0,0,0,0,0,5,5,5,,,,,,,,,,,None,None,0,412.78436439996585,None,412.78436439996585,413.7843766999431,413.7677136999555,414.7677125998307,0,1,412.78436439996585,None,1,m,32,r,MCK,2022_Jan_06_1409,WASABI Nback,2020.2.10,59.97803602957353,
0,1,7,"[-0.2, -0.2]",None,0,1,1,1,,,,,0,0,0,0,0,6,6,6,,,,,,,,,,,None,None,0,414.7843891000375,None,414.7843891000375,415.7843931999523,415.7677167998627,416.7677281999495,0,1,414.7843891000375,None,1,m,32,r,MCK,2022_Jan_06_1409,WASABI Nback,2020.2.10,59.97803602957353,
0,1,1,"[-0.2, 0.2]",None,0,1,1,1,,,,,0,0,0,0,0,7,7,7,,,,,,,,,,,None,None,0,416.784399199998,None,416.784399199998,417.7844099998474,417.767737200018,418.767738699913,0,1,416.784399199998,None,1,m,32,r,MCK,2022_Jan_06_1409,WASABI Nback,2020.2.10,59.97803602957353,
0,1,5,"[0, 0]",None,0,1,1,1,,,,,0,0,0,0,0,8,8,8,,,,,,,,,,,None,None,0,418.7844146999996,None,418.7844146999996,419.784425499849,419.767747099977,420.76777100004256,0,1,418.7844146999996,None,1,m,32,r,MCK,2022_Jan_06_1409,WASABI Nback,2020.2.10,59.97803602957353,
0,1,7,"[-0.2, -0.2]",None,0,1,1,1,,,,,0,0,0,0,0,9,9,9,,,,,,,,,,,None,None,0,420.78442829987034,None,420.78442829987034,421.7844372999389,421.76779039995745,422.7677901999559,0,1,420.78442829987034,None,1,m,32,r,MCK,2022_Jan_06_1409,WASABI Nback,2020.2.10,59.97803602957353,
0,1,5,"[0, 0]",1,0,1,1,1,,,,,0,0,0,0,0,10,10,10,,,,,,,,,,,None,None,0,422.78445059992373,None,422.78445059992373,423.78445110004395,423.76786719984375,424.76780899986625,0,1,422.78445059992373,None,1,m,32,r,MCK,2022_Jan_06_1409,WASABI Nback,2020.2.10,59.97803602957353,
0,1,6,"[0.2, 0]",None,0,1,1,1,,,,,0,0,0,0,0,11,11,11,,,,,,,,,,,None,None,0,424.7844673998188,None,424.7844673998188,425.7844847999513,425.7677912998479,426.76780309993774,0,1,424.7844673998188,None,1,m,32,r,MCK,2022_Jan_06_1409,WASABI Nback,2020.2.10,59.97803602957353,
0,1,3,"[0.2, 0.2]",None,0,1,1,1,,,,,0,0,0,0,0,12,12,12,,,,,,,,,,,None,None,0,426.7844860998448,None,426.7844860998448,427.78449509991333,427.7678272998892,428.76783539983444,0,1,426.7844860998448,None,1,m,32,r,MCK,2022_Jan_06_1409,WASABI Nback,2020.2.10,59.97803602957353,
0,1,6,"[0.2, 0]",1,0,1,1,1,,,,,0,0,0,0,0,13,13,13,,,,,,,,,,,None,None,0,428.784506799886,None,428.784506799886,429.7844992999453,429.7678525999654,430.7678551999852,0,1,428.784506799886,None,1,m,32,r,MCK,2022_Jan_06_1409,WASABI Nback,2020.2.10,59.97803602957353,
0,1,8,"[0, -0.2]",None,0,1,1,1,,,,,0,0,0,0,0,14,14,14,,,,,,,,,,,None,None,0,430.7845171999652,None,430.7845171999652,431.7845306999516,431.7678731000051,432.7678576000035,0,1,430.7845171999652,None,1,m,32,r,MCK,2022_Jan_06_1409,WASABI Nback,2020.2.10,59.97803602957353,
0,1,9,"[0.2, -0.2]",None,0,1,1,1,,,,,0,0,0,0,0,15,15,15,,,,,,,,,,,None,None,0,432.78454110003076,None,432.78454110003076,433.7845423000399,433.76789749995805,434.7678823999595,0,1,432.78454110003076,None,1,m,32,r,MCK,2022_Jan_06_1409,WASABI Nback,2020.2.10,59.97803602957353,
0,1,9,"[0.2, -0.2]",None,0,1,1,1,,,,,0,0,0,0,0,16,16,16,,,,,,,,,,,None,None,0,434.78455839981325,None,434.78455839981325,435.78456229995936,435.7679133999627,436.7679081999231,0,1,434.78455839981325,None,1,m,32,r,MCK,2022_Jan_06_1409,WASABI Nback,2020.2.10,59.97803602957353,
0,1,1,"[-0.2, 0.2]",None,0,1,1,1,,,,,0,0,0,0,0,17,17,17,,,,,,,,,,,None,None,0,436.7845810998697,None,436.7845810998697,437.78461329988204,437.7679047000129,438.7679280999582,0,1,436.7845810998697,None,1,m,32,r,MCK,2022_Jan_06_1409,WASABI Nback,2020.2.10,59.97803602957353,
0,1,3,"[0.2, 0.2]",None,0,1,1,1,,,,,0,0,0,0,0,18,18,18,,,,,,,,,,,None,None,0,438.78458999982104,None,438.78458999982104,439.78458589990623,439.7679375000298,440.76793249999173,0,1,438.78458999982104,None,1,m,32,r,MCK,2022_Jan_06_1409,WASABI Nback,2020.2.10,59.97803602957353,
0,1,5,"[0, 0]",None,0,1,1,1,,,,,0,0,0,0,0,19,19,19,,,,,,,,,,,None,None,0,440.784607199952,None,440.784607199952,441.7846050998196,441.76794429984875,442.767961199861,0,1,440.784607199952,None,1,m,32,r,MCK,2022_Jan_06_1409,WASABI Nback,2020.2.10,59.97803602957353,
0,1,3,"[0.2, 0.2]",1,0,1,1,1,,,,,0,0,0,0,0,20,20,20,,,,,,,,,,,None,None,0,442.7846240999643,None,442.7846240999643,443.7846266999841,443.76795549993403,444.7679591998458,0,0,442.7846240999643,None,1,m,32,r,MCK,2022_Jan_06_1409,WASABI Nback,2020.2.10,59.97803602957353,
0,1,4,"[-0.2, 0]",None,0,1,1,1,,,,,0,0,0,0,0,21,21,21,,,,,,,,,,,None,None,0,444.78464069985785,None,444.78464069985785,445.7846476000268,445.76797699998133,446.76798469992355,0,1,444.78464069985785,None,1,m,32,r,MCK,2022_Jan_06_1409,WASABI Nback,2020.2.10,59.97803602957353,
0,1,7,"[-0.2, -0.2]",None,0,1,1,1,,,,,0,0,0,0,0,22,22,22,,,,,,,,,,,None,None,0,446.7846490999218,None,446.7846490999218,447.78466039989144,447.7680093999952,448.76802139985375,0,1,446.7846490999218,None,1,m,32,r,MCK,2022_Jan_06_1409,WASABI Nback,2020.2.10,59.97803602957353,
0,1,4,"[-0.2, 0]",1,0,1,1,1,,,,,0,0,0,0,0,23,23,23,,,,,,,,,,,None,None,0,448.7846270999871,None,448.7846270999871,449.78468649997376,449.7680128000211,450.7680104000028,0,1,448.7846270999871,None,1,m,32,r,MCK,2022_Jan_06_1409,WASABI Nback,2020.2.10,59.97803602957353,
0,1,4,"[-0.2, 0]",None,0,1,1,1,,,,,0,0,0,0,0,24,24,24,,,,,,,,,,,None,None,0,450.78469510003924,None,450.78469510003924,451.7846955000423,451.7680227998644,452.76802759990096,0,1,450.78469510003924,None,1,m,32,r,MCK,2022_Jan_06_1409,WASABI Nback,2020.2.10,59.97803602957353,
0,1,5,"[0, 0]",None,0,1,1,1,,,,,0,0,0,0,0,25,25,25,,,,,,,,,,,None,None,0,452.78470700001344,None,452.78470700001344,453.7847153998446,453.7680328998249,454.76805529999547,0,1,452.78470700001344,None,1,m,32,r,MCK,2022_Jan_06_1409,WASABI Nback,2020.2.10,59.97803602957353,
0,1,2,"[0, 0.2]",None,0,1,1,1,,,,,0,0,0,0,0,26,26,26,,,,,,,,,,,None,None,0,454.78472809982486,None,454.78472809982486,455.78473800001666,455.7679645998869,456.76807939982973,0,1,454.78472809982486,None,1,m,32,r,MCK,2022_Jan_06_1409,WASABI Nback,2020.2.10,59.97803602957353,
0,1,6,"[0.2, 0]",None,0,1,1,1,,,,,0,0,0,0,0,27,27,27,,,,,,,,,,,None,None,0,456.7847936998587,None,456.7847936998587,457.78473720001057,457.76807989994995,458.7680856999941,0,1,456.7847936998587,None,1,m,32,r,MCK,2022_Jan_06_1409,WASABI Nback,2020.2.10,59.97803602957353,
0,1,7,"[-0.2, -0.2]",None,0,1,1,1,,,,,0,0,0,0,0,28,28,28,,,,,,,,,,,None,None,0,458.784758299822,None,458.784758299822,459.78476589987986,459.7680856999941,460.7681014998816,0,1,458.784758299822,None,1,m,32,r,MCK,2022_Jan_06_1409,WASABI Nback,2020.2.10,59.97803602957353,
0,1,6,"[0.2, 0]",1,0,1,1,1,,,,,0,0,0,0,0,29,29,29,,,,,,,,,,,None,None,0,460.78478039987385,None,460.78478039987385,461.78478610003367,461.7681268998422,462.76814139983617,0,1,460.78478039987385,None,1,m,32,r,MCK,2022_Jan_06_1409,WASABI Nback,2020.2.10,59.97803602957353,
0,1,6,"[0.2, 0]",None,0,1,1,1,,,,,0,0,0,0,0,30,30,30,,,,,,,,,,,None,None,0,462.78478639991954,None,462.78478639991954,463.78479800000787,463.7680809998419,464.7681446999777,0,1,462.78478639991954,None,1,m,32,r,MCK,2022_Jan_06_1409,WASABI Nback,2020.2.10,59.97803602957353,
0,1,7,"[-0.2, -0.2]",None,0,1,1,1,,,,,0,0,0,0,0,31,31,31,,,,,,,,,,,None,None,0,464.78481670003384,None,464.78481670003384,465.7848020000383,465.76815879996866,466.7681356999092,0,1,464.78481670003384,None,1,m,32,r,MCK,2022_Jan_06_1409,WASABI Nback,2020.2.10,59.97803602957353,
0,1,6,"[0.2, 0]",1,0,1,1,1,,,,,0,0,0,0,0,32,32,32,,,,,,,,,,,None,None,0,466.78482669987716,None,466.78482669987716,467.78484299988486,467.7681674999185,468.7681709998287,0,1,466.78482669987716,None,1,m,32,r,MCK,2022_Jan_06_1409,WASABI Nback,2020.2.10,59.97803602957353,
0,1,2,"[0, 0.2]",None,0,1,1,1,,,,,0,0,0,0,0,33,33,33,,,,,,,,,,,None,None,0,468.7848376999609,None,468.7848376999609,469.78484969981946,469.7681907999795,470.76819529989734,0,1,468.7848376999609,None,1,m,32,r,MCK,2022_Jan_06_1409,WASABI Nback,2020.2.10,59.97803602957353,
0,1,5,"[0, 0]",None,0,1,1,1,,,,,0,0,0,0,0,34,34,34,,,,,,,,,,,None,None,0,470.78484739991836,None,470.78484739991836,471.784873199882,471.7682431000285,472.76808589999564,0,1,470.78484739991836,None,1,m,32,r,MCK,2022_Jan_06_1409,WASABI Nback,2020.2.10,59.97803602957353,
0,1,4,"[-0.2, 0]",None,0,1,1,1,,,,,0,0,0,0,0,35,35,35,,,,,,,,,,,None,None,0,472.78488309984095,None,472.78488309984095,473.78487899992615,473.7682336999569,474.7682399000041,0,1,472.78488309984095,None,1,m,32,r,MCK,2022_Jan_06_1409,WASABI Nback,2020.2.10,59.97803602957353,
0,1,4,"[-0.2, 0]",None,0,1,1,1,,,,,0,0,0,0,0,36,36,36,,,,,,,,,,,None,None,0,474.78491159994155,None,474.78491159994155,475.78480289992876,475.76823149994016,476.7682594000362,0,1,474.78491159994155,None,1,m,32,r,MCK,2022_Jan_06_1409,WASABI Nback,2020.2.10,59.97803602957353,
0,1,7,"[-0.2, -0.2]",None,0,1,1,1,,,,,0,0,0,0,0,37,37,37,,,,,,,,,,,None,None,0,476.7849188998807,None,476.7849188998807,477.7849206998944,477.76826829998754,478.7682647998445,0,1,476.7849188998807,None,1,m,32,r,MCK,2022_Jan_06_1409,WASABI Nback,2020.2.10,59.97803602957353,
0,1,4,"[-0.2, 0]",1,0,1,1,1,,,,,0,0,0,0,0,38,38,38,,,,,,,,,,,None,None,0,478.7849202998914,None,478.7849202998914,479.78492859983817,479.76832619984634,480.76827259990387,0,1,478.7849202998914,None,1,m,32,r,MCK,2022_Jan_06_1409,WASABI Nback,2020.2.10,59.97803602957353,
0,1,3,"[0.2, 0.2]",None,0,1,1,1,,,,,0,0,0,0,0,39,39,39,,,,,,,,,,,None,None,0,480.784941899823,None,480.784941899823,481.7849626999814,481.7682918999344,482.7683047999162,0,1,480.784941899823,None,1,m,32,r,MCK,2022_Jan_06_1409,WASABI Nback,2020.2.10,59.97803602957353,
0,1,5,"[0, 0]",None,0,1,1,1,,,,,0,0,0,0,0,40,40,40,,,,,,,,,,,None,None,0,482.7849697000347,None,482.7849697000347,483.78496850002557,483.76830399991013,484.76831820001826,0,1,482.7849697000347,None,1,m,32,r,MCK,2022_Jan_06_1409,WASABI Nback,2020.2.10,59.97803602957353,
0,1,3,"[0.2, 0.2]",1,0,1,1,1,,,,,0,0,0,0,0,41,41,41,,,,,,,,,,,None,None,0,484.7849687000271,None,484.7849687000271,485.7849727999419,485.76832699985243,486.76832389994524,0,1,484.7849687000271,None,1,m,32,r,MCK,2022_Jan_06_1409,WASABI Nback,2020.2.10,59.97803602957353,
0,1,1,"[-0.2, 0.2]",None,0,1,1,1,,,,,0,0,0,0,0,42,42,42,,,,,,,,,,,None,None,0,486.78499439987354,None,486.78499439987354,487.78500569984317,487.76833399990574,488.7683529998176,0,1,486.78499439987354,None,1,m,32,r,MCK,2022_Jan_06_1409,WASABI Nback,2020.2.10,59.97803602957353,
0,1,9,"[0.2, -0.2]",None,0,1,1,1,,,,,0,0,0,0,0,43,43,43,,,,,,,,,,,None,None,0,488.785021699965,None,488.785021699965,489.78502209996805,489.76836630003527,490.7683723999653,0,1,488.785021699965,None,1,m,32,r,MCK,2022_Jan_06_1409,WASABI Nback,2020.2.10,59.97803602957353,
0,1,9,"[0.2, -0.2]",None,0,1,1,1,,,,,0,0,0,0,0,44,44,44,,,,,,,,,,,None,None,0,490.78502389998175,None,490.78502389998175,491.7850214999635,491.76838539983146,492.768375699874,0,1,490.78502389998175,None,1,m,32,r,MCK,2022_Jan_06_1409,WASABI Nback,2020.2.10,59.97803602957353,
0,1,8,"[0, -0.2]",None,0,1,1,1,,,,,0,0,0,0,0,45,45,45,,,,,,,,,,,None,None,0,492.7850460000336,None,492.7850460000336,493.78503829985857,493.768385599833,494.7684110000264,0,1,492.7850460000336,None,1,m,32,r,MCK,2022_Jan_06_1409,WASABI Nback,2020.2.10,59.97803602957353,
0,1,6,"[0.2, 0]",None,0,1,1,1,,,,,0,0,0,0,0,46,46,46,,,,,,,,,,,None,None,0,494.78506369981915,None,494.78506369981915,495.78506759996526,495.7684055999853,496.7684108999092,0,1,494.78506369981915,None,1,m,32,r,MCK,2022_Jan_06_1409,WASABI Nback,2020.2.10,59.97803602957353,
0,1,3,"[0.2, 0.2]",None,0,1,1,1,,,,,0,0,0,0,0,47,47,47,,,,,,,,,,,None,None,0,496.7850919000339,None,496.7850919000339,497.785088500008,497.7684183998499,498.76842909981497,0,1,496.7850919000339,None,1,m,32,r,MCK,2022_Jan_06_1409,WASABI Nback,2020.2.10,59.97803602957353,
0,1,6,"[0.2, 0]",1,0,1,1,1,,,,,0,0,0,0,0,48,48,48,,,,,,,,,,,None,None,0,498.7850986998528,None,498.7850986998528,499.78511779988185,499.7684400000144,500.76845939992927,0,1,498.7850986998528,None,1,m,32,r,MCK,2022_Jan_06_1409,WASABI Nback,2020.2.10,59.97803602957353,
0,1,5,"[0, 0]",None,0,1,1,1,,,,,0,0,0,0,0,49,49,49,,,,,,,,,,,None,None,0,500.7851223000325,None,500.7851223000325,501.78511699987575,501.76846309984103,502.76847679982893,0,1,500.7851223000325,None,1,m,32,r,MCK,2022_Jan_06_1409,WASABI Nback,2020.2.10,59.97803602957353,
0,1,7,"[-0.2, -0.2]",None,0,1,1,1,,,,,0,0,0,0,0,50,50,50,,,,,,,,,,,None,None,0,502.7851305999793,None,502.7851305999793,503.7851390999276,503.768462699838,504.76848839991726,0,1,502.7851305999793,None,1,m,32,r,MCK,2022_Jan_06_1409,WASABI Nback,2020.2.10,59.97803602957353,
0,1,5,"[0, 0]",1,0,1,1,1,,,,,0,0,0,0,0,51,51,51,,,,,,,,,,,None,None,0,504.7851495000068,None,504.7851495000068,505.7851566998288,505.7684923999477,506.76849589985795,0,0,504.7851495000068,None,1,m,32,r,MCK,2022_Jan_06_1409,WASABI Nback,2020.2.10,59.97803602957353,
0,1,1,"[-0.2, 0.2]",None,0,1,1,1,,,,,0,0,0,0,0,52,52,52,,,,,,,,,,,None,None,0,506.7851760999765,None,506.7851760999765,507.78519509988837,507.7684952998534,508.76851930003613,0,1,506.7851760999765,None,1,m,32,r,MCK,2022_Jan_06_1409,WASABI Nback,2020.2.10,59.97803602957353,
0,1,7,"[-0.2, -0.2]",None,0,1,1,1,,,,,0,0,0,0,0,53,53,53,,,,,,,,,,,None,None,0,508.78519829991274,None,508.78519829991274,509.78519589989446,509.7685126999859,510.7685264998581,0,0,508.78519829991274,None,1,m,32,r,MCK,2022_Jan_06_1409,WASABI Nback,2020.2.10,59.97803602957353,
0,1,9,"[0.2, -0.2]",None,0,1,1,1,,,,,0,0,0,0,0,54,54,54,,,,,,,,,,,None,None,0,510.7852011998184,None,510.7852011998184,511.78522589989007,511.7685457000043,512.7685400999617,0,1,510.7852011998184,None,1,m,32,r,MCK,2022_Jan_06_1409,WASABI Nback,2020.2.10,59.97803602957353,
0,1,3,"[0.2, 0.2]",None,0,1,1,1,,,,,0,0,0,0,0,55,55,55,,,,,,,,,,,None,None,0,512.7852200998459,None,512.7852200998459,513.785227800021,513.7685658999253,514.7685686999466,0,1,512.7852200998459,None,1,m,32,r,MCK,2022_Jan_06_1409,WASABI Nback,2020.2.10,59.97803602957353,
0,1,9,"[0.2, -0.2]",1,0,1,1,1,,,,,0,0,0,0,0,56,56,56,,,,,,,,,,,None,None,0,514.7852481999435,None,514.7852481999435,515.7851435998455,515.7685664999299,516.7685698999558,0,1,514.7852481999435,None,1,m,32,r,MCK,2022_Jan_06_1409,WASABI Nback,2020.2.10,59.97803602957353,
0,1,6,"[0.2, 0]",None,0,1,1,1,,,,,0,0,0,0,0,57,57,57,,,,,,,,,,,None,None,0,516.7852506998461,None,516.7852506998461,517.7852598999161,517.768595200032,518.7686079000123,0,1,516.7852506998461,None,1,m,32,r,MCK,2022_Jan_06_1409,WASABI Nback,2020.2.10,59.97803602957353,
0,1,2,"[0, 0.2]",None,0,1,1,1,,,,,0,0,0,0,0,58,58,58,,,,,,,,,,,None,None,0,518.7852656999603,None,518.7852656999603,519.7852888000198,519.7686015998479,520.7686200998724,0,1,518.7852656999603,None,1,m,32,r,MCK,2022_Jan_06_1409,WASABI Nback,2020.2.10,59.97803602957353,
0,1,5,"[0, 0]",None,0,1,1,1,,,,,0,0,0,0,0,59,59,59,,,,,,,,,,,None,None,0,520.7852953998372,None,520.7852953998372,521.7852947998326,521.7686291998252,522.7686205999926,0,1,520.7852953998372,None,1,m,32,r,MCK,2022_Jan_06_1409,WASABI Nback,2020.2.10,59.97803602957353,
0,1,5,"[0, 0]",None,0,1,1,1,,,,,0,0,0,0,0,60,60,60,,,,,,,,,,,None,None,0,522.7853075999301,None,522.7853075999301,523.7853093999438,523.7686534000095,524.768659699941,0,1,522.7853075999301,None,1,m,32,r,MCK,2022_Jan_06_1409,WASABI Nback,2020.2.10,59.97803602957353,
0,1,2,"[0, 0.2]",None,0,1,1,1,,,,,0,0,0,0,0,61,61,61,,,,,,,,,,,None,None,0,524.7852005998138,None,524.7852005998138,525.7853335000109,525.7686734998133,526.7687063999474,0,0,524.7852005998138,None,1,m,32,r,MCK,2022_Jan_06_1409,WASABI Nback,2020.2.10,59.97803602957353,
0,1,6,"[0.2, 0]",None,0,1,1,1,,,,,0,0,0,0,0,62,62,62,,,,,,,,,,,None,None,0,526.7853522999212,None,526.7853522999212,527.7853540999349,527.7686670999974,528.7686734998133,0,1,526.7853522999212,None,1,m,32,r,MCK,2022_Jan_06_1409,WASABI Nback,2020.2.10,59.97803602957353,
0,1,9,"[0.2, -0.2]",None,0,1,1,1,,,,,0,0,0,0,0,63,63,63,,,,,,,,,,,None,None,0,528.7853725999594,None,528.7853725999594,529.7853784000035,529.7687007999048,530.7687406998593,0,1,528.7853725999594,None,1,m,32,r,MCK,2022_Jan_06_1409,WASABI Nback,2020.2.10,59.97803602957353,
0,1,3,"[0.2, 0.2]",None,0,1,1,1,,,,,0,0,0,0,0,64,64,64,,,,,,,,,,,None,None,0,530.7853810000233,None,530.7853810000233,531.7852654999588,531.7687099999748,532.7687261998653,0,1,530.7853810000233,None,1,m,32,r,MCK,2022_Jan_06_1409,WASABI Nback,2020.2.10,59.97803602957353,
0,1,9,"[0.2, -0.2]",1,0,1,1,1,,,,,0,0,0,0,0,65,65,65,,,,,,,,,,,None,None,0,532.7854009999428,None,532.7854009999428,533.7853999999352,533.7687371999491,534.7687345999293,0,1,532.7854009999428,None,1,m,32,r,MCK,2022_Jan_06_1409,WASABI Nback,2020.2.10,59.97803602957353,
0,1,7,"[-0.2, -0.2]",None,0,1,1,1,,,,,0,0,0,0,0,66,66,66,,,,,,,,,,,None,None,0,534.7854159998242,None,534.7854159998242,535.7854255998973,535.7687333000358,536.7687502999324,0,1,534.7854159998242,None,1,m,32,r,MCK,2022_Jan_06_1409,WASABI Nback,2020.2.10,59.97803602957353,
0,1,1,"[-0.2, 0.2]",None,0,1,1,1,,,,,0,0,0,0,0,67,67,67,,,,,,,,,,,None,None,0,536.7854271999095,None,536.7854271999095,537.7854509998579,537.7687684998382,538.7687860999722,0,1,536.7854271999095,None,1,m,32,r,MCK,2022_Jan_06_1409,WASABI Nback,2020.2.10,59.97803602957353,
0,1,5,"[0, 0]",None,0,1,1,1,,,,,0,0,0,0,0,68,68,68,,,,,,,,,,,None,None,0,538.7854386998806,None,538.7854386998806,539.7854547000024,539.7687927999068,540.7687909000088,0,1,538.7854386998806,None,1,m,32,r,MCK,2022_Jan_06_1409,WASABI Nback,2020.2.10,59.97803602957353,
0,1,7,"[-0.2, -0.2]",None,0,1,1,1,,,,,0,0,0,0,0,69,69,69,,,,,,,,,,,None,None,0,540.7854577999096,None,540.7854577999096,541.7854634998366,541.7687941000331,542.7688025999814,0,1,540.7854577999096,None,1,m,32,r,MCK,2022_Jan_06_1409,WASABI Nback,2020.2.10,59.97803602957353,
0,1,5,"[0, 0]",1,0,1,1,1,,,,,0,0,0,0,0,70,70,70,,,,,,,,,,,None,None,0,542.7854817998596,None,542.7854817998596,543.7854831998702,543.7688253000379,544.7688114999328,0,0,542.7854817998596,None,1,m,32,r,MCK,2022_Jan_06_1409,WASABI Nback,2020.2.10,59.97803602957353,
0,1,6,"[0.2, 0]",None,0,1,1,1,,,,,0,0,0,0,0,71,71,71,,,,,,,,,,,None,None,0,544.7854851998854,None,544.7854851998854,545.7855409998447,545.7688274998218,546.76874520001,0,1,544.7854851998854,None,1,m,32,r,MCK,2022_Jan_06_1409,WASABI Nback,2020.2.10,59.97803602957353,
0,1,3,"[0.2, 0.2]",None,0,1,1,1,,,,,0,0,0,0,0,72,72,72,,,,,,,,,,,None,None,0,546.7854988998733,None,546.7854988998733,547.7855123998597,547.768842499936,548.7688619999681,0,1,546.7854988998733,None,1,m,32,r,MCK,2022_Jan_06_1409,WASABI Nback,2020.2.10,59.97803602957353,
0,1,6,"[0.2, 0]",1,0,1,1,1,,,,,0,0,0,0,0,73,73,73,,,,,,,,,,,None,None,0,548.7855332999025,None,548.7855332999025,549.7855269999709,549.7688803998753,550.7688768999651,0,1,548.7855332999025,None,1,m,32,r,MCK,2022_Jan_06_1409,WASABI Nback,2020.2.10,59.97803602957353,
0,1,8,"[0, -0.2]",None,0,1,1,1,,,,,0,0,0,0,0,74,74,74,,,,,,,,,,,None,None,0,550.7855418999679,None,550.7855418999679,551.7855569999665,551.7688766999636,552.768882199889,0,1,550.7855418999679,None,1,m,32,r,MCK,2022_Jan_06_1409,WASABI Nback,2020.2.10,59.97803602957353,
0,1,9,"[0.2, -0.2]",None,0,1,1,1,,,,,0,0,0,0,0,75,75,75,,,,,,,,,,,None,None,0,552.7855658999179,None,552.7855658999179,553.7855686999392,553.7689147000201,554.7688982998952,0,1,552.7855658999179,None,1,m,32,r,MCK,2022_Jan_06_1409,WASABI Nback,2020.2.10,59.97803602957353,
0,1,9,"[0.2, -0.2]",None,0,1,1,1,,,,,0,0,0,0,0,76,76,76,,,,,,,,,,,None,None,0,554.7855864998419,None,554.7855864998419,555.7855866998434,555.7689079998527,556.7689113998786,0,1,554.7855864998419,None,1,m,32,r,MCK,2022_Jan_06_1409,WASABI Nback,2020.2.10,59.97803602957353,
0,1,1,"[-0.2, 0.2]",None,0,1,1,1,,,,,0,0,0,0,0,77,77,77,,,,,,,,,,,None,None,0,556.7855930998921,None,556.7855930998921,557.7855972000398,557.7689384999685,558.7689562998712,0,1,556.7855930998921,None,1,m,32,r,MCK,2022_Jan_06_1409,WASABI Nback,2020.2.10,59.97803602957353,
0,1,3,"[0.2, 0.2]",None,0,1,1,1,,,,,0,0,0,0,0,78,78,78,,,,,,,,,,,None,None,0,558.7856366999913,None,558.7856366999913,559.7856335998513,559.7689394999761,560.7689487999305,0,1,558.7856366999913,None,1,m,32,r,MCK,2022_Jan_06_1409,WASABI Nback,2020.2.10,59.97803602957353,
0,1,5,"[0, 0]",None,0,1,1,1,,,,,0,0,0,0,0,79,79,79,,,,,,,,,,,None,None,0,560.7856301998254,None,560.7856301998254,561.785639599897,561.7689753999002,562.7689926000312,0,1,560.7856301998254,None,1,m,32,r,MCK,2022_Jan_06_1409,WASABI Nback,2020.2.10,59.97803602957353,
0,1,3,"[0.2, 0.2]",1,0,1,1,1,,,,,0,0,0,0,0,80,80,80,,,,,,,,,,,None,None,0,562.7856576999184,None,562.7856576999184,563.7851629999932,563.7689995998517,564.7689936999232,0,1,562.7856576999184,None,1,m,32,r,MCK,2022_Jan_06_1409,WASABI Nback,2020.2.10,59.97803602957353,
0,1,4,"[-0.2, 0]",None,0,1,1,1,,,,,0,0,0,0,0,81,81,81,,,,,,,,,,,None,None,0,564.7856663998682,None,564.7856663998682,565.7856538998894,565.7689926999155,566.7690365999006,0,1,564.7856663998682,None,1,m,32,r,MCK,2022_Jan_06_1409,WASABI Nback,2020.2.10,59.97803602957353,
0,1,7,"[-0.2, -0.2]",None,0,1,1,1,,,,,0,0,0,0,0,82,82,82,,,,,,,,,,,None,None,0,566.7856796998531,None,566.7856796998531,567.7856858999003,567.7690152998548,568.7690314999782,0,1,566.7856796998531,None,1,m,32,r,MCK,2022_Jan_06_1409,WASABI Nback,2020.2.10,59.97803602957353,
0,1,4,"[-0.2, 0]",1,0,1,1,1,,,,,0,0,0,0,0,83,83,83,,,,,,,,,,,None,None,0,568.7856921998318,None,568.7856921998318,569.7856915998273,569.769021499902,570.7690463999752,0,1,568.7856921998318,None,1,m,32,r,MCK,2022_Jan_06_1409,WASABI Nback,2020.2.10,59.97803602957353,
0,1,4,"[-0.2, 0]",None,0,1,1,1,,,,,0,0,0,0,0,84,84,84,,,,,,,,,,,None,None,0,570.7857126998715,None,570.7857126998715,571.7857196999248,571.7690559998155,572.7690703999251,0,1,570.7857126998715,None,1,m,32,r,MCK,2022_Jan_06_1409,WASABI Nback,2020.2.10,59.97803602957353,
0,1,5,"[0, 0]",None,0,1,1,1,,,,,0,0,0,0,0,85,85,85,,,,,,,,,,,None,None,0,572.7857170000207,None,572.7857170000207,573.7857383999508,573.7690584999509,574.769083000021,0,1,572.7857170000207,None,1,m,32,r,MCK,2022_Jan_06_1409,WASABI Nback,2020.2.10,59.97803602957353,
0,1,2,"[0, 0.2]",None,0,1,1,1,,,,,0,0,0,0,0,86,86,86,,,,,,,,,,,None,None,0,574.7857472000178,None,574.7857472000178,575.7857577998657,575.7691007999238,576.7691071999725,0,1,574.7857472000178,None,1,m,32,r,MCK,2022_Jan_06_1409,WASABI Nback,2020.2.10,59.97803602957353,
0,1,6,"[0.2, 0]",None,0,1,1,1,,,,,0,0,0,0,0,87,87,87,,,,,,,,,,,None,None,0,576.7857629000209,None,576.7857629000209,577.7857774000149,577.7690973998979,578.7691199998371,0,1,576.7857629000209,None,1,m,32,r,MCK,2022_Jan_06_1409,WASABI Nback,2020.2.10,59.97803602957353,
0,1,7,"[-0.2, -0.2]",None,0,1,1,1,,,,,0,0,0,0,0,88,88,88,,,,,,,,,,,None,None,0,578.785788499983,None,578.785788499983,579.7857904999983,579.7691068998538,580.7691323999316,0,1,578.785788499983,None,1,m,32,r,MCK,2022_Jan_06_1409,WASABI Nback,2020.2.10,59.97803602957353,
0,1,6,"[0.2, 0]",1,0,1,1,1,,,,,0,0,0,0,0,89,89,89,,,,,,,,,,,None,None,0,580.7857997999527,None,580.7857997999527,581.7858092000242,581.76919549983,582.7691532999743,0,1,580.7857997999527,None,1,m,32,r,MCK,2022_Jan_06_1409,WASABI Nback,2020.2.10,59.97803602957353,
0,1,6,"[0.2, 0]",None,0,1,1,1,,,,,0,0,0,0,0,90,90,90,,,,,,,,,,,None,None,0,582.785811800044,None,582.785811800044,583.7858213,583.7691579000093,584.7691613999195,0,1,582.785811800044,None,1,m,32,r,MCK,2022_Jan_06_1409,WASABI Nback,2020.2.10,59.97803602957353,
0,1,7,"[-0.2, -0.2]",None,0,1,1,1,,,,,0,0,0,0,0,91,91,91,,,,,,,,,,,None,None,0,584.7858410000335,None,584.7858410000335,585.7858412999194,585.7691701999865,586.7691760000307,0,1,584.7858410000335,None,1,m,32,r,MCK,2022_Jan_06_1409,WASABI Nback,2020.2.10,59.97803602957353,
0,1,6,"[0.2, 0]",1,0,1,1,1,,,,,0,0,0,0,0,92,92,92,,,,,,,,,,,None,None,0,586.7858559000306,None,586.7858559000306,587.7858644998632,587.7691976998467,588.7692082999274,0,1,586.7858559000306,None,1,m,32,r,MCK,2022_Jan_06_1409,WASABI Nback,2020.2.10,59.97803602957353,
0,1,2,"[0, 0.2]",None,0,1,1,1,,,,,0,0,0,0,0,93,93,93,,,,,,,,,,,None,None,0,588.7858577999286,None,588.7858577999286,589.7858714999165,589.769196299836,590.7692120999563,0,1,588.7858577999286,None,1,m,32,r,MCK,2022_Jan_06_1409,WASABI Nback,2020.2.10,59.97803602957353,
0,1,5,"[0, 0]",None,0,1,1,1,,,,,0,0,0,0,0,94,94,94,,,,,,,,,,,None,None,0,590.7858871000353,None,590.7858871000353,591.7859016000293,591.7692157998681,592.7692417998333,0,1,590.7858871000353,None,1,m,32,r,MCK,2022_Jan_06_1409,WASABI Nback,2020.2.10,59.97803602957353,
0,1,4,"[-0.2, 0]",None,0,1,1,1,,,,,0,0,0,0,0,95,95,95,,,,,,,,,,,None,None,0,592.7859041998163,None,592.7859041998163,593.7859107998665,593.7692419998348,594.769272599835,0,1,592.7859041998163,None,1,m,32,r,MCK,2022_Jan_06_1409,WASABI Nback,2020.2.10,59.97803602957353,
0,1,4,"[-0.2, 0]",None,0,1,1,1,,,,,0,0,0,0,0,96,96,96,,,,,,,,,,,None,None,0,594.7859202998225,None,594.7859202998225,595.7859143000096,595.7692793000024,596.7692696000449,0,1,594.7859202998225,None,1,m,32,r,MCK,2022_Jan_06_1409,WASABI Nback,2020.2.10,59.97803602957353,
0,1,7,"[-0.2, -0.2]",None,0,1,1,1,,,,,0,0,0,0,0,97,97,97,,,,,,,,,,,None,None,0,596.7859411998652,None,596.7859411998652,597.7859336999245,597.7692766999826,598.7692984999157,0,1,596.7859411998652,None,1,m,32,r,MCK,2022_Jan_06_1409,WASABI Nback,2020.2.10,59.97803602957353,
0,1,4,"[-0.2, 0]",1,0,1,1,1,,,,,0,0,0,0,0,98,98,98,,,,,,,,,,,None,None,0,598.7859687998425,None,598.7859687998425,599.7859671998303,599.769309299998,600.7691846999805,0,1,598.7859687998425,None,1,m,32,r,MCK,2022_Jan_06_1409,WASABI Nback,2020.2.10,59.97803602957353,
0,1,3,"[0.2, 0.2]",None,0,1,1,1,,,,,0,0,0,0,0,99,99,99,,,,,,,,,,,None,None,0,600.7859628000297,None,600.7859628000297,601.7859825999476,601.7693178998306,602.7693304000422,0,1,600.7859628000297,None,1,m,32,r,MCK,2022_Jan_06_1409,WASABI Nback,2020.2.10,59.97803602957353,
0,1,5,"[0, 0]",None,0,1,1,1,,,,,0,0,0,0,0,100,100,100,,,,,,,,,,,None,None,0,602.7859865999781,None,602.7859865999781,603.785906399833,603.7693367998581,604.7693196998443,0,1,602.7859865999781,None,1,m,32,r,MCK,2022_Jan_06_1409,WASABI Nback,2020.2.10,59.97803602957353,
0,1,3,"[0.2, 0.2]",1,0,1,1,1,,,,,0,0,0,0,0,101,101,101,,,,,,,,,,,None,None,0,604.7860103000421,None,604.7860103000421,605.7860065998975,605.7693523999769,606.7693636999466,0,1,604.7860103000421,None,1,m,32,r,MCK,2022_Jan_06_1409,WASABI Nback,2020.2.10,59.97803602957353,
0,1,1,"[-0.2, 0.2]",None,0,1,1,1,,,,,0,0,0,0,0,102,102,102,,,,,,,,,,,None,None,0,606.7860206998885,None,606.7860206998885,607.7860279998276,607.7693662999664,608.7693782998249,0,1,606.7860206998885,None,1,m,32,r,MCK,2022_Jan_06_1409,WASABI Nback,2020.2.10,59.97803602957353,
0,1,9,"[0.2, -0.2]",None,0,1,1,1,,,,,0,0,0,0,0,103,103,103,,,,,,,,,,,None,None,0,608.7860350999981,None,608.7860350999981,609.7860458998475,609.769396299962,610.7693951998372,0,1,608.7860350999981,None,1,m,32,r,MCK,2022_Jan_06_1409,WASABI Nback,2020.2.10,59.97803602957353,
0,1,9,"[0.2, -0.2]",None,0,1,1,1,,,,,0,0,0,0,0,104,104,104,,,,,,,,,,,None,None,0,610.7860585998278,None,610.7860585998278,611.7860681999009,611.7694141999818,612.7694079999346,0,1,610.7860585998278,None,1,m,32,r,MCK,2022_Jan_06_1409,WASABI Nback,2020.2.10,59.97803602957353,
0,1,8,"[0, -0.2]",None,0,1,1,1,,,,,0,0,0,0,0,105,105,105,,,,,,,,,,,None,None,0,612.7860107000452,None,612.7860107000452,613.7860737999436,613.7694117999636,614.7694375000428,0,1,612.7860107000452,None,1,m,32,r,MCK,2022_Jan_06_1409,WASABI Nback,2020.2.10,59.97803602957353,
0,1,6,"[0.2, 0]",None,0,1,1,1,,,,,0,0,0,0,0,106,106,106,,,,,,,,,,,None,None,0,614.786093799863,None,614.786093799863,615.7860958999954,615.769430299988,616.7694504000247,0,1,614.786093799863,None,1,m,32,r,MCK,2022_Jan_06_1409,WASABI Nback,2020.2.10,59.97803602957353,
0,1,3,"[0.2, 0.2]",None,0,1,1,1,,,,,0,0,0,0,0,107,107,107,,,,,,,,,,,None,None,0,616.7861013000365,None,616.7861013000365,617.786102199927,617.7694610999897,618.7694739999715,0,1,616.7861013000365,None,1,m,32,r,MCK,2022_Jan_06_1409,WASABI Nback,2020.2.10,59.97803602957353,
0,1,6,"[0.2, 0]",1,0,1,1,1,,,,,0,0,0,0,0,108,108,108,,,,,,,,,,,None,None,0,618.7861186999362,None,618.7861186999362,619.7861338998191,619.7694839998148,620.7694844999351,0,1,618.7861186999362,None,1,m,32,r,MCK,2022_Jan_06_1409,WASABI Nback,2020.2.10,59.97803602957353,
0,1,5,"[0, 0]",None,0,1,1,1,,,,,0,0,0,0,0,109,109,109,,,,,,,,,,,None,None,0,620.7861430000048,None,620.7861430000048,621.7861313000321,621.7694828999229,622.769498599926,0,1,620.7861430000048,None,1,m,32,r,MCK,2022_Jan_06_1409,WASABI Nback,2020.2.10,59.97803602957353,
0,1,7,"[-0.2, -0.2]",None,0,1,1,1,,,,,0,0,0,0,0,110,110,110,,,,,,,,,,,None,None,0,622.786159100011,None,622.786159100011,623.7861719999928,623.7695147998165,624.7695195998531,0,1,622.786159100011,None,1,m,32,r,MCK,2022_Jan_06_1409,WASABI Nback,2020.2.10,59.97803602957353,
0,1,5,"[0, 0]",1,0,1,1,1,,,,,0,0,0,0,0,111,111,111,,,,,,,,,,,None,None,0,624.786174699897,None,624.786174699897,625.7861950998195,625.7694993999321,626.7695167998318,0,0,624.786174699897,None,1,m,32,r,MCK,2022_Jan_06_1409,WASABI Nback,2020.2.10,59.97803602957353,
0,1,1,"[-0.2, 0.2]",None,0,1,1,1,,,,,0,0,0,0,0,112,112,112,,,,,,,,,,,None,None,0,626.7861971999519,None,626.7861971999519,627.7861996998545,627.7693735999055,628.7695201998577,0,1,626.7861971999519,None,1,m,32,r,MCK,2022_Jan_06_1409,WASABI Nback,2020.2.10,59.97803602957353,
0,1,7,"[-0.2, -0.2]",None,0,1,1,1,,,,,0,0,0,0,0,113,113,113,,,,,,,,,,,None,None,0,628.7861144999042,None,628.7861144999042,629.7862233000342,629.7695235998835,630.7694981000386,0,1,628.7861144999042,None,1,m,32,r,MCK,2022_Jan_06_1409,WASABI Nback,2020.2.10,59.97803602957353,
0,1,9,"[0.2, -0.2]",None,0,1,1,1,,,,,0,0,0,0,0,114,114,114,,,,,,,,,,,None,None,0,630.7862326998729,None,630.7862326998729,631.7862446999643,631.769555100007,632.7695567999035,0,1,630.7862326998729,None,1,m,32,r,MCK,2022_Jan_06_1409,WASABI Nback,2020.2.10,59.97803602957353,
0,1,3,"[0.2, 0.2]",None,0,1,1,1,,,,,0,0,0,0,0,115,115,115,,,,,,,,,,,None,None,0,632.7862446999643,None,632.7862446999643,633.7862541000359,633.7695998998825,634.769598599989,0,1,632.7862446999643,None,1,m,32,r,MCK,2022_Jan_06_1409,WASABI Nback,2020.2.10,59.97803602957353,
0,1,9,"[0.2, -0.2]",1,0,1,1,1,,,,,0,0,0,0,0,116,116,116,,,,,,,,,,,None,None,0,634.7862713998184,None,634.7862713998184,635.7862650998868,635.7696095998399,636.7696089998353,0,1,634.7862713998184,None,1,m,32,r,MCK,2022_Jan_06_1409,WASABI Nback,2020.2.10,59.97803602957353,
0,1,6,"[0.2, 0]",None,0,1,1,1,,,,,0,0,0,0,0,117,117,117,,,,,,,,,,,None,None,0,636.7862837000284,None,636.7862837000284,637.7862992999144,637.7696304998826,638.7696012998931,0,1,636.7862837000284,None,1,m,32,r,MCK,2022_Jan_06_1409,WASABI Nback,2020.2.10,59.97803602957353,
0,1,2,"[0, 0.2]",None,0,1,1,1,,,,,0,0,0,0,0,118,118,118,,,,,,,,,,,None,None,0,638.7863033998292,None,638.7863033998292,639.7863266000059,639.7696455998812,640.7696448999923,0,1,638.7863033998292,None,1,m,32,r,MCK,2022_Jan_06_1409,WASABI Nback,2020.2.10,59.97803602957353,
0,1,5,"[0, 0]",None,0,1,1,1,,,,,0,0,0,0,0,119,119,119,,,,,,,,,,,None,None,0,640.7863274000119,None,640.7863274000119,641.7863322999328,641.7696477998979,642.7696606998798,0,1,640.7863274000119,None,1,m,32,r,MCK,2022_Jan_06_1409,WASABI Nback,2020.2.10,59.97803602957353,
