	onset	duration	rt	response	correct	bodySite	temperature	condition	pretrial-jitter
0	2.7669985000102315	7.779004499985604				Left Face	49.0	2back Instructions	
1	12.787553200003458	1.9996684999787249			1.0	Left Face	32.0	2back-nostim	
2	14.799127400008729	2.0099369999952614			1.0	Left Face	32.0	2back-nostim	5.0
3	16.81533300000592	2.010883599985391	0.3835499999986496	0.0	1.0	Left Face	32.0	2back-nostim	
4	18.832152399991173	2.010585700016236	0.0	2.0	1.0	Left Face	32.0	2back-nostim	
5	20.848654300003545	2.0109698999731336	0.0	2.0	1.0	Left Face	32.0	2back-nostim	
6	22.865417699998943	2.010857799992664	0.0	2.0	1.0	Left Face	32.0	2back-nostim	
7	24.88213340000948	2.0107197999604978	0.583531700016465	0.0	1.0	Left Face	32.0	2back-nostim	
8	26.89896670001326	2.0104526999930386	0.5168584999919403	0.0	1.0	Left Face	32.0	2back-nostim	
9	28.915406599990092	2.010817300004419	0.5002017000224441	0.0	1.0	Left Face	32.0	2back-nostim	
10	30.9321942999959	2.010700100014219	0.0	2.0	1.0	Left Face	32.0	2back-nostim	
11	37.95618129998911	42.96264529999462				Left Face	49.0	2back Instructions	
12	47.97093529999256	2.0002308000111952			1.0	Left Face	32.0	2back-nostim	
13	49.98288739999407	2.00966559999506			1.0	Left Face	32.0	2back-nostim	5.0
14	51.99894680001307	2.0109055999782868	0.5002742999931797	0.0	1.0	Left Face	32.0	2back-nostim	
15	54.0156413000077	2.010922599991318	0.0	2.0	1.0	Left Face	32.0	2back-nostim	
16	56.03232279999065	2.0108861999760848	0.0	2.0	1.0	Left Face	32.0	2back-nostim	
17	58.04911849999917	2.0106690999818966	0.0	2.0	1.0	Left Face	32.0	2back-nostim	
18	60.06570659999852	2.010954600002151	0.6001313999877311	0.0	1.0	Left Face	32.0	2back-nostim	
19	62.08248010001262	2.010680000006687	0.0	2.0	1.0	Left Face	32.0	2back-nostim	
20	64.09912030000123	2.0107825999730267	0.0	2.0	1.0	Left Face	32.0	2back-nostim	
21	66.11560210000607	2.011063899990404	0.5502666999818757	0.0	1.0	Left Face	32.0	2back-nostim	
22	71.13901929999702	76.14627279998967				Left Face	49.0	2back Instructions	
23	83.15461580001283	1.983454899978824			1.0	Left Face	32.0	2back-nostim	
24	85.14966910000658	2.010082799999509			1.0	Left Face	32.0	2back-nostim	7.0
25	87.16593340001418	2.0109069000172894	0.0	2.0	1.0	Left Face	32.0	2back-nostim	
26	89.18269169999985	2.01063149998663	0.0	2.0	1.0	Left Face	32.0	2back-nostim	
27	91.19923570001265	2.011082999961218	0.4353646000090521	0.0	1.0	Left Face	32.0	2back-nostim	
28	93.21609219998936	2.0106939999968745	0.4502162999997381	0.0	1.0	Left Face	32.0	2back-nostim	
29	95.23273600000539	2.010862399969483	0.0	2.0	1.0	Left Face	32.0	2back-nostim	
30	97.24931139999535	2.010966700006975	0.0	2.0	1.0	Left Face	32.0	2back-nostim	
31	99.26605649999692	2.010857199988095	0.0	2.0	1.0	Left Face	32.0	2back-nostim	
32	101.28290930000367	2.010526599973673	0.7168799999926705	0.0	1.0	Left Face	32.0	2back-nostim	
33	106.30617940000957	111.31324489999679				Left Face	32.0	2back Instructions	
34	118.32120519998716	2.0008992000075523			1.0	Left Face	49.0	2back-stim	
35	120.33355270000175	2.009556699980749			1.0	Left Face	49.0	2back-stim	7.0
36	122.349532799999	2.010991399991326	0.0	2.0	1.0	Left Face	49.0	2back-stim	
37	124.3662641000119	2.010897100000875	0.0	2.0	1.0	Left Face	49.0	2back-stim	
38	126.41140819998691	1.9706348000036087	0.6165780999872368	0.0	1.0	Left Face	49.0	2back-stim	
39	128.39981919998536	2.010551699990174	0.0	2.0	1.0	Left Face	49.0	2back-stim	
40	130.41626160001033	2.010984299995471	0.0	2.0	1.0	Left Face	49.0	2back-stim	
41	132.4331785000104	2.0105332999955863	0.9668677999870852	0.0	1.0	Left Face	49.0	2back-stim	
42	134.45082840000396	2.0085950999928173	0.0	2.0	1.0	Left Face	49.0	2back-stim	
43	136.46631600000546	2.011021999991499	0.0	2.0	1.0	Left Face	49.0	2back-stim	
44	143.48368129998562	5.010089500021422		23.580246913580247		Left Face	49.0	2back-stim Rating	5.0
45	148.48865779998596	153.49730399998953				Left Face	32.0	2back Instructions	
46	158.52169429999776	2.0006660999788437			1.0	Left Face	49.0	2back-stim	
47	160.53392260000692	2.0095384999585804			1.0	Left Face	49.0	2back-stim	5.0
48	162.55006079998566	2.0106386999832466	0.7002153000212274	0.0	1.0	Left Face	49.0	2back-stim	
49	164.56654239998898	2.0110414000228047	0.0	2.0	1.0	Left Face	49.0	2back-stim	
50	166.6366706000117	1.9541354000102729	0.0	2.0	1.0	Left Face	49.0	2back-stim	
51	168.60007929999847	2.010714000003645	0.0	2.0	1.0	Left Face	49.0	2back-stim	
52	170.61671639999258	2.0108184999844525	0.0	2.0	1.0	Left Face	49.0	2back-stim	
53	172.63346979999915	2.0106511999911163	0.0	2.0	1.0	Left Face	49.0	2back-stim	
54	174.65009069998632	2.010795899986988	0.45021849998738617	0.0	1.0	Left Face	49.0	2back-stim	
55	176.66693860001396	2.010487199993804	0.0	2.0	1.0	Left Face	49.0	2back-stim	
56	183.68454759998713	5.009043900005054		13.086419753086421		Left Face	49.0	2back-stim Rating	5.0
57	188.6896740999946	193.69764820000273				Left Face	32.0	2back Instructions	
58	198.72224189998815	2.000285399990389			1.0	Left Face	49.0	2back-stim	
59	200.73399189999327	2.0101205999962986			1.0	Left Face	49.0	2back-stim	5.0
60	202.75029490000452	2.0108745000034105	0.0	2.0	1.0	Left Face	49.0	2back-stim	
61	204.76690109999618	2.011036599986255	0.6692050999845378	0.0	1.0	Left Face	49.0	2back-stim	
62	206.81963730001007	1.972263399977237	0.0	2.0	1.0	Left Face	49.0	2back-stim	
63	208.80046209998545	2.01064029999543	0.0	2.0	1.0	Left Face	49.0	2back-stim	
64	210.817266500002	2.0104076999996323	0.0	2.0	1.0	Left Face	49.0	2back-stim	
65	212.83374080000794	2.010713699943153	0.5502618000027724	0.0	1.0	Left Face	49.0	2back-stim	
66	214.85038719998556	2.010907699994277	0.0	2.0	1.0	Left Face	49.0	2back-stim	
67	216.8674342999875	2.010180199984461	0.5002026000001933	0.0	1.0	Left Face	49.0	2back-stim	
68	225.88477999999304	5.00933120000991		17.839506172839506		Left Face	49.0	2back-stim Rating	7.0
69	233.88307139999233	20.012689699971816				Left Face	32.0	Rest-NoStim	3.0
70	253.8828741000034	5.013286399975186				Left Face		PostTrialFixation	
71	263.8827757000108	20.01379969995469				Left Face	32.0	Rest-NoStim	5.0
72	283.8829659000039	3.013607199973194				Left Face		PostTrialFixation	
73	293.883047100011	20.013804599992				Left Face	32.0	Rest-NoStim	7.0
74	313.8838251999987	7.012534699984826				Left Face		PostTrialFixation	
75	323.8985257000022	20.00006849996862				Left Face	49.0	Rest-Stim	3.0
76	343.89870930000325	5.016541699995287				Left Face		PostTrialFixation	
77	348.9003767000104	5.013779799977783		17.469135802469136		Left Face	49.0	Rest-Stim Rating	5.0
78	358.91550530001405	20.00004609997268				Left Face	49.0	Rest-Stim	5.0
79	378.915700499987	3.0165241999784485				Left Face		PostTrialFixation	
80	381.917266000004	5.01379609995638		16.17283950617284		Left Face	49.0	Rest-Stim Rating	3.0
81	393.9324928999995	20.00003069997183				Left Face	49.0	Rest-Stim	7.0
82	413.9326732000045	6.9999178999860305				Left Face		PostTrialFixation	
83	420.933082500007	5.01619079997181		11.975308641975307		Left Face	49.0	Rest-Stim Rating	7.0
84	425.9414143000031	430.9497504000028				Left Face	32.0	2back Instructions	
85	433.97465739998734	1.9829070999694522			1.0	Left Face	49.0	2back-stim	
86	435.96953410000424	2.0098831999639515			1.0	Left Face	49.0	2back-stim	3.0
87	437.98574430000735	2.01087939995341	0.6835280999948736	0.0	1.0	Left Face	49.0	2back-stim	
88	440.0024198000028	2.010834699991392	0.0	2.0	1.0	Left Face	49.0	2back-stim	
89	442.0738538999867	1.951330300013069	0.4504161000077147	0.0	1.0	Left Face	49.0	2back-stim	
90	444.03568679999444	2.011064799997257	0.0	2.0	1.0	Left Face	49.0	2back-stim	
91	446.0526455999934	2.0104957000003196	0.0	2.0	1.0	Left Face	49.0	2back-stim	
92	448.06914010000764	2.0108678999822587	0.0	2.0	1.0	Left Face	49.0	2back-stim	
93	450.0857890000043	2.0109372999868356	0.0	2.0	1.0	Left Face	49.0	2back-stim	
94	452.10254709998844	2.01079810000374	0.566891399997985	0.0	1.0	Left Face	49.0	2back-stim	
95	459.1202496000042	5.009213699988322		18.950617283950617		Left Face	49.0	2back-stim Rating	5.0
96	464.1249997999985	469.13297050000983				Left Face	32.0	2back Instructions	
97	474.141237600008	2.000495399988722			1.0	Left Face	49.0	2back-stim	
98	476.1534959000128	2.009350100008305			1.0	Left Face	49.0	2back-stim	5.0
99	478.169290299993	2.011105999990832	0.0	2.0	1.0	Left Face	49.0	2back-stim	
100	480.18607120000524	2.010920399974566	0.0	2.0	1.0	Left Face	49.0	2back-stim	
101	482.24526749999495	1.9592878999828827	0.466693500027759	0.0	1.0	Left Face	49.0	2back-stim	
102	484.21965149999596	2.010506799997529	0.0	2.0	1.0	Left Face	49.0	2back-stim	
103	486.2360110000009	2.0111510999849997	0.5835638999997173	0.0	1.0	Left Face	49.0	2back-stim	
104	488.2529105999856	2.010748800006695	0.0	2.0	1.0	Left Face	49.0	2back-stim	
105	490.26939010000206	2.0111108999699354	0.5692622999777086	0.0	1.0	Left Face	49.0	2back-stim	
106	492.2865368000057	2.0102053999726195	0.8337205999996513	0.0	1.0	Left Face	49.0	2back-stim	
107	501.304089000012	5.008954999997513		18.51851851851852		Left Face	49.0	2back-stim Rating	7.0
108	506.30885860000853	511.3168483999907				Left Face	32.0	2back Instructions	
109	514.3415701999911	2.000529499986442			1.0	Left Face	49.0	2back-stim	
110	516.3535970000084	2.0098551999544725			1.0	Left Face	49.0	2back-stim	3.0
111	518.3698095	2.0108039999904577	0.5502166000078432	0.0	1.0	Left Face	49.0	2back-stim	
112	520.3864868000092	2.010807599959662	0.0	2.0	1.0	Left Face	49.0	2back-stim	
113	522.4226565000135	1.9884915000293404	0.0	2.0	1.0	Left Face	49.0	2back-stim	
114	524.4202136000094	2.0101031999802217	0.0	2.0	1.0	Left Face	49.0	2back-stim	
115	526.436486999999	2.010911799967289	0.5335701999720186	0.0	1.0	Left Face	49.0	2back-stim	
116	528.4534469000064	2.010379599960288	0.516888200014364	0.0	1.0	Left Face	49.0	2back-stim	
117	530.4698022000084	2.011038499971619	0.6835616000171285	0.0	1.0	Left Face	49.0	2back-stim	
118	532.4865033999959	2.0110035999969114	0.0	2.0	1.0	Left Face	49.0	2back-stim	
119	541.5046596000029	5.0085111999942455		16.666666666666664		Left Face	49.0	2back-stim Rating	7.0
120	549.5172012000112	20.000058899982832				Left Face	49.0	Rest-Stim	3.0
121	569.51739980001	6.999872099957429				Left Face		PostTrialFixation	
122	576.5178420000011	5.0161613000091165		19.320987654320987		Left Face	49.0	Rest-Stim Rating	7.0
123	584.534227199998	20.00000669999281				Left Face	49.0	Rest-Stim	3.0
124	604.5343727	6.999894100008532				Left Face		PostTrialFixation	
125	611.5348001999955	5.016167999972822		15.123456790123457		Left Face	49.0	Rest-Stim Rating	7.0
126	619.5511724000098	20.00005040000542				Left Face	49.0	Rest-Stim	3.0
127	639.5513564000139	6.999922799994238				Left Face		PostTrialFixation	
128	646.5520351000014	5.015866800007643		14.444444444444446		Left Face	49.0	Rest-Stim Rating	7.0
