	onset	duration	rt	response	correct	bodySite	temperature	condition	pretrial-jitter
0	7.761005900101736	20.01375838019885				Right Arm	32.0	Rest-NoStim	5.0
1	27.76116260001436	5.01371307997033				Right Arm		PostTrialFixation	
2	37.76102610002272	20.014270880026743				Right Arm	32.0	Rest-NoStim	5.0
3	57.7621736000292	3.012191580142826				Right Arm		PostTrialFixation	
4	67.7621691999957	20.012564580189064				Right Arm	32.0	Rest-NoStim	7.0
5	87.76221309998073	3.0126594800967723				Right Arm		PostTrialFixation	
6	90.7689921001438	95.77856070012785				Right Arm	32.0	2back Instructions	
7	102.80268889991567	1.9819725800771266			1.0	Right Arm	49.0	2back-stim	
8	104.79718640004285	2.009585779858753			1.0	Right Arm	49.0	2back-stim	7.0
9	106.81327580008656	2.0109016799833626	0.0	2.0	1.0	Right Arm	49.0	2back-stim	
10	108.83001099992543	2.010770980035886	0.0	2.0	1.0	Right Arm	49.0	2back-stim	
11	110.8907725000754	1.9558749401476234	0.6165171000175178	0.0	1.0	Right Arm	49.0	2back-stim	
12	112.86359510011971	2.0103677802253515	0.8168723999988288	0.0	1.0	Right Arm	49.0	2back-stim	
13	114.87996380007826	2.0109562801662832	0.0	2.0	1.0	Right Arm	49.0	2back-stim	
14	116.89673359994777	2.0108206800650805	0.0	2.0	1.0	Right Arm	49.0	2back-stim	
15	118.91349770012312	2.0106636800337583	0.0	2.0	1.0	Right Arm	49.0	2back-stim	
16	120.93023480009288	2.010509179905057	0.5004092999733984	0.0	1.0	Right Arm	49.0	2back-stim	
17	127.94739530002698	5.010013379855081		43.2716049382716		Right Arm	49.0	2back-stim Rating	5.0
18	132.95407700003125	137.96102960011922				Right Arm	32.0	2back Instructions	
19	142.98582480009645	1.9830717800650746			1.0	Right Arm	49.0	2back-stim	
20	144.98096040007658	2.0095460799057037			1.0	Right Arm	49.0	2back-stim	5.0
21	146.99741880013607	2.0099962800741196	0.0	2.0	1.0	Right Arm	49.0	2back-stim	
22	149.0137666000519	2.0106395797338337	0.0	2.0	1.0	Right Arm	49.0	2back-stim	
23	151.06043109996244	1.9673384597990662	0.5832122000865638	0.0	1.0	Right Arm	49.0	2back-stim	
24	153.04731129994616	2.0103118801489472	0.0	2.0	1.0	Right Arm	49.0	2back-stim	
25	155.06399139994755	2.0103323799557984	0.0	2.0	1.0	Right Arm	49.0	2back-stim	
26	157.08045480004512	2.0107765798456967	0.5335637000389397	0.0	1.0	Right Arm	49.0	2back-stim	
27	159.09714820003137	2.010743380058557	0.0	2.0	1.0	Right Arm	49.0	2back-stim	
28	161.11384210013784	2.0107143803033978	0.0	2.0	1.0	Right Arm	49.0	2back-stim	
29	170.1309686000459	5.0102434798609465		44.25925925925926		Right Arm	49.0	2back-stim Rating	7.0
30	175.13752559991553	180.14407579996623				Right Arm	32.0	2back Instructions	
31	183.1527015999891	2.0000978799071163			1.0	Right Arm	49.0	2back-stim	
32	185.16448129992932	2.009908779989928			1.0	Right Arm	49.0	2back-stim	3.0
33	187.18084669997916	2.0105378800071776	1.0168699000496417	0.0	1.0	Right Arm	49.0	2back-stim	
34	189.19768130010925	2.010247580241412	0.0	2.0	1.0	Right Arm	49.0	2back-stim	
35	191.2753381000366	1.9381370199844241	0.0	2.0	1.0	Right Arm	49.0	2back-stim	
36	193.2314132999163	2.009563480038196	0.0	2.0	1.0	Right Arm	49.0	2back-stim	
37	195.2476818000432	2.0103439800441265	0.0	2.0	1.0	Right Arm	49.0	2back-stim	
38	197.26418170006946	2.0106815800536424	0.0	2.0	1.0	Right Arm	49.0	2back-stim	
39	199.28083209996112	2.010779479984194	0.7168723000213504	0.0	1.0	Right Arm	49.0	2back-stim	
40	201.29750069999136	2.01080888020806	0.0	2.0	1.0	Right Arm	49.0	2back-stim	
41	208.31564010004513	5.008315379964188		42.22222222222222		Right Arm	49.0	2back-stim Rating	5.0
42	218.32813989999704	20.00000748015009				Right Arm	49.0	Rest-Stim	5.0
43	238.328331500059	6.999866080004722				Right Arm		PostTrialFixation	
44	245.32874889997765	5.016120880143717		50.4320987654321		Right Arm	49.0	Rest-Stim Rating	7.0
45	253.34513820009306	19.999964580172673				Right Arm	49.0	Rest-Stim	3.0
46	273.34533750009723	6.999812779948115				Right Arm		PostTrialFixation	
47	280.34574669995345	5.016090279910713		49.32098765432099		Right Arm	49.0	Rest-Stim Rating	7.0
48	288.36210649996065	19.999998779967427				Right Arm	49.0	Rest-Stim	3.0
49	308.36230130004697	6.999853279907256				Right Arm		PostTrialFixation	
50	315.36272000009194	5.016117580002174		50.617283950617285		Right Arm	49.0	Rest-Stim Rating	7.0
51	320.371696599992	325.37913980009034				Right Arm	49.0	2back Instructions	
52	328.3892576000653	1.9962483800482005			1.0	Right Arm	32.0	2back-nostim	
53	330.39909790013917	2.0099825800862163			1.0	Right Arm	32.0	2back-nostim	3.0
54	332.4154054999817	2.010716080199927	0.0	2.0	1.0	Right Arm	32.0	2back-nostim	
55	334.43214659998193	2.010620079934597	1.319358800072223	0.0	1.0	Right Arm	32.0	2back-nostim	
56	336.4487505001016	2.0107855801470578	0.0	2.0	1.0	Right Arm	32.0	2back-nostim	
57	338.46542809996754	2.010783880017698	0.0	2.0	1.0	Right Arm	32.0	2back-nostim	
58	340.48262230004184	2.009767079958692	0.0	2.0	1.0	Right Arm	32.0	2back-nostim	
59	342.49889050005004	2.010645480128005	0.41687630000524223	0.0	1.0	Right Arm	32.0	2back-nostim	
60	344.5156316999346	2.010489279869944	0.0	2.0	1.0	Right Arm	32.0	2back-nostim	
61	346.53225859999657	2.0106049799360335	0.5335474999155849	0.0	1.0	Right Arm	32.0	2back-nostim	
62	353.556002400117	358.56269260006957				Right Arm	49.0	2back Instructions	
63	363.5710851000622	2.0000063800252974			1.0	Right Arm	32.0	2back-nostim	
64	365.5827715001069	2.0099161800462753			1.0	Right Arm	32.0	2back-nostim	5.0
65	367.59928640001453	2.010259480215609	0.6835479000583291	0.0	1.0	Right Arm	32.0	2back-nostim	
66	369.61571109993383	2.0107829798944294	0.0	2.0	1.0	Right Arm	32.0	2back-nostim	
67	371.63248139992356	2.0106054798234254	0.7001764001324773	0.0	1.0	Right Arm	32.0	2back-nostim	
68	373.64901149994694	2.0109284799546003	0.0	2.0	1.0	Right Arm	32.0	2back-nostim	
69	375.66586750000715	2.0106317799072713	0.0	2.0	1.0	Right Arm	32.0	2back-nostim	
70	377.68261460005306	2.0104500798042864	0.0	2.0	1.0	Right Arm	32.0	2back-nostim	
71	379.6991062001325	2.010831980034709	0.0	2.0	1.0	Right Arm	32.0	2back-nostim	
72	381.7158639000263	2.010737479897216	0.600233200006187	0.0	1.0	Right Arm	32.0	2back-nostim	
73	388.7396247999277	393.74625189998187				Right Arm	49.0	2back Instructions	
74	398.75487689999864	1.9996520800050348			1.0	Right Arm	32.0	2back-nostim	
75	400.7664095000364	2.00992478011176			1.0	Right Arm	32.0	2back-nostim	5.0
76	402.78274119994603	2.010663880035281	0.0	2.0	1.0	Right Arm	32.0	2back-nostim	
77	404.7994915000163	2.0105258799158037	0.0	2.0	1.0	Right Arm	32.0	2back-nostim	
78	406.8160472000018	2.0107836802490056	0.6835540998727083	0.0	1.0	Right Arm	32.0	2back-nostim	
79	408.8328184001148	2.0106489800382406	0.0	2.0	1.0	Right Arm	32.0	2back-nostim	
80	410.84933610004373	2.010945679852739	0.48354400019161403	0.0	1.0	Right Arm	32.0	2back-nostim	
81	412.8661663001403	2.0106528801843524	0.0	2.0	1.0	Right Arm	32.0	2back-nostim	
82	414.8828533999622	2.0107099800370634	0.5169829002115875	0.0	1.0	Right Arm	32.0	2back-nostim	
83	416.89942570007406	2.0108897800091654	0.6834140999708325	0.0	1.0	Right Arm	32.0	2back-nostim	
84	428.93008109997027	19.999966580187902				Right Arm	49.0	Rest-Stim	5.0
85	448.93025740003213	5.016478680074215				Right Arm		PostTrialFixation	
86	453.9324795999564	5.012424280168489		51.358024691358025		Right Arm	49.0	Rest-Stim Rating	5.0
87	463.94705999991857	19.9999755800236				Right Arm	49.0	Rest-Stim	5.0
88	483.947231200058	3.0164772800635546				Right Arm		PostTrialFixation	
89	486.9495920999907	5.0121418801136315		52.59259259259259		Right Arm	49.0	Rest-Stim Rating	3.0
90	498.96404440002516	19.999952879967168				Right Arm	49.0	Rest-Stim	7.0
91	518.9642608999275	3.016441580140963				Right Arm		PostTrialFixation	
92	521.9667879999615	5.011755879968405		53.82716049382715		Right Arm	49.0	Rest-Stim Rating	3.0
93	526.9741313001141	531.9812948000617				Right Arm	32.0	2back Instructions	
94	539.0062450000551	1.982771780109033			1.0	Right Arm	49.0	2back-stim	
95	541.0012364999857	2.0095810799393803			1.0	Right Arm	49.0	2back-stim	7.0
96	543.017310500145	2.010728979948908	0.8169466000981629	0.0	1.0	Right Arm	49.0	2back-stim	
97	545.0339581000153	2.0108094797469676	0.0	2.0	1.0	Right Arm	49.0	2back-stim	
98	547.1115258000791	1.9388803199399263	0.0	2.0	1.0	Right Arm	49.0	2back-stim	
99	549.0674020999577	2.0106986803002656	0.0	2.0	1.0	Right Arm	49.0	2back-stim	
100	551.0839498001151	2.0109319800976664	0.750246400013566	0.0	1.0	Right Arm	49.0	2back-stim	
101	553.1010243999772	2.0102006800007075	0.7169202000368387	0.0	1.0	Right Arm	49.0	2back-stim	
102	555.1174767001066	2.0106186801567674	0.8169153998605907	0.0	1.0	Right Arm	49.0	2back-stim	
103	557.1341570001096	2.0106496803928167	0.0	2.0	1.0	Right Arm	49.0	2back-stim	
104	566.151794299949	5.009225080022588		51.2962962962963		Right Arm	49.0	2back-stim Rating	7.0
105	571.1575219000224	576.1650295001455				Right Arm	32.0	2back Instructions	
106	579.2425488999579	1.944102420238778			1.0	Right Arm	49.0	2back-stim	
107	581.2016547000967	2.0094282801728696			1.0	Right Arm	49.0	2back-stim	3.0
108	583.2176216000225	2.010862580034882	0.7668950001243502	0.0	1.0	Right Arm	49.0	2back-stim	
109	585.2342952000909	2.0109246799256653	0.0	2.0	1.0	Right Arm	49.0	2back-stim	
110	587.2890383000486	1.9679865399375558	0.0	2.0	1.0	Right Arm	49.0	2back-stim	
111	589.2677798999939	2.010692480020225	0.0	2.0	1.0	Right Arm	49.0	2back-stim	
112	591.2843321999535	2.010929279960692	0.6169167999178171	0.0	1.0	Right Arm	49.0	2back-stim	
113	593.3012318999972	2.010510380147025	0.0	2.0	1.0	Right Arm	49.0	2back-stim	
114	595.317723199958	2.0108586801216006	0.0	2.0	1.0	Right Arm	49.0	2back-stim	
115	597.3345274999738	2.0106122801080346	0.6002807999029756	0.0	1.0	Right Arm	49.0	2back-stim	
116	606.3523005999159	5.0089178800117224		51.358024691358025		Right Arm	49.0	2back-stim Rating	7.0
117	611.3572350000031	616.3654094000813				Right Arm	32.0	2back Instructions	
118	619.390008599963	2.0000663800165057			1.0	Right Arm	49.0	2back-stim	
119	621.401874900097	2.009718380169943			1.0	Right Arm	49.0	2back-stim	3.0
120	623.4180054001044	2.0108204800635576	0.0	2.0	1.0	Right Arm	49.0	2back-stim	
121	625.4347000000998	2.0108059803023934	0.0	2.0	1.0	Right Arm	49.0	2back-stim	
122	627.4957024999894	1.9553729395847768	0.5999005001503974	0.0	1.0	Right Arm	49.0	2back-stim	
123	629.4682030000258	2.0105223800055683	0.6687199000734836	0.0	1.0	Right Arm	49.0	2back-stim	
124	631.4847772000358	2.0107880800496787	0.0	2.0	1.0	Right Arm	49.0	2back-stim	
125	633.5017591000069	2.0101763799320906	0.0	2.0	1.0	Right Arm	49.0	2back-stim	
126	635.5181879999582	2.0106586802285165	0.0	2.0	1.0	Right Arm	49.0	2back-stim	
127	637.5348072000779	2.0108013798017055	0.6502266998868436	0.0	1.0	Right Arm	49.0	2back-stim	
128	642.5521921999753	5.009809680050239		50.98765432098765		Right Arm	49.0	2back-stim Rating	3.0
