square,location,corrAns,trials_2.thisRepN,trials_2.thisTrialN,trials_2.thisN,trials_2.thisIndex,fixation_1.started,fixation_1.stopped,response_2.x,response_2.y,response_2.leftButton,grid_lines_2.started,grid_lines_2.stopped,target_square_2.started,target_square_2.stopped,fixation_3.started,fixation_3.stopped,response_2.click,response_2.corr,response_2.started,response_2.stopped,ScoreReportText.started,ScoreReportText.stopped,ScoreReportResponse.keys,ScoreReportResponse.started,ScoreReportResponse.stopped,BodySiteInstructionText.started,BodySiteImg.started,BodySiteImg.stopped,BodySiteInstructionRead.keys,BodySiteInstructionRead.rt,BodySiteInstructionRead.started,BodySiteInstructionRead.stopped,IntensityRating.response,IntensityRating.rt,IntensityRating.started,IntensityRating.stopped,fixation_rest.started,fixation_rest.stopped,subject number,gender,distractMap first- or second-half (1 or 2),session,handedness,scanner,bodysite1 temp,bodysite2 temp,date,psychopyVersion,expName,frameRate,body_site_order,
6,"[0.2, 0]",None,0,0,0,0,115.07569920015521,None,None,None,"[0, 0, 0]",116.09238560008816,None,116.09238560008816,117.09237890015356,117.0757194000762,118.07573950011283,"[0, 0, 0]",1,116.09238560008816,None,,,,,,,,,,,,,,,,,,,4,M,2,21,l,MH,49,49,2022_Aug_03_1221,2020.2.10,distractmap2,60.003840302962374,"['Left Face', 'Right Arm', 'Left Face', 'Right Arm']",
7,"[-0.2, -0.2]",None,0,1,1,1,,,None,None,"[0, 0, 0]",118.09238900011405,120.09246279997751,118.09238900011405,119.09240040020086,119.07574550015852,120.07574730017222,"[0, 0, 0]",1,118.09238900011405,120.09246279997751,,,,,,,,,,,,,,,,,,,4,M,2,21,l,MH,49,49,2022_Aug_03_1221,2020.2.10,distractmap2,60.003840302962374,"['Left Face', 'Right Arm', 'Left Face', 'Right Arm']",
6,"[0.2, 0]",1,0,2,2,2,,,None,None,"[0, 0, 0]",120.10909070004709,122.10909779998474,120.10909070004709,121.1091010000091,121.0924168000929,122.0924290001858,"[0, 0, 0]",1,120.10909070004709,122.10909779998474,,,,,,,,,,,,,,,,,,,4,M,2,21,l,MH,49,49,2022_Aug_03_1221,2020.2.10,distractmap2,60.003840302962374,"['Left Face', 'Right Arm', 'Left Face', 'Right Arm']",
2,"[0, 0.2]",0,0,3,3,3,,,None,None,"[0, 0, 0]",122.12578470003791,124.12577780010179,122.12578470003791,123.12578230001964,123.10912750009447,124.10911590000615,"[0, 0, 0]",1,122.12578470003791,124.12577780010179,,,,,,,,,,,,,,,,,,,4,M,2,21,l,MH,49,49,2022_Aug_03_1221,2020.2.10,distractmap2,60.003840302962374,"['Left Face', 'Right Arm', 'Left Face', 'Right Arm']",
5,"[0, 0]",0,0,4,4,4,,,None,None,"[0, 0, 0]",124.14245100016706,126.14246130012907,124.14245100016706,125.14246060000733,125.12579610012472,126.12579439999536,"[0, 0, 0]",1,124.14245100016706,126.14246130012907,,,,,,,,,,,,,,,,,,,4,M,2,21,l,MH,49,49,2022_Aug_03_1221,2020.2.10,distractmap2,60.003840302962374,"['Left Face', 'Right Arm', 'Left Face', 'Right Arm']",
4,"[-0.2, 0]",0,0,5,5,5,,,None,None,"[0, 0, 0]",126.15913630020805,128.159182399977,126.15913630020805,127.15917200013064,127.14245919999667,128.14246910018846,"[0, 0, 0]",1,126.15913630020805,128.159182399977,,,,,,,,,,,,,,,,,,,4,M,2,21,l,MH,49,49,2022_Aug_03_1221,2020.2.10,distractmap2,60.003840302962374,"['Left Face', 'Right Arm', 'Left Face', 'Right Arm']",
4,"[-0.2, 0]",0,0,6,6,6,,,None,None,"[0, 0, 0]",128.17582640005276,130.17582880007103,128.17582640005276,129.17582210013643,129.15918780001812,130.15919190016575,"[0, 0, 0]",1,128.17582640005276,130.17582880007103,,,,,,,,,,,,,,,,,,,4,M,2,21,l,MH,49,49,2022_Aug_03_1221,2020.2.10,distractmap2,60.003840302962374,"['Left Face', 'Right Arm', 'Left Face', 'Right Arm']",
7,"[-0.2, -0.2]",0,0,7,7,7,,,None,None,"[0, 0, 0]",130.1924945001956,132.19251850014552,130.1924945001956,131.19251530012116,131.17584699997678,132.17581190005876,"[0, 0, 0]",1,130.1924945001956,132.19251850014552,,,,,,,,,,,,,,,,,,,4,M,2,21,l,MH,49,49,2022_Aug_03_1221,2020.2.10,distractmap2,60.003840302962374,"['Left Face', 'Right Arm', 'Left Face', 'Right Arm']",
4,"[-0.2, 0]",1,0,8,8,8,,,None,None,"[0, 0, 0]",132.20921060000546,134.20922300009988,132.20921060000546,133.2092170000542,133.1925338001456,134.19253630004823,"[0, 0, 0]",1,132.20921060000546,134.20922300009988,,,,,,,,,,,,,,,,,,,4,M,2,21,l,MH,49,49,2022_Aug_03_1221,2020.2.10,distractmap2,60.003840302962374,"['Left Face', 'Right Arm', 'Left Face', 'Right Arm']",
3,"[0.2, 0.2]",0,0,9,9,9,,,None,None,"[0, 0, 0]",134.22589470003732,136.22589470003732,134.22589470003732,135.2261587001849,135.20923520019278,136.20924039999954,"[0, 0, 0]",1,134.22589470003732,136.22589470003732,,,,,,,,,,,,,,,,,,,4,M,2,21,l,MH,49,49,2022_Aug_03_1221,2020.2.10,distractmap2,60.003840302962374,"['Left Face', 'Right Arm', 'Left Face', 'Right Arm']",
5,"[0, 0]",0,0,10,10,10,,,None,None,"[0, 0, 0]",136.24257720005699,138.24257570016198,136.24257720005699,137.24248700006865,137.2258911000099,138.22590230009519,"[0, 0, 0]",1,136.24257720005699,138.24257570016198,,,,,,,,,,,,,,,,,,,4,M,2,21,l,MH,49,49,2022_Aug_03_1221,2020.2.10,distractmap2,60.003840302962374,"['Left Face', 'Right Arm', 'Left Face', 'Right Arm']",
3,"[0.2, 0.2]",1,0,11,11,11,,,None,None,"[0, 0, 0]",138.25926470011473,140.2592865000479,138.25926470011473,139.25926399999298,139.24262440018356,140.24259959999472,"[0, 0, 0]",1,138.25926470011473,140.2592865000479,,,,,,,,,,,,,,,,,,,4,M,2,21,l,MH,49,49,2022_Aug_03_1221,2020.2.10,distractmap2,60.003840302962374,"['Left Face', 'Right Arm', 'Left Face', 'Right Arm']",
1,"[-0.2, 0.2]",0,0,12,12,12,,,None,None,"[0, 0, 0]",140.27592919999734,142.27593690017238,140.27592919999734,141.27593770017847,141.25929080019705,142.25927809998393,"[0, 0, 0]",1,140.27592919999734,142.27593690017238,,,,,,,,,,,,,,,,,,,4,M,2,21,l,MH,49,49,2022_Aug_03_1221,2020.2.10,distractmap2,60.003840302962374,"['Left Face', 'Right Arm', 'Left Face', 'Right Arm']",
9,"[0.2, -0.2]",0,0,13,13,13,,,None,None,"[0, 0, 0]",142.29259590012953,144.2926273001358,142.29259590012953,143.29261390003376,143.27597860014066,144.27594440011308,"[0, 0, 0]",1,142.29259590012953,144.2926273001358,,,,,,,,,,,,,,,,,,,4,M,2,21,l,MH,49,49,2022_Aug_03_1221,2020.2.10,distractmap2,60.003840302962374,"['Left Face', 'Right Arm', 'Left Face', 'Right Arm']",
9,"[0.2, -0.2]",0,0,14,14,14,,,None,None,"[0, 0, 0]",144.30932270013727,146.30925679998472,144.30932270013727,145.30932760005817,145.29263510019518,146.2926410001237,"[0, 0, 0]",1,144.30932270013727,146.30925679998472,,,,,,,,,,,,,,,,,,,4,M,2,21,l,MH,49,49,2022_Aug_03_1221,2020.2.10,distractmap2,60.003840302962374,"['Left Face', 'Right Arm', 'Left Face', 'Right Arm']",
8,"[0, -0.2]",0,0,15,15,15,,,None,None,"[0, 0, 0]",146.3259758001659,148.32597930007614,146.3259758001659,147.32599330018274,147.30931370006874,148.3093177000992,"[0, 0, 0]",1,146.3259758001659,148.32597930007614,,,,,,,,,,,,,,,,,,,4,M,2,21,l,MH,49,49,2022_Aug_03_1221,2020.2.10,distractmap2,60.003840302962374,"['Left Face', 'Right Arm', 'Left Face', 'Right Arm']",
6,"[0.2, 0]",0,0,16,16,16,,,None,None,"[0, 0, 0]",148.34266810002737,150.3426657000091,148.34266810002737,149.3426548000425,149.32602100004442,150.3260292999912,"[0, 0, 0]",1,148.34266810002737,150.3426657000091,,,,,,,,,,,,,,,,,,,4,M,2,21,l,MH,49,49,2022_Aug_03_1221,2020.2.10,distractmap2,60.003840302962374,"['Left Face', 'Right Arm', 'Left Face', 'Right Arm']",
3,"[0.2, 0.2]",0,0,17,17,17,,,None,None,"[0, 0, 0]",150.35933290002868,152.3593554000836,150.35933290002868,151.35935270017944,151.34268960007466,152.34267440019175,"[0, 0, 0]",1,150.35933290002868,152.3593554000836,,,,,,,,,,,,,,,,,,,4,M,2,21,l,MH,49,49,2022_Aug_03_1221,2020.2.10,distractmap2,60.003840302962374,"['Left Face', 'Right Arm', 'Left Face', 'Right Arm']",
6,"[0.2, 0]",1,0,18,18,18,,,None,None,"[0, 0, 0]",152.3760184000712,154.3760551000014,152.3760184000712,153.37603120016865,153.35936090000905,154.35938370018266,"[0, 0, 0]",1,152.3760184000712,154.3760551000014,,,,,,,,,,,,,,,,,,,4,M,2,21,l,MH,49,49,2022_Aug_03_1221,2020.2.10,distractmap2,60.003840302962374,"['Left Face', 'Right Arm', 'Left Face', 'Right Arm']",
5,"[0, 0]",0,0,19,19,19,,,None,None,"[0, 0, 0]",154.39272470003925,156.39272660017014,154.39272470003925,155.39273270010017,155.3760569000151,156.37606560019776,"[0, 0, 0]",1,154.39272470003925,156.39272660017014,,,,,,,,,,,,,,,,,,,4,M,2,21,l,MH,49,49,2022_Aug_03_1221,2020.2.10,distractmap2,60.003840302962374,"['Left Face', 'Right Arm', 'Left Face', 'Right Arm']",
7,"[-0.2, -0.2]",0,0,20,20,20,,,None,None,"[0, 0, 0]",156.40938070020638,158.40941260010004,156.40938070020638,157.40940310014412,157.39273560000584,158.39264039997943,"[0, 0, 0]",1,156.40938070020638,158.40941260010004,,,,,,,,,,,,,,,,,,,4,M,2,21,l,MH,49,49,2022_Aug_03_1221,2020.2.10,distractmap2,60.003840302962374,"['Left Face', 'Right Arm', 'Left Face', 'Right Arm']",
5,"[0, 0]",1,0,21,21,21,,,None,None,"[0, 0, 0]",158.4260907000862,160.42610909999348,158.4260907000862,159.42608900018968,159.4094081001822,160.40942170005292,"[0, 0, 0]",1,158.4260907000862,160.42610909999348,,,,,,,,,,,,,,,,,,,4,M,2,21,l,MH,49,49,2022_Aug_03_1221,2020.2.10,distractmap2,60.003840302962374,"['Left Face', 'Right Arm', 'Left Face', 'Right Arm']",
1,"[-0.2, 0.2]",0,0,22,22,22,,,None,None,"[0, 0, 0]",160.44276980008,162.44277760013938,160.44276980008,161.44276700005867,161.4261130001396,162.42611410003155,"[0, 0, 0]",1,160.44276980008,162.44277760013938,,,,,,,,,,,,,,,,,,,4,M,2,21,l,MH,49,49,2022_Aug_03_1221,2020.2.10,distractmap2,60.003840302962374,"['Left Face', 'Right Arm', 'Left Face', 'Right Arm']",
7,"[-0.2, -0.2]",0,0,23,23,23,,,None,None,"[0, 0, 0]",162.45943780010566,164.45945110009052,162.45943780010566,163.45944670005701,163.44279040000401,164.44279090012424,"[0, 0, 0]",1,162.45943780010566,164.45945110009052,,,,,,,,,,,,,,,,,,,4,M,2,21,l,MH,49,49,2022_Aug_03_1221,2020.2.10,distractmap2,60.003840302962374,"['Left Face', 'Right Arm', 'Left Face', 'Right Arm']",
9,"[0.2, -0.2]",0,0,24,24,24,,,None,None,"[0, 0, 0]",164.4761276000645,166.47614719998091,164.4761276000645,165.4761342999991,165.45946889999323,166.45947560016066,"[0, 0, 0]",1,164.4761276000645,166.47614719998091,,,,,,,,,,,,,,,,,,,4,M,2,21,l,MH,49,49,2022_Aug_03_1221,2020.2.10,distractmap2,60.003840302962374,"['Left Face', 'Right Arm', 'Left Face', 'Right Arm']",
3,"[0.2, 0.2]",0,0,25,25,25,,,None,None,"[0, 0, 0]",166.4928095000796,168.49282050016336,166.4928095000796,167.4928225001786,167.47615190013312,168.47616120008752,"[0, 0, 0]",1,166.4928095000796,168.49282050016336,,,,,,,,,,,,,,,,,,,4,M,2,21,l,MH,49,49,2022_Aug_03_1221,2020.2.10,distractmap2,60.003840302962374,"['Left Face', 'Right Arm', 'Left Face', 'Right Arm']",
9,"[0.2, -0.2]",1,0,26,26,26,,,None,None,"[0, 0, 0]",168.50950010004453,170.50951090012677,168.50950010004453,169.5095065999776,169.49283060012385,170.49284770013765,"[0, 0, 0]",1,168.50950010004453,170.50951090012677,,,,,,,,,,,,,,,,,,,4,M,2,21,l,MH,49,49,2022_Aug_03_1221,2020.2.10,distractmap2,60.003840302962374,"['Left Face', 'Right Arm', 'Left Face', 'Right Arm']",
6,"[0.2, 0]",0,0,27,27,27,,,None,None,"[0, 0, 0]",170.52618460007943,172.5262072000187,170.52618460007943,171.52620890014805,171.50952130020596,172.50953160016797,"[0, 0, 0]",1,170.52618460007943,172.5262072000187,,,,,,,,,,,,,,,,,,,4,M,2,21,l,MH,49,49,2022_Aug_03_1221,2020.2.10,distractmap2,60.003840302962374,"['Left Face', 'Right Arm', 'Left Face', 'Right Arm']",
2,"[0, 0.2]",0,0,28,28,28,,,None,None,"[0, 0, 0]",172.54285450000316,174.54287920007482,172.54285450000316,173.54287650017068,173.52625840017572,174.52621689997613,"[0, 0, 0]",1,172.54285450000316,174.54287920007482,,,,,,,,,,,,,,,,,,,4,M,2,21,l,MH,49,49,2022_Aug_03_1221,2020.2.10,distractmap2,60.003840302962374,"['Left Face', 'Right Arm', 'Left Face', 'Right Arm']",
5,"[0, 0]",0,0,29,29,29,,,None,None,"[0, 0, 0]",174.55956410011277,176.55956020019948,174.55956410011277,175.55957000004128,175.542893800186,176.54288980015554,"[0, 0, 0]",1,174.55956410011277,176.55956020019948,,,,,,,,,,,,,,,,,,,4,M,2,21,l,MH,49,49,2022_Aug_03_1221,2020.2.10,distractmap2,60.003840302962374,"['Left Face', 'Right Arm', 'Left Face', 'Right Arm']",
,,,,,,,,,,,,,,,,,,,,,,176.59289630013518,None,space,176.59289630013518,None,,,,,,,,,,,,,,4,M,2,21,l,MH,49,49,2022_Aug_03_1221,2020.2.10,distractmap2,60.003840302962374,"['Left Face', 'Right Arm', 'Left Face', 'Right Arm']",
3,"[0.2, 0.2]",None,0,0,0,0,325.994193200022,None,None,None,"[0, 0, 0]",332.99417850002646,334.99426669999957,332.99417850002646,333.9942454001866,333.9942454001866,334.99426669999957,"[0, 0, 0]",1,332.99417850002646,334.99426669999957,,,,,,234.12670240015723,234.12670240015723,None,space,70.59763740003109,234.12670240015723,None,,,,,,,4,M,2,21,l,MH,49,49,2022_Aug_03_1221,2020.2.10,distractmap2,60.003840302962374,"['Left Face', 'Right Arm', 'Left Face', 'Right Arm']",
3,"[0.2, 0.2]",None,0,1,1,1,,,None,None,"[0, 0, 0]",335.01090840017423,337.0109441000968,335.01090840017423,336.01092590019107,335.9942747000605,336.9942672001198,"[0, 0, 0]",1,335.01090840017423,337.0109441000968,,,,,,,,,,,,,,,,,,,4,M,2,21,l,MH,49,49,2022_Aug_03_1221,2020.2.10,distractmap2,60.003840302962374,"['Left Face', 'Right Arm', 'Left Face', 'Right Arm']",
5,"[0, 0]",0,0,2,2,2,,,None,None,"[0, 0, 0]",337.027611900121,339.0276713001076,337.027611900121,338.02762130019255,338.01094330009073,339.01094330009073,"[0, 0, 0]",1,337.027611900121,339.0276713001076,,,,,,,,,,,,,,,,,,,4,M,2,21,l,MH,49,49,2022_Aug_03_1221,2020.2.10,distractmap2,60.003840302962374,"['Left Face', 'Right Arm', 'Left Face', 'Right Arm']",
1,"[-0.2, 0.2]",0,0,3,3,3,,,None,None,"[0, 0, 0]",339.0442865001969,341.0443118000403,339.0442865001969,340.04422330018133,340.0276346001774,341.02764950017445,"[0, 0, 0]",1,339.0442865001969,341.0443118000403,,,,,,,,,,,,,,,,,,,4,M,2,21,l,MH,49,49,2022_Aug_03_1221,2020.2.10,distractmap2,60.003840302962374,"['Left Face', 'Right Arm', 'Left Face', 'Right Arm']",
5,"[0, 0]",1,0,4,4,4,,,None,None,"[0, 0, 0]",341.06096770009026,343.0609883000143,341.06096770009026,342.0609656001907,342.04433010006323,343.0443245000206,"[0, 0, 0]",1,341.06096770009026,343.0609883000143,,,,,,,,,,,,,,,,,,,4,M,2,21,l,MH,49,49,2022_Aug_03_1221,2020.2.10,distractmap2,60.003840302962374,"['Left Face', 'Right Arm', 'Left Face', 'Right Arm']",
8,"[0, -0.2]",0,0,5,5,5,,,None,None,"[0, 0, 0]",343.0777322000358,345.07766980002634,343.0777322000358,344.07767000002787,344.06100270012394,345.0609973000828,"[0, 0, 0]",1,343.0777322000358,345.07766980002634,,,,,,,,,,,,,,,,,,,4,M,2,21,l,MH,49,49,2022_Aug_03_1221,2020.2.10,distractmap2,60.003840302962374,"['Left Face', 'Right Arm', 'Left Face', 'Right Arm']",
5,"[0, 0]",1,0,6,6,6,,,None,None,"[0, 0, 0]",345.0944211999886,347.0943702000659,345.0944211999886,346.09435300016776,346.077680000104,347.07772230007686,"[0, 0, 0]",1,345.0944211999886,347.0943702000659,,,,,,,,,,,,,,,,,,,4,M,2,21,l,MH,49,49,2022_Aug_03_1221,2020.2.10,distractmap2,60.003840302962374,"['Left Face', 'Right Arm', 'Left Face', 'Right Arm']",
7,"[-0.2, -0.2]",0,0,7,7,7,,,None,None,"[0, 0, 0]",347.11100900010206,349.1110438001342,347.11100900010206,348.1110282000154,348.0943789000157,349.0943950000219,"[0, 0, 0]",1,347.11100900010206,349.1110438001342,,,,,,,,,,,,,,,,,,,4,M,2,21,l,MH,49,49,2022_Aug_03_1221,2020.2.10,distractmap2,60.003840302962374,"['Left Face', 'Right Arm', 'Left Face', 'Right Arm']",
5,"[0, 0]",1,0,8,8,8,,,None,None,"[0, 0, 0]",349.1277048001066,351.12773100007325,349.1277048001066,350.1277199999895,350.1110412001144,351.110994100105,"[0, 0, 0]",1,349.1277048001066,351.12773100007325,,,,,,,,,,,,,,,,,,,4,M,2,21,l,MH,49,49,2022_Aug_03_1221,2020.2.10,distractmap2,60.003840302962374,"['Left Face', 'Right Arm', 'Left Face', 'Right Arm']",
7,"[-0.2, -0.2]",1,0,9,9,9,,,None,None,"[0, 0, 0]",351.14439590019174,353.14441810012795,351.14439590019174,352.1444135000929,352.1277319001965,353.12774060014635,"[0, 0, 0]",1,351.14439590019174,353.14441810012795,,,,,,,,,,,,,,,,,,,4,M,2,21,l,MH,49,49,2022_Aug_03_1221,2020.2.10,distractmap2,60.003840302962374,"['Left Face', 'Right Arm', 'Left Face', 'Right Arm']",
,,,,,,,,,,,,,,,,,,,,,,353.1777391000651,None,,,,,,,,,,,,,,,,,4,M,2,21,l,MH,49,49,2022_Aug_03_1221,2020.2.10,distractmap2,60.003840302962374,"['Left Face', 'Right Arm', 'Left Face', 'Right Arm']",
6,"[0.2, 0]",None,0,0,0,0,365.1945237000473,None,None,None,"[0, 0, 0]",368.1944915000349,370.19458610005677,368.1944915000349,369.1945438000839,369.1945438000839,370.19458610005677,"[0, 0, 0]",1,368.1944915000349,370.19458610005677,,,,,,,,,,,,,,,,,,,4,M,2,21,l,MH,49,49,2022_Aug_03_1221,2020.2.10,distractmap2,60.003840302962374,"['Left Face', 'Right Arm', 'Left Face', 'Right Arm']",
1,"[-0.2, 0.2]",None,0,1,1,1,,,None,None,"[0, 0, 0]",370.2112182001583,372.2112478001509,370.2112182001583,371.21123730018735,371.19457660010085,372.1945897000842,"[0, 0, 0]",1,370.2112182001583,372.2112478001509,,,,,,,,,,,,,,,,,,,4,M,2,21,l,MH,49,49,2022_Aug_03_1221,2020.2.10,distractmap2,60.003840302962374,"['Left Face', 'Right Arm', 'Left Face', 'Right Arm']",
6,"[0.2, 0]",1,0,2,2,2,,,None,None,"[0, 0, 0]",372.2279032000806,374.22791320015676,372.2279032000806,373.227823600173,373.21125080017373,374.2111314001959,"[0, 0, 0]",1,372.2279032000806,374.22791320015676,,,,,,,,,,,,,,,,,,,4,M,2,21,l,MH,49,49,2022_Aug_03_1221,2020.2.10,distractmap2,60.003840302962374,"['Left Face', 'Right Arm', 'Left Face', 'Right Arm']",
4,"[-0.2, 0]",0,0,3,3,3,,,None,None,"[0, 0, 0]",374.24458779999986,376.2446191001218,374.24458779999986,375.24460730003193,375.2278380000498,376.2279281001538,"[0, 0, 0]",1,374.24458779999986,376.2446191001218,,,,,,,,,,,,,,,,,,,4,M,2,21,l,MH,49,49,2022_Aug_03_1221,2020.2.10,distractmap2,60.003840302962374,"['Left Face', 'Right Arm', 'Left Face', 'Right Arm']",
1,"[-0.2, 0.2]",0,0,4,4,4,,,None,None,"[0, 0, 0]",376.26129100006074,378.26129880012013,376.26129100006074,377.2612956999801,377.2446163999848,378.2446336001158,"[0, 0, 0]",1,376.26129100006074,378.26129880012013,,,,,,,,,,,,,,,,,,,4,M,2,21,l,MH,49,49,2022_Aug_03_1221,2020.2.10,distractmap2,60.003840302962374,"['Left Face', 'Right Arm', 'Left Face', 'Right Arm']",
8,"[0, -0.2]",0,0,5,5,5,,,None,None,"[0, 0, 0]",378.2779502000194,380.2779795001261,378.2779502000194,379.2779649000149,379.2613172000274,380.2613062001765,"[0, 0, 0]",1,378.2779502000194,380.2779795001261,,,,,,,,,,,,,,,,,,,4,M,2,21,l,MH,49,49,2022_Aug_03_1221,2020.2.10,distractmap2,60.003840302962374,"['Left Face', 'Right Arm', 'Left Face', 'Right Arm']",
1,"[-0.2, 0.2]",1,0,6,6,6,,,None,None,"[0, 0, 0]",380.2946839001961,382.29467800003476,380.2946839001961,381.29467279999517,381.2779704001732,382.27798940008506,"[0, 0, 0]",1,380.2946839001961,382.29467800003476,,,,,,,,,,,,,,,,,,,4,M,2,21,l,MH,49,49,2022_Aug_03_1221,2020.2.10,distractmap2,60.003840302962374,"['Left Face', 'Right Arm', 'Left Face', 'Right Arm']",
8,"[0, -0.2]",1,0,7,7,7,,,None,None,"[0, 0, 0]",382.3113319000695,384.3113441001624,382.3113319000695,383.3113568001427,383.2947069001384,384.2946895000059,"[0, 0, 0]",1,382.3113319000695,384.3113441001624,,,,,,,,,,,,,,,,,,,4,M,2,21,l,MH,49,49,2022_Aug_03_1221,2020.2.10,distractmap2,60.003840302962374,"['Left Face', 'Right Arm', 'Left Face', 'Right Arm']",
1,"[-0.2, 0.2]",1,0,8,8,8,,,None,None,"[0, 0, 0]",384.32802300015464,386.32803590013646,384.32802300015464,385.3280176001135,385.31137180002406,386.31138120009564,"[0, 0, 0]",1,384.32802300015464,386.32803590013646,,,,,,,,,,,,,,,,,,,4,M,2,21,l,MH,49,49,2022_Aug_03_1221,2020.2.10,distractmap2,60.003840302962374,"['Left Face', 'Right Arm', 'Left Face', 'Right Arm']",
6,"[0.2, 0]",0,0,9,9,9,,,None,None,"[0, 0, 0]",386.34470510017127,388.34472940000705,386.34470510017127,387.344717200147,387.32802560017444,388.3280480999965,"[0, 0, 0]",1,386.34470510017127,388.34472940000705,,,,,,,,,,,,,,,,,,,4,M,2,21,l,MH,49,49,2022_Aug_03_1221,2020.2.10,distractmap2,60.003840302962374,"['Left Face', 'Right Arm', 'Left Face', 'Right Arm']",
,,,,,,,,,,,,,,,,,,,,,,388.36137649999,None,,,,,,,,,,,,,,,,,4,M,2,21,l,MH,49,49,2022_Aug_03_1221,2020.2.10,distractmap2,60.003840302962374,"['Left Face', 'Right Arm', 'Left Face', 'Right Arm']",
7,"[-0.2, -0.2]",None,0,0,0,0,396.3781127000693,None,None,None,"[0, 0, 0]",403.37816750002094,None,403.37816750002094,404.3781818000134,404.3781818000134,None,"[0, 0, 0]",1,403.37816750002094,None,,,,,,,,,,,,,,,,,,,4,M,2,21,l,MH,49,49,2022_Aug_03_1221,2020.2.10,distractmap2,60.003840302962374,"['Left Face', 'Right Arm', 'Left Face', 'Right Arm']",
7,"[-0.2, -0.2]",None,0,1,1,1,,,None,None,"[0, 0, 0]",405.37819229997694,407.3780812001787,405.37819229997694,406.3782135001384,406.36153890006244,407.36153990007006,"[0, 0, 0]",1,405.37819229997694,407.3780812001787,,,,,,,,,,,,,,,,,,,4,M,2,21,l,MH,49,49,2022_Aug_03_1221,2020.2.10,distractmap2,60.003840302962374,"['Left Face', 'Right Arm', 'Left Face', 'Right Arm']",
7,"[-0.2, -0.2]",1,0,2,2,2,,,None,None,"[0, 0, 0]",407.39486880018376,409.3948919000104,407.39486880018376,408.3948917000089,408.37821560003795,409.37822650000453,"[0, 0, 0]",1,407.39486880018376,409.3948919000104,,,,,,,,,,,,,,,,,,,4,M,2,21,l,MH,49,49,2022_Aug_03_1221,2020.2.10,distractmap2,60.003840302962374,"['Left Face', 'Right Arm', 'Left Face', 'Right Arm']",
5,"[0, 0]",0,0,3,3,3,,,None,None,"[0, 0, 0]",409.41157420002855,411.4115731001366,409.41157420002855,410.4115528999828,410.3948911000043,411.3948992001824,"[0, 0, 0]",1,409.41157420002855,411.4115731001366,,,,,,,,,,,,,,,,,,,4,M,2,21,l,MH,49,49,2022_Aug_03_1221,2020.2.10,distractmap2,60.003840302962374,"['Left Face', 'Right Arm', 'Left Face', 'Right Arm']",
1,"[-0.2, 0.2]",0,0,4,4,4,,,None,None,"[0, 0, 0]",411.42824860010296,413.4282625000924,411.42824860010296,412.4282496999949,412.4115747001488,413.41157760005444,"[0, 0, 0]",1,411.42824860010296,413.4282625000924,,,,,,,,,,,,,,,,,,,4,M,2,21,l,MH,49,49,2022_Aug_03_1221,2020.2.10,distractmap2,60.003840302962374,"['Left Face', 'Right Arm', 'Left Face', 'Right Arm']",
6,"[0.2, 0]",0,0,5,5,5,,,None,None,"[0, 0, 0]",413.44494760013185,415.444944600109,413.44494760013185,414.444930100115,414.4282756000757,415.42829670012,"[0, 0, 0]",1,413.44494760013185,415.444944600109,,,,,,,,,,,,,,,,,,,4,M,2,21,l,MH,49,49,2022_Aug_03_1221,2020.2.10,distractmap2,60.003840302962374,"['Left Face', 'Right Arm', 'Left Face', 'Right Arm']",
1,"[-0.2, 0.2]",1,0,6,6,6,,,None,None,"[0, 0, 0]",415.46161130000837,417.4616204001941,415.46161130000837,416.4616309001576,416.44499290012754,417.4449795000255,"[0, 0, 0]",1,415.46161130000837,417.4616204001941,,,,,,,,,,,,,,,,,,,4,M,2,21,l,MH,49,49,2022_Aug_03_1221,2020.2.10,distractmap2,60.003840302962374,"['Left Face', 'Right Arm', 'Left Face', 'Right Arm']",
7,"[-0.2, -0.2]",0,0,7,7,7,,,None,None,"[0, 0, 0]",417.4782973001711,419.47832250013016,417.4782973001711,418.47863480006345,418.46163100004196,419.46164920018055,"[0, 0, 0]",1,417.4782973001711,419.47832250013016,,,,,,,,,,,,,,,,,,,4,M,2,21,l,MH,49,49,2022_Aug_03_1221,2020.2.10,distractmap2,60.003840302962374,"['Left Face', 'Right Arm', 'Left Face', 'Right Arm']",
6,"[0.2, 0]",0,0,8,8,8,,,None,None,"[0, 0, 0]",419.4949629001785,421.49499820009805,419.4949629001785,420.49497910006903,420.47832140000537,421.4783336999826,"[0, 0, 0]",1,419.4949629001785,421.49499820009805,,,,,,,,,,,,,,,,,,,4,M,2,21,l,MH,49,49,2022_Aug_03_1221,2020.2.10,distractmap2,60.003840302962374,"['Left Face', 'Right Arm', 'Left Face', 'Right Arm']",
7,"[-0.2, -0.2]",1,0,9,9,9,,,None,None,"[0, 0, 0]",421.5116709000431,423.5116856000386,421.5116709000431,422.5116608000826,422.49501840001903,423.49502920010127,"[0, 0, 0]",1,421.5116709000431,423.5116856000386,,,,,,,,,,,,,,,,,,,4,M,2,21,l,MH,49,49,2022_Aug_03_1221,2020.2.10,distractmap2,60.003840302962374,"['Left Face', 'Right Arm', 'Left Face', 'Right Arm']",
,,,,,,,,,,,,,,,,,,,,,,423.5283292999957,None,,,,,,,,,,,,,,,,,4,M,2,21,l,MH,49,49,2022_Aug_03_1221,2020.2.10,distractmap2,60.003840302962374,"['Left Face', 'Right Arm', 'Left Face', 'Right Arm']",
4,"[-0.2, 0]",None,0,0,0,0,433.82838520011865,None,None,None,"[0, 0, 0]",438.5450293000322,440.5450709001161,438.5450293000322,439.54515590006486,439.54515590006486,440.5450709001161,"[0, 0, 0]",1,438.5450293000322,440.5450709001161,,,,,,,,,,,,,,,,,,,4,M,2,21,l,MH,49,49,2022_Aug_03_1221,2020.2.10,distractmap2,60.003840302962374,"['Left Face', 'Right Arm', 'Left Face', 'Right Arm']",
5,"[0, 0]",None,0,1,1,1,,,None,None,"[0, 0, 0]",440.56183260004036,442.5618442001287,440.56183260004036,441.5618394999765,441.54515250003897,442.54516630014405,"[0, 0, 0]",1,440.56183260004036,442.5618442001287,,,,,,,,,,,,,,,,,,,4,M,2,21,l,MH,49,49,2022_Aug_03_1221,2020.2.10,distractmap2,60.003840302962374,"['Left Face', 'Right Arm', 'Left Face', 'Right Arm']",
6,"[0.2, 0]",0,0,2,2,2,,,None,None,"[0, 0, 0]",442.5785126001574,444.5785232000053,442.5785126001574,443.57852360000834,443.5618460001424,444.5618612000253,"[0, 0, 0]",1,442.5785126001574,444.5785232000053,,,,,,,,,,,,,,,,,,,4,M,2,21,l,MH,49,49,2022_Aug_03_1221,2020.2.10,distractmap2,60.003840302962374,"['Left Face', 'Right Arm', 'Left Face', 'Right Arm']",
1,"[-0.2, 0.2]",0,0,3,3,3,,,None,None,"[0, 0, 0]",444.5952095000539,446.5952269001864,444.5952095000539,445.59520600014366,445.578529200051,446.57855210010894,"[0, 0, 0]",1,444.5952095000539,446.5952269001864,,,,,,,,,,,,,,,,,,,4,M,2,21,l,MH,49,49,2022_Aug_03_1221,2020.2.10,distractmap2,60.003840302962374,"['Left Face', 'Right Arm', 'Left Face', 'Right Arm']",
6,"[0.2, 0]",1,0,4,4,4,,,None,None,"[0, 0, 0]",446.6621537001338,None,446.6621537001338,447.66189009998925,447.64522920013405,None,"[0, 0, 0]",1,446.6621537001338,None,,,,,,,,,,,,,,,,,,,4,M,2,21,l,MH,49,49,2022_Aug_03_1221,2020.2.10,distractmap2,60.003840302962374,"['Left Face', 'Right Arm', 'Left Face', 'Right Arm']",
1,"[-0.2, 0.2]",1,0,5,5,5,,,None,None,"[0, 0, 0]",448.6285640001297,450.6285819001496,448.6285640001297,449.6288610000629,449.6121835000813,450.611901700031,"[0, 0, 0]",1,448.6285640001297,450.6285819001496,,,,,,,,,,,,,,,,,,,4,M,2,21,l,MH,49,49,2022_Aug_03_1221,2020.2.10,distractmap2,60.003840302962374,"['Left Face', 'Right Arm', 'Left Face', 'Right Arm']",
2,"[0, 0.2]",0,0,6,6,6,,,None,None,"[0, 0, 0]",450.64525150018744,452.6452756000217,450.64525150018744,451.6452528000809,451.62857860000804,452.62859750003554,"[0, 0, 0]",1,450.64525150018744,452.6452756000217,,,,,,,,,,,,,,,,,,,4,M,2,21,l,MH,49,49,2022_Aug_03_1221,2020.2.10,distractmap2,60.003840302962374,"['Left Face', 'Right Arm', 'Left Face', 'Right Arm']",
3,"[0.2, 0.2]",0,0,7,7,7,,,None,None,"[0, 0, 0]",452.6619299000595,454.6619544001296,452.6619299000595,453.6619482000824,453.6452731001191,454.64528629998676,"[0, 0, 0]",1,452.6619299000595,454.6619544001296,,,,,,,,,,,,,,,,,,,4,M,2,21,l,MH,49,49,2022_Aug_03_1221,2020.2.10,distractmap2,60.003840302962374,"['Left Face', 'Right Arm', 'Left Face', 'Right Arm']",
6,"[0.2, 0]",0,0,8,8,8,,,None,None,"[0, 0, 0]",454.67861160007305,456.67862530006096,454.67861160007305,455.6786319001112,455.66195280011743,456.6619772000704,"[0, 0, 0]",1,454.67861160007305,456.67862530006096,,,,,,,,,,,,,,,,,,,4,M,2,21,l,MH,49,49,2022_Aug_03_1221,2020.2.10,distractmap2,60.003840302962374,"['Left Face', 'Right Arm', 'Left Face', 'Right Arm']",
3,"[0.2, 0.2]",1,0,9,9,9,,,None,None,"[0, 0, 0]",456.69529590010643,458.69530930020846,456.69529590010643,457.69532479997724,457.67863199999556,458.67864240007475,"[0, 0, 0]",1,456.69529590010643,458.69530930020846,,,,,,,,,,,,,,,,,,,4,M,2,21,l,MH,49,49,2022_Aug_03_1221,2020.2.10,distractmap2,60.003840302962374,"['Left Face', 'Right Arm', 'Left Face', 'Right Arm']",
,,,,,,,,,,,,,,,,,,,,,,458.7119706000667,None,,,,,,,,,,,,,,,,,4,M,2,21,l,MH,49,49,2022_Aug_03_1221,2020.2.10,distractmap2,60.003840302962374,"['Left Face', 'Right Arm', 'Left Face', 'Right Arm']",
,,,,,,,,,,,,,,,,,,,,,,,,,,,,,,,,,,25.74074074074074,445.4784588201437,,,,,4,M,2,21,l,MH,49,49,2022_Aug_03_1221,2020.2.10,distractmap2,60.003840302962374,"['Left Face', 'Right Arm', 'Left Face', 'Right Arm']",
2,"[0, 0.2]",None,0,0,0,0,476.67875650012866,None,None,None,"[0, 0, 0]",478.7454790000338,480.74552660016343,478.7454790000338,479.745499700075,479.745499700075,480.74552660016343,"[0, 0, 0]",1,478.7454790000338,480.74552660016343,,,,,,,,,,,,,,,0.013244380010291934,5.009380979929119,,,4,M,2,21,l,MH,49,49,2022_Aug_03_1221,2020.2.10,distractmap2,60.003840302962374,"['Left Face', 'Right Arm', 'Left Face', 'Right Arm']",
5,"[0, 0]",None,0,1,1,1,,,None,None,"[0, 0, 0]",480.7621858001221,482.76220330013894,480.7621858001221,481.76220760005526,481.7455209000036,482.7455271000508,"[0, 0, 0]",1,480.7621858001221,482.76220330013894,,,,,,,,,,,,,,,,,,,4,M,2,21,l,MH,49,49,2022_Aug_03_1221,2020.2.10,distractmap2,60.003840302962374,"['Left Face', 'Right Arm', 'Left Face', 'Right Arm']",
6,"[0.2, 0]",0,0,2,2,2,,,None,None,"[0, 0, 0]",482.7788619999774,484.7788782999851,482.7788619999774,483.778860000195,483.762478900142,484.7622109001968,"[0, 0, 0]",1,482.7788619999774,484.7788782999851,,,,,,,,,,,,,,,,,,,4,M,2,21,l,MH,49,49,2022_Aug_03_1221,2020.2.10,distractmap2,60.003840302962374,"['Left Face', 'Right Arm', 'Left Face', 'Right Arm']",
1,"[-0.2, 0.2]",0,0,3,3,3,,,None,None,"[0, 0, 0]",484.7955710000824,486.79557349998504,484.7955710000824,485.79585160012357,485.7789013001602,486.77891100011766,"[0, 0, 0]",1,484.7955710000824,486.79557349998504,,,,,,,,,,,,,,,,,,,4,M,2,21,l,MH,49,49,2022_Aug_03_1221,2020.2.10,distractmap2,60.003840302962374,"['Left Face', 'Right Arm', 'Left Face', 'Right Arm']",
6,"[0.2, 0]",1,0,4,4,4,,,None,None,"[0, 0, 0]",486.8955856000539,None,486.8955856000539,487.89557510009035,487.8789109000936,None,"[0, 0, 0]",1,486.8955856000539,None,,,,,,,,,,,,,,,,,,,4,M,2,21,l,MH,49,49,2022_Aug_03_1221,2020.2.10,distractmap2,60.003840302962374,"['Left Face', 'Right Arm', 'Left Face', 'Right Arm']",
6,"[0.2, 0]",0,0,5,5,5,,,None,None,"[0, 0, 0]",488.8289030001033,490.8289398001507,488.8289030001033,489.82927260012366,489.81226580007933,490.81226929998957,"[0, 0, 0]",1,488.8289030001033,490.8289398001507,,,,,,,,,,,,,,,,,,,4,M,2,21,l,MH,49,49,2022_Aug_03_1221,2020.2.10,distractmap2,60.003840302962374,"['Left Face', 'Right Arm', 'Left Face', 'Right Arm']",
9,"[0.2, -0.2]",0,0,6,6,6,,,None,None,"[0, 0, 0]",490.84560400014743,492.8456216000486,490.84560400014743,491.8455996999983,491.82893170020543,492.8289366001263,"[0, 0, 0]",1,490.84560400014743,492.8456216000486,,,,,,,,,,,,,,,,,,,4,M,2,21,l,MH,49,49,2022_Aug_03_1221,2020.2.10,distractmap2,60.003840302962374,"['Left Face', 'Right Arm', 'Left Face', 'Right Arm']",
6,"[0.2, 0]",1,0,7,7,7,,,None,None,"[0, 0, 0]",492.862285700161,494.86229509999976,492.862285700161,493.8622997000348,493.84564840001985,494.8456362001598,"[0, 0, 0]",1,492.862285700161,494.86229509999976,,,,,,,,,,,,,,,,,,,4,M,2,21,l,MH,49,49,2022_Aug_03_1221,2020.2.10,distractmap2,60.003840302962374,"['Left Face', 'Right Arm', 'Left Face', 'Right Arm']",
3,"[0.2, 0.2]",0,0,8,8,8,,,None,None,"[0, 0, 0]",494.8789717000909,496.8790047999937,494.8789717000909,495.87897030008025,495.8623139001429,496.86232360010035,"[0, 0, 0]",1,494.8789717000909,496.8790047999937,,,,,,,,,,,,,,,,,,,4,M,2,21,l,MH,49,49,2022_Aug_03_1221,2020.2.10,distractmap2,60.003840302962374,"['Left Face', 'Right Arm', 'Left Face', 'Right Arm']",
9,"[0.2, -0.2]",0,0,9,9,9,,,None,None,"[0, 0, 0]",496.89565640012734,498.89568529999815,496.89565640012734,497.8956591000315,497.8789976001717,498.878995800158,"[0, 0, 0]",1,496.89565640012734,498.89568529999815,,,,,,,,,,,,,,,,,,,4,M,2,21,l,MH,49,49,2022_Aug_03_1221,2020.2.10,distractmap2,60.003840302962374,"['Left Face', 'Right Arm', 'Left Face', 'Right Arm']",
,,,,,,,,,,,,,,,,,,,,,,498.912314100191,None,,,,,,,,,,,,,,,,,4,M,2,21,l,MH,49,49,2022_Aug_03_1221,2020.2.10,distractmap2,60.003840302962374,"['Left Face', 'Right Arm', 'Left Face', 'Right Arm']",
,,,,,,,,,,,,,,,,,,,,,,,,,,,,,,,,,,21.91358024691358,484.9624183198903,,,,,4,M,2,21,l,MH,49,49,2022_Aug_03_1221,2020.2.10,distractmap2,60.003840302962374,"['Left Face', 'Right Arm', 'Left Face', 'Right Arm']",
3,"[0.2, 0.2]",None,0,0,0,0,516.1960275000893,None,None,None,"[0, 0, 0]",518.9458447000943,520.9458593002055,518.9458447000943,519.9458506000228,519.9458506000228,520.9458593002055,"[0, 0, 0]",1,518.9458447000943,520.9458593002055,,,,,,,,,,,,,,,0.01295798015780747,5.008818180067465,,,4,M,2,21,l,MH,49,49,2022_Aug_03_1221,2020.2.10,distractmap2,60.003840302962374,"['Left Face', 'Right Arm', 'Left Face', 'Right Arm']",
9,"[0.2, -0.2]",None,0,1,1,1,,,None,None,"[0, 0, 0]",520.9625193001702,522.9625317000318,520.9625193001702,521.9625256999861,521.9458570000716,522.9458777001128,"[0, 0, 0]",1,520.9625193001702,522.9625317000318,,,,,,,,,,,,,,,,,,,4,M,2,21,l,MH,49,49,2022_Aug_03_1221,2020.2.10,distractmap2,60.003840302962374,"['Left Face', 'Right Arm', 'Left Face', 'Right Arm']",
3,"[0.2, 0.2]",1,0,2,2,2,,,None,None,"[0, 0, 0]",522.9792281000409,524.979228500044,522.9792281000409,523.9792534001172,523.9625596001279,524.9625664001796,"[0, 0, 0]",1,522.9792281000409,524.979228500044,,,,,,,,,,,,,,,,,,,4,M,2,21,l,MH,49,49,2022_Aug_03_1221,2020.2.10,distractmap2,60.003840302962374,"['Left Face', 'Right Arm', 'Left Face', 'Right Arm']",
7,"[-0.2, -0.2]",0,0,3,3,3,,,None,None,"[0, 0, 0]",524.9958964001853,526.9959148000926,524.9958964001853,525.9958948001731,525.9792319000699,526.9792502999771,"[0, 0, 0]",1,524.9958964001853,526.9959148000926,,,,,,,,,,,,,,,,,,,4,M,2,21,l,MH,49,49,2022_Aug_03_1221,2020.2.10,distractmap2,60.003840302962374,"['Left Face', 'Right Arm', 'Left Face', 'Right Arm']",
8,"[0, -0.2]",0,0,4,4,4,,,None,None,"[0, 0, 0]",527.0455526001751,None,527.0455526001751,528.0459297001362,528.0292693001684,None,"[0, 0, 0]",1,527.0455526001751,None,,,,,,,,,,,,,,,,,,,4,M,2,21,l,MH,49,49,2022_Aug_03_1221,2020.2.10,distractmap2,60.003840302962374,"['Left Face', 'Right Arm', 'Left Face', 'Right Arm']",
4,"[-0.2, 0]",0,0,5,5,5,,,None,None,"[0, 0, 0]",529.0292717001867,531.0292977001518,529.0292717001867,530.0292793000117,530.0125957999844,531.0125983001199,"[0, 0, 0]",1,529.0292717001867,531.0292977001518,,,,,,,,,,,,,,,,,,,4,M,2,21,l,MH,49,49,2022_Aug_03_1221,2020.2.10,distractmap2,60.003840302962374,"['Left Face', 'Right Arm', 'Left Face', 'Right Arm']",
4,"[-0.2, 0]",0,0,6,6,6,,,None,None,"[0, 0, 0]",531.0459461000282,533.0459502001759,531.0459461000282,532.045980400173,532.0292698000558,533.029310700018,"[0, 0, 0]",1,531.0459461000282,533.0459502001759,,,,,,,,,,,,,,,,,,,4,M,2,21,l,MH,49,49,2022_Aug_03_1221,2020.2.10,distractmap2,60.003840302962374,"['Left Face', 'Right Arm', 'Left Face', 'Right Arm']",
1,"[-0.2, 0.2]",0,0,7,7,7,,,None,None,"[0, 0, 0]",533.062638600124,535.0626377000008,533.062638600124,534.0626318000723,534.0459716999903,535.0460014001001,"[0, 0, 0]",1,533.062638600124,535.0626377000008,,,,,,,,,,,,,,,,,,,4,M,2,21,l,MH,49,49,2022_Aug_03_1221,2020.2.10,distractmap2,60.003840302962374,"['Left Face', 'Right Arm', 'Left Face', 'Right Arm']",
4,"[-0.2, 0]",1,0,8,8,8,,,None,None,"[0, 0, 0]",535.0793220000342,537.0793438002001,535.0793220000342,536.0793259001803,536.0626562000252,537.0626580000389,"[0, 0, 0]",1,535.0793220000342,537.0793438002001,,,,,,,,,,,,,,,,,,,4,M,2,21,l,MH,49,49,2022_Aug_03_1221,2020.2.10,distractmap2,60.003840302962374,"['Left Face', 'Right Arm', 'Left Face', 'Right Arm']",
8,"[0, -0.2]",0,0,9,9,9,,,None,None,"[0, 0, 0]",537.0959994001314,539.0960077000782,537.0959994001314,538.0960161001422,538.0793473999947,539.0793659000192,"[0, 0, 0]",1,537.0959994001314,539.0960077000782,,,,,,,,,,,,,,,,,,,4,M,2,21,l,MH,49,49,2022_Aug_03_1221,2020.2.10,distractmap2,60.003840302962374,"['Left Face', 'Right Arm', 'Left Face', 'Right Arm']",
,,,,,,,,,,,,,,,,,,,,,,539.1126945000142,None,,,,,,,,,,,,,,,,,4,M,2,21,l,MH,49,49,2022_Aug_03_1221,2020.2.10,distractmap2,60.003840302962374,"['Left Face', 'Right Arm', 'Left Face', 'Right Arm']",
,,,,,,,,,,,,,,,,,,,,,,,,,,,,,,,,,,15.864197530864196,521.3452849201858,,,,,4,M,2,21,l,MH,49,49,2022_Aug_03_1221,2020.2.10,distractmap2,60.003840302962374,"['Left Face', 'Right Arm', 'Left Face', 'Right Arm']",
,,,,,,,664.1304502000567,None,,,,,,,,,,,,,,,,,,,,,,,,,,37.22222222222222,648.579104620032,0.013738479930907488,5.010373079916462,644.1302879001014,None,4,M,2,21,l,MH,49,49,2022_Aug_03_1221,2020.2.10,distractmap2,60.003840302962374,"['Left Face', 'Right Arm', 'Left Face', 'Right Arm']",
,,,,,,,699.147419600049,None,,,,,,,,,,,,,,,,,,,,,,,,,,36.97530864197531,685.6106525198556,0.014381980057805777,5.0117360800504684,679.147242099978,None,4,M,2,21,l,MH,49,49,2022_Aug_03_1221,2020.2.10,distractmap2,60.003840302962374,"['Left Face', 'Right Arm', 'Left Face', 'Right Arm']",
,,,,,,,734.1643974999897,None,,,,,,,,,,,,,,,,,,,,,,,,,,36.7283950617284,718.0457515199669,0.016607780242338777,5.016108080279082,714.1642205000389,None,4,M,2,21,l,MH,49,49,2022_Aug_03_1221,2020.2.10,distractmap2,60.003840302962374,"['Left Face', 'Right Arm', 'Left Face', 'Right Arm']",
2,"[0, 0.2]",None,0,0,0,0,749.3976760001387,None,None,None,"[0, 0, 0]",754.197834599996,756.1979189000558,754.197834599996,755.1979098001029,755.1979098001029,756.1979189000558,"[0, 0, 0]",1,754.197834599996,756.1979189000558,,,,,,,,,,,,,,,0.01500808005221188,5.012953380122781,,,4,M,2,21,l,MH,49,49,2022_Aug_03_1221,2020.2.10,distractmap2,60.003840302962374,"['Left Face', 'Right Arm', 'Left Face', 'Right Arm']",
5,"[0, 0]",None,0,1,1,1,,,None,None,"[0, 0, 0]",756.2145971001592,758.214614200173,756.2145971001592,757.214597400045,757.1979538002051,758.1979479000438,"[0, 0, 0]",1,756.2145971001592,758.214614200173,,,,,,,,,,,,,,,,,,,4,M,2,21,l,MH,49,49,2022_Aug_03_1221,2020.2.10,distractmap2,60.003840302962374,"['Left Face', 'Right Arm', 'Left Face', 'Right Arm']",
3,"[0.2, 0.2]",0,0,2,2,2,,,None,None,"[0, 0, 0]",758.2312776001636,760.2312903001439,758.2312776001636,759.2312886000145,759.214611900039,760.2146338000894,"[0, 0, 0]",1,758.2312776001636,760.2312903001439,,,,,,,,,,,,,,,,,,,4,M,2,21,l,MH,49,49,2022_Aug_03_1221,2020.2.10,distractmap2,60.003840302962374,"['Left Face', 'Right Arm', 'Left Face', 'Right Arm']",
5,"[0, 0]",1,0,3,3,3,,,None,None,"[0, 0, 0]",760.2479584000539,762.2479859001469,760.2479584000539,761.247973300051,761.2313087000512,762.2312506001908,"[0, 0, 0]",1,760.2479584000539,762.2479859001469,,,,,,,,,,,,,,,,,,,4,M,2,21,l,MH,49,49,2022_Aug_03_1221,2020.2.10,distractmap2,60.003840302962374,"['Left Face', 'Right Arm', 'Left Face', 'Right Arm']",
2,"[0, 0.2]",0,0,4,4,4,,,None,None,"[0, 0, 0]",762.314148500096,None,762.314148500096,763.3146783001721,763.3146783001721,None,"[0, 0, 0]",1,762.314148500096,None,,,,,,,,,,,,,,,,,,,4,M,2,21,l,MH,49,49,2022_Aug_03_1221,2020.2.10,distractmap2,60.003840302962374,"['Left Face', 'Right Arm', 'Left Face', 'Right Arm']",
8,"[0, -0.2]",0,0,5,5,5,,,None,None,"[0, 0, 0]",764.2813385999762,766.2812414001673,764.2813385999762,765.2813625000417,765.2647274001502,766.2646933000069,"[0, 0, 0]",1,764.2813385999762,766.2812414001673,,,,,,,,,,,,,,,,,,,4,M,2,21,l,MH,49,49,2022_Aug_03_1221,2020.2.10,distractmap2,60.003840302962374,"['Left Face', 'Right Arm', 'Left Face', 'Right Arm']",
4,"[-0.2, 0]",0,0,6,6,6,,,None,None,"[0, 0, 0]",766.2980270001572,768.2980425001588,766.2980270001572,767.2980272001587,767.2813682002015,768.2813723001163,"[0, 0, 0]",1,766.2980270001572,768.2980425001588,,,,,,,,,,,,,,,,,,,4,M,2,21,l,MH,49,49,2022_Aug_03_1221,2020.2.10,distractmap2,60.003840302962374,"['Left Face', 'Right Arm', 'Left Face', 'Right Arm']",
8,"[0, -0.2]",1,0,7,7,7,,,None,None,"[0, 0, 0]",768.3147068000399,770.3147230001632,768.3147068000399,769.3147092000581,769.298052099999,770.2980556001421,"[0, 0, 0]",1,768.3147068000399,770.3147230001632,,,,,,,,,,,,,,,,,,,4,M,2,21,l,MH,49,49,2022_Aug_03_1221,2020.2.10,distractmap2,60.003840302962374,"['Left Face', 'Right Arm', 'Left Face', 'Right Arm']",
7,"[-0.2, -0.2]",0,0,8,8,8,,,None,None,"[0, 0, 0]",770.3313930002041,772.3314055001829,770.3313930002041,771.3313963001128,771.3147484001238,772.3147277000826,"[0, 0, 0]",1,770.3313930002041,772.3314055001829,,,,,,,,,,,,,,,,,,,4,M,2,21,l,MH,49,49,2022_Aug_03_1221,2020.2.10,distractmap2,60.003840302962374,"['Left Face', 'Right Arm', 'Left Face', 'Right Arm']",
8,"[0, -0.2]",1,0,9,9,9,,,None,None,"[0, 0, 0]",772.348080100026,774.3480806001462,772.348080100026,773.3480650000274,773.3314369001891,774.3314232002012,"[0, 0, 0]",1,772.348080100026,774.3480806001462,,,,,,,,,,,,,,,,,,,4,M,2,21,l,MH,49,49,2022_Aug_03_1221,2020.2.10,distractmap2,60.003840302962374,"['Left Face', 'Right Arm', 'Left Face', 'Right Arm']",
,,,,,,,,,,,,,,,,,,,,,,774.4147650999948,None,,,,,,,,,,,,,,,,,4,M,2,21,l,MH,49,49,2022_Aug_03_1221,2020.2.10,distractmap2,60.003840302962374,"['Left Face', 'Right Arm', 'Left Face', 'Right Arm']",
,,,,,,,,,,,,,,,,,,,,,,,,,,,,,,,,,,11.358024691358025,757.8475166198332,,,,,4,M,2,21,l,MH,49,49,2022_Aug_03_1221,2020.2.10,distractmap2,60.003840302962374,"['Left Face', 'Right Arm', 'Left Face', 'Right Arm']",
2,"[0, 0.2]",None,0,0,0,0,787.6983231001068,None,None,None,"[0, 0, 0]",794.4482127001975,796.4482881000731,794.4482127001975,795.4482846001629,795.4482846001629,796.4482881000731,"[0, 0, 0]",1,794.4482127001975,796.4482881000731,,,,,,,,,,,,,,,0.01367508014664054,5.010379280196503,,,4,M,2,21,l,MH,49,49,2022_Aug_03_1221,2020.2.10,distractmap2,60.003840302962374,"['Left Face', 'Right Arm', 'Left Face', 'Right Arm']",
2,"[0, 0.2]",None,0,1,1,1,,,None,None,"[0, 0, 0]",796.4649369001854,798.4649695002008,796.4649369001854,797.4649600000121,797.4482998000458,798.4483168001752,"[0, 0, 0]",1,796.4649369001854,798.4649695002008,,,,,,,,,,,,,,,,,,,4,M,2,21,l,MH,49,49,2022_Aug_03_1221,2020.2.10,distractmap2,60.003840302962374,"['Left Face', 'Right Arm', 'Left Face', 'Right Arm']",
2,"[0, 0.2]",1,0,2,2,2,,,None,None,"[0, 0, 0]",798.48163569998,800.4816963002086,798.48163569998,799.4816507000942,799.464962300146,800.4649773000274,"[0, 0, 0]",1,798.48163569998,800.4816963002086,,,,,,,,,,,,,,,,,,,4,M,2,21,l,MH,49,49,2022_Aug_03_1221,2020.2.10,distractmap2,60.003840302962374,"['Left Face', 'Right Arm', 'Left Face', 'Right Arm']",
8,"[0, -0.2]",0,0,3,3,3,,,None,None,"[0, 0, 0]",800.4983217001427,802.4983585001901,800.4983217001427,801.498335500015,801.4816573001444,802.4816749000456,"[0, 0, 0]",1,800.4983217001427,802.4983585001901,,,,,,,,,,,,,,,,,,,4,M,2,21,l,MH,49,49,2022_Aug_03_1221,2020.2.10,distractmap2,60.003840302962374,"['Left Face', 'Right Arm', 'Left Face', 'Right Arm']",
2,"[0, 0.2]",1,0,4,4,4,,,None,None,"[0, 0, 0]",802.5816099999938,None,802.5816099999938,803.5816794000566,803.564997700043,None,"[0, 0, 0]",1,802.5816099999938,None,,,,,,,,,,,,,,,,,,,4,M,2,21,l,MH,49,49,2022_Aug_03_1221,2020.2.10,distractmap2,60.003840302962374,"['Left Face', 'Right Arm', 'Left Face', 'Right Arm']",
5,"[0, 0]",0,0,5,5,5,,,None,None,"[0, 0, 0]",804.5316812000237,806.5316996001638,804.5316812000237,805.5316889001988,805.5150172000285,806.5150599000044,"[0, 0, 0]",1,804.5316812000237,806.5316996001638,,,,,,,,,,,,,,,,,,,4,M,2,21,l,MH,49,49,2022_Aug_03_1221,2020.2.10,distractmap2,60.003840302962374,"['Left Face', 'Right Arm', 'Left Face', 'Right Arm']",
1,"[-0.2, 0.2]",0,0,6,6,6,,,None,None,"[0, 0, 0]",806.5483766000252,808.548392200144,806.5483766000252,807.5483955000527,807.5317204000894,808.5317277000286,"[0, 0, 0]",1,806.5483766000252,808.548392200144,,,,,,,,,,,,,,,,,,,4,M,2,21,l,MH,49,49,2022_Aug_03_1221,2020.2.10,distractmap2,60.003840302962374,"['Left Face', 'Right Arm', 'Left Face', 'Right Arm']",
1,"[-0.2, 0.2]",0,0,7,7,7,,,None,None,"[0, 0, 0]",808.5650484000798,810.5650611000601,808.5650484000798,809.5650601000525,809.548406300135,810.5484250001609,"[0, 0, 0]",1,808.5650484000798,810.5650611000601,,,,,,,,,,,,,,,,,,,4,M,2,21,l,MH,49,49,2022_Aug_03_1221,2020.2.10,distractmap2,60.003840302962374,"['Left Face', 'Right Arm', 'Left Face', 'Right Arm']",
6,"[0.2, 0]",0,0,8,8,8,,,None,None,"[0, 0, 0]",810.5817371001467,812.5817646000069,810.5817371001467,811.5817491000053,811.5650936001912,812.5650951000862,"[0, 0, 0]",1,810.5817371001467,812.5817646000069,,,,,,,,,,,,,,,,,,,4,M,2,21,l,MH,49,49,2022_Aug_03_1221,2020.2.10,distractmap2,60.003840302962374,"['Left Face', 'Right Arm', 'Left Face', 'Right Arm']",
1,"[-0.2, 0.2]",1,0,9,9,9,,,None,None,"[0, 0, 0]",812.5984259000979,814.5984432001133,812.5984259000979,813.5984406999778,813.5817766999826,814.5817811000161,"[0, 0, 0]",1,812.5984259000979,814.5984432001133,,,,,,,,,,,,,,,,,,,4,M,2,21,l,MH,49,49,2022_Aug_03_1221,2020.2.10,distractmap2,60.003840302962374,"['Left Face', 'Right Arm', 'Left Face', 'Right Arm']",
,,,,,,,,,,,,,,,,,,,,,,814.6151064001024,None,,,,,,,,,,,,,,,,,4,M,2,21,l,MH,49,49,2022_Aug_03_1221,2020.2.10,distractmap2,60.003840302962374,"['Left Face', 'Right Arm', 'Left Face', 'Right Arm']",
,,,,,,,,,,,,,,,,,,,,,,,,,,,,,,,,,,16.419753086419757,796.4478717199527,,,,,4,M,2,21,l,MH,49,49,2022_Aug_03_1221,2020.2.10,distractmap2,60.003840302962374,"['Left Face', 'Right Arm', 'Left Face', 'Right Arm']",
3,"[0.2, 0.2]",None,0,0,0,0,827.8824118000921,None,None,None,"[0, 0, 0]",834.6486240001395,836.6486461001914,834.6486240001395,835.6486311000772,835.6319592001382,836.6319649000652,"[0, 0, 0]",1,834.6486240001395,836.6486461001914,,,,,,,,,,,,,,,0.01361698005348444,5.010157679906115,,,4,M,2,21,l,MH,49,49,2022_Aug_03_1221,2020.2.10,distractmap2,60.003840302962374,"['Left Face', 'Right Arm', 'Left Face', 'Right Arm']",
3,"[0.2, 0.2]",None,0,1,1,1,,,None,None,"[0, 0, 0]",836.6653053001501,838.6653154999949,836.6653053001501,837.6652222000994,837.6486422000453,838.6486670000013,"[0, 0, 0]",1,836.6653053001501,838.6653154999949,,,,,,,,,,,,,,,,,,,4,M,2,21,l,MH,49,49,2022_Aug_03_1221,2020.2.10,distractmap2,60.003840302962374,"['Left Face', 'Right Arm', 'Left Face', 'Right Arm']",
5,"[0, 0]",0,0,2,2,2,,,None,None,"[0, 0, 0]",838.681986700045,840.6820131000131,838.681986700045,839.6819969001226,839.6653295999859,840.665331199998,"[0, 0, 0]",1,838.681986700045,840.6820131000131,,,,,,,,,,,,,,,,,,,4,M,2,21,l,MH,49,49,2022_Aug_03_1221,2020.2.10,distractmap2,60.003840302962374,"['Left Face', 'Right Arm', 'Left Face', 'Right Arm']",
1,"[-0.2, 0.2]",0,0,3,3,3,,,None,None,"[0, 0, 0]",840.6986853000708,842.6986880002078,840.6986853000708,841.6986895999871,841.6820221000817,842.6820322000422,"[0, 0, 0]",1,840.6986853000708,842.6986880002078,,,,,,,,,,,,,,,,,,,4,M,2,21,l,MH,49,49,2022_Aug_03_1221,2020.2.10,distractmap2,60.003840302962374,"['Left Face', 'Right Arm', 'Left Face', 'Right Arm']",
5,"[0, 0]",1,0,4,4,4,,,None,None,"[0, 0, 0]",842.7656666000839,None,842.7656666000839,843.7653564000502,843.748702300014,None,"[0, 0, 0]",1,842.7656666000839,None,,,,,,,,,,,,,,,,,,,4,M,2,21,l,MH,49,49,2022_Aug_03_1221,2020.2.10,distractmap2,60.003840302962374,"['Left Face', 'Right Arm', 'Left Face', 'Right Arm']",
8,"[0, -0.2]",0,0,5,5,5,,,None,None,"[0, 0, 0]",844.7320497999899,846.7320923001971,844.7320497999899,845.7320684001315,845.715401200112,846.7154052001424,"[0, 0, 0]",1,844.7320497999899,846.7320923001971,,,,,,,,,,,,,,,,,,,4,M,2,21,l,MH,49,49,2022_Aug_03_1221,2020.2.10,distractmap2,60.003840302962374,"['Left Face', 'Right Arm', 'Left Face', 'Right Arm']",
5,"[0, 0]",1,0,6,6,6,,,None,None,"[0, 0, 0]",846.7487300999928,848.7487525001634,846.7487300999928,847.7487472000066,847.732077000197,848.7320962001104,"[0, 0, 0]",1,846.7487300999928,848.7487525001634,,,,,,,,,,,,,,,,,,,4,M,2,21,l,MH,49,49,2022_Aug_03_1221,2020.2.10,distractmap2,60.003840302962374,"['Left Face', 'Right Arm', 'Left Face', 'Right Arm']",
7,"[-0.2, -0.2]",0,0,7,7,7,,,None,None,"[0, 0, 0]",848.7654432000127,850.7654242999852,848.7654432000127,849.7654093999881,849.7487604999915,850.7487497001421,"[0, 0, 0]",1,848.7654432000127,850.7654242999852,,,,,,,,,,,,,,,,,,,4,M,2,21,l,MH,49,49,2022_Aug_03_1221,2020.2.10,distractmap2,60.003840302962374,"['Left Face', 'Right Arm', 'Left Face', 'Right Arm']",
5,"[0, 0]",1,0,8,8,8,,,None,None,"[0, 0, 0]",850.7821045999881,852.7821242001373,850.7821045999881,851.782101900084,851.7654407999944,852.7654387000948,"[0, 0, 0]",1,850.7821045999881,852.7821242001373,,,,,,,,,,,,,,,,,,,4,M,2,21,l,MH,49,49,2022_Aug_03_1221,2020.2.10,distractmap2,60.003840302962374,"['Left Face', 'Right Arm', 'Left Face', 'Right Arm']",
7,"[-0.2, -0.2]",1,0,9,9,9,,,None,None,"[0, 0, 0]",852.7988283000886,854.7987924001645,852.7988283000886,853.7987902001478,853.7821202999912,854.782118699979,"[0, 0, 0]",1,852.7988283000886,854.7987924001645,,,,,,,,,,,,,,,,,,,4,M,2,21,l,MH,49,49,2022_Aug_03_1221,2020.2.10,distractmap2,60.003840302962374,"['Left Face', 'Right Arm', 'Left Face', 'Right Arm']",
,,,,,,,,,,,,,,,,,,,,,,854.815468700137,None,,,,,,,,,,,,,,,,,4,M,2,21,l,MH,49,49,2022_Aug_03_1221,2020.2.10,distractmap2,60.003840302962374,"['Left Face', 'Right Arm', 'Left Face', 'Right Arm']",
,,,,,,,,,,,,,,,,,,,,,,,,,,,,,,,,,,18.02469135802469,839.5987778198905,,,,,4,M,2,21,l,MH,49,49,2022_Aug_03_1221,2020.2.10,distractmap2,60.003840302962374,"['Left Face', 'Right Arm', 'Left Face', 'Right Arm']",
,,,,,,,889.8324461001903,None,,,,,,,,,,,,,,,,,,,,,,,,,,37.03703703703704,875.8805868201889,0.013054480077698827,5.009007279993966,869.8322741000447,None,4,M,2,21,l,MH,49,49,2022_Aug_03_1221,2020.2.10,distractmap2,60.003840302962374,"['Left Face', 'Right Arm', 'Left Face', 'Right Arm']",
,,,,,,,924.8494363999926,None,,,,,,,,,,,,,,,,,,,,,,,,,,38.02469135802469,911.6958795201499,0.01488607982173562,5.012729079928249,904.8492515999824,None,4,M,2,21,l,MH,49,49,2022_Aug_03_1221,2020.2.10,distractmap2,60.003840302962374,"['Left Face', 'Right Arm', 'Left Face', 'Right Arm']",
,,,,,,,959.8664208999835,None,,,,,,,,,,,,,,,,,,,,,,,,,,41.172839506172835,944.5645702199545,0.01658607996068895,5.0160960799548775,939.8662268000189,None,4,M,2,21,l,MH,49,49,2022_Aug_03_1221,2020.2.10,distractmap2,60.003840302962374,"['Left Face', 'Right Arm', 'Left Face', 'Right Arm']",
6,"[0.2, 0]",None,0,0,0,0,1230.102356400108,None,None,None,"[0, 0, 0]",1232.6521861001384,1234.6521908000577,1232.6521861001384,1233.6521920000669,1233.6521920000669,1234.6521908000577,"[0, 0, 0]",1,1232.6521861001384,1234.6521908000577,,,,,,1019.4338982000481,1019.4338982000481,None,space,189.8029313001316,1019.4338982000481,None,,,0.0148570800665766,5.012639980064705,,,4,M,2,21,l,MH,49,49,2022_Aug_03_1221,2020.2.10,distractmap2,60.003840302962374,"['Left Face', 'Right Arm', 'Left Face', 'Right Arm']",
1,"[-0.2, 0.2]",None,0,1,1,1,,,None,None,"[0, 0, 0]",1234.6688547001686,1236.6688867001794,1234.6688547001686,1235.6688606999815,1235.6522075000685,1236.6522171001416,"[0, 0, 0]",1,1234.6688547001686,1236.6688867001794,,,,,,,,,,,,,,,,,,,4,M,2,21,l,MH,49,49,2022_Aug_03_1221,2020.2.10,distractmap2,60.003840302962374,"['Left Face', 'Right Arm', 'Left Face', 'Right Arm']",
6,"[0.2, 0]",1,0,2,2,2,,,None,None,"[0, 0, 0]",1236.68557099998,1238.6855772000272,1236.68557099998,1237.6855971000623,1237.6688794000074,1238.6688974001445,"[0, 0, 0]",1,1236.68557099998,1238.6855772000272,,,,,,,,,,,,,,,,,,,4,M,2,21,l,MH,49,49,2022_Aug_03_1221,2020.2.10,distractmap2,60.003840302962374,"['Left Face', 'Right Arm', 'Left Face', 'Right Arm']",
4,"[-0.2, 0]",0,0,3,3,3,,,None,None,"[0, 0, 0]",1238.7022271000315,1240.7022540001199,1238.7022271000315,1239.7022528001107,1239.6855667000636,1240.6855857002083,"[0, 0, 0]",1,1238.7022271000315,1240.7022540001199,,,,,,,,,,,,,,,,,,,4,M,2,21,l,MH,49,49,2022_Aug_03_1221,2020.2.10,distractmap2,60.003840302962374,"['Left Face', 'Right Arm', 'Left Face', 'Right Arm']",
1,"[-0.2, 0.2]",0,0,4,4,4,,,None,None,"[0, 0, 0]",1240.7522615999915,None,1240.7522615999915,1241.7522591000888,1241.7355944002047,None,"[0, 0, 0]",1,1240.7522615999915,None,,,,,,,,,,,,,,,,,,,4,M,2,21,l,MH,49,49,2022_Aug_03_1221,2020.2.10,distractmap2,60.003840302962374,"['Left Face', 'Right Arm', 'Left Face', 'Right Arm']",
8,"[0, -0.2]",0,0,5,5,5,,,None,None,"[0, 0, 0]",1242.7356200001668,1244.7356349001639,1242.7356200001668,1243.7356175000314,1243.718946899986,1244.718946200097,"[0, 0, 0]",1,1242.7356200001668,1244.7356349001639,,,,,,,,,,,,,,,,,,,4,M,2,21,l,MH,49,49,2022_Aug_03_1221,2020.2.10,distractmap2,60.003840302962374,"['Left Face', 'Right Arm', 'Left Face', 'Right Arm']",
1,"[-0.2, 0.2]",1,0,6,6,6,,,None,None,"[0, 0, 0]",1244.7522948000114,1246.7523115000222,1244.7522948000114,1245.7525758000556,1245.7359088000376,1246.7356410999782,"[0, 0, 0]",1,1244.7522948000114,1246.7523115000222,,,,,,,,,,,,,,,,,,,4,M,2,21,l,MH,49,49,2022_Aug_03_1221,2020.2.10,distractmap2,60.003840302962374,"['Left Face', 'Right Arm', 'Left Face', 'Right Arm']",
8,"[0, -0.2]",1,0,7,7,7,,,None,None,"[0, 0, 0]",1246.7689835000783,1248.7689925001469,1246.7689835000783,1247.7692602002062,1247.7525961000938,1248.7523281001486,"[0, 0, 0]",1,1246.7689835000783,1248.7689925001469,,,,,,,,,,,,,,,,,,,4,M,2,21,l,MH,49,49,2022_Aug_03_1221,2020.2.10,distractmap2,60.003840302962374,"['Left Face', 'Right Arm', 'Left Face', 'Right Arm']",
1,"[-0.2, 0.2]",1,0,8,8,8,,,None,None,"[0, 0, 0]",1248.7856745000463,1250.785660300171,1248.7856745000463,1249.7856880000327,1249.768514299998,1250.769012000179,"[0, 0, 0]",1,1248.7856745000463,1250.785660300171,,,,,,,,,,,,,,,,,,,4,M,2,21,l,MH,49,49,2022_Aug_03_1221,2020.2.10,distractmap2,60.003840302962374,"['Left Face', 'Right Arm', 'Left Face', 'Right Arm']",
6,"[0.2, 0]",0,0,9,9,9,,,None,None,"[0, 0, 0]",1250.8023409000598,1252.8023732001893,1250.8023409000598,1251.8023538000416,1251.7857081000693,1252.7856849001255,"[0, 0, 0]",1,1250.8023409000598,1252.8023732001893,,,,,,,,,,,,,,,,,,,4,M,2,21,l,MH,49,49,2022_Aug_03_1221,2020.2.10,distractmap2,60.003840302962374,"['Left Face', 'Right Arm', 'Left Face', 'Right Arm']",
,,,,,,,,,,,,,,,,,,,,,,1252.8191265000496,None,,,,,,,,,,,,,,,,,4,M,2,21,l,MH,49,49,2022_Aug_03_1221,2020.2.10,distractmap2,60.003840302962374,"['Left Face', 'Right Arm', 'Left Face', 'Right Arm']",
,,,,,,,,,,,,,,,,,,,,,,,,,,,,,,,,,,40.0,1236.118277019821,,,,,4,M,2,21,l,MH,49,49,2022_Aug_03_1221,2020.2.10,distractmap2,60.003840302962374,"['Left Face', 'Right Arm', 'Left Face', 'Right Arm']",
7,"[-0.2, -0.2]",None,0,0,0,0,1268.8359153000638,None,None,None,"[0, 0, 0]",1272.8358748001046,1274.8358937001321,1272.8358748001046,1273.8358828001656,1273.8192143000197,1274.8192205000669,"[0, 0, 0]",1,1272.8358748001046,1274.8358937001321,,,,,,,,,,,,,,,0.013768480159342289,5.010400880128145,,,4,M,2,21,l,MH,49,49,2022_Aug_03_1221,2020.2.10,distractmap2,60.003840302962374,"['Left Face', 'Right Arm', 'Left Face', 'Right Arm']",
7,"[-0.2, -0.2]",None,0,1,1,1,,,None,None,"[0, 0, 0]",1274.852578500053,1276.8525918000378,1274.852578500053,1275.8525766001549,1275.835900900187,1276.8358924000058,"[0, 0, 0]",1,1274.852578500053,1276.8525918000378,,,,,,,,,,,,,,,,,,,4,M,2,21,l,MH,49,49,2022_Aug_03_1221,2020.2.10,distractmap2,60.003840302962374,"['Left Face', 'Right Arm', 'Left Face', 'Right Arm']",
7,"[-0.2, -0.2]",1,0,2,2,2,,,None,None,"[0, 0, 0]",1276.869233299978,1278.8692614000756,1276.869233299978,1277.8692602000665,1277.8524933001027,1278.8526116001885,"[0, 0, 0]",1,1276.869233299978,1278.8692614000756,,,,,,,,,,,,,,,,,,,4,M,2,21,l,MH,49,49,2022_Aug_03_1221,2020.2.10,distractmap2,60.003840302962374,"['Left Face', 'Right Arm', 'Left Face', 'Right Arm']",
5,"[0, 0]",0,0,3,3,3,,,None,None,"[0, 0, 0]",1278.885919000022,1280.885951000033,1278.885919000022,1279.8859368001577,1279.8692964999937,1280.869188599987,"[0, 0, 0]",1,1278.885919000022,1280.885951000033,,,,,,,,,,,,,,,,,,,4,M,2,21,l,MH,49,49,2022_Aug_03_1221,2020.2.10,distractmap2,60.003840302962374,"['Left Face', 'Right Arm', 'Left Face', 'Right Arm']",
1,"[-0.2, 0.2]",0,0,4,4,4,,,None,None,"[0, 0, 0]",1280.953030000208,None,1280.953030000208,1281.9526238001417,1281.9359729001299,None,"[0, 0, 0]",1,1280.953030000208,None,,,,,,,,,,,,,,,,,,,4,M,2,21,l,MH,49,49,2022_Aug_03_1221,2020.2.10,distractmap2,60.003840302962374,"['Left Face', 'Right Arm', 'Left Face', 'Right Arm']",
6,"[0.2, 0]",0,0,5,5,5,,,None,None,"[0, 0, 0]",1282.9192993000615,1284.9193180000875,1282.9192993000615,1283.9188122001942,1283.9026552999858,1284.9026476000436,"[0, 0, 0]",1,1282.9192993000615,1284.9193180000875,,,,,,,,,,,,,,,,,,,4,M,2,21,l,MH,49,49,2022_Aug_03_1221,2020.2.10,distractmap2,60.003840302962374,"['Left Face', 'Right Arm', 'Left Face', 'Right Arm']",
1,"[-0.2, 0.2]",1,0,6,6,6,,,None,None,"[0, 0, 0]",1284.9359774000477,1286.935999300098,1284.9359774000477,1285.9359834999777,1285.919325800147,1286.9193263000343,"[0, 0, 0]",1,1284.9359774000477,1286.935999300098,,,,,,,,,,,,,,,,,,,4,M,2,21,l,MH,49,49,2022_Aug_03_1221,2020.2.10,distractmap2,60.003840302962374,"['Left Face', 'Right Arm', 'Left Face', 'Right Arm']",
7,"[-0.2, -0.2]",0,0,7,7,7,,,None,None,"[0, 0, 0]",1286.95260780002,1288.9526828001253,1286.95260780002,1287.9526929000858,1287.936029399978,1288.9360209000297,"[0, 0, 0]",1,1286.95260780002,1288.9526828001253,,,,,,,,,,,,,,,,,,,4,M,2,21,l,MH,49,49,2022_Aug_03_1221,2020.2.10,distractmap2,60.003840302962374,"['Left Face', 'Right Arm', 'Left Face', 'Right Arm']",
6,"[0.2, 0]",0,0,8,8,8,,,None,None,"[0, 0, 0]",1288.9693564001936,1290.9693688000552,1288.9693564001936,1289.969352700049,1289.9527055001818,1290.952718600165,"[0, 0, 0]",1,1288.9693564001936,1290.9693688000552,,,,,,,,,,,,,,,,,,,4,M,2,21,l,MH,49,49,2022_Aug_03_1221,2020.2.10,distractmap2,60.003840302962374,"['Left Face', 'Right Arm', 'Left Face', 'Right Arm']",
7,"[-0.2, -0.2]",1,0,9,9,9,,,None,None,"[0, 0, 0]",1290.9860402001068,1292.9860568000004,1290.9860402001068,1291.9860268000048,1291.9693856001832,1292.9693807000294,"[0, 0, 0]",1,1290.9860402001068,1292.9860568000004,,,,,,,,,,,,,,,,,,,4,M,2,21,l,MH,49,49,2022_Aug_03_1221,2020.2.10,distractmap2,60.003840302962374,"['Left Face', 'Right Arm', 'Left Face', 'Right Arm']",
,,,,,,,,,,,,,,,,,,,,,,1293.002719100099,None,,,,,,,,,,,,,,,,,4,M,2,21,l,MH,49,49,2022_Aug_03_1221,2020.2.10,distractmap2,60.003840302962374,"['Left Face', 'Right Arm', 'Left Face', 'Right Arm']",
,,,,,,,,,,,,,,,,,,,,,,,,,,,,,,,,,,36.11111111111111,1276.1860742201097,,,,,4,M,2,21,l,MH,49,49,2022_Aug_03_1221,2020.2.10,distractmap2,60.003840302962374,"['Left Face', 'Right Arm', 'Left Face', 'Right Arm']",
4,"[-0.2, 0]",None,0,0,0,0,1308.2541106001008,None,None,None,"[0, 0, 0]",1313.0362253000494,1315.0362568001729,1313.0362253000494,1314.036260300083,1314.0195832999889,1315.0196033001412,"[0, 0, 0]",1,1313.0362253000494,1315.0362568001729,,,,,,,,,,,,,,,0.01298408000729978,5.008891979930922,,,4,M,2,21,l,MH,49,49,2022_Aug_03_1221,2020.2.10,distractmap2,60.003840302962374,"['Left Face', 'Right Arm', 'Left Face', 'Right Arm']",
5,"[0, 0]",None,0,1,1,1,,,None,None,"[0, 0, 0]",1315.0529163000174,1317.0528999001253,1315.0529163000174,1316.0529343001544,1316.036254200153,1317.0362730000634,"[0, 0, 0]",1,1315.0529163000174,1317.0528999001253,,,,,,,,,,,,,,,,,,,4,M,2,21,l,MH,49,49,2022_Aug_03_1221,2020.2.10,distractmap2,60.003840302962374,"['Left Face', 'Right Arm', 'Left Face', 'Right Arm']",
6,"[0.2, 0]",0,0,2,2,2,,,None,None,"[0, 0, 0]",1317.06962630013,1319.0696422001347,1317.06962630013,1318.069634700194,1318.052940600086,1319.0529422999825,"[0, 0, 0]",1,1317.06962630013,1319.0696422001347,,,,,,,,,,,,,,,,,,,4,M,2,21,l,MH,49,49,2022_Aug_03_1221,2020.2.10,distractmap2,60.003840302962374,"['Left Face', 'Right Arm', 'Left Face', 'Right Arm']",
1,"[-0.2, 0.2]",0,0,3,3,3,,,None,None,"[0, 0, 0]",1319.0863001001999,1321.0863076001406,1319.0863001001999,1320.0862984000705,1320.0696327001788,1321.0696382001042,"[0, 0, 0]",1,1319.0863001001999,1321.0863076001406,,,,,,,,,,,,,,,,,,,4,M,2,21,l,MH,49,49,2022_Aug_03_1221,2020.2.10,distractmap2,60.003840302962374,"['Left Face', 'Right Arm', 'Left Face', 'Right Arm']",
6,"[0.2, 0]",1,0,4,4,4,,,None,None,"[0, 0, 0]",1321.1532694001216,None,1321.1532694001216,1322.152989000082,1322.1363282001112,None,"[0, 0, 0]",1,1321.1532694001216,None,,,,,,,,,,,,,,,,,,,4,M,2,21,l,MH,49,49,2022_Aug_03_1221,2020.2.10,distractmap2,60.003840302962374,"['Left Face', 'Right Arm', 'Left Face', 'Right Arm']",
1,"[-0.2, 0.2]",1,0,5,5,5,,,None,None,"[0, 0, 0]",1323.1196636999957,1325.1196755000856,1323.1196636999957,1324.1196678001434,1324.1030013000127,1325.1030141001102,"[0, 0, 0]",1,1323.1196636999957,1325.1196755000856,,,,,,,,,,,,,,,,,,,4,M,2,21,l,MH,49,49,2022_Aug_03_1221,2020.2.10,distractmap2,60.003840302962374,"['Left Face', 'Right Arm', 'Left Face', 'Right Arm']",
2,"[0, 0.2]",0,0,6,6,6,,,None,None,"[0, 0, 0]",1325.1363445001189,1327.1363618001342,1325.1363445001189,1326.136349100154,1326.1196934999898,1327.1197008001618,"[0, 0, 0]",1,1325.1363445001189,1327.1363618001342,,,,,,,,,,,,,,,,,,,4,M,2,21,l,MH,49,49,2022_Aug_03_1221,2020.2.10,distractmap2,60.003840302962374,"['Left Face', 'Right Arm', 'Left Face', 'Right Arm']",
3,"[0.2, 0.2]",0,0,7,7,7,,,None,None,"[0, 0, 0]",1327.1530297000427,1329.1530482000671,1327.1530297000427,1328.1530655000824,1328.1363699000794,1329.1363771001343,"[0, 0, 0]",1,1327.1530297000427,1329.1530482000671,,,,,,,,,,,,,,,,,,,4,M,2,21,l,MH,49,49,2022_Aug_03_1221,2020.2.10,distractmap2,60.003840302962374,"['Left Face', 'Right Arm', 'Left Face', 'Right Arm']",
6,"[0.2, 0]",0,0,8,8,8,,,None,None,"[0, 0, 0]",1329.169717000099,1331.1697313000914,1329.169717000099,1330.1697343001142,1330.153063800186,1331.1530772000551,"[0, 0, 0]",1,1329.169717000099,1331.1697313000914,,,,,,,,,,,,,,,,,,,4,M,2,21,l,MH,49,49,2022_Aug_03_1221,2020.2.10,distractmap2,60.003840302962374,"['Left Face', 'Right Arm', 'Left Face', 'Right Arm']",
3,"[0.2, 0.2]",1,0,9,9,9,,,None,None,"[0, 0, 0]",1331.1863991001155,1333.186404600041,1331.1863991001155,1332.1864217000548,1332.1697476999834,1333.1697592001874,"[0, 0, 0]",1,1331.1863991001155,1333.186404600041,,,,,,,,,,,,,,,,,,,4,M,2,21,l,MH,49,49,2022_Aug_03_1221,2020.2.10,distractmap2,60.003840302962374,"['Left Face', 'Right Arm', 'Left Face', 'Right Arm']",
,,,,,,,,,,,,,,,,,,,,,,1333.2031061002053,None,,,,,,,,,,,,,,,,,4,M,2,21,l,MH,49,49,2022_Aug_03_1221,2020.2.10,distractmap2,60.003840302962374,"['Left Face', 'Right Arm', 'Left Face', 'Right Arm']",
,,,,,,,,,,,,,,,,,,,,,,,,,,,,,,,,,,39.44444444444444,1315.2023924202658,,,,,4,M,2,21,l,MH,49,49,2022_Aug_03_1221,2020.2.10,distractmap2,60.003840302962374,"['Left Face', 'Right Arm', 'Left Face', 'Right Arm']",
,,,,,,,1368.2200643999968,None,,,,,,,,,,,,,,,,,,,,,,,,,,49.691358024691354,1350.7348483200185,0.013699879869818687,5.01032387977466,1348.2198907001875,None,4,M,2,21,l,MH,49,49,2022_Aug_03_1221,2020.2.10,distractmap2,60.003840302962374,"['Left Face', 'Right Arm', 'Left Face', 'Right Arm']",
,,,,,,,1403.2370482000988,None,,,,,,,,,,,,,,,,,,,,,,,,,,54.074074074074076,1387.0349064199254,0.014928380027413368,5.012782279867679,1383.2368784002028,None,4,M,2,21,l,MH,49,49,2022_Aug_03_1221,2020.2.10,distractmap2,60.003840302962374,"['Left Face', 'Right Arm', 'Left Face', 'Right Arm']",
,,,,,,,1438.254030500073,None,,,,,,,,,,,,,,,,,,,,,,,,,,63.0246913580247,1422.3184965199325,0.01515198010019958,5.01330918003805,1418.2538586000446,None,4,M,2,21,l,MH,49,49,2022_Aug_03_1221,2020.2.10,distractmap2,60.003840302962374,"['Left Face', 'Right Arm', 'Left Face', 'Right Arm']",
2,"[0, 0.2]",None,0,0,0,0,1453.521276900079,None,None,None,"[0, 0, 0]",1458.287546100095,1460.287546500098,1458.287546100095,1459.287540800171,1459.2708935001865,1460.2708943001926,"[0, 0, 0]",1,1458.287546100095,1460.287546500098,,,,,,,,,,,,,,,0.015205780044198036,5.013452179962769,,,4,M,2,21,l,MH,49,49,2022_Aug_03_1221,2020.2.10,distractmap2,60.003840302962374,"['Left Face', 'Right Arm', 'Left Face', 'Right Arm']",
5,"[0, 0]",None,0,1,1,1,,,None,None,"[0, 0, 0]",1460.3042290001176,1462.3042252000887,1460.3042290001176,1461.3042501001619,1461.2875693000387,1462.2875650001224,"[0, 0, 0]",1,1460.3042290001176,1462.3042252000887,,,,,,,,,,,,,,,,,,,4,M,2,21,l,MH,49,49,2022_Aug_03_1221,2020.2.10,distractmap2,60.003840302962374,"['Left Face', 'Right Arm', 'Left Face', 'Right Arm']",
6,"[0.2, 0]",0,0,2,2,2,,,None,None,"[0, 0, 0]",1462.3209029000718,1464.3209226001054,1462.3209029000718,1463.3209234001115,1463.3042508000508,1464.3042651000433,"[0, 0, 0]",1,1462.3209029000718,1464.3209226001054,,,,,,,,,,,,,,,,,,,4,M,2,21,l,MH,49,49,2022_Aug_03_1221,2020.2.10,distractmap2,60.003840302962374,"['Left Face', 'Right Arm', 'Left Face', 'Right Arm']",
1,"[-0.2, 0.2]",0,0,3,3,3,,,None,None,"[0, 0, 0]",1464.337600900093,1466.3376048000064,1464.337600900093,1465.3376300001983,1465.3209344001953,1466.3209449001588,"[0, 0, 0]",1,1464.337600900093,1466.3376048000064,,,,,,,,,,,,,,,,,,,4,M,2,21,l,MH,49,49,2022_Aug_03_1221,2020.2.10,distractmap2,60.003840302962374,"['Left Face', 'Right Arm', 'Left Face', 'Right Arm']",
6,"[0.2, 0]",1,0,4,4,4,,,None,None,"[0, 0, 0]",1466.4043132001534,None,1466.4043132001534,1467.4042909999844,1467.387629200006,None,"[0, 0, 0]",1,1466.4043132001534,None,,,,,,,,,,,,,,,,,,,4,M,2,21,l,MH,49,49,2022_Aug_03_1221,2020.2.10,distractmap2,60.003840302962374,"['Left Face', 'Right Arm', 'Left Face', 'Right Arm']",
6,"[0.2, 0]",0,0,5,5,5,,,None,None,"[0, 0, 0]",1468.3709639001172,1470.370971400058,1468.3709639001172,1469.3709750000853,1469.3542909000535,1470.3543191000354,"[0, 0, 0]",1,1468.3709639001172,1470.370971400058,,,,,,,,,,,,,,,,,,,4,M,2,21,l,MH,49,49,2022_Aug_03_1221,2020.2.10,distractmap2,60.003840302962374,"['Left Face', 'Right Arm', 'Left Face', 'Right Arm']",
9,"[0.2, -0.2]",0,0,6,6,6,,,None,None,"[0, 0, 0]",1470.3876561000943,1472.3876606000122,1470.3876561000943,1471.387676600134,1471.3709976000246,1472.3709972000215,"[0, 0, 0]",1,1470.3876561000943,1472.3876606000122,,,,,,,,,,,,,,,,,,,4,M,2,21,l,MH,49,49,2022_Aug_03_1221,2020.2.10,distractmap2,60.003840302962374,"['Left Face', 'Right Arm', 'Left Face', 'Right Arm']",
6,"[0.2, 0]",1,0,7,7,7,,,None,None,"[0, 0, 0]",1472.4043374001049,1474.4043527999893,1472.4043374001049,1473.4043454001658,1473.3875573000405,1474.3877271001693,"[0, 0, 0]",1,1472.4043374001049,1474.4043527999893,,,,,,,,,,,,,,,,,,,4,M,2,21,l,MH,49,49,2022_Aug_03_1221,2020.2.10,distractmap2,60.003840302962374,"['Left Face', 'Right Arm', 'Left Face', 'Right Arm']",
3,"[0.2, 0.2]",0,0,8,8,8,,,None,None,"[0, 0, 0]",1474.421010500053,1476.4210336999968,1474.421010500053,1475.4210373000242,1475.4042651001364,1476.4043712001294,"[0, 0, 0]",1,1474.421010500053,1476.4210336999968,,,,,,,,,,,,,,,,,,,4,M,2,21,l,MH,49,49,2022_Aug_03_1221,2020.2.10,distractmap2,60.003840302962374,"['Left Face', 'Right Arm', 'Left Face', 'Right Arm']",
9,"[0.2, -0.2]",0,0,9,9,9,,,None,None,"[0, 0, 0]",1476.4377082001884,1478.4377109999768,1476.4377082001884,1477.4377234000713,1477.4210330999922,1478.4210454002023,"[0, 0, 0]",0,1476.4377082001884,1478.4377109999768,,,,,,,,,,,,,,,,,,,4,M,2,21,l,MH,49,49,2022_Aug_03_1221,2020.2.10,distractmap2,60.003840302962374,"['Left Face', 'Right Arm', 'Left Face', 'Right Arm']",
,,,,,,,,,,,,,,,,,,,,,,1478.4543881001882,None,,,,,,,,,,,,,,,,,4,M,2,21,l,MH,49,49,2022_Aug_03_1221,2020.2.10,distractmap2,60.003840302962374,"['Left Face', 'Right Arm', 'Left Face', 'Right Arm']",
,,,,,,,,,,,,,,,,,,,,,,,,,,,,,,,,,,38.7037037037037,1462.821025720099,,,,,4,M,2,21,l,MH,49,49,2022_Aug_03_1221,2020.2.10,distractmap2,60.003840302962374,"['Left Face', 'Right Arm', 'Left Face', 'Right Arm']",
3,"[0.2, 0.2]",None,0,0,0,0,1493.704046400031,None,None,None,"[0, 0, 0]",1498.4879071000032,None,1498.4879071000032,1499.4879145000596,1499.4712398999836,1500.471332400106,"[0, 0, 0]",1,1498.4879071000032,None,,,,,,,,,,,,,,,0.013048880035057664,5.008961179992184,,,4,M,2,21,l,MH,49,49,2022_Aug_03_1221,2020.2.10,distractmap2,60.003840302962374,"['Left Face', 'Right Arm', 'Left Face', 'Right Arm']",
9,"[0.2, -0.2]",None,0,1,1,1,,,None,None,"[0, 0, 0]",1500.487919199979,1502.4879693000112,1500.487919199979,1501.4879428001586,1501.4711677001324,1502.4712605001405,"[0, 0, 0]",1,1500.487919199979,1502.4879693000112,,,,,,,,,,,,,,,,,,,4,M,2,21,l,MH,49,49,2022_Aug_03_1221,2020.2.10,distractmap2,60.003840302962374,"['Left Face', 'Right Arm', 'Left Face', 'Right Arm']",
3,"[0.2, 0.2]",1,0,2,2,2,,,None,None,"[0, 0, 0]",1502.5045103000011,1504.5047204000875,1502.5045103000011,1503.504617500119,1503.4879566000309,1504.4879548000172,"[0, 0, 0]",1,1502.5045103000011,1504.5047204000875,,,,,,,,,,,,,,,,,,,4,M,2,21,l,MH,49,49,2022_Aug_03_1221,2020.2.10,distractmap2,60.003840302962374,"['Left Face', 'Right Arm', 'Left Face', 'Right Arm']",
7,"[-0.2, -0.2]",0,0,3,3,3,,,None,None,"[0, 0, 0]",1504.5212819001172,1506.5213003000244,1504.5212819001172,1505.5213026001584,1505.504630499985,1506.5046342001297,"[0, 0, 0]",1,1504.5212819001172,1506.5213003000244,,,,,,,,,,,,,,,,,,,4,M,2,21,l,MH,49,49,2022_Aug_03_1221,2020.2.10,distractmap2,60.003840302962374,"['Left Face', 'Right Arm', 'Left Face', 'Right Arm']",
8,"[0, -0.2]",0,0,4,4,4,,,None,None,"[0, 0, 0]",1506.5882445001043,None,1506.5882445001043,1507.5879882001318,1507.5713280001655,None,"[0, 0, 0]",1,1506.5882445001043,None,,,,,,,,,,,,,,,,,,,4,M,2,21,l,MH,49,49,2022_Aug_03_1221,2020.2.10,distractmap2,60.003840302962374,"['Left Face', 'Right Arm', 'Left Face', 'Right Arm']",
4,"[-0.2, 0]",0,0,5,5,5,,,None,None,"[0, 0, 0]",1508.5546534000896,1510.5546779001597,1508.5546534000896,1509.5546401001047,1509.5380071001127,1510.5380036002025,"[0, 0, 0]",1,1508.5546534000896,1510.5546779001597,,,,,,,,,,,,,,,,,,,4,M,2,21,l,MH,49,49,2022_Aug_03_1221,2020.2.10,distractmap2,60.003840302962374,"['Left Face', 'Right Arm', 'Left Face', 'Right Arm']",
4,"[-0.2, 0]",0,0,6,6,6,,,None,None,"[0, 0, 0]",1510.5713504001033,1512.5713494000956,1510.5713504001033,1511.5713580001611,1511.5546778000426,1512.5547041001264,"[0, 0, 0]",1,1510.5713504001033,1512.5713494000956,,,,,,,,,,,,,,,,,,,4,M,2,21,l,MH,49,49,2022_Aug_03_1221,2020.2.10,distractmap2,60.003840302962374,"['Left Face', 'Right Arm', 'Left Face', 'Right Arm']",
1,"[-0.2, 0.2]",0,0,7,7,7,,,None,None,"[0, 0, 0]",1512.5880247000605,1514.5879518000875,1512.5880247000605,1513.5880285000894,1513.5713742000517,1514.5713829000015,"[0, 0, 0]",1,1512.5880247000605,1514.5879518000875,,,,,,,,,,,,,,,,,,,4,M,2,21,l,MH,49,49,2022_Aug_03_1221,2020.2.10,distractmap2,60.003840302962374,"['Left Face', 'Right Arm', 'Left Face', 'Right Arm']",
4,"[-0.2, 0]",1,0,8,8,8,,,None,None,"[0, 0, 0]",1514.6047295001335,1516.60473989998,1514.6047295001335,1515.6047218001913,1515.5880568001885,1516.5880625001155,"[0, 0, 0]",1,1514.6047295001335,1516.60473989998,,,,,,,,,,,,,,,,,,,4,M,2,21,l,MH,49,49,2022_Aug_03_1221,2020.2.10,distractmap2,60.003840302962374,"['Left Face', 'Right Arm', 'Left Face', 'Right Arm']",
8,"[0, -0.2]",0,0,9,9,9,,,None,None,"[0, 0, 0]",1516.6213913999964,1518.6214174001943,1516.6213913999964,1517.6214074001182,1517.6048455000855,1518.6047398000956,"[0, 0, 0]",1,1516.6213913999964,1518.6214174001943,,,,,,,,,,,,,,,,,,,4,M,2,21,l,MH,49,49,2022_Aug_03_1221,2020.2.10,distractmap2,60.003840302962374,"['Left Face', 'Right Arm', 'Left Face', 'Right Arm']",
,,,,,,,,,,,,,,,,,,,,,,1518.638096100185,None,,,,,,,,,,,,,,,,,4,M,2,21,l,MH,49,49,2022_Aug_03_1221,2020.2.10,distractmap2,60.003840302962374,"['Left Face', 'Right Arm', 'Left Face', 'Right Arm']",
,,,,,,,,,,,,,,,,,,,,,,,,,,,,,,,,,,44.629629629629626,1499.3208685200661,,,,,4,M,2,21,l,MH,49,49,2022_Aug_03_1221,2020.2.10,distractmap2,60.003840302962374,"['Left Face', 'Right Arm', 'Left Face', 'Right Arm']",
2,"[0, 0.2]",None,0,0,0,0,1532.588402400026,None,None,None,"[0, 0, 0]",1538.6715953000821,1540.6716018000152,1538.6715953000821,1539.6715920001734,1539.6549400000367,1540.6549494001083,"[0, 0, 0]",1,1538.6715953000821,1540.6716018000152,,,,,,,,,,,,,,,0.01353258010931313,5.009977180045098,,,4,M,2,21,l,MH,49,49,2022_Aug_03_1221,2020.2.10,distractmap2,60.003840302962374,"['Left Face', 'Right Arm', 'Left Face', 'Right Arm']",
5,"[0, 0]",None,0,1,1,1,,,None,None,"[0, 0, 0]",1540.688271800056,1542.688295,1540.688271800056,1541.6882819000166,1541.671629999997,1542.6716446001083,"[0, 0, 0]",1,1540.688271800056,1542.688295,,,,,,,,,,,,,,,,,,,4,M,2,21,l,MH,49,49,2022_Aug_03_1221,2020.2.10,distractmap2,60.003840302962374,"['Left Face', 'Right Arm', 'Left Face', 'Right Arm']",
3,"[0.2, 0.2]",0,0,2,2,2,,,None,None,"[0, 0, 0]",1542.7050057000015,1544.7049901999999,1542.7050057000015,1543.7049808001611,1543.688296600012,1544.6883196001872,"[0, 0, 0]",1,1542.7050057000015,1544.7049901999999,,,,,,,,,,,,,,,,,,,4,M,2,21,l,MH,49,49,2022_Aug_03_1221,2020.2.10,distractmap2,60.003840302962374,"['Left Face', 'Right Arm', 'Left Face', 'Right Arm']",
5,"[0, 0]",1,0,3,3,3,,,None,None,"[0, 0, 0]",1544.7216574000195,1546.7216733000241,1544.7216574000195,1545.72165530012,1545.704999800073,1546.7050900000613,"[0, 0, 0]",1,1544.7216574000195,1546.7216733000241,,,,,,,,,,,,,,,,,,,4,M,2,21,l,MH,49,49,2022_Aug_03_1221,2020.2.10,distractmap2,60.003840302962374,"['Left Face', 'Right Arm', 'Left Face', 'Right Arm']",
2,"[0, 0.2]",0,0,4,4,4,,,None,None,"[0, 0, 0]",1546.7716737000737,None,1546.7716737000737,1547.7716901001986,1547.755014900118,None,"[0, 0, 0]",1,1546.7716737000737,None,,,,,,,,,,,,,,,,,,,4,M,2,21,l,MH,49,49,2022_Aug_03_1221,2020.2.10,distractmap2,60.003840302962374,"['Left Face', 'Right Arm', 'Left Face', 'Right Arm']",
8,"[0, -0.2]",0,0,5,5,5,,,None,None,"[0, 0, 0]",1548.755015600007,1550.754952599993,1548.755015600007,1549.755017900141,1549.7383604000788,1550.738370000152,"[0, 0, 0]",1,1548.755015600007,1550.754952599993,,,,,,,,,,,,,,,,,,,4,M,2,21,l,MH,49,49,2022_Aug_03_1221,2020.2.10,distractmap2,60.003840302962374,"['Left Face', 'Right Arm', 'Left Face', 'Right Arm']",
4,"[-0.2, 0]",0,0,6,6,6,,,None,None,"[0, 0, 0]",1550.77171120001,1552.7717461001594,1550.77171120001,1551.7717413001228,1551.7550429999828,1552.7550694001839,"[0, 0, 0]",1,1550.77171120001,1552.7717461001594,,,,,,,,,,,,,,,,,,,4,M,2,21,l,MH,49,49,2022_Aug_03_1221,2020.2.10,distractmap2,60.003840302962374,"['Left Face', 'Right Arm', 'Left Face', 'Right Arm']",
8,"[0, -0.2]",1,0,7,7,7,,,None,None,"[0, 0, 0]",1552.7883941000327,1554.78841560008,1552.7883941000327,1553.7884002001956,1553.7717461001594,1554.7717408000026,"[0, 0, 0]",1,1552.7883941000327,1554.78841560008,,,,,,,,,,,,,,,,,,,4,M,2,21,l,MH,49,49,2022_Aug_03_1221,2020.2.10,distractmap2,60.003840302962374,"['Left Face', 'Right Arm', 'Left Face', 'Right Arm']",
7,"[-0.2, -0.2]",0,0,8,8,8,,,None,None,"[0, 0, 0]",1554.8050813002046,1556.8050844999962,1554.8050813002046,1555.8053784000222,1555.7887013000436,1556.7884264001623,"[0, 0, 0]",1,1554.8050813002046,1556.8050844999962,,,,,,,,,,,,,,,,,,,4,M,2,21,l,MH,49,49,2022_Aug_03_1221,2020.2.10,distractmap2,60.003840302962374,"['Left Face', 'Right Arm', 'Left Face', 'Right Arm']",
8,"[0, -0.2]",1,0,9,9,9,,,None,None,"[0, 0, 0]",1556.8217603000812,1558.8217845000327,1556.8217603000812,1557.8217697001528,1557.8051057001576,1558.8051293999888,"[0, 0, 0]",1,1556.8217603000812,1558.8217845000327,,,,,,,,,,,,,,,,,,,4,M,2,21,l,MH,49,49,2022_Aug_03_1221,2020.2.10,distractmap2,60.003840302962374,"['Left Face', 'Right Arm', 'Left Face', 'Right Arm']",
,,,,,,,,,,,,,,,,,,,,,,1558.8384175000247,None,,,,,,,,,,,,,,,,,4,M,2,21,l,MH,49,49,2022_Aug_03_1221,2020.2.10,distractmap2,60.003840302962374,"['Left Face', 'Right Arm', 'Left Face', 'Right Arm']",
,,,,,,,,,,,,,,,,,,,,,,,,,,,,,,,,,,47.654320987654316,1543.4548438198399,,,,,4,M,2,21,l,MH,49,49,2022_Aug_03_1221,2020.2.10,distractmap2,60.003840302962374,"['Left Face', 'Right Arm', 'Left Face', 'Right Arm']",
,,,,,,,1683.8562245999929,None,,,,,,,,,,,,,,,,,,,,,,,,,,81.85185185185185,1667.0707183200866,0.013291380135342479,5.0095019799191505,1663.8560552001,None,4,M,2,21,l,MH,49,49,2022_Aug_03_1221,2020.2.10,distractmap2,60.003840302962374,"['Left Face', 'Right Arm', 'Left Face', 'Right Arm']",
,,,,,,,1718.8732133000158,None,,,,,,,,,,,,,,,,,,,,,,,,,,71.23456790123456,1704.4030132202897,0.015203180024400353,5.013340879930183,1698.8730409999844,None,4,M,2,21,l,MH,49,49,2022_Aug_03_1221,2020.2.10,distractmap2,60.003840302962374,"['Left Face', 'Right Arm', 'Left Face', 'Right Arm']",
,,,,,,,1753.8902050000615,None,,,,,,,,,,,,,,,,,,,,,,,,,,65.24691358024691,1737.2715391200036,0.0165784799028188,5.016102880006656,1733.8900382001884,None,4,M,2,21,l,MH,49,49,2022_Aug_03_1221,2020.2.10,distractmap2,60.003840302962374,"['Left Face', 'Right Arm', 'Left Face', 'Right Arm']",
2,"[0, 0.2]",None,0,0,0,0,1768.9070328001399,None,None,None,"[0, 0, 0]",1773.9070488000289,1775.9070851001889,1773.9070488000289,1774.9070735999849,1774.9070735999849,1775.9070851001889,"[0, 0, 0]",1,1773.9070488000289,1775.9070851001889,,,,,,,,,,,,,,,0.015014880103990436,5.012904179980978,,,4,M,2,21,l,MH,49,49,2022_Aug_03_1221,2020.2.10,distractmap2,60.003840302962374,"['Left Face', 'Right Arm', 'Left Face', 'Right Arm']",
2,"[0, 0.2]",None,0,1,1,1,,,None,None,"[0, 0, 0]",1775.9237511001993,1777.923764000181,1775.9237511001993,1776.9237503001932,1776.9070933000185,1777.907126400154,"[0, 0, 0]",1,1775.9237511001993,1777.923764000181,,,,,,,,,,,,,,,,,,,4,M,2,21,l,MH,49,49,2022_Aug_03_1221,2020.2.10,distractmap2,60.003840302962374,"['Left Face', 'Right Arm', 'Left Face', 'Right Arm']",
2,"[0, 0.2]",1,0,2,2,2,,,None,None,"[0, 0, 0]",1777.9404285000637,1779.940430500079,1777.9404285000637,1778.9404345001094,1778.923799399985,1779.9237778000534,"[0, 0, 0]",1,1777.9404285000637,1779.940430500079,,,,,,,,,,,,,,,,,,,4,M,2,21,l,MH,49,49,2022_Aug_03_1221,2020.2.10,distractmap2,60.003840302962374,"['Left Face', 'Right Arm', 'Left Face', 'Right Arm']",
8,"[0, -0.2]",0,0,3,3,3,,,None,None,"[0, 0, 0]",1779.9571060000453,1781.9571256001946,1779.9571060000453,1780.9571226001717,1780.9404486999847,1781.9404611000791,"[0, 0, 0]",1,1779.9571060000453,1781.9571256001946,,,,,,,,,,,,,,,,,,,4,M,2,21,l,MH,49,49,2022_Aug_03_1221,2020.2.10,distractmap2,60.003840302962374,"['Left Face', 'Right Arm', 'Left Face', 'Right Arm']",
2,"[0, 0.2]",1,0,4,4,4,,,None,None,"[0, 0, 0]",1781.9738170001656,1783.9738147000317,1781.9738170001656,1782.9738100001123,1782.9571291999891,1783.9571492001414,"[0, 0, 0]",1,1781.9738170001656,1783.9738147000317,,,,,,,,,,,,,,,,,,,4,M,2,21,l,MH,49,49,2022_Aug_03_1221,2020.2.10,distractmap2,60.003840302962374,"['Left Face', 'Right Arm', 'Left Face', 'Right Arm']",
5,"[0, 0]",0,0,5,5,5,,,None,None,"[0, 0, 0]",1783.9904716000892,1785.9904931001365,1783.9904716000892,1784.9905011001974,1784.97383849998,1785.9737303000875,"[0, 0, 0]",1,1783.9904716000892,1785.9904931001365,,,,,,,,,,,,,,,,,,,4,M,2,21,l,MH,49,49,2022_Aug_03_1221,2020.2.10,distractmap2,60.003840302962374,"['Left Face', 'Right Arm', 'Left Face', 'Right Arm']",
1,"[-0.2, 0.2]",0,0,6,6,6,,,None,None,"[0, 0, 0]",1786.0071650000755,1788.007185800001,1786.0071650000755,1787.0066855000332,1786.9905511999968,1787.9905176002067,"[0, 0, 0]",1,1786.0071650000755,1788.007185800001,,,,,,,,,,,,,,,,,,,4,M,2,21,l,MH,49,49,2022_Aug_03_1221,2020.2.10,distractmap2,60.003840302962374,"['Left Face', 'Right Arm', 'Left Face', 'Right Arm']",
1,"[-0.2, 0.2]",0,0,7,7,7,,,None,None,"[0, 0, 0]",1788.0238453000784,1790.0239166000392,1788.0238453000784,1789.023874600185,1789.0071957001928,1790.0071961001959,"[0, 0, 0]",1,1788.0238453000784,1790.0239166000392,,,,,,,,,,,,,,,,,,,4,M,2,21,l,MH,49,49,2022_Aug_03_1221,2020.2.10,distractmap2,60.003840302962374,"['Left Face', 'Right Arm', 'Left Face', 'Right Arm']",
6,"[0.2, 0]",0,0,8,8,8,,,None,None,"[0, 0, 0]",1790.0405348001514,1792.0405743999872,1790.0405348001514,1791.0405559001956,1791.0238813001197,1792.0239056001883,"[0, 0, 0]",1,1790.0405348001514,1792.0405743999872,,,,,,,,,,,,,,,,,,,4,M,2,21,l,MH,49,49,2022_Aug_03_1221,2020.2.10,distractmap2,60.003840302962374,"['Left Face', 'Right Arm', 'Left Face', 'Right Arm']",
1,"[-0.2, 0.2]",1,0,9,9,9,,,None,None,"[0, 0, 0]",1792.0572596001439,1794.0572412000038,1792.0572596001439,1793.0572216000874,1793.040566700045,1794.040575500112,"[0, 0, 0]",1,1792.0572596001439,1794.0572412000038,,,,,,,,,,,,,,,,,,,4,M,2,21,l,MH,49,49,2022_Aug_03_1221,2020.2.10,distractmap2,60.003840302962374,"['Left Face', 'Right Arm', 'Left Face', 'Right Arm']",
,,,,,,,,,,,,,,,,,,,,,,1794.0739017000888,None,,,,,,,,,,,,,,,,,4,M,2,21,l,MH,49,49,2022_Aug_03_1221,2020.2.10,distractmap2,60.003840302962374,"['Left Face', 'Right Arm', 'Left Face', 'Right Arm']",
3,"[0.2, 0.2]",None,0,0,0,0,1806.0906750001013,None,None,None,"[0, 0, 0]",1809.0907056999858,None,1809.0907056999858,1810.090730600059,1810.074058300117,1811.0740732999984,"[0, 0, 0]",1,1809.0907056999858,None,,,,,,,,,,,,,,,,,,,4,M,2,21,l,MH,49,49,2022_Aug_03_1221,2020.2.10,distractmap2,60.003840302962374,"['Left Face', 'Right Arm', 'Left Face', 'Right Arm']",
3,"[0.2, 0.2]",None,0,1,1,1,,,None,None,"[0, 0, 0]",1811.0907425000332,1813.090758500155,1811.0907425000332,1812.0907321001869,1812.0740801000502,1813.074083100073,"[0, 0, 0]",1,1811.0907425000332,1813.090758500155,,,,,,,,,,,,,,,,,,,4,M,2,21,l,MH,49,49,2022_Aug_03_1221,2020.2.10,distractmap2,60.003840302962374,"['Left Face', 'Right Arm', 'Left Face', 'Right Arm']",
5,"[0, 0]",0,0,2,2,2,,,None,None,"[0, 0, 0]",1813.1074049000163,1815.1074356001336,1813.1074049000163,1814.1074155999813,1814.090755000012,1815.090806900058,"[0, 0, 0]",1,1813.1074049000163,1815.1074356001336,,,,,,,,,,,,,,,,,,,4,M,2,21,l,MH,49,49,2022_Aug_03_1221,2020.2.10,distractmap2,60.003840302962374,"['Left Face', 'Right Arm', 'Left Face', 'Right Arm']",
1,"[-0.2, 0.2]",0,0,3,3,3,,,None,None,"[0, 0, 0]",1815.124104600167,1817.1241293000057,1815.124104600167,1816.1240936000831,1816.107444500085,1817.1074477999937,"[0, 0, 0]",1,1815.124104600167,1817.1241293000057,,,,,,,,,,,,,,,,,,,4,M,2,21,l,MH,49,49,2022_Aug_03_1221,2020.2.10,distractmap2,60.003840302962374,"['Left Face', 'Right Arm', 'Left Face', 'Right Arm']",
5,"[0, 0]",1,0,4,4,4,,,None,None,"[0, 0, 0]",1817.140772000188,1819.1406855001114,1817.140772000188,1818.1407914999872,1818.1241197001655,1819.1241230000742,"[0, 0, 0]",1,1817.140772000188,1819.1406855001114,,,,,,,,,,,,,,,,,,,4,M,2,21,l,MH,49,49,2022_Aug_03_1221,2020.2.10,distractmap2,60.003840302962374,"['Left Face', 'Right Arm', 'Left Face', 'Right Arm']",
8,"[0, -0.2]",0,0,5,5,5,,,None,None,"[0, 0, 0]",1819.157468400197,1821.157479000045,1819.157468400197,1820.1574749001302,1820.1408038001973,1821.1408150000498,"[0, 0, 0]",1,1819.157468400197,1821.157479000045,,,,,,,,,,,,,,,,,,,4,M,2,21,l,MH,49,49,2022_Aug_03_1221,2020.2.10,distractmap2,60.003840302962374,"['Left Face', 'Right Arm', 'Left Face', 'Right Arm']",
5,"[0, 0]",1,0,6,6,6,,,None,None,"[0, 0, 0]",1821.174143700162,1823.1741724000312,1821.174143700162,1822.1741669999901,1822.157497400185,1823.1574993000831,"[0, 0, 0]",1,1821.174143700162,1823.1741724000312,,,,,,,,,,,,,,,,,,,4,M,2,21,l,MH,49,49,2022_Aug_03_1221,2020.2.10,distractmap2,60.003840302962374,"['Left Face', 'Right Arm', 'Left Face', 'Right Arm']",
7,"[-0.2, -0.2]",0,0,7,7,7,,,None,None,"[0, 0, 0]",1823.190841600066,1825.1908749002032,1823.190841600066,1824.1908643001225,1824.174170400016,1825.174178500194,"[0, 0, 0]",1,1823.190841600066,1825.1908749002032,,,,,,,,,,,,,,,,,,,4,M,2,21,l,MH,49,49,2022_Aug_03_1221,2020.2.10,distractmap2,60.003840302962374,"['Left Face', 'Right Arm', 'Left Face', 'Right Arm']",
5,"[0, 0]",1,0,8,8,8,,,None,None,"[0, 0, 0]",1825.2075210001785,1827.2075410999823,1825.2075210001785,1826.2075157000218,1826.1908838001546,1827.1908750000875,"[0, 0, 0]",1,1825.2075210001785,1827.2075410999823,,,,,,,,,,,,,,,,,,,4,M,2,21,l,MH,49,49,2022_Aug_03_1221,2020.2.10,distractmap2,60.003840302962374,"['Left Face', 'Right Arm', 'Left Face', 'Right Arm']",
7,"[-0.2, -0.2]",1,0,9,9,9,,,None,None,"[0, 0, 0]",1827.2242064999882,1829.2242161000613,1827.2242064999882,1828.2242161000613,1828.2075450001284,1829.2075581001118,"[0, 0, 0]",1,1827.2242064999882,1829.2242161000613,,,,,,,,,,,,,,,,,,,4,M,2,21,l,MH,49,49,2022_Aug_03_1221,2020.2.10,distractmap2,60.003840302962374,"['Left Face', 'Right Arm', 'Left Face', 'Right Arm']",
,,,,,,,,,,,,,,,,,,,,,,1829.24089370016,None,,,,,,,,,,,,,,,,,4,M,2,21,l,MH,49,49,2022_Aug_03_1221,2020.2.10,distractmap2,60.003840302962374,"['Left Face', 'Right Arm', 'Left Face', 'Right Arm']",
6,"[0.2, 0]",None,0,0,0,0,1839.257662200136,None,None,None,"[0, 0, 0]",1844.2577004001942,None,1844.2577004001942,1845.2576976001728,1845.2410365000833,1846.241058500018,"[0, 0, 0]",1,1844.2577004001942,None,,,,,,,,,,,,,,,,,,,4,M,2,21,l,MH,49,49,2022_Aug_03_1221,2020.2.10,distractmap2,60.003840302962374,"['Left Face', 'Right Arm', 'Left Face', 'Right Arm']",
1,"[-0.2, 0.2]",None,0,1,1,1,,,None,None,"[0, 0, 0]",1846.2577131001744,1848.2577325000893,1846.2577131001744,1847.2577150000725,1847.2409385000356,1848.241063100053,"[0, 0, 0]",1,1846.2577131001744,1848.2577325000893,,,,,,,,,,,,,,,,,,,4,M,2,21,l,MH,49,49,2022_Aug_03_1221,2020.2.10,distractmap2,60.003840302962374,"['Left Face', 'Right Arm', 'Left Face', 'Right Arm']",
6,"[0.2, 0]",1,0,2,2,2,,,None,None,"[0, 0, 0]",1848.2743848999962,1850.2744150999933,1848.2743848999962,1849.2744075001683,1849.2577482000925,1850.2577444000635,"[0, 0, 0]",1,1848.2743848999962,1850.2744150999933,,,,,,,,,,,,,,,,,,,4,M,2,21,l,MH,49,49,2022_Aug_03_1221,2020.2.10,distractmap2,60.003840302962374,"['Left Face', 'Right Arm', 'Left Face', 'Right Arm']",
4,"[-0.2, 0]",0,0,3,3,3,,,None,None,"[0, 0, 0]",1850.2910971001256,1852.2911029001698,1850.2910971001256,1851.2911006000359,1851.2744134999812,1852.2744320000056,"[0, 0, 0]",1,1850.2910971001256,1852.2911029001698,,,,,,,,,,,,,,,,,,,4,M,2,21,l,MH,49,49,2022_Aug_03_1221,2020.2.10,distractmap2,60.003840302962374,"['Left Face', 'Right Arm', 'Left Face', 'Right Arm']",
1,"[-0.2, 0.2]",0,0,4,4,4,,,None,None,"[0, 0, 0]",1852.3077843000647,1854.3077935001347,1852.3077843000647,1853.3077750999946,1853.2911261001136,1854.2911141000222,"[0, 0, 0]",1,1852.3077843000647,1854.3077935001347,,,,,,,,,,,,,,,,,,,4,M,2,21,l,MH,49,49,2022_Aug_03_1221,2020.2.10,distractmap2,60.003840302962374,"['Left Face', 'Right Arm', 'Left Face', 'Right Arm']",
8,"[0, -0.2]",0,0,5,5,5,,,None,None,"[0, 0, 0]",1854.3244568000082,1856.3244714001194,1854.3244568000082,1855.3244521000888,1855.3077948000282,1856.3077891999856,"[0, 0, 0]",1,1854.3244568000082,1856.3244714001194,,,,,,,,,,,,,,,,,,,4,M,2,21,l,MH,49,49,2022_Aug_03_1221,2020.2.10,distractmap2,60.003840302962374,"['Left Face', 'Right Arm', 'Left Face', 'Right Arm']",
1,"[-0.2, 0.2]",1,0,6,6,6,,,None,None,"[0, 0, 0]",1856.341129400069,1858.3411570000462,1856.341129400069,1857.3411481999792,1857.324481600197,1858.324477700051,"[0, 0, 0]",1,1856.341129400069,1858.3411570000462,,,,,,,,,,,,,,,,,,,4,M,2,21,l,MH,49,49,2022_Aug_03_1221,2020.2.10,distractmap2,60.003840302962374,"['Left Face', 'Right Arm', 'Left Face', 'Right Arm']",
8,"[0, -0.2]",1,0,7,7,7,,,None,None,"[0, 0, 0]",1858.3578423000872,1860.357824700186,1858.3578423000872,1859.3578331000172,1859.3411551001482,1860.3411849001423,"[0, 0, 0]",1,1858.3578423000872,1860.357824700186,,,,,,,,,,,,,,,,,,,4,M,2,21,l,MH,49,49,2022_Aug_03_1221,2020.2.10,distractmap2,60.003840302962374,"['Left Face', 'Right Arm', 'Left Face', 'Right Arm']",
1,"[-0.2, 0.2]",1,0,8,8,8,,,None,None,"[0, 0, 0]",1860.3744670001324,1862.3745405999944,1860.3744670001324,1861.3745048001874,1861.3578670001589,1862.3578624001238,"[0, 0, 0]",1,1860.3744670001324,1862.3745405999944,,,,,,,,,,,,,,,,,,,4,M,2,21,l,MH,49,49,2022_Aug_03_1221,2020.2.10,distractmap2,60.003840302962374,"['Left Face', 'Right Arm', 'Left Face', 'Right Arm']",
6,"[0.2, 0]",0,0,9,9,9,,,None,None,"[0, 0, 0]",1862.3911931000184,1864.3912194001023,1862.3911931000184,1863.3911906001158,1863.3745387999807,1864.3745296001434,"[0, 0, 0]",1,1862.3911931000184,1864.3912194001023,,,,,,,,,,,,,,,,,,,4,M,2,21,l,MH,49,49,2022_Aug_03_1221,2020.2.10,distractmap2,60.003840302962374,"['Left Face', 'Right Arm', 'Left Face', 'Right Arm']",
,,,,,,,,,,,,,,,,,,,,,,1864.407872500131,None,,,,,,,,,,,,,,,,,4,M,2,21,l,MH,49,49,2022_Aug_03_1221,2020.2.10,distractmap2,60.003840302962374,"['Left Face', 'Right Arm', 'Left Face', 'Right Arm']",
,,,,,,,2222.86112580006,None,,,,,,,,,,,,,,,,,,,1940.958557000151,1940.958557000151,None,space,151.98267560009845,1940.958557000151,None,37.160493827160494,2206.7742407203186,,,2202.8609363001306,None,4,M,2,21,l,MH,49,49,2022_Aug_03_1221,2020.2.10,distractmap2,60.003840302962374,"['Left Face', 'Right Arm', 'Left Face', 'Right Arm']",
,,,,,,,2257.878097000066,None,,,,,,,,,,,,,,,,,,,,,,,,,,39.25925925925926,2243.4412072200794,0.01657247985713184,5.016033879946917,2237.8779246001504,None,4,M,2,21,l,MH,49,49,2022_Aug_03_1221,2020.2.10,distractmap2,60.003840302962374,"['Left Face', 'Right Arm', 'Left Face', 'Right Arm']",
,,,,,,,2292.8950835000724,None,,,,,,,,,,,,,,,,,,,,,,,,,,39.567901234567906,2278.5913780201226,0.016596880042925477,5.016095879953355,2272.894904700108,None,4,M,2,21,l,MH,49,49,2022_Aug_03_1221,2020.2.10,distractmap2,60.003840302962374,"['Left Face', 'Right Arm', 'Left Face', 'Right Arm']",
7,"[-0.2, -0.2]",None,0,0,0,0,2310.1277915001847,None,None,None,"[0, 0, 0]",2312.9119351999834,None,2312.9119351999834,2313.9119425001554,2313.895277200034,2314.8953072000295,"[0, 0, 0]",1,2312.9119351999834,None,,,,,,,,,,,,,,,0.016627979930490255,5.0161144798621535,,,4,M,2,21,l,MH,49,49,2022_Aug_03_1221,2020.2.10,distractmap2,60.003840302962374,"['Left Face', 'Right Arm', 'Left Face', 'Right Arm']",
7,"[-0.2, -0.2]",None,0,1,1,1,,,None,None,"[0, 0, 0]",2314.911947600078,2316.911971700145,2314.911947600078,2315.91195180011,2315.895293700043,2316.8953103001695,"[0, 0, 0]",1,2314.911947600078,2316.911971700145,,,,,,,,,,,,,,,,,,,4,M,2,21,l,MH,49,49,2022_Aug_03_1221,2020.2.10,distractmap2,60.003840302962374,"['Left Face', 'Right Arm', 'Left Face', 'Right Arm']",
7,"[-0.2, -0.2]",1,0,2,2,2,,,None,None,"[0, 0, 0]",2316.928622600157,2318.92865310004,2316.928622600157,2317.928633300122,2317.911980899982,2318.911974800052,"[0, 0, 0]",1,2316.928622600157,2318.92865310004,,,,,,,,,,,,,,,,,,,4,M,2,21,l,MH,49,49,2022_Aug_03_1221,2020.2.10,distractmap2,60.003840302962374,"['Left Face', 'Right Arm', 'Left Face', 'Right Arm']",
5,"[0, 0]",0,0,3,3,3,,,None,None,"[0, 0, 0]",2318.9453559000976,2320.9453414001036,2318.9453559000976,2319.945326300105,2319.928652000148,2320.928664200008,"[0, 0, 0]",1,2318.9453559000976,2320.9453414001036,,,,,,,,,,,,,,,,,,,4,M,2,21,l,MH,49,49,2022_Aug_03_1221,2020.2.10,distractmap2,60.003840302962374,"['Left Face', 'Right Arm', 'Left Face', 'Right Arm']",
1,"[-0.2, 0.2]",0,0,4,4,4,,,None,None,"[0, 0, 0]",2320.9953650999814,None,2320.9953650999814,2321.995365299983,2321.9786769000348,None,"[0, 0, 0]",1,2320.9953650999814,None,,,,,,,,,,,,,,,,,,,4,M,2,21,l,MH,49,49,2022_Aug_03_1221,2020.2.10,distractmap2,60.003840302962374,"['Left Face', 'Right Arm', 'Left Face', 'Right Arm']",
6,"[0.2, 0]",0,0,5,5,5,,,None,None,"[0, 0, 0]",2322.9786943001673,2324.9787008999847,2322.9786943001673,2323.9786842002068,2323.962037600111,2324.962043300038,"[0, 0, 0]",1,2322.9786943001673,2324.9787008999847,,,,,,,,,,,,,,,,,,,4,M,2,21,l,MH,49,49,2022_Aug_03_1221,2020.2.10,distractmap2,60.003840302962374,"['Left Face', 'Right Arm', 'Left Face', 'Right Arm']",
1,"[-0.2, 0.2]",1,0,6,6,6,,,None,None,"[0, 0, 0]",2324.995386700146,2326.9953799999785,2324.995386700146,2325.995384900132,2325.978737400146,2326.9787730001844,"[0, 0, 0]",1,2324.995386700146,2326.9953799999785,,,,,,,,,,,,,,,,,,,4,M,2,21,l,MH,49,49,2022_Aug_03_1221,2020.2.10,distractmap2,60.003840302962374,"['Left Face', 'Right Arm', 'Left Face', 'Right Arm']",
7,"[-0.2, -0.2]",0,0,7,7,7,,,None,None,"[0, 0, 0]",2327.012058700202,2329.012098800158,2327.012058700202,2328.012074000202,2327.9954042001627,2328.9954053000547,"[0, 0, 0]",1,2327.012058700202,2329.012098800158,,,,,,,,,,,,,,,,,,,4,M,2,21,l,MH,49,49,2022_Aug_03_1221,2020.2.10,distractmap2,60.003840302962374,"['Left Face', 'Right Arm', 'Left Face', 'Right Arm']",
6,"[0.2, 0]",0,0,8,8,8,,,None,None,"[0, 0, 0]",2329.028745500138,2331.028764100047,2329.028745500138,2330.0287534000818,2330.0120963000227,2331.0121089001186,"[0, 0, 0]",1,2329.028745500138,2331.028764100047,,,,,,,,,,,,,,,,,,,4,M,2,21,l,MH,49,49,2022_Aug_03_1221,2020.2.10,distractmap2,60.003840302962374,"['Left Face', 'Right Arm', 'Left Face', 'Right Arm']",
7,"[-0.2, -0.2]",1,0,9,9,9,,,None,None,"[0, 0, 0]",2331.0454263000283,2333.045430300059,2331.0454263000283,2332.0454367001075,2332.0287671000697,2333.0287908001337,"[0, 0, 0]",1,2331.0454263000283,2333.045430300059,,,,,,,,,,,,,,,,,,,4,M,2,21,l,MH,49,49,2022_Aug_03_1221,2020.2.10,distractmap2,60.003840302962374,"['Left Face', 'Right Arm', 'Left Face', 'Right Arm']",
,,,,,,,,,,,,,,,,,,,,,,2333.062048500171,None,,,,,,,,,,,,,,,,,4,M,2,21,l,MH,49,49,2022_Aug_03_1221,2020.2.10,distractmap2,60.003840302962374,"['Left Face', 'Right Arm', 'Left Face', 'Right Arm']",
,,,,,,,,,,,,,,,,,,,,,,,,,,,,,,,,,,26.04938271604938,2320.228319919668,,,,,4,M,2,21,l,MH,49,49,2022_Aug_03_1221,2020.2.10,distractmap2,60.003840302962374,"['Left Face', 'Right Arm', 'Left Face', 'Right Arm']",
4,"[-0.2, 0]",None,0,0,0,0,2350.3284835000522,None,None,None,"[0, 0, 0]",2353.0956472000107,None,2353.0956472000107,2354.095632800134,2354.078965400113,2355.078977400204,"[0, 0, 0]",1,2353.0956472000107,None,,,,,,,,,,,,,,,0.013520680367946625,5.0099066803231835,,,4,M,2,21,l,MH,49,49,2022_Aug_03_1221,2020.2.10,distractmap2,60.003840302962374,"['Left Face', 'Right Arm', 'Left Face', 'Right Arm']",
5,"[0, 0]",None,0,1,1,1,,,None,None,"[0, 0, 0]",2355.0956461001188,2357.0956795001402,2355.0956461001188,2356.09567900002,2356.078987200046,2357.0789965000004,"[0, 0, 0]",1,2355.0956461001188,2357.0956795001402,,,,,,,,,,,,,,,,,,,4,M,2,21,l,MH,49,49,2022_Aug_03_1221,2020.2.10,distractmap2,60.003840302962374,"['Left Face', 'Right Arm', 'Left Face', 'Right Arm']",
6,"[0.2, 0]",0,0,2,2,2,,,None,None,"[0, 0, 0]",2357.1123470000457,2359.112378100166,2357.1123470000457,2358.112387200119,2358.0956850000657,2359.095690899994,"[0, 0, 0]",1,2357.1123470000457,2359.112378100166,,,,,,,,,,,,,,,,,,,4,M,2,21,l,MH,49,49,2022_Aug_03_1221,2020.2.10,distractmap2,60.003840302962374,"['Left Face', 'Right Arm', 'Left Face', 'Right Arm']",
1,"[-0.2, 0.2]",0,0,3,3,3,,,None,None,"[0, 0, 0]",2359.1290121001657,2361.129025200149,2359.1290121001657,2360.129022900015,2360.1123842999805,2361.1123995999806,"[0, 0, 0]",1,2359.1290121001657,2361.129025200149,,,,,,,,,,,,,,,,,,,4,M,2,21,l,MH,49,49,2022_Aug_03_1221,2020.2.10,distractmap2,60.003840302962374,"['Left Face', 'Right Arm', 'Left Face', 'Right Arm']",
6,"[0.2, 0]",1,0,4,4,4,,,None,None,"[0, 0, 0]",2361.179660800146,None,2361.179660800146,2362.179033000022,2362.1623975001276,None,"[0, 0, 0]",1,2361.179660800146,None,,,,,,,,,,,,,,,,,,,4,M,2,21,l,MH,49,49,2022_Aug_03_1221,2020.2.10,distractmap2,60.003840302962374,"['Left Face', 'Right Arm', 'Left Face', 'Right Arm']",
1,"[-0.2, 0.2]",1,0,5,5,5,,,None,None,"[0, 0, 0]",2363.162379000103,2365.1624059001915,2363.162379000103,2364.1623876001686,2364.1457285000943,2365.1457389001735,"[0, 0, 0]",1,2363.162379000103,2365.1624059001915,,,,,,,,,,,,,,,,,,,4,M,2,21,l,MH,49,49,2022_Aug_03_1221,2020.2.10,distractmap2,60.003840302962374,"['Left Face', 'Right Arm', 'Left Face', 'Right Arm']",
2,"[0, 0.2]",0,0,6,6,6,,,None,None,"[0, 0, 0]",2365.179070400074,2367.179077900015,2365.179070400074,2366.17907640012,2366.1624173000455,2367.162416000152,"[0, 0, 0]",1,2365.179070400074,2367.179077900015,,,,,,,,,,,,,,,,,,,4,M,2,21,l,MH,49,49,2022_Aug_03_1221,2020.2.10,distractmap2,60.003840302962374,"['Left Face', 'Right Arm', 'Left Face', 'Right Arm']",
3,"[0.2, 0.2]",0,0,7,7,7,,,None,None,"[0, 0, 0]",2367.1957330000587,2369.195765300188,2367.1957330000587,2368.195650700014,2368.179085300071,2369.17908859998,"[0, 0, 0]",1,2367.1957330000587,2369.195765300188,,,,,,,,,,,,,,,,,,,4,M,2,21,l,MH,49,49,2022_Aug_03_1221,2020.2.10,distractmap2,60.003840302962374,"['Left Face', 'Right Arm', 'Left Face', 'Right Arm']",
6,"[0.2, 0]",0,0,8,8,8,,,None,None,"[0, 0, 0]",2369.2124441000633,2371.2124606000725,2369.2124441000633,2370.2124579001684,2370.1957651001867,2371.195779800182,"[0, 0, 0]",1,2369.2124441000633,2371.2124606000725,,,,,,,,,,,,,,,,,,,4,M,2,21,l,MH,49,49,2022_Aug_03_1221,2020.2.10,distractmap2,60.003840302962374,"['Left Face', 'Right Arm', 'Left Face', 'Right Arm']",
3,"[0.2, 0.2]",1,0,9,9,9,,,None,None,"[0, 0, 0]",2371.2291066001635,2373.229123900179,2371.2291066001635,2372.2291233001743,2372.2124549001455,2373.212474600179,"[0, 0, 0]",1,2371.2291066001635,2373.229123900179,,,,,,,,,,,,,,,,,,,4,M,2,21,l,MH,49,49,2022_Aug_03_1221,2020.2.10,distractmap2,60.003840302962374,"['Left Face', 'Right Arm', 'Left Face', 'Right Arm']",
,,,,,,,,,,,,,,,,,,,,,,2373.2457956001163,None,,,,,,,,,,,,,,,,,4,M,2,21,l,MH,49,49,2022_Aug_03_1221,2020.2.10,distractmap2,60.003840302962374,"['Left Face', 'Right Arm', 'Left Face', 'Right Arm']",
,,,,,,,,,,,,,,,,,,,,,,,,,,,,,,,,,,23.271604938271608,2358.3291694200598,,,,,4,M,2,21,l,MH,49,49,2022_Aug_03_1221,2020.2.10,distractmap2,60.003840302962374,"['Left Face', 'Right Arm', 'Left Face', 'Right Arm']",
2,"[0, 0.2]",None,0,0,0,0,2389.1963764000684,None,None,None,"[0, 0, 0]",2393.27927910001,2395.2793605001643,2393.27927910001,2394.279348500073,2394.2626734001096,2395.2626726001035,"[0, 0, 0]",1,2393.27927910001,2395.2793605001643,,,,,,,,,,,,,,,0.012969780014827847,5.008837379980832,,,4,M,2,21,l,MH,49,49,2022_Aug_03_1221,2020.2.10,distractmap2,60.003840302962374,"['Left Face', 'Right Arm', 'Left Face', 'Right Arm']",
5,"[0, 0]",None,0,1,1,1,,,None,None,"[0, 0, 0]",2395.295996500179,2397.295927300118,2395.295996500179,2396.296043700073,2396.2793544000015,2397.2793792001903,"[0, 0, 0]",1,2395.295996500179,2397.295927300118,,,,,,,,,,,,,,,,,,,4,M,2,21,l,MH,49,49,2022_Aug_03_1221,2020.2.10,distractmap2,60.003840302962374,"['Left Face', 'Right Arm', 'Left Face', 'Right Arm']",
6,"[0.2, 0]",0,0,2,2,2,,,None,None,"[0, 0, 0]",2397.3126907001715,2399.3127135001123,2397.3126907001715,2398.312625200022,2398.2960469000973,2399.2960440001916,"[0, 0, 0]",1,2397.3126907001715,2399.3127135001123,,,,,,,,,,,,,,,,,,,4,M,2,21,l,MH,49,49,2022_Aug_03_1221,2020.2.10,distractmap2,60.003840302962374,"['Left Face', 'Right Arm', 'Left Face', 'Right Arm']",
1,"[-0.2, 0.2]",0,0,3,3,3,,,None,None,"[0, 0, 0]",2399.32939530001,2401.329395900015,2399.32939530001,2400.329400200164,2400.3127276001032,2401.3127251002006,"[0, 0, 0]",1,2399.32939530001,2401.329395900015,,,,,,,,,,,,,,,,,,,4,M,2,21,l,MH,49,49,2022_Aug_03_1221,2020.2.10,distractmap2,60.003840302962374,"['Left Face', 'Right Arm', 'Left Face', 'Right Arm']",
6,"[0.2, 0]",1,0,4,4,4,,,None,None,"[0, 0, 0]",2401.396120000165,None,2401.396120000165,2402.3960630001966,2402.3794100000523,None,"[0, 0, 0]",1,2401.396120000165,None,,,,,,,,,,,,,,,,,,,4,M,2,21,l,MH,49,49,2022_Aug_03_1221,2020.2.10,distractmap2,60.003840302962374,"['Left Face', 'Right Arm', 'Left Face', 'Right Arm']",
6,"[0.2, 0]",0,0,5,5,5,,,None,None,"[0, 0, 0]",2403.3627554001287,2405.362781899981,2403.3627554001287,2404.3627562001348,2404.346130200196,2405.346093900036,"[0, 0, 0]",1,2403.3627554001287,2405.362781899981,,,,,,,,,,,,,,,,,,,4,M,2,21,l,MH,49,49,2022_Aug_03_1221,2020.2.10,distractmap2,60.003840302962374,"['Left Face', 'Right Arm', 'Left Face', 'Right Arm']",
9,"[0.2, -0.2]",0,0,6,6,6,,,None,None,"[0, 0, 0]",2405.379436200019,2407.37945340015,2405.379436200019,2406.3794283000752,2406.3627928001806,2407.362783800112,"[0, 0, 0]",1,2405.379436200019,2407.37945340015,,,,,,,,,,,,,,,,,,,4,M,2,21,l,MH,49,49,2022_Aug_03_1221,2020.2.10,distractmap2,60.003840302962374,"['Left Face', 'Right Arm', 'Left Face', 'Right Arm']",
6,"[0.2, 0]",1,0,7,7,7,,,None,None,"[0, 0, 0]",2407.396123400191,2409.396178300027,2407.396123400191,2408.3961171000265,2408.3794593000785,2409.379471000051,"[0, 0, 0]",1,2407.396123400191,2409.396178300027,,,,,,,,,,,,,,,,,,,4,M,2,21,l,MH,49,49,2022_Aug_03_1221,2020.2.10,distractmap2,60.003840302962374,"['Left Face', 'Right Arm', 'Left Face', 'Right Arm']",
3,"[0.2, 0.2]",0,0,8,8,8,,,None,None,"[0, 0, 0]",2409.412811800139,2411.4128281001467,2409.412811800139,2410.412813300034,2410.396160500124,2411.3961625001393,"[0, 0, 0]",1,2409.412811800139,2411.4128281001467,,,,,,,,,,,,,,,,,,,4,M,2,21,l,MH,49,49,2022_Aug_03_1221,2020.2.10,distractmap2,60.003840302962374,"['Left Face', 'Right Arm', 'Left Face', 'Right Arm']",
