	SID	date	sex	session	handedness	scanner	onset	duration	repetition	rating	body_site	keys	temperature	conditionrt	mouseclick	biopac_channel	condition	rt	value
0	2913	2024_Mar_25_2101	m	1	r	SS MRS PB	2.7741247001104057	5.019667864544317								19	Instructions		
1	2913	2024_Mar_25_2101	m	1	r	SS MRS PB	8.329190300079063	2.0153992399573326								6	Cue		
2	2913	2024_Mar_25_2101	m	1	r	SS MRS PB	10.339152300031856	7.995702659944072								7	Pre-Jitter		
3	2913	2024_Mar_25_2101	m	1	r	SS MRS PB	18.373190500074998	14.994511279743165			Chest		48.0			17	Heat-Stimulation		
4	2913	2024_Mar_25_2101	m	1	r	SS MRS PB	33.44746300019324	7.012900260044262								8	Mid-Jitter		
5	2913	2024_Mar_25_2101	m	1	r	SS MRS PB	40.47359700012021	4.994100920157507								20	PainBinary	1.0860648001544178	1.0
6	2913	2024_Mar_25_2101	m	1	r	SS MRS PB	45.489687600173056	5.012026919983327								21	IntensityRating	1.9835008000954986	42.901234567901234
7	2913	2024_Mar_25_2101	m	1	r	SS MRS PB	50.52100610011257	4.9995197202079								22	ToleranceRating	0.7002813001163304	1.0
8	2913	2024_Mar_25_2101	m	1	r	SS MRS PB	55.524997300002724	7.008315959945321								9	Post-Q-Jitter		
9	2913	2024_Mar_25_2101	m	1	r	SS MRS PB	63.92590660019778	2.0062411401886493								6	Cue		
10	2913	2024_Mar_25_2101	m	1	r	SS MRS PB	65.93846930004656	5.998256059829146								7	Pre-Jitter		
11	2913	2024_Mar_25_2101	m	1	r	SS MRS PB	71.97278060019016	14.996534679783508			Chest		48.5			17	Heat-Stimulation		
12	2913	2024_Mar_25_2101	m	1	r	SS MRS PB	87.05555670009926	4.997857660287991								8	Mid-Jitter		
13	2913	2024_Mar_25_2101	m	1	r	SS MRS PB	92.0742206000723	5.0106662202160805								20	PainBinary	1.433560100151226	1.0
14	2913	2024_Mar_25_2101	m	1	r	SS MRS PB	97.10786300012842	5.010173320071772								21	IntensityRating	1.6668955001514405	51.11111111111111
15	2913	2024_Mar_25_2101	m	1	r	SS MRS PB	102.13915450009517	4.9976850198581815								22	ToleranceRating	1.167082899948582	1.0
16	2913	2024_Mar_25_2101	m	1	r	SS MRS PB	107.14304640004411	5.006667560199276								9	Post-Q-Jitter		
17	2913	2024_Mar_25_2101	m	1	r	SS MRS PB	113.34020250011235	2.012123620370403								6	Cue		
18	2913	2024_Mar_25_2101	m	1	r	SS MRS PB	115.35653990018182	5.9965220601297915								7	Pre-Jitter		
19	2913	2024_Mar_25_2101	m	1	r	SS MRS PB	121.39616940007545	15.000800679903477			Chest		48.5			17	Heat-Stimulation		
20	2913	2024_Mar_25_2101	m	1	r	SS MRS PB	136.4791922001168	5.001635299995542								8	Mid-Jitter		
21	2913	2024_Mar_25_2101	m	1	r	SS MRS PB	141.50926570012234	5.008308820193633								20	PainBinary	1.3668555999174714	1.0
22	2913	2024_Mar_25_2101	m	1	r	SS MRS PB	146.54048180021346	5.012648520059884								21	IntensityRating	2.200227699941024	37.53086419753087
23	2913	2024_Mar_25_2101	m	1	r	SS MRS PB	151.57140250015073	5.000937120290473								22	ToleranceRating	3.170260800048709	1.0
24	2913	2024_Mar_25_2101	m	1	r	SS MRS PB	156.57666700007394	5.0071867601946								9	Post-Q-Jitter		
25	2913	2024_Mar_25_2101	m	1	r	SS MRS PB	162.76820020005107	2.0072196202818304								6	Cue		
26	2913	2024_Mar_25_2101	m	1	r	SS MRS PB	164.7736642002128	5.996702759759501								7	Pre-Jitter		
27	2913	2024_Mar_25_2101	m	1	r	SS MRS PB	170.85095600015484	15.009000060381368			Chest		48.5			17	Heat-Stimulation		
28	2913	2024_Mar_25_2101	m	1	r	SS MRS PB	185.93142630020157	5.014936560066417								8	Mid-Jitter		
29	2913	2024_Mar_25_2101	m	1	r	SS MRS PB	190.95871960022487	5.010480219963938								20	PainBinary	1.9502475000917912	1.0
30	2913	2024_Mar_25_2101	m	1	r	SS MRS PB	195.9916210002266	5.011491020210087								21	IntensityRating	1.216939500067383	50.0
31	2913	2024_Mar_25_2101	m	1	r	SS MRS PB	201.02140580001287	5.0019996201153845								22	ToleranceRating	1.1688598000910133	1.0
32	2913	2024_Mar_25_2101	m	1	r	SS MRS PB	206.02745210006833	5.006673659896478								9	Post-Q-Jitter		
33	2913	2024_Mar_25_2101	m	1	r	SS MRS PB	212.20584690012038	1.9996938602998853								6	Cue		
34	2913	2024_Mar_25_2101	m	1	r	SS MRS PB	214.2074108000379	7.99697976000607								7	Pre-Jitter		
35	2913	2024_Mar_25_2101	m	1	r	SS MRS PB	222.22777560004033	15.006489920197055			Chest		48.5			17	Heat-Stimulation		
36	2913	2024_Mar_25_2101	m	1	r	SS MRS PB	237.31716610002331	7.01127766026184								8	Mid-Jitter		
37	2913	2024_Mar_25_2101	m	1	r	SS MRS PB	244.34294340014458	5.009890620131046								20	PainBinary	1.2668769999872893	1.0
38	2913	2024_Mar_25_2101	m	1	r	SS MRS PB	249.37504760012962	5.012432919815183								21	IntensityRating	2.8835609001107514	45.925925925925924
39	2913	2024_Mar_25_2101	m	1	r	SS MRS PB	254.40701760002412	4.998613320291042								22	ToleranceRating	1.6336902999319136	1.0
40	2913	2024_Mar_25_2101	m	1	r	SS MRS PB	259.4113293001428	7.006796160014346								9	Post-Q-Jitter		
41	2913	2024_Mar_25_2101	m	1	r	SS MRS PB	267.04488300019875	2.006314280210063								6	Cue		
42	2913	2024_Mar_25_2101	m	1	r	SS MRS PB	269.0581144001335	5.996754260035232								7	Pre-Jitter		
43	2913	2024_Mar_25_2101	m	1	r	SS MRS PB	275.09389820019715	15.008725879713893			Chest		48.5			17	Heat-Stimulation		
44	2913	2024_Mar_25_2101	m	1	r	SS MRS PB	290.1815307000652	7.000375100178644								8	Mid-Jitter		
45	2913	2024_Mar_25_2101	m	1	r	SS MRS PB	297.20969879999757	5.010851120110601								20	PainBinary	1.18356249993667	1.0
46	2913	2024_Mar_25_2101	m	1	r	SS MRS PB	302.2416603001766	4.99705432029441								21	IntensityRating	1.5677353001665324	51.11111111111112
47	2913	2024_Mar_25_2101	m	1	r	SS MRS PB	307.2559706000611	5.001869720174								22	ToleranceRating	1.6864319001324475	1.0
48	2913	2024_Mar_25_2101	m	1	r	SS MRS PB	312.26219030003995	7.006235759938136								9	Post-Q-Jitter		
49	2913	2024_Mar_25_2101	m	1	r	SS MRS PB	320.65168760018423	2.0103595403488725								6	Cue		
50	2913	2024_Mar_25_2101	m	1	r	SS MRS PB	322.6583727002144	3.997435960220173								7	Pre-Jitter		
51	2913	2024_Mar_25_2101	m	1	r	SS MRS PB	326.6960670000408	15.00552507978864			Chest		48.5			17	Heat-Stimulation		
52	2913	2024_Mar_25_2101	m	1	r	SS MRS PB	341.78352950001135	9.01414726022631								8	Mid-Jitter		
53	2913	2024_Mar_25_2101	m	1	r	SS MRS PB	350.81141630001366	5.0085311201401055								20	PainBinary	1.5167091998737305	1.0
54	2913	2024_Mar_25_2101	m	1	r	SS MRS PB	355.8435658002272	5.0110874199308455								21	IntensityRating	1.6168303999584168	52.22222222222223
55	2913	2024_Mar_25_2101	m	1	r	SS MRS PB	360.8729801001027	5.0023526202421635								22	ToleranceRating	1.5670501000713557	1.0
56	2913	2024_Mar_25_2101	m	1	r	SS MRS PB	365.8790323000867	9.007141659967601								9	Post-Q-Jitter		
57	2913	2024_Mar_25_2101	m	1	r	SS MRS PB	374.91836790018715	4.6453916798345745								26	ComfortRating	4.6026873998343945	-10.864197530864189
58	2913	2024_Mar_25_2101	m	1	r	SS MRS PB	379.5804632001091	2.5545480200089514								24	ValenceRating	2.5335929999127984	75.98765432098766
59	2913	2024_Mar_25_2101	m	1	r	SS MRS PB	382.15895380009897	1.3809249200858176								26	IntensityRating	1.3670592999551445	74.44444444444444
60	2913	2024_Mar_25_2101	m	1	r	SS MRS PB	383.55874550016597	2.498033219948411								27	AvoidanceRating	2.483649200061336	100.0
61	2913	2024_Mar_25_2101	m	1	r	SS MRS PB	386.0735226001125	2.2851859198417515								28	RelaxationRating	2.252458400093019	44.19753086419753
62	2913	2024_Mar_25_2101	m	1	r	SS MRS PB	388.37571170018055	2.647660220041871								29	AttentionRating	2.634630700107664	100.0
63	2913	2024_Mar_25_2101	m	1	r	SS MRS PB	391.040130100213	2.1355336199048907								30	BoredomRating	2.1171319000422955	43.20987654320987
64	2913	2024_Mar_25_2101	m	1	r	SS MRS PB	393.1920154001564	2.165080120321363								31	AlertnessRating	2.1503688998054713	23.950617283950606
65	2913	2024_Mar_25_2101	m	1	r	SS MRS PB	395.37490390008315	1.0160023199860007								32	PosThxRating	1.000333599979058	0.0
66	2913	2024_Mar_25_2101	m	1	r	SS MRS PB	396.40822760015726	0.28273252001963556								33	NegThxRating	0.25297420006245375	0.0
67	2913	2024_Mar_25_2101	m	1	r	SS MRS PB	396.70766170020215	2.617202620021999								34	SelfRating	2.5861006998457015	0.3703703703703809
68	2913	2024_Mar_25_2101	m	1	r	SS MRS PB	399.34153620013967	1.3494655198883265								35	OtherRating	1.3336414999794215	0.24691358024691112
69	2913	2024_Mar_25_2101	m	1	r	SS MRS PB	400.70777440001257	2.3003717199899256								32	ImageryRating	2.283682400127873	0.0
70	2913	2024_Mar_25_2101	m	1	r	SS MRS PB	403.0270470001269	2.111889619845897								37	PresentRating	2.069463700056076	0.0
