	onset	duration	rt	response	correct	bodySite	temperature	condition	pretrial-jitter
0	2.7855268999992404	7.7977002000043285				Abdomen	47.5	1back Instructions	
1	12.815463899998576	1.9977718599984655			1.0	Abdomen	47.5	1back	
2	14.820090200002596	2.005288929998642	0.7795850999973482	0.0	1.0	Abdomen	47.5	1back	5.0
3	16.820903500003624	2.0036896300007356	0.962994699999399	2.0	1.0	Abdomen	47.5	1back	
4	18.820459400005348	2.0046134299991536	0.7129113000046345	2.0	1.0	Abdomen	47.5	1back	
5	20.857183000000077	1.9643870899963076	0.7626517999960924	2.0	1.0	Abdomen	47.5	1back	
6	22.83601389999967	2.0068821300010313	0.5460286999950767	2.0	1.0	Abdomen	47.5	1back	
7	24.83742920000077	2.0040807299956214	0.529764899998554	2.0	1.0	Abdomen	47.5	1back	
8	26.837490199999593	2.003976829997555	0.8123029000053066	2.0	1.0	Abdomen	47.5	1back	
9	28.837417200003983	2.0041653299995232	0.5459713000018382	2.0	1.0	Abdomen	47.5	1back	
10	30.83755120000569	2.0039212299961946	0.5960816000006162	0.0	1.0	Abdomen	47.5	1back	
11	37.83373209999991	5.012340729997959		34.81481481481482		Abdomen	47.5	1back Rating	5.0
12	42.83900040000299	47.84840249999979				Abdomen	47.5	1back Instructions	
13	52.88329260000319	1.9960448600031668			1.0	Abdomen	47.5	1back	
14	54.88701570000558	2.00533763000567	0.6121894999960205	2.0	1.0	Abdomen	47.5	1back	5.0
15	56.887613099999726	2.0041766300055315	0.6127204000003985	2.0	1.0	Abdomen	47.5	1back	
16	58.887577800000145	2.0042656299992814	0.5962263000037638	2.0	1.0	Abdomen	47.5	1back	
17	60.94722360000014	1.9348178200016264	0.6960814999983995	0.0	1.0	Abdomen	47.5	1back	
18	62.90289550000307	2.0070192299972405	0.8795096000030753	2.0	1.0	Abdomen	47.5	1back	
19	64.9045899000048	2.003676930005895	1.3961534999980358	2.0	1.0	Abdomen	47.5	1back	
20	66.90445370000089	2.0039674299987382	0.8651132000013604	0.0	1.0	Abdomen	47.5	1back	
21	68.90454270000191	2.0038061300001573	0.79626830000052	2.0	1.0	Abdomen	47.5	1back	
22	70.90461370000412	2.003714130005392	1.046040900000662	2.0	1.0	Abdomen	47.5	1back	
23	77.90060649999941	5.012448430003133		25.925925925925924		Abdomen	47.5	1back Rating	5.0
24	82.90608480000083	87.9154073000027				Abdomen	47.5	1back Instructions	
25	92.94888540000102	1.9987383600018802			1.0	Abdomen	47.5	1back	
26	94.95405469999969	2.0051700300027733	0.6295122000010451	0.0	1.0	Abdomen	47.5	1back	5.0
27	96.95458670000517	2.0041275300027337	1.7463066999989678	2.0	1.0	Abdomen	47.5	1back	
28	98.95474060000561	2.003851030000078	0.646187699996517	2.0	1.0	Abdomen	47.5	1back	
29	100.98285849999957	1.9808472899967455	0.8791525999986334	2.0	1.0	Abdomen	47.5	1back	
30	102.96983850000106	2.0070734300024924	0.8462246999988565	2.0	1.0	Abdomen	47.5	1back	
31	104.97150420000253	2.0037597300033667	0.6461773999981233	2.0	1.0	Abdomen	47.5	1back	
32	106.97157819999848	2.003653330008092	0.7793660000024829	2.0	1.0	Abdomen	47.5	1back	
33	108.9718198000046	2.003183929999068	0.7959294999964186	0.0	1.0	Abdomen	47.5	1back	
34	110.97155890000431	2.0037114299993846	0.6320192999992287	0.0	1.0	Abdomen	47.5	1back	
35	115.9676518999986	5.012247129998286		26.296296296296294		Abdomen	47.5	1back Rating	3.0
36	120.99352820000058	125.9986349000028				Abdomen	47.5	2back Instructions	
37	133.03499520000332	1.993777260002389			1.0	Abdomen	47.5	2back	
38	135.0376802000028	2.0052132299897494	0.0	2.0	0.0	Abdomen	47.5	2back	7.0
39	137.05335670000204	2.007178230000136	0.0	2.0	1.0	Abdomen	47.5	2back	
40	139.07019760000549	2.00684832999832	0.0	2.0	1.0	Abdomen	47.5	2back	
41	141.14072310000483	1.9489729199995054	0.5670450999969034	0.0	1.0	Abdomen	47.5	2back	
42	143.10358100000303	2.0068235299986554	0.0	2.0	1.0	Abdomen	47.5	2back	
43	145.1202867000029	2.0066395300091244	1.0003759000028367	0.0	1.0	Abdomen	47.5	2back	
44	147.13682220000192	2.0070770300080767	0.0	2.0	1.0	Abdomen	47.5	2back	
45	149.15345589999924	2.007128229997761	0.0	2.0	0.0	Abdomen	47.5	2back	
46	151.17019280000386	2.0070285299952957	0.7337547999995877	0.0	1.0	Abdomen	47.5	2back	
47	158.18473980000272	5.012073929996404		27.22222222222222		Abdomen	47.5	2back Rating	5.0
48	163.1900195000053	168.19929580000462				Abdomen	47.5	2back Instructions	
49	173.23514689999865	1.994046959996922			1.0	Abdomen	47.5	2back	
50	175.238056400005	2.004972729999281	0.0	2.0	0.0	Abdomen	47.5	2back	5.0
51	177.25386530000105	2.0067168299938203	0.9503832000045804	0.0	1.0	Abdomen	47.5	2back	
52	179.27046379999956	2.0069425300025614	0.0	2.0	1.0	Abdomen	47.5	2back	
53	181.319439400002	1.9753977899963502	0.7167975000047591	0.0	0.0	Abdomen	47.5	2back	
54	183.3039923000033	2.006584529997781	0.0	2.0	1.0	Abdomen	47.5	2back	
55	185.32075590000022	2.0064524299959885	0.0	2.0	0.0	Abdomen	47.5	2back	
56	187.33715970000048	2.0069438299979083	0.8502881000022171	0.0	1.0	Abdomen	47.5	2back	
57	189.35375470000145	2.007133930004784	1.0669020999994245	0.0	1.0	Abdomen	47.5	2back	
58	191.3705678000042	2.0068665299986606	0.0	2.0	1.0	Abdomen	47.5	2back	
59	198.38477300000523	5.0126315300076385		30.49382716049383		Abdomen	47.5	2back Rating	5.0
60	203.3912588000021	208.3996291000003				Abdomen	47.5	2back Instructions	
61	213.43546630000492	1.9939424600088387			1.0	Abdomen	47.5	2back	
62	215.43823580000026	2.0052168299953337	0.0	2.0	0.0	Abdomen	47.5	2back	5.0
63	217.45397650000086	2.0070763300027465	0.7336464999971213	0.0	1.0	Abdomen	47.5	2back	
64	219.4705899000037	2.007188629999291	0.0	2.0	1.0	Abdomen	47.5	2back	
65	221.5413153000045	1.948949920006271	0.0	2.0	1.0	Abdomen	47.5	2back	
66	223.5040844000032	2.006930929994269	0.0	2.0	1.0	Abdomen	47.5	2back	
67	225.52079410000442	2.0068539300045813	0.5670326999970712	0.0	1.0	Abdomen	47.5	2back	
68	227.537413500002	2.007038930001727	0.0	2.0	1.0	Abdomen	47.5	2back	
69	229.55416640000476	2.006887329996971	0.8170089000050211	0.0	0.0	Abdomen	47.5	2back	
70	231.57063490000291	2.007297229996766	0.6364796999987448	0.0	1.0	Abdomen	47.5	2back	
71	238.5857962000009	5.0111129300057655		28.086419753086417		Abdomen	47.5	2back Rating	5.0
72	243.61141900000075	248.61610890000156				Abdomen	47.5	1back Instructions	
73	253.63334690000192	1.9987754600006156			1.0	Abdomen	47.5	1back	
74	255.63841970000067	2.005268729997624	0.6795467999982066	2.0	1.0	Abdomen	47.5	1back	5.0
75	257.63996269999916	2.002333130003535	0.7629396999982418	0.0	1.0	Abdomen	47.5	1back	
76	259.6396124000021	2.00307623000117	0.8795418000008794	2.0	1.0	Abdomen	47.5	1back	
77	261.7066083000027	1.9355445499968482	0.7956611999979941	2.0	1.0	Abdomen	47.5	1back	
78	263.65443600000435	2.006756230002793	0.8628267999956734	2.0	1.0	Abdomen	47.5	1back	
79	265.65568670000357	2.0043044300036854	0.6795461000001524	2.0	1.0	Abdomen	47.5	1back	
80	267.6567808000036	2.0022173300021677	0.6127573000048869	2.0	1.0	Abdomen	47.5	1back	
81	269.6567404000016	2.0023228299978655	0.4795873000039137	2.0	1.0	Abdomen	47.5	1back	
82	271.65663230000064	2.002567729992734	0.782701600001019	0.0	1.0	Abdomen	47.5	1back	
83	280.6528030000045	5.011021929996787		35.18518518518518		Abdomen	47.5	1back Rating	7.0
84	285.67806550000387	290.68305610000243				Abdomen	47.5	2back Instructions	
85	293.7027362000008	1.9939276599980076			1.0	Abdomen	47.5	2back	
86	295.7053984000013	2.005352430001949	0.0	2.0	0.0	Abdomen	47.5	2back	3.0
87	297.72130350000225	2.0069275299974834	0.0	2.0	1.0	Abdomen	47.5	2back	
88	299.7379280000023	2.007048030005535	0.0	2.0	1.0	Abdomen	47.5	2back	
89	301.8197736000002	1.943131349995383	0.9834655000013299	0.0	1.0	Abdomen	47.5	2back	
90	303.77135629999975	2.006915130004927	0.0	2.0	0.0	Abdomen	47.5	2back	
91	305.78794010000274	2.007089829996403	0.0	2.0	1.0	Abdomen	47.5	2back	
92	307.8046522000004	2.0070067300039227	0.0	2.0	1.0	Abdomen	47.5	2back	
93	309.82145239999954	2.0068219300083	0.0	2.0	1.0	Abdomen	47.5	2back	
94	311.83803060000355	2.006994030001806	0.5169003999981214	0.0	1.0	Abdomen	47.5	2back	
95	320.8528234000041	5.011516429993208		34.32098765432099		Abdomen	47.5	2back Rating	7.0
96	325.8778098000039	330.88344060000236				Abdomen	47.5	1back Instructions	
97	333.9173723999993	1.9985567600015202			1.0	Abdomen	47.5	1back	
98	335.9229609000031	2.004207129997667	0.7796710000038729	0.0	1.0	Abdomen	47.5	1back	3.0
99	337.9238697000037	2.0023889299991424	0.5987126000036369	0.0	1.0	Abdomen	47.5	1back	
100	339.9238566999993	2.0024099299989757	0.6462917999961064	2.0	1.0	Abdomen	47.5	1back	
101	341.96846150000056	1.9630253199939034	0.7294823999982327	2.0	1.0	Abdomen	47.5	1back	
102	343.93840089999867	2.0067532300017774	0.8490084000004572	2.0	1.0	Abdomen	47.5	1back	
103	345.9399182999987	2.003740630003449	0.7127533000020776	2.0	1.0	Abdomen	47.5	1back	
104	347.9403603000028	2.0028751300051226	0.8129111000016565	2.0	1.0	Abdomen	47.5	1back	
105	349.9397539999991	2.004136230003496	0.7624056999993627	2.0	1.0	Abdomen	47.5	1back	
106	351.93977100000484	2.0041596299997764	0.5129481000039959	0.0	1.0	Abdomen	47.5	1back	
107	356.9358476000052	5.012720930004434		28.888888888888893		Abdomen	47.5	1back Rating	3.0
108	361.9618172000046	366.9670658000032				Abdomen	47.5	2back Instructions	
109	374.0033145000052	1.9939921600016532			1.0	Abdomen	47.5	2back	
110	376.00604430000385	2.005279029996018	0.0	2.0	0.0	Abdomen	47.5	2back	7.0
111	378.02196570000524	2.0068392300017877	0.0	2.0	1.0	Abdomen	47.5	2back	
112	380.03870409999945	2.006649530005234	0.0	2.0	1.0	Abdomen	47.5	2back	
113	382.1127134000053	1.9418181200089748	0.43352279999817256	0.0	1.0	Abdomen	47.5	2back	
114	384.0719023000056	2.0069991299969843	0.0	2.0	1.0	Abdomen	47.5	2back	
115	386.0887767000022	2.0065472300047986	0.0	2.0	1.0	Abdomen	47.5	2back	
116	388.10522050000145	2.007071630003338	0.5503337999980431	0.0	1.0	Abdomen	47.5	2back	
117	390.1218957000019	2.007080829993356	0.0	2.0	1.0	Abdomen	47.5	2back	
118	392.1385286000004	2.007155129998864	0.8003138000058243	0.0	0.0	Abdomen	47.5	2back	
119	397.1538593000005	5.010612329999276		34.876543209876544		Abdomen	47.5	2back Rating	3.0
120	402.15940520000004	407.16766500000085				Abdomen	47.5	2back Instructions	
121	414.20344599999953	1.9942736599987256			1.0	Abdomen	47.5	2back	
122	416.20649360000243	2.0049614300005487			1.0	Abdomen	47.5	2back	7.0
123	418.2221895000039	2.0069112299970584	0.6862273000006098	0.0	1.0	Abdomen	47.5	2back	
124	420.23881529999926	2.007035629991151			0.0	Abdomen	47.5	2back	
125	422.30879390000337	1.950249020002957	0.0	2.0	1.0	Abdomen	47.5	2back	
126	424.27228599999944	2.0068160299997544	0.0	2.0	1.0	Abdomen	47.5	2back	
127	426.28893300000345	2.006883430003654	0.0	2.0	1.0	Abdomen	47.5	2back	
128	428.30561450000096	2.006883629997901	0.0	2.0	1.0	Abdomen	47.5	2back	
129	430.3222925000009	2.0068784300019615	0.733627699999488	0.0	1.0	Abdomen	47.5	2back	
130	432.3391023000004	2.0066254299963475	0.0	2.0	1.0	Abdomen	47.5	2back	
131	439.35392839999986	5.011001129998476		33.33333333333333		Abdomen	47.5	2back Rating	5.0
132	444.3790545000011	449.3843080000006				Abdomen	47.5	1back Instructions	
133	454.4183361000032	1.9983529599994654			1.0	Abdomen	47.5	1back	
134	456.4233530999991	2.005174829995667	1.363018000003649	2.0	1.0	Abdomen	47.5	1back	5.0
135	458.42479870000534	2.0022898300012457	0.8462323999992805	2.0	1.0	Abdomen	47.5	1back	
136	460.42491000000155	2.0021048299968243	0.8462794000006397	2.0	1.0	Abdomen	47.5	1back	
137	462.4573053999993	1.9705608899967046	0.7110787999990862	0.0	1.0	Abdomen	47.5	1back	
138	464.4391235000003	2.0070538299987675	0.7128602000011597	2.0	1.0	Abdomen	47.5	1back	
139	466.44082690000505	2.0036836299987044	0.8125648999994155	2.0	1.0	Abdomen	47.5	1back	
140	468.44089130000066	2.003582630000892	0.7459487999949488	2.0	0.0	Abdomen	47.5	1back	
141	470.4409308000031	2.0035338299931027	0.9458044999992126	2.0	1.0	Abdomen	47.5	1back	
142	472.44082699999854	2.003752730000997	0.7295951999985846	2.0	1.0	Abdomen	47.5	1back	
143	477.4369111999986	5.0123051299960935		34.01234567901235		Abdomen	47.5	1back Rating	3.0
144	482.44341580000037	487.4514560000025				Abdomen	47.5	1back Instructions	
145	494.4855438000013	1.997875560002285			1.0	Abdomen	47.5	1back	
146	496.49030889999995	2.0051566299953265	0.5461962999979733	0.0	1.0	Abdomen	47.5	1back	7.0
147	498.491929900003	2.00195733000146	0.9295536999998149	2.0	1.0	Abdomen	47.5	1back	
148	500.4919069000025	2.0020050300008734	1.0794991000002483	2.0	1.0	Abdomen	47.5	1back	
149	502.5400435000047	1.9556161200089264	0.5789659000001848	0.0	1.0	Abdomen	47.5	1back	
150	504.5061285000047	2.006963630010432	0.5461338999957661	2.0	1.0	Abdomen	47.5	1back	
151	506.5078528000013	2.0035400300039328	0.6294521000017994	0.0	0.0	Abdomen	47.5	1back	
152	508.5082517000046	2.002788329991745	0.5958844999986468	2.0	1.0	Abdomen	47.5	1back	
153	510.50806260000536	2.003175830002874	0.6627638999998453	2.0	1.0	Abdomen	47.5	1back	
154	512.5078796000016	2.003594929999963	0.46292499999981374	2.0	0.0	Abdomen	47.5	1back	
155	519.5039796000056	5.012088329996914		32.71604938271605		Abdomen	47.5	1back Rating	5.0
156	524.5104164000004	529.5185848000037				Abdomen	47.5	1back Instructions	
157	534.5521615000034	1.9985436599963577			1.0	Abdomen	47.5	1back	
158	536.5577002999999	2.004321530002926	0.6626573000030476	2.0	1.0	Abdomen	47.5	1back	5.0
159	538.5590550999987	2.0016346300035366	0.962851900003443	0.0	1.0	Abdomen	47.5	1back	
160	540.558918900002	2.001928930003487	0.7129690000001574	2.0	1.0	Abdomen	47.5	1back	
161	542.5836447000038	1.9691077600000426	0.578815000000759	2.0	1.0	Abdomen	47.5	1back	
162	544.5731221000024	2.0069126300077187	0.6128976999971201	2.0	1.0	Abdomen	47.5	1back	
163	546.5749393000006	2.003295930000604	0.6129376000026241	2.0	1.0	Abdomen	47.5	1back	
164	548.5750745000041	2.003059230002691	0.5628266999992775	2.0	1.0	Abdomen	47.5	1back	
165	550.5748915000004	2.0034785300013027	0.51282799999899	0.0	1.0	Abdomen	47.5	1back	
166	552.5748819	2.0035164299988537	0.6628313999972306	2.0	1.0	Abdomen	47.5	1back	
167	559.5710118999996	5.0119979299925035		28.518518518518515		Abdomen	47.5	1back Rating	5.0
168	564.5958769999997	569.6018788000001				Abdomen	47.5	2back Instructions	
169	574.6380923000033	1.9939857600038522			1.0	Abdomen	47.5	2back	
170	576.6409520000016	2.005047430007835			1.0	Abdomen	47.5	2back	5.0
171	578.6565725000037	2.007111430000805	0.0	2.0	1.0	Abdomen	47.5	2back	
172	580.673424200002	2.006837130000349	1.050321200003964	0.0	1.0	Abdomen	47.5	2back	
173	582.7258382	1.9685734899976524	0.0	2.0	1.0	Abdomen	47.5	2back	
174	584.7069682000001	2.006468429994129	0.0	2.0	1.0	Abdomen	47.5	2back	
175	586.7234603000034	2.006880529996124	0.0	2.0	1.0	Abdomen	47.5	2back	
176	588.7399733999991	2.0070772300095996	0.3502692999973078	0.0	1.0	Abdomen	47.5	2back	
177	590.7567631000056	2.0069428300048457	0.0	2.0	1.0	Abdomen	47.5	2back	
178	592.7738954000015	2.0060720299952663	1.083695200002694	0.0	1.0	Abdomen	47.5	2back	
179	597.7880286	5.011849729999085		29.38271604938272		Abdomen	47.5	2back Rating	3.0
180	602.7934233000051	607.8023083000007				Abdomen	47.5	2back Instructions	
181	614.8383818000002	1.9940248599959887			1.0	Abdomen	47.5	2back	
182	616.8412382000024	2.005078730006062			1.0	Abdomen	47.5	2back	7.0
183	618.8570600000021	2.0067926299961982	0.6170045000035316	0.0	1.0	Abdomen	47.5	2back	
184	620.8735734000002	2.0070560300009674	0.0	2.0	1.0	Abdomen	47.5	2back	
185	622.9304705000031	1.959894190003979	0.7501985999988392	0.0	1.0	Abdomen	47.5	2back	
186	624.9069664000053	2.0070827300005476	0.0	2.0	1.0	Abdomen	47.5	2back	
187	626.9237581999987	2.006830030004494	0.0	2.0	1.0	Abdomen	47.5	2back	
188	628.940347900003	2.00703362999775	0.0	2.0	1.0	Abdomen	47.5	2back	
189	630.9570134000023	2.00706583000283	0.0	2.0	1.0	Abdomen	47.5	2back	
190	632.973653699999	2.007116929999029	0.3868244000041159	0.0	1.0	Abdomen	47.5	2back	
191	639.9890587000045	5.077085130003979		32.901234567901234		Abdomen	47.5	2back Rating	5.0
