square,location,corrAns,trials_2.thisRepN,trials_2.thisTrialN,trials_2.thisN,trials_2.thisIndex,fixation_1.started,fixation_1.stopped,response_2.x,response_2.y,response_2.leftButton,grid_lines_2.started,grid_lines_2.stopped,target_square_2.started,target_square_2.stopped,fixation_3.started,fixation_3.stopped,response_2.click,response_2.corr,response_2.started,response_2.stopped,ScoreReportText.started,ScoreReportText.stopped,ScoreReportResponse.keys,ScoreReportResponse.started,ScoreReportResponse.stopped,BodySiteInstructionText.started,BodySiteImg.started,BodySiteImg.stopped,BodySiteInstructionRead.keys,BodySiteInstructionRead.rt,BodySiteInstructionRead.started,BodySiteInstructionRead.stopped,fixation_rest.started,fixation_rest.stopped,IntensityRating.response,IntensityRating.rt,IntensityRating.started,IntensityRating.stopped,subject number,gender,distractMap first- or second-half (1 or 2),session,handedness,scanner,bodysite1 temp,bodysite2 temp,date,psychopyVersion,expName,frameRate,body_site_order,
6,"[0.2, 0]",None,0,0,0,0,534.059709800058,None,None,None,"[0, 0, 0]",535.0764009000268,None,535.0764009000268,536.0763839000138,536.0597212000284,537.0597394000506,"[0, 0, 0]",1,535.0764009000268,None,,,,,,,,,,,,,,,,,,,8,f,2,18,r,MS,49,49,2022_Jul_22_1014,2020.2.10,distractmap2,59.973827417916326,"['Left Face', 'Chest', 'Left Face', 'Chest']",
7,"[-0.2, -0.2]",None,0,1,1,1,,,None,None,"[0, 0, 0]",537.0763980000047,539.0764183000429,537.0763980000047,538.076348099974,538.0596619000426,539.0597435999662,"[0, 0, 0]",1,537.0763980000047,539.0764183000429,,,,,,,,,,,,,,,,,,,8,f,2,18,r,MS,49,49,2022_Jul_22_1014,2020.2.10,distractmap2,59.973827417916326,"['Left Face', 'Chest', 'Left Face', 'Chest']",
6,"[0.2, 0]",1,0,2,2,2,,,None,None,"[0, 0, 0]",539.0930876999628,541.093091799994,539.0930876999628,540.0930996000534,540.0764301000163,541.0764263999881,"[0, 0, 0]",1,539.0930876999628,541.093091799994,,,,,,,,,,,,,,,,,,,8,f,2,18,r,MS,49,49,2022_Jul_22_1014,2020.2.10,distractmap2,59.973827417916326,"['Left Face', 'Chest', 'Left Face', 'Chest']",
2,"[0, 0.2]",0,0,3,3,3,,,None,None,"[0, 0, 0]",541.109764700057,543.1098064000253,541.109764700057,542.1098089000443,542.0931294000475,543.0931087000063,"[0, 0, 0]",1,541.109764700057,543.1098064000253,,,,,,,,,,,,,,,,,,,8,f,2,18,r,MS,49,49,2022_Jul_22_1014,2020.2.10,distractmap2,59.973827417916326,"['Left Face', 'Chest', 'Left Face', 'Chest']",
5,"[0, 0]",0,0,4,4,4,,,None,None,"[0, 0, 0]",543.1264467999572,545.1264523999998,543.1264467999572,544.1264467999572,544.1097984999651,545.1098378000315,"[0, 0, 0]",0,543.1264467999572,545.1264523999998,,,,,,,,,,,,,,,,,,,8,f,2,18,r,MS,49,49,2022_Jul_22_1014,2020.2.10,distractmap2,59.973827417916326,"['Left Face', 'Chest', 'Left Face', 'Chest']",
4,"[-0.2, 0]",0,0,5,5,5,,,None,None,"[0, 0, 0]",545.1431289999746,547.1431486000074,545.1431289999746,546.1431385000469,546.1264741000487,547.1264691000106,"[0, 0, 0]",1,545.1431289999746,547.1431486000074,,,,,,,,,,,,,,,,,,,8,f,2,18,r,MS,49,49,2022_Jul_22_1014,2020.2.10,distractmap2,59.973827417916326,"['Left Face', 'Chest', 'Left Face', 'Chest']",
4,"[-0.2, 0]",0,0,6,6,6,,,None,None,"[0, 0, 0]",547.1598358999472,549.1598524999572,547.1598358999472,548.1598555999808,548.1431581999641,549.1431812000228,"[0, 0, 0]",1,547.1598358999472,549.1598524999572,,,,,,,,,,,,,,,,,,,8,f,2,18,r,MS,49,49,2022_Jul_22_1014,2020.2.10,distractmap2,59.973827417916326,"['Left Face', 'Chest', 'Left Face', 'Chest']",
7,"[-0.2, -0.2]",0,0,7,7,7,,,None,None,"[0, 0, 0]",549.1764907999896,551.1765121000353,549.1764907999896,550.1765062999912,550.1598626000341,551.1598846999696,"[0, 0, 0]",1,549.1764907999896,551.1765121000353,,,,,,,,,,,,,,,,,,,8,f,2,18,r,MS,49,49,2022_Jul_22_1014,2020.2.10,distractmap2,59.973827417916326,"['Left Face', 'Chest', 'Left Face', 'Chest']",
4,"[-0.2, 0]",1,0,8,8,8,,,None,None,"[0, 0, 0]",551.1931997999782,553.1931029000552,551.1931997999782,552.1932189000072,552.1765159999486,553.1765268000308,"[0, 0, 0]",1,551.1931997999782,553.1931029000552,,,,,,,,,,,,,,,,,,,8,f,2,18,r,MS,49,49,2022_Jul_22_1014,2020.2.10,distractmap2,59.973827417916326,"['Left Face', 'Chest', 'Left Face', 'Chest']",
3,"[0.2, 0.2]",0,0,9,9,9,,,None,None,"[0, 0, 0]",553.2098684000084,555.2098724000389,553.2098684000084,554.2099070999539,554.1932079000399,555.1931951000588,"[0, 0, 0]",1,553.2098684000084,555.2098724000389,,,,,,,,,,,,,,,,,,,8,f,2,18,r,MS,49,49,2022_Jul_22_1014,2020.2.10,distractmap2,59.973827417916326,"['Left Face', 'Chest', 'Left Face', 'Chest']",
5,"[0, 0]",0,0,10,10,10,,,None,None,"[0, 0, 0]",555.2265400000615,557.2265459999908,555.2265400000615,556.2265371000394,556.2099132000003,557.2099247999722,"[0, 0, 0]",1,555.2265400000615,557.2265459999908,,,,,,,,,,,,,,,,,,,8,f,2,18,r,MS,49,49,2022_Jul_22_1014,2020.2.10,distractmap2,59.973827417916326,"['Left Face', 'Chest', 'Left Face', 'Chest']",
3,"[0.2, 0.2]",1,0,11,11,11,,,None,None,"[0, 0, 0]",557.2432359999511,559.2432356999489,557.2432359999511,558.2432387999725,558.2265641000122,559.2265663000289,"[0, 0, 0]",1,557.2432359999511,559.2432356999489,,,,,,,,,,,,,,,,,,,8,f,2,18,r,MS,49,49,2022_Jul_22_1014,2020.2.10,distractmap2,59.973827417916326,"['Left Face', 'Chest', 'Left Face', 'Chest']",
1,"[-0.2, 0.2]",0,0,12,12,12,,,None,None,"[0, 0, 0]",559.2599369999953,561.2599394000135,559.2599369999953,560.2599238000112,560.243226999999,561.2432589000091,"[0, 0, 0]",1,559.2599369999953,561.2599394000135,,,,,,,,,,,,,,,,,,,8,f,2,18,r,MS,49,49,2022_Jul_22_1014,2020.2.10,distractmap2,59.973827417916326,"['Left Face', 'Chest', 'Left Face', 'Chest']",
9,"[0.2, -0.2]",0,0,13,13,13,,,None,None,"[0, 0, 0]",561.2765856999904,563.2765907000285,561.2765856999904,562.2765963999555,562.2599734000396,563.2599471999565,"[0, 0, 0]",1,561.2765856999904,563.2765907000285,,,,,,,,,,,,,,,,,,,8,f,2,18,r,MS,49,49,2022_Jul_22_1014,2020.2.10,distractmap2,59.973827417916326,"['Left Face', 'Chest', 'Left Face', 'Chest']",
9,"[0.2, -0.2]",0,0,14,14,14,,,None,None,"[0, 0, 0]",563.293260699953,565.2932767999591,563.293260699953,564.2932837000117,564.2766066000331,565.2765816999599,"[0, 0, 0]",1,563.293260699953,565.2932767999591,,,,,,,,,,,,,,,,,,,8,f,2,18,r,MS,49,49,2022_Jul_22_1014,2020.2.10,distractmap2,59.973827417916326,"['Left Face', 'Chest', 'Left Face', 'Chest']",
8,"[0, -0.2]",0,0,15,15,15,,,None,None,"[0, 0, 0]",565.3099574999651,567.3099653000245,565.3099574999651,566.3099685000489,566.2932875000406,567.2933269999921,"[0, 0, 0]",1,565.3099574999651,567.3099653000245,,,,,,,,,,,,,,,,,,,8,f,2,18,r,MS,49,49,2022_Jul_22_1014,2020.2.10,distractmap2,59.973827417916326,"['Left Face', 'Chest', 'Left Face', 'Chest']",
6,"[0.2, 0]",0,0,16,16,16,,,None,None,"[0, 0, 0]",567.3267224000301,569.3266511999536,567.3267224000301,568.3266337000532,568.3099837000482,569.3099960000254,"[0, 0, 0]",1,567.3267224000301,569.3266511999536,,,,,,,,,,,,,,,,,,,8,f,2,18,r,MS,49,49,2022_Jul_22_1014,2020.2.10,distractmap2,59.973827417916326,"['Left Face', 'Chest', 'Left Face', 'Chest']",
3,"[0.2, 0.2]",0,0,17,17,17,,,None,None,"[0, 0, 0]",569.3433079000097,571.343322700006,569.3433079000097,570.3432680000551,570.3266661999514,571.3266573000001,"[0, 0, 0]",1,569.3433079000097,571.343322700006,,,,,,,,,,,,,,,,,,,8,f,2,18,r,MS,49,49,2022_Jul_22_1014,2020.2.10,distractmap2,59.973827417916326,"['Left Face', 'Chest', 'Left Face', 'Chest']",
6,"[0.2, 0]",1,0,18,18,18,,,None,None,"[0, 0, 0]",571.3600249000592,573.3600272999611,571.3600249000592,572.3600500000175,572.3433375000022,573.3433484999696,"[0, 0, 0]",1,571.3600249000592,573.3600272999611,,,,,,,,,,,,,,,,,,,8,f,2,18,r,MS,49,49,2022_Jul_22_1014,2020.2.10,distractmap2,59.973827417916326,"['Left Face', 'Chest', 'Left Face', 'Chest']",
5,"[0, 0]",0,0,19,19,19,,,None,None,"[0, 0, 0]",573.3766859000316,575.3766964999959,573.3766859000316,574.3766984000104,574.3600371000357,575.360022900044,"[0, 0, 0]",1,573.3766859000316,575.3766964999959,,,,,,,,,,,,,,,,,,,8,f,2,18,r,MS,49,49,2022_Jul_22_1014,2020.2.10,distractmap2,59.973827417916326,"['Left Face', 'Chest', 'Left Face', 'Chest']",
7,"[-0.2, -0.2]",0,0,20,20,20,,,None,None,"[0, 0, 0]",575.393369999947,577.3933909999905,575.393369999947,576.3933901999844,576.3767039000522,577.3767236999702,"[0, 0, 0]",1,575.393369999947,577.3933909999905,,,,,,,,,,,,,,,,,,,8,f,2,18,r,MS,49,49,2022_Jul_22_1014,2020.2.10,distractmap2,59.973827417916326,"['Left Face', 'Chest', 'Left Face', 'Chest']",
5,"[0, 0]",1,0,21,21,21,,,None,None,"[0, 0, 0]",577.4100476000458,579.4101211000234,577.4100476000458,578.4100608000299,578.3933828000445,579.3934032999678,"[0, 0, 0]",0,577.4100476000458,579.4101211000234,,,,,,,,,,,,,,,,,,,8,f,2,18,r,MS,49,49,2022_Jul_22_1014,2020.2.10,distractmap2,59.973827417916326,"['Left Face', 'Chest', 'Left Face', 'Chest']",
1,"[-0.2, 0.2]",0,0,22,22,22,,,None,None,"[0, 0, 0]",579.4267318999628,581.4267505999887,579.4267318999628,580.4267305999529,580.4100774000399,581.4100808999501,"[0, 0, 0]",1,579.4267318999628,581.4267505999887,,,,,,,,,,,,,,,,,,,8,f,2,18,r,MS,49,49,2022_Jul_22_1014,2020.2.10,distractmap2,59.973827417916326,"['Left Face', 'Chest', 'Left Face', 'Chest']",
7,"[-0.2, -0.2]",0,0,23,23,23,,,None,None,"[0, 0, 0]",581.4434256999521,583.4434674000368,581.4434256999521,582.4434096000623,582.4267941999715,583.426769600017,"[0, 0, 0]",0,581.4434256999521,583.4434674000368,,,,,,,,,,,,,,,,,,,8,f,2,18,r,MS,49,49,2022_Jul_22_1014,2020.2.10,distractmap2,59.973827417916326,"['Left Face', 'Chest', 'Left Face', 'Chest']",
9,"[0.2, -0.2]",0,0,24,24,24,,,None,None,"[0, 0, 0]",583.4600919999648,585.4600970000029,583.4600919999648,584.460096099996,584.4434376000427,585.4434469999978,"[0, 0, 0]",1,583.4600919999648,585.4600970000029,,,,,,,,,,,,,,,,,,,8,f,2,18,r,MS,49,49,2022_Jul_22_1014,2020.2.10,distractmap2,59.973827417916326,"['Left Face', 'Chest', 'Left Face', 'Chest']",
3,"[0.2, 0.2]",0,0,25,25,25,,,None,None,"[0, 0, 0]",585.4767949000234,587.4767961000325,585.4767949000234,586.476801599958,586.46011059999,587.4601261999924,"[0, 0, 0]",1,585.4767949000234,587.4767961000325,,,,,,,,,,,,,,,,,,,8,f,2,18,r,MS,49,49,2022_Jul_22_1014,2020.2.10,distractmap2,59.973827417916326,"['Left Face', 'Chest', 'Left Face', 'Chest']",
9,"[0.2, -0.2]",1,0,26,26,26,,,None,None,"[0, 0, 0]",587.4934626000468,589.4934855999891,587.4934626000468,588.4934598000254,588.4768098000204,589.4768360999878,"[0, 0, 0]",1,587.4934626000468,589.4934855999891,,,,,,,,,,,,,,,,,,,8,f,2,18,r,MS,49,49,2022_Jul_22_1014,2020.2.10,distractmap2,59.973827417916326,"['Left Face', 'Chest', 'Left Face', 'Chest']",
6,"[0.2, 0]",0,0,27,27,27,,,None,None,"[0, 0, 0]",589.510151399998,591.5101692000171,589.510151399998,590.5101704000263,590.4933781999862,591.4934181000572,"[0, 0, 0]",1,589.510151399998,591.5101692000171,,,,,,,,,,,,,,,,,,,8,f,2,18,r,MS,49,49,2022_Jul_22_1014,2020.2.10,distractmap2,59.973827417916326,"['Left Face', 'Chest', 'Left Face', 'Chest']",
2,"[0, 0.2]",0,0,28,28,28,,,None,None,"[0, 0, 0]",591.5268521000398,593.5268499000231,591.5268521000398,592.5268456999911,592.5101529000094,593.5101959999884,"[0, 0, 0]",1,591.5268521000398,593.5268499000231,,,,,,,,,,,,,,,,,,,8,f,2,18,r,MS,49,49,2022_Jul_22_1014,2020.2.10,distractmap2,59.973827417916326,"['Left Face', 'Chest', 'Left Face', 'Chest']",
5,"[0, 0]",0,0,29,29,29,,,None,None,"[0, 0, 0]",593.543529800023,595.5435224999674,593.543529800023,594.5434992000228,594.5268817000324,595.526870300062,"[0, 0, 0]",1,593.543529800023,595.5435224999674,,,,,,,,,,,,,,,,,,,8,f,2,18,r,MS,49,49,2022_Jul_22_1014,2020.2.10,distractmap2,59.973827417916326,"['Left Face', 'Chest', 'Left Face', 'Chest']",
,,,,,,,,,,,,,,,,,,,,,,595.5602074000053,None,space,595.5602074000053,None,,,,,,,,,,,,,,8,f,2,18,r,MS,49,49,2022_Jul_22_1014,2020.2.10,distractmap2,59.973827417916326,"['Left Face', 'Chest', 'Left Face', 'Chest']",
,,,,,,,754.778119900031,None,,,,,,,,,,,,,,,,,,,613.443958900054,613.443958900054,None,space,93.91972280002665,613.443958900054,None,734.7779681000393,None,17.037037037037038,419.02028158004396,,,8,f,2,18,r,MS,49,49,2022_Jul_22_1014,2020.2.10,distractmap2,59.973827417916326,"['Left Face', 'Chest', 'Left Face', 'Chest']",
,,,,,,,789.7951282999711,None,,,,,,,,,,,,,,,,,,,,,,,,,,769.7949126999592,None,16.296296296296298,451.2045535799116,0.015312019968405366,5.013595720054582,8,f,2,18,r,MS,49,49,2022_Jul_22_1014,2020.2.10,distractmap2,59.973827417916326,"['Left Face', 'Chest', 'Left Face', 'Chest']",
,,,,,,,824.8120124000125,None,,,,,,,,,,,,,,,,,,,,,,,,,,804.8118644000497,None,15.061728395061733,489.16952347999904,0.014643420116044581,5.012131820083596,8,f,2,18,r,MS,49,49,2022_Jul_22_1014,2020.2.10,distractmap2,59.973827417916326,"['Left Face', 'Chest', 'Left Face', 'Chest']",
3,"[0.2, 0.2]",None,0,0,0,0,841.8454957000213,None,None,None,"[0, 0, 0]",844.845516200061,846.8455271000275,844.845516200061,845.8455316000618,845.8455316000618,846.8455271000275,"[0, 0, 0]",1,844.845516200061,846.8455271000275,,,,,,,,,,,,,,,,,0.016630419995635748,5.015981620061211,8,f,2,18,r,MS,49,49,2022_Jul_22_1014,2020.2.10,distractmap2,59.973827417916326,"['Left Face', 'Chest', 'Left Face', 'Chest']",
3,"[0.2, 0.2]",None,0,1,1,1,,,None,None,"[0, 0, 0]",846.8622230000328,848.862222500029,846.8622230000328,847.8622034,847.8455301000504,848.8455467000604,"[0, 0, 0]",1,846.8622230000328,848.862222500029,,,,,,,,,,,,,,,,,,,8,f,2,18,r,MS,49,49,2022_Jul_22_1014,2020.2.10,distractmap2,59.973827417916326,"['Left Face', 'Chest', 'Left Face', 'Chest']",
5,"[0, 0]",0,0,2,2,2,,,None,None,"[0, 0, 0]",848.8788907000562,850.8788972999901,848.8788907000562,849.878894799971,849.8622202000115,850.8622311999789,"[0, 0, 0]",1,848.8788907000562,850.8788972999901,,,,,,,,,,,,,,,,,,,8,f,2,18,r,MS,49,49,2022_Jul_22_1014,2020.2.10,distractmap2,59.973827417916326,"['Left Face', 'Chest', 'Left Face', 'Chest']",
1,"[-0.2, 0.2]",0,0,3,3,3,,,None,None,"[0, 0, 0]",850.8955593999708,852.895571699948,850.8955593999708,851.8955823000288,851.8789104999742,852.8789193000412,"[0, 0, 0]",1,850.8955593999708,852.895571699948,,,,,,,,,,,,,,,,,,,8,f,2,18,r,MS,49,49,2022_Jul_22_1014,2020.2.10,distractmap2,59.973827417916326,"['Left Face', 'Chest', 'Left Face', 'Chest']",
5,"[0, 0]",1,0,4,4,4,,,None,None,"[0, 0, 0]",852.9122422999935,854.9122625000309,852.9122422999935,853.9122559999814,853.8955834000371,854.895598800038,"[0, 0, 0]",1,852.9122422999935,854.9122625000309,,,,,,,,,,,,,,,,,,,8,f,2,18,r,MS,49,49,2022_Jul_22_1014,2020.2.10,distractmap2,59.973827417916326,"['Left Face', 'Chest', 'Left Face', 'Chest']",
8,"[0, -0.2]",0,0,5,5,5,,,None,None,"[0, 0, 0]",854.928939800011,856.9289560000179,854.928939800011,855.9289779999526,855.9122780000325,856.9122775000287,"[0, 0, 0]",1,854.928939800011,856.9289560000179,,,,,,,,,,,,,,,,,,,8,f,2,18,r,MS,49,49,2022_Jul_22_1014,2020.2.10,distractmap2,59.973827417916326,"['Left Face', 'Chest', 'Left Face', 'Chest']",
5,"[0, 0]",1,0,6,6,6,,,None,None,"[0, 0, 0]",856.9456097000511,858.9456273999531,856.9456097000511,857.9456356000155,857.9289602000499,858.9289807999739,"[0, 0, 0]",1,856.9456097000511,858.9456273999531,,,,,,,,,,,,,,,,,,,8,f,2,18,r,MS,49,49,2022_Jul_22_1014,2020.2.10,distractmap2,59.973827417916326,"['Left Face', 'Chest', 'Left Face', 'Chest']",
7,"[-0.2, -0.2]",0,0,7,7,7,,,None,None,"[0, 0, 0]",858.9622651999816,860.9623056000564,858.9622651999816,859.9623071999522,859.945643199957,860.9456496000057,"[0, 0, 0]",1,858.9622651999816,860.9623056000564,,,,,,,,,,,,,,,,,,,8,f,2,18,r,MS,49,49,2022_Jul_22_1014,2020.2.10,distractmap2,59.973827417916326,"['Left Face', 'Chest', 'Left Face', 'Chest']",
5,"[0, 0]",1,0,8,8,8,,,None,None,"[0, 0, 0]",860.9789886999642,862.9790019999491,860.9789886999642,861.978997200029,861.9623312000185,862.9622746000532,"[0, 0, 0]",1,860.9789886999642,862.9790019999491,,,,,,,,,,,,,,,,,,,8,f,2,18,r,MS,49,49,2022_Jul_22_1014,2020.2.10,distractmap2,59.973827417916326,"['Left Face', 'Chest', 'Left Face', 'Chest']",
7,"[-0.2, -0.2]",1,0,9,9,9,,,None,None,"[0, 0, 0]",862.9956583000021,864.9956846999703,862.9956583000021,863.9956882999977,863.979012100026,864.9790150000481,"[0, 0, 0]",0,862.9956583000021,864.9956846999703,,,,,,,,,,,,,,,,,,,8,f,2,18,r,MS,49,49,2022_Jul_22_1014,2020.2.10,distractmap2,59.973827417916326,"['Left Face', 'Chest', 'Left Face', 'Chest']",
,,,,,,,,,,,,,,,,,,,,,,865.0290200000163,None,,,,,,,,,,,,,,,,,8,f,2,18,r,MS,49,49,2022_Jul_22_1014,2020.2.10,distractmap2,59.973827417916326,"['Left Face', 'Chest', 'Left Face', 'Chest']",
6,"[0.2, 0]",None,0,0,0,0,877.0457927000243,None,None,None,"[0, 0, 0]",880.045727299992,882.0458138999529,880.045727299992,881.0458193999948,881.0458193999948,882.0458138999529,"[0, 0, 0]",1,880.045727299992,882.0458138999529,,,,,,,,,,,,,,,,,,,8,f,2,18,r,MS,49,49,2022_Jul_22_1014,2020.2.10,distractmap2,59.973827417916326,"['Left Face', 'Chest', 'Left Face', 'Chest']",
1,"[-0.2, 0.2]",None,0,1,1,1,,,None,None,"[0, 0, 0]",882.0624792999588,884.0624980999855,882.0624792999588,883.0624954999657,883.0458346999949,884.0458437999478,"[0, 0, 0]",1,882.0624792999588,884.0624980999855,,,,,,,,,,,,,,,,,,,8,f,2,18,r,MS,49,49,2022_Jul_22_1014,2020.2.10,distractmap2,59.973827417916326,"['Left Face', 'Chest', 'Left Face', 'Chest']",
6,"[0.2, 0]",1,0,2,2,2,,,None,None,"[0, 0, 0]",884.079185300041,886.0791875000577,884.079185300041,885.0791784999892,885.0625112999696,886.062519100029,"[0, 0, 0]",1,884.079185300041,886.0791875000577,,,,,,,,,,,,,,,,,,,8,f,2,18,r,MS,49,49,2022_Jul_22_1014,2020.2.10,distractmap2,59.973827417916326,"['Left Face', 'Chest', 'Left Face', 'Chest']",
4,"[-0.2, 0]",0,0,3,3,3,,,None,None,"[0, 0, 0]",886.0958603000036,888.0958833000623,886.0958603000036,887.0958583999891,887.0792028000578,888.0792032000609,"[0, 0, 0]",1,886.0958603000036,888.0958833000623,,,,,,,,,,,,,,,,,,,8,f,2,18,r,MS,49,49,2022_Jul_22_1014,2020.2.10,distractmap2,59.973827417916326,"['Left Face', 'Chest', 'Left Face', 'Chest']",
1,"[-0.2, 0.2]",0,0,4,4,4,,,None,None,"[0, 0, 0]",888.1125394999981,890.1125430000247,888.1125394999981,889.1125681999838,889.0958757000044,890.0959069000091,"[0, 0, 0]",0,888.1125394999981,890.1125430000247,,,,,,,,,,,,,,,,,,,8,f,2,18,r,MS,49,49,2022_Jul_22_1014,2020.2.10,distractmap2,59.973827417916326,"['Left Face', 'Chest', 'Left Face', 'Chest']",
8,"[0, -0.2]",0,0,5,5,5,,,None,None,"[0, 0, 0]",890.1292173999827,892.1292351000011,890.1292173999827,891.1292387000285,891.1125558000058,892.1125749000348,"[0, 0, 0]",1,890.1292173999827,892.1292351000011,,,,,,,,,,,,,,,,,,,8,f,2,18,r,MS,49,49,2022_Jul_22_1014,2020.2.10,distractmap2,59.973827417916326,"['Left Face', 'Chest', 'Left Face', 'Chest']",
1,"[-0.2, 0.2]",1,0,6,6,6,,,None,None,"[0, 0, 0]",892.1459231000626,894.145949000027,892.1459231000626,893.1459057000466,893.1292390000308,894.1292433999479,"[0, 0, 0]",0,892.1459231000626,894.145949000027,,,,,,,,,,,,,,,,,,,8,f,2,18,r,MS,49,49,2022_Jul_22_1014,2020.2.10,distractmap2,59.973827417916326,"['Left Face', 'Chest', 'Left Face', 'Chest']",
8,"[0, -0.2]",1,0,7,7,7,,,None,None,"[0, 0, 0]",894.1625834000297,896.1626292000292,894.1625834000297,895.1626578000141,895.1459974000463,896.1459516000468,"[0, 0, 0]",1,894.1625834000297,896.1626292000292,,,,,,,,,,,,,,,,,,,8,f,2,18,r,MS,49,49,2022_Jul_22_1014,2020.2.10,distractmap2,59.973827417916326,"['Left Face', 'Chest', 'Left Face', 'Chest']",
1,"[-0.2, 0.2]",1,0,8,8,8,,,None,None,"[0, 0, 0]",896.1792971000541,898.1793384000193,896.1792971000541,897.1793275000528,897.1626444000285,898.1626766000409,"[0, 0, 0]",1,896.1792971000541,898.1793384000193,,,,,,,,,,,,,,,,,,,8,f,2,18,r,MS,49,49,2022_Jul_22_1014,2020.2.10,distractmap2,59.973827417916326,"['Left Face', 'Chest', 'Left Face', 'Chest']",
6,"[0.2, 0]",0,0,9,9,9,,,None,None,"[0, 0, 0]",898.1959559000097,900.1960291999858,898.1959559000097,899.196072199964,899.1793933999725,900.1793455999577,"[0, 0, 0]",1,898.1959559000097,900.1960291999858,,,,,,,,,,,,,,,,,,,8,f,2,18,r,MS,49,49,2022_Jul_22_1014,2020.2.10,distractmap2,59.973827417916326,"['Left Face', 'Chest', 'Left Face', 'Chest']",
,,,,,,,,,,,,,,,,,,,,,,900.2126263000537,None,,,,,,,,,,,,,,,,,8,f,2,18,r,MS,49,49,2022_Jul_22_1014,2020.2.10,distractmap2,59.973827417916326,"['Left Face', 'Chest', 'Left Face', 'Chest']",
7,"[-0.2, -0.2]",None,0,0,0,0,910.2294261000352,None,None,None,"[0, 0, 0]",915.2294253000291,None,915.2294253000291,916.2294302999508,916.2127652999479,917.2127692999784,"[0, 0, 0]",1,915.2294253000291,None,,,,,,,,,,,,,,,,,,,8,f,2,18,r,MS,49,49,2022_Jul_22_1014,2020.2.10,distractmap2,59.973827417916326,"['Left Face', 'Chest', 'Left Face', 'Chest']",
7,"[-0.2, -0.2]",None,0,1,1,1,,,None,None,"[0, 0, 0]",917.2294362999965,919.2294524000026,917.2294362999965,918.229445099947,918.2127781000454,919.2128019999946,"[0, 0, 0]",1,917.2294362999965,919.2294524000026,,,,,,,,,,,,,,,,,,,8,f,2,18,r,MS,49,49,2022_Jul_22_1014,2020.2.10,distractmap2,59.973827417916326,"['Left Face', 'Chest', 'Left Face', 'Chest']",
7,"[-0.2, -0.2]",1,0,2,2,2,,,None,None,"[0, 0, 0]",919.2461295999819,921.2461422999622,919.2461295999819,920.2461417999584,920.2294595000567,921.2294672999997,"[0, 0, 0]",1,919.2461295999819,921.2461422999622,,,,,,,,,,,,,,,,,,,8,f,2,18,r,MS,49,49,2022_Jul_22_1014,2020.2.10,distractmap2,59.973827417916326,"['Left Face', 'Chest', 'Left Face', 'Chest']",
5,"[0, 0]",0,0,3,3,3,,,None,None,"[0, 0, 0]",921.2628181000473,923.2628168000374,921.2628181000473,922.2628160000313,922.2462229999946,923.246166100027,"[0, 0, 0]",1,921.2628181000473,923.2628168000374,,,,,,,,,,,,,,,,,,,8,f,2,18,r,MS,49,49,2022_Jul_22_1014,2020.2.10,distractmap2,59.973827417916326,"['Left Face', 'Chest', 'Left Face', 'Chest']",
1,"[-0.2, 0.2]",0,0,4,4,4,,,None,None,"[0, 0, 0]",923.2794986000517,925.2795023999643,923.2794986000517,924.2794967000373,924.2628315000329,925.2628395999782,"[0, 0, 0]",1,923.2794986000517,925.2795023999643,,,,,,,,,,,,,,,,,,,8,f,2,18,r,MS,49,49,2022_Jul_22_1014,2020.2.10,distractmap2,59.973827417916326,"['Left Face', 'Chest', 'Left Face', 'Chest']",
6,"[0.2, 0]",0,0,5,5,5,,,None,None,"[0, 0, 0]",925.296180000063,927.2962011999916,925.296180000063,926.2961938000517,926.2795102000237,927.2795227000024,"[0, 0, 0]",1,925.296180000063,927.2962011999916,,,,,,,,,,,,,,,,,,,8,f,2,18,r,MS,49,49,2022_Jul_22_1014,2020.2.10,distractmap2,59.973827417916326,"['Left Face', 'Chest', 'Left Face', 'Chest']",
1,"[-0.2, 0.2]",1,0,6,6,6,,,None,None,"[0, 0, 0]",927.3127714999719,929.3128675000044,927.3127714999719,928.3128620999632,928.296209000051,929.2962148999795,"[0, 0, 0]",1,927.3127714999719,929.3128675000044,,,,,,,,,,,,,,,,,,,8,f,2,18,r,MS,49,49,2022_Jul_22_1014,2020.2.10,distractmap2,59.973827417916326,"['Left Face', 'Chest', 'Left Face', 'Chest']",
7,"[-0.2, -0.2]",0,0,7,7,7,,,None,None,"[0, 0, 0]",929.3295346000232,931.3295572999632,929.3295346000232,930.3295514000347,930.3128944999771,931.3128925999627,"[0, 0, 0]",1,929.3295346000232,931.3295572999632,,,,,,,,,,,,,,,,,,,8,f,2,18,r,MS,49,49,2022_Jul_22_1014,2020.2.10,distractmap2,59.973827417916326,"['Left Face', 'Chest', 'Left Face', 'Chest']",
6,"[0.2, 0]",0,0,8,8,8,,,None,None,"[0, 0, 0]",931.3462407999905,933.3462442000164,931.3462407999905,932.3462406999897,932.3295682000462,933.3295820000349,"[0, 0, 0]",1,931.3462407999905,933.3462442000164,,,,,,,,,,,,,,,,,,,8,f,2,18,r,MS,49,49,2022_Jul_22_1014,2020.2.10,distractmap2,59.973827417916326,"['Left Face', 'Chest', 'Left Face', 'Chest']",
7,"[-0.2, -0.2]",1,0,9,9,9,,,None,None,"[0, 0, 0]",933.3629218999995,935.3628684000578,933.3629218999995,934.362914300058,934.346270399983,935.3462480000453,"[0, 0, 0]",1,933.3629218999995,935.3628684000578,,,,,,,,,,,,,,,,,,,8,f,2,18,r,MS,49,49,2022_Jul_22_1014,2020.2.10,distractmap2,59.973827417916326,"['Left Face', 'Chest', 'Left Face', 'Chest']",
,,,,,,,,,,,,,,,,,,,,,,935.3962474999717,None,,,,,,,,,,,,,,,,,8,f,2,18,r,MS,49,49,2022_Jul_22_1014,2020.2.10,distractmap2,59.973827417916326,"['Left Face', 'Chest', 'Left Face', 'Chest']",
4,"[-0.2, 0]",None,0,0,0,0,943.6464181999909,None,None,None,"[0, 0, 0]",950.4129459999967,952.4130493999692,950.4129459999967,951.4130716000218,951.3964185999939,952.3963851999724,"[0, 0, 0]",1,950.4129459999967,952.4130493999692,,,,,,,,,,,,,,,,,,,8,f,2,18,r,MS,49,49,2022_Jul_22_1014,2020.2.10,distractmap2,59.973827417916326,"['Left Face', 'Chest', 'Left Face', 'Chest']",
5,"[0, 0]",None,0,1,1,1,,,None,None,"[0, 0, 0]",952.4297611999791,954.4297409000574,952.4297611999791,953.4297266999492,953.4130707000149,954.4131023000227,"[0, 0, 0]",1,952.4297611999791,954.4297409000574,,,,,,,,,,,,,,,,,,,8,f,2,18,r,MS,49,49,2022_Jul_22_1014,2020.2.10,distractmap2,59.973827417916326,"['Left Face', 'Chest', 'Left Face', 'Chest']",
6,"[0.2, 0]",0,0,2,2,2,,,None,None,"[0, 0, 0]",954.4464117999887,956.4464314000215,954.4464117999887,955.4464286000002,955.4297565000597,956.4297552000498,"[0, 0, 0]",1,954.4464117999887,956.4464314000215,,,,,,,,,,,,,,,,,,,8,f,2,18,r,MS,49,49,2022_Jul_22_1014,2020.2.10,distractmap2,59.973827417916326,"['Left Face', 'Chest', 'Left Face', 'Chest']",
1,"[-0.2, 0.2]",0,0,3,3,3,,,None,None,"[0, 0, 0]",956.4631550000049,958.4631769000553,956.4631550000049,957.4630899999756,957.446433300036,958.4464604000095,"[0, 0, 0]",1,956.4631550000049,958.4631769000553,,,,,,,,,,,,,,,,,,,8,f,2,18,r,MS,49,49,2022_Jul_22_1014,2020.2.10,distractmap2,59.973827417916326,"['Left Face', 'Chest', 'Left Face', 'Chest']",
6,"[0.2, 0]",1,0,4,4,4,,,None,None,"[0, 0, 0]",958.5130463000387,None,958.5130463000387,959.5130213999655,959.4964653999778,None,"[0, 0, 0]",1,958.5130463000387,None,,,,,,,,,,,,,,,,,,,8,f,2,18,r,MS,49,49,2022_Jul_22_1014,2020.2.10,distractmap2,59.973827417916326,"['Left Face', 'Chest', 'Left Face', 'Chest']",
1,"[-0.2, 0.2]",1,0,5,5,5,,,None,None,"[0, 0, 0]",960.4964632999618,962.4964834999992,960.4964632999618,961.4964633999625,961.4798040000023,962.4798113000579,"[0, 0, 0]",1,960.4964632999618,962.4964834999992,,,,,,,,,,,,,,,,,,,8,f,2,18,r,MS,49,49,2022_Jul_22_1014,2020.2.10,distractmap2,59.973827417916326,"['Left Face', 'Chest', 'Left Face', 'Chest']",
2,"[0, 0.2]",0,0,6,6,6,,,None,None,"[0, 0, 0]",962.5131472999929,964.5131494000088,962.5131472999929,963.5131926999893,963.4964778999565,964.4965072999476,"[0, 0, 0]",1,962.5131472999929,964.5131494000088,,,,,,,,,,,,,,,,,,,8,f,2,18,r,MS,49,49,2022_Jul_22_1014,2020.2.10,distractmap2,59.973827417916326,"['Left Face', 'Chest', 'Left Face', 'Chest']",
3,"[0.2, 0.2]",0,0,7,7,7,,,None,None,"[0, 0, 0]",964.5298410999821,966.5298455000157,964.5298410999821,965.5298297000118,965.5131685000379,966.5131964000175,"[0, 0, 0]",1,964.5298410999821,966.5298455000157,,,,,,,,,,,,,,,,,,,8,f,2,18,r,MS,49,49,2022_Jul_22_1014,2020.2.10,distractmap2,59.973827417916326,"['Left Face', 'Chest', 'Left Face', 'Chest']",
6,"[0.2, 0]",0,0,8,8,8,,,None,None,"[0, 0, 0]",966.5465093000093,968.5465323999524,966.5465093000093,967.5465223999927,967.529863200034,968.5298617000226,"[0, 0, 0]",1,966.5465093000093,968.5465323999524,,,,,,,,,,,,,,,,,,,8,f,2,18,r,MS,49,49,2022_Jul_22_1014,2020.2.10,distractmap2,59.973827417916326,"['Left Face', 'Chest', 'Left Face', 'Chest']",
3,"[0.2, 0.2]",1,0,9,9,9,,,None,None,"[0, 0, 0]",968.5632028999971,970.5632224000292,968.5632028999971,969.5632178999949,969.5465411000187,970.5463871000102,"[0, 0, 0]",1,968.5632028999971,970.5632224000292,,,,,,,,,,,,,,,,,,,8,f,2,18,r,MS,49,49,2022_Jul_22_1014,2020.2.10,distractmap2,59.973827417916326,"['Left Face', 'Chest', 'Left Face', 'Chest']",
,,,,,,,,,,,,,,,,,,,,,,970.579806099995,None,,,,,,,,,,,,,,,,,8,f,2,18,r,MS,49,49,2022_Jul_22_1014,2020.2.10,distractmap2,59.973827417916326,"['Left Face', 'Chest', 'Left Face', 'Chest']",
,,,,,,,,,,,,,,,,,,,,,,,,,,,,,,,,,,,,12.345679012345682,633.5578271800186,,,8,f,2,18,r,MS,49,49,2022_Jul_22_1014,2020.2.10,distractmap2,59.973827417916326,"['Left Face', 'Chest', 'Left Face', 'Chest']",
2,"[0, 0.2]",None,0,0,0,0,985.8137362999842,None,None,None,"[0, 0, 0]",990.6133709000424,None,990.6133709000424,991.6133965000045,991.5967238000594,992.5967324000085,"[0, 0, 0]",1,990.6133709000424,None,,,,,,,,,,,,,,,,,0.01283561997115612,5.008505220059305,8,f,2,18,r,MS,49,49,2022_Jul_22_1014,2020.2.10,distractmap2,59.973827417916326,"['Left Face', 'Chest', 'Left Face', 'Chest']",
5,"[0, 0]",None,0,1,1,1,,,None,None,"[0, 0, 0]",992.6133846000303,994.6134010000387,992.6133846000303,993.6133987000212,993.5967497000238,994.5967461999971,"[0, 0, 0]",1,992.6133846000303,994.6134010000387,,,,,,,,,,,,,,,,,,,8,f,2,18,r,MS,49,49,2022_Jul_22_1014,2020.2.10,distractmap2,59.973827417916326,"['Left Face', 'Chest', 'Left Face', 'Chest']",
6,"[0.2, 0]",0,0,2,2,2,,,None,None,"[0, 0, 0]",994.6300797000295,996.6301090000197,994.6300797000295,995.6301069000037,995.6134210999589,996.613418300054,"[0, 0, 0]",1,994.6300797000295,996.6301090000197,,,,,,,,,,,,,,,,,,,8,f,2,18,r,MS,49,49,2022_Jul_22_1014,2020.2.10,distractmap2,59.973827417916326,"['Left Face', 'Chest', 'Left Face', 'Chest']",
1,"[-0.2, 0.2]",0,0,3,3,3,,,None,None,"[0, 0, 0]",996.6467574000126,998.6467823999701,996.6467574000126,997.6467677999754,997.6301014999626,998.6300031000283,"[0, 0, 0]",1,996.6467574000126,998.6467823999701,,,,,,,,,,,,,,,,,,,8,f,2,18,r,MS,49,49,2022_Jul_22_1014,2020.2.10,distractmap2,59.973827417916326,"['Left Face', 'Chest', 'Left Face', 'Chest']",
6,"[0.2, 0]",1,0,4,4,4,,,None,None,"[0, 0, 0]",998.6971272999654,None,998.6971272999654,999.6967754999641,999.6801198000321,None,"[0, 0, 0]",1,998.6971272999654,None,,,,,,,,,,,,,,,,,,,8,f,2,18,r,MS,49,49,2022_Jul_22_1014,2020.2.10,distractmap2,59.973827417916326,"['Left Face', 'Chest', 'Left Face', 'Chest']",
6,"[0.2, 0]",0,0,5,5,5,,,None,None,"[0, 0, 0]",1000.6801538000582,1002.6801743999822,1000.6801538000582,1001.68016670004,1001.6634596999502,1002.6634624999715,"[0, 0, 0]",1,1000.6801538000582,1002.6801743999822,,,,,,,,,,,,,,,,,,,8,f,2,18,r,MS,49,49,2022_Jul_22_1014,2020.2.10,distractmap2,59.973827417916326,"['Left Face', 'Chest', 'Left Face', 'Chest']",
9,"[0.2, -0.2]",0,0,6,6,6,,,None,None,"[0, 0, 0]",1002.6963201999897,1004.6968149000313,1002.6963201999897,1003.6967484999914,1003.6801616000012,1004.6801597999875,"[0, 0, 0]",1,1002.6963201999897,1004.6968149000313,,,,,,,,,,,,,,,,,,,8,f,2,18,r,MS,49,49,2022_Jul_22_1014,2020.2.10,distractmap2,59.973827417916326,"['Left Face', 'Chest', 'Left Face', 'Chest']",
6,"[0.2, 0]",1,0,7,7,7,,,None,None,"[0, 0, 0]",1004.7129523999756,1006.7135093000252,1004.7129523999756,1005.7134930000175,1005.6968394999858,1006.6968455000315,"[0, 0, 0]",1,1004.7129523999756,1006.7135093000252,,,,,,,,,,,,,,,,,,,8,f,2,18,r,MS,49,49,2022_Jul_22_1014,2020.2.10,distractmap2,59.973827417916326,"['Left Face', 'Chest', 'Left Face', 'Chest']",
3,"[0.2, 0.2]",0,0,8,8,8,,,None,None,"[0, 0, 0]",1006.7301975999726,1008.7301921000471,1006.7301975999726,1007.7302039000206,1007.7135238000192,1008.7135173999704,"[0, 0, 0]",1,1006.7301975999726,1008.7301921000471,,,,,,,,,,,,,,,,,,,8,f,2,18,r,MS,49,49,2022_Jul_22_1014,2020.2.10,distractmap2,59.973827417916326,"['Left Face', 'Chest', 'Left Face', 'Chest']",
9,"[0.2, -0.2]",0,0,9,9,9,,,None,None,"[0, 0, 0]",1008.7468659000006,1010.7468686000211,1008.7468659000006,1009.7468722000485,1009.7302041000221,1010.7302278999705,"[0, 0, 0]",0,1008.7468659000006,1010.7468686000211,,,,,,,,,,,,,,,,,,,8,f,2,18,r,MS,49,49,2022_Jul_22_1014,2020.2.10,distractmap2,59.973827417916326,"['Left Face', 'Chest', 'Left Face', 'Chest']",
,,,,,,,,,,,,,,,,,,,,,,1010.7635086999508,None,,,,,,,,,,,,,,,,,8,f,2,18,r,MS,49,49,2022_Jul_22_1014,2020.2.10,distractmap2,59.973827417916326,"['Left Face', 'Chest', 'Left Face', 'Chest']",
,,,,,,,,,,,,,,,,,,,,,,,,,,,,,,,,,,,,11.54320987654321,671.4244777801214,,,8,f,2,18,r,MS,49,49,2022_Jul_22_1014,2020.2.10,distractmap2,59.973827417916326,"['Left Face', 'Chest', 'Left Face', 'Chest']",
3,"[0.2, 0.2]",None,0,0,0,0,1024.6474253999768,None,None,None,"[0, 0, 0]",1030.7970424999949,1032.7970849999692,1030.7970424999949,1031.7970604000147,1031.7803891999647,1032.7803776999936,"[0, 0, 0]",1,1030.7970424999949,1032.7970849999692,,,,,,,,,,,,,,,,,0.013171319966204464,5.009249720023945,8,f,2,18,r,MS,49,49,2022_Jul_22_1014,2020.2.10,distractmap2,59.973827417916326,"['Left Face', 'Chest', 'Left Face', 'Chest']",
9,"[0.2, -0.2]",None,0,1,1,1,,,None,None,"[0, 0, 0]",1032.813725200016,1034.813723500003,1032.813725200016,1033.8137757000513,1033.7970695999684,1034.7970806000521,"[0, 0, 0]",1,1032.813725200016,1034.813723500003,,,,,,,,,,,,,,,,,,,8,f,2,18,r,MS,49,49,2022_Jul_22_1014,2020.2.10,distractmap2,59.973827417916326,"['Left Face', 'Chest', 'Left Face', 'Chest']",
3,"[0.2, 0.2]",1,0,2,2,2,,,None,None,"[0, 0, 0]",1034.83041090006,1036.830424600048,1034.83041090006,1035.830411999952,1035.813739300007,1036.8137553000124,"[0, 0, 0]",1,1034.83041090006,1036.830424600048,,,,,,,,,,,,,,,,,,,8,f,2,18,r,MS,49,49,2022_Jul_22_1014,2020.2.10,distractmap2,59.973827417916326,"['Left Face', 'Chest', 'Left Face', 'Chest']",
7,"[-0.2, -0.2]",0,0,3,3,3,,,None,None,"[0, 0, 0]",1036.84707899997,1038.8471180000342,1036.84707899997,1037.847106799949,1037.8304241000442,1038.8304356000153,"[0, 0, 0]",1,1036.84707899997,1038.8471180000342,,,,,,,,,,,,,,,,,,,8,f,2,18,r,MS,49,49,2022_Jul_22_1014,2020.2.10,distractmap2,59.973827417916326,"['Left Face', 'Chest', 'Left Face', 'Chest']",
8,"[0, -0.2]",0,0,4,4,4,,,None,None,"[0, 0, 0]",1038.930732900044,None,1038.930732900044,1039.9304580000462,1039.913774900022,None,"[0, 0, 0]",1,1038.930732900044,None,,,,,,,,,,,,,,,,,,,8,f,2,18,r,MS,49,49,2022_Jul_22_1014,2020.2.10,distractmap2,59.973827417916326,"['Left Face', 'Chest', 'Left Face', 'Chest']",
4,"[-0.2, 0]",0,0,5,5,5,,,None,None,"[0, 0, 0]",1040.880461200024,1042.8804751000134,1040.880461200024,1041.8804704999784,1041.8638066999847,1042.8638071999885,"[0, 0, 0]",1,1040.880461200024,1042.8804751000134,,,,,,,,,,,,,,,,,,,8,f,2,18,r,MS,49,49,2022_Jul_22_1014,2020.2.10,distractmap2,59.973827417916326,"['Left Face', 'Chest', 'Left Face', 'Chest']",
4,"[-0.2, 0]",0,0,6,6,6,,,None,None,"[0, 0, 0]",1042.8971464999486,1044.8971733000362,1042.8971464999486,1043.897166299983,1043.8804957000539,1044.8804984999588,"[0, 0, 0]",1,1042.8971464999486,1044.8971733000362,,,,,,,,,,,,,,,,,,,8,f,2,18,r,MS,49,49,2022_Jul_22_1014,2020.2.10,distractmap2,59.973827417916326,"['Left Face', 'Chest', 'Left Face', 'Chest']",
1,"[-0.2, 0.2]",0,0,7,7,7,,,None,None,"[0, 0, 0]",1044.9138281999622,1046.9138353000162,1044.9138281999622,1045.9138167999918,1045.897124500014,1046.897184100002,"[0, 0, 0]",1,1044.9138281999622,1046.9138353000162,,,,,,,,,,,,,,,,,,,8,f,2,18,r,MS,49,49,2022_Jul_22_1014,2020.2.10,distractmap2,59.973827417916326,"['Left Face', 'Chest', 'Left Face', 'Chest']",
4,"[-0.2, 0]",1,0,8,8,8,,,None,None,"[0, 0, 0]",1046.9305038000457,1048.930517300032,1046.9305038000457,1047.9305167000275,1047.9138332000002,1048.9138522000285,"[0, 0, 0]",1,1046.9305038000457,1048.930517300032,,,,,,,,,,,,,,,,,,,8,f,2,18,r,MS,49,49,2022_Jul_22_1014,2020.2.10,distractmap2,59.973827417916326,"['Left Face', 'Chest', 'Left Face', 'Chest']",
8,"[0, -0.2]",0,0,9,9,9,,,None,None,"[0, 0, 0]",1048.947195500019,1050.9472132000374,1048.947195500019,1049.9472083,1049.9305312000215,1050.9305329000344,"[0, 0, 0]",1,1048.947195500019,1050.9472132000374,,,,,,,,,,,,,,,,,,,8,f,2,18,r,MS,49,49,2022_Jul_22_1014,2020.2.10,distractmap2,59.973827417916326,"['Left Face', 'Chest', 'Left Face', 'Chest']",
,,,,,,,,,,,,,,,,,,,,,,1050.9638206999516,None,,,,,,,,,,,,,,,,,8,f,2,18,r,MS,49,49,2022_Jul_22_1014,2020.2.10,distractmap2,59.973827417916326,"['Left Face', 'Chest', 'Left Face', 'Chest']",
,,,,,,,,,,,,,,,,,,,,,,,,,,,,,,,,,,,,11.111111111111109,712.4917670801515,,,8,f,2,18,r,MS,49,49,2022_Jul_22_1014,2020.2.10,distractmap2,59.973827417916326,"['Left Face', 'Chest', 'Left Face', 'Chest']",
2,"[0, 0.2]",None,0,0,0,0,1154.2147476000246,None,None,None,"[0, 0, 0]",1160.9980716999853,1162.9980388999684,1160.9980716999853,1161.9981406000443,1161.9981406000443,1162.9980388999684,"[0, 0, 0]",1,1160.9980716999853,1162.9980388999684,,,,,,,,,,,,,1125.9644976999843,None,,,0.012890719925053418,5.008639419917017,8,f,2,18,r,MS,49,49,2022_Jul_22_1014,2020.2.10,distractmap2,59.973827417916326,"['Left Face', 'Chest', 'Left Face', 'Chest']",
5,"[0, 0]",None,0,1,1,1,,,None,None,"[0, 0, 0]",1163.0148013000144,1165.0148158000084,1163.0148013000144,1164.0148144999985,1163.998144299956,1164.9981657000026,"[0, 0, 0]",1,1163.0148013000144,1165.0148158000084,,,,,,,,,,,,,,,,,,,8,f,2,18,r,MS,49,49,2022_Jul_22_1014,2020.2.10,distractmap2,59.973827417916326,"['Left Face', 'Chest', 'Left Face', 'Chest']",
3,"[0.2, 0.2]",0,0,2,2,2,,,None,None,"[0, 0, 0]",1165.0314781999914,1167.0315102000022,1165.0314781999914,1166.0314166999888,1166.0148246999597,1167.014833000023,"[0, 0, 0]",1,1165.0314781999914,1167.0315102000022,,,,,,,,,,,,,,,,,,,8,f,2,18,r,MS,49,49,2022_Jul_22_1014,2020.2.10,distractmap2,59.973827417916326,"['Left Face', 'Chest', 'Left Face', 'Chest']",
5,"[0, 0]",1,0,3,3,3,,,None,None,"[0, 0, 0]",1167.0481909000082,1169.0481928000227,1167.0481909000082,1168.0481836999534,1168.0315214999719,1169.0314939999953,"[0, 0, 0]",1,1167.0481909000082,1169.0481928000227,,,,,,,,,,,,,,,,,,,8,f,2,18,r,MS,49,49,2022_Jul_22_1014,2020.2.10,distractmap2,59.973827417916326,"['Left Face', 'Chest', 'Left Face', 'Chest']",
2,"[0, 0.2]",0,0,4,4,4,,,None,None,"[0, 0, 0]",1169.1150962000247,None,1169.1150962000247,1170.1148947000038,1170.0982144000009,None,"[0, 0, 0]",1,1169.1150962000247,None,,,,,,,,,,,,,,,,,,,8,f,2,18,r,MS,49,49,2022_Jul_22_1014,2020.2.10,distractmap2,59.973827417916326,"['Left Face', 'Chest', 'Left Face', 'Chest']",
8,"[0, -0.2]",0,0,5,5,5,,,None,None,"[0, 0, 0]",1171.0815448999638,1173.0815572000574,1171.0815448999638,1172.0816082999809,1172.0648809999693,1173.0648971999763,"[0, 0, 0]",1,1171.0815448999638,1173.0815572000574,,,,,,,,,,,,,,,,,,,8,f,2,18,r,MS,49,49,2022_Jul_22_1014,2020.2.10,distractmap2,59.973827417916326,"['Left Face', 'Chest', 'Left Face', 'Chest']",
4,"[-0.2, 0]",0,0,6,6,6,,,None,None,"[0, 0, 0]",1173.0982325000223,1175.0982447999995,1173.0982325000223,1174.0982653000392,1174.0815623999806,1175.0815794999944,"[0, 0, 0]",1,1173.0982325000223,1175.0982447999995,,,,,,,,,,,,,,,,,,,8,f,2,18,r,MS,49,49,2022_Jul_22_1014,2020.2.10,distractmap2,59.973827417916326,"['Left Face', 'Chest', 'Left Face', 'Chest']",
8,"[0, -0.2]",1,0,7,7,7,,,None,None,"[0, 0, 0]",1175.1149184999522,1177.114938899991,1175.1149184999522,1176.1149190999568,1176.0982574999798,1177.098273199983,"[0, 0, 0]",1,1175.1149184999522,1177.114938899991,,,,,,,,,,,,,,,,,,,8,f,2,18,r,MS,49,49,2022_Jul_22_1014,2020.2.10,distractmap2,59.973827417916326,"['Left Face', 'Chest', 'Left Face', 'Chest']",
7,"[-0.2, -0.2]",0,0,8,8,8,,,None,None,"[0, 0, 0]",1177.1315914000152,1179.1316094000358,1177.1315914000152,1178.131595200044,1178.1149416000117,1179.1149411000079,"[0, 0, 0]",1,1177.1315914000152,1179.1316094000358,,,,,,,,,,,,,,,,,,,8,f,2,18,r,MS,49,49,2022_Jul_22_1014,2020.2.10,distractmap2,59.973827417916326,"['Left Face', 'Chest', 'Left Face', 'Chest']",
8,"[0, -0.2]",1,0,9,9,9,,,None,None,"[0, 0, 0]",1179.14827720006,1181.148308499949,1179.14827720006,1180.148294399958,1180.1315086999675,1181.1316267000511,"[0, 0, 0]",1,1179.14827720006,1181.148308499949,,,,,,,,,,,,,,,,,,,8,f,2,18,r,MS,49,49,2022_Jul_22_1014,2020.2.10,distractmap2,59.973827417916326,"['Left Face', 'Chest', 'Left Face', 'Chest']",
,,,,,,,,,,,,,,,,,,,,,,1181.164968200028,None,,,,,,,,,,,,,,,,,8,f,2,18,r,MS,49,49,2022_Jul_22_1014,2020.2.10,distractmap2,59.973827417916326,"['Left Face', 'Chest', 'Left Face', 'Chest']",
,,,,,,,,,,,,,,,,,,,,,,,,,,,,,,,,,,,,11.358024691358025,843.3258926799754,,,8,f,2,18,r,MS,49,49,2022_Jul_22_1014,2020.2.10,distractmap2,59.973827417916326,"['Left Face', 'Chest', 'Left Face', 'Chest']",
2,"[0, 0.2]",None,0,0,0,0,1196.4153698000591,None,None,None,"[0, 0, 0]",1201.198451400036,1203.1984703999478,1201.198451400036,1202.1984739999752,1202.1984739999752,1203.1984703999478,"[0, 0, 0]",1,1201.198451400036,1203.1984703999478,,,,,,,,,,,,,,,,,0.013194820028729737,5.009207820054144,8,f,2,18,r,MS,49,49,2022_Jul_22_1014,2020.2.10,distractmap2,59.973827417916326,"['Left Face', 'Chest', 'Left Face', 'Chest']",
2,"[0, 0.2]",None,0,1,1,1,,,None,None,"[0, 0, 0]",1203.2151492000557,1205.2151715999935,1203.2151492000557,1204.215075199958,1204.1984803000232,1205.198479600018,"[0, 0, 0]",1,1203.2151492000557,1205.2151715999935,,,,,,,,,,,,,,,,,,,8,f,2,18,r,MS,49,49,2022_Jul_22_1014,2020.2.10,distractmap2,59.973827417916326,"['Left Face', 'Chest', 'Left Face', 'Chest']",
2,"[0, 0.2]",1,0,2,2,2,,,None,None,"[0, 0, 0]",1205.231831699959,1207.2318349999841,1205.231831699959,1206.2318355999887,1206.2151799000567,1207.2151818999555,"[0, 0, 0]",1,1205.231831699959,1207.2318349999841,,,,,,,,,,,,,,,,,,,8,f,2,18,r,MS,49,49,2022_Jul_22_1014,2020.2.10,distractmap2,59.973827417916326,"['Left Face', 'Chest', 'Left Face', 'Chest']",
8,"[0, -0.2]",0,0,3,3,3,,,None,None,"[0, 0, 0]",1207.2984426000621,None,1207.2984426000621,1208.2985094999894,1208.2651825000066,None,"[0, 0, 0]",1,1207.2984426000621,None,,,,,,,,,,,,,,,,,,,8,f,2,18,r,MS,49,49,2022_Jul_22_1014,2020.2.10,distractmap2,59.973827417916326,"['Left Face', 'Chest', 'Left Face', 'Chest']",
2,"[0, 0.2]",1,0,4,4,4,,,None,None,"[0, 0, 0]",1209.2985410999972,None,1209.2985410999972,1210.2985447000246,1210.2818698000629,None,"[0, 0, 0]",1,1209.2985410999972,None,,,,,,,,,,,,,,,,,,,8,f,2,18,r,MS,49,49,2022_Jul_22_1014,2020.2.10,distractmap2,59.973827417916326,"['Left Face', 'Chest', 'Left Face', 'Chest']",
5,"[0, 0]",0,0,5,5,5,,,None,None,"[0, 0, 0]",1211.2818680000491,1213.2818901999854,1211.2818680000491,1212.2818903999869,1212.2652202000609,1213.2652335000457,"[0, 0, 0]",1,1211.2818680000491,1213.2818901999854,,,,,,,,,,,,,,,,,,,8,f,2,18,r,MS,49,49,2022_Jul_22_1014,2020.2.10,distractmap2,59.973827417916326,"['Left Face', 'Chest', 'Left Face', 'Chest']",
1,"[-0.2, 0.2]",0,0,6,6,6,,,None,None,"[0, 0, 0]",1213.298559500021,1215.2985763000324,1213.298559500021,1214.2985754000256,1214.2819026999641,1215.2819191999733,"[0, 0, 0]",1,1213.298559500021,1215.2985763000324,,,,,,,,,,,,,,,,,,,8,f,2,18,r,MS,49,49,2022_Jul_22_1014,2020.2.10,distractmap2,59.973827417916326,"['Left Face', 'Chest', 'Left Face', 'Chest']",
1,"[-0.2, 0.2]",0,0,7,7,7,,,None,None,"[0, 0, 0]",1215.31524060003,1217.315274600056,1215.31524060003,1216.3152716000332,1216.29859390005,1217.2985869999975,"[0, 0, 0]",1,1215.31524060003,1217.315274600056,,,,,,,,,,,,,,,,,,,8,f,2,18,r,MS,49,49,2022_Jul_22_1014,2020.2.10,distractmap2,59.973827417916326,"['Left Face', 'Chest', 'Left Face', 'Chest']",
6,"[0.2, 0]",0,0,8,8,8,,,None,None,"[0, 0, 0]",1217.3319220000412,1219.3319365000352,1217.3319220000412,1218.3319313999964,1218.3152671999997,1219.3152852000203,"[0, 0, 0]",1,1217.3319220000412,1219.3319365000352,,,,,,,,,,,,,,,,,,,8,f,2,18,r,MS,49,49,2022_Jul_22_1014,2020.2.10,distractmap2,59.973827417916326,"['Left Face', 'Chest', 'Left Face', 'Chest']",
1,"[-0.2, 0.2]",1,0,9,9,9,,,None,None,"[0, 0, 0]",1219.34862049995,1221.3486331000458,1219.34862049995,1220.3486224999651,1220.3319514000323,1221.3319602999836,"[0, 0, 0]",1,1219.34862049995,1221.3486331000458,,,,,,,,,,,,,,,,,,,8,f,2,18,r,MS,49,49,2022_Jul_22_1014,2020.2.10,distractmap2,59.973827417916326,"['Left Face', 'Chest', 'Left Face', 'Chest']",
,,,,,,,,,,,,,,,,,,,,,,1221.3652981000487,None,,,,,,,,,,,,,,,,,8,f,2,18,r,MS,49,49,2022_Jul_22_1014,2020.2.10,distractmap2,59.973827417916326,"['Left Face', 'Chest', 'Left Face', 'Chest']",
,,,,,,,,,,,,,,,,,,,,,,,,,,,,,,,,,,,,10.432098765432096,886.3929946799763,,,8,f,2,18,r,MS,49,49,2022_Jul_22_1014,2020.2.10,distractmap2,59.973827417916326,"['Left Face', 'Chest', 'Left Face', 'Chest']",
3,"[0.2, 0.2]",None,0,0,0,0,1239.3983183000237,None,None,None,"[0, 0, 0]",1241.3988020999823,1243.3988032999914,1241.3988020999823,1242.398797400063,1242.3821435000282,1243.3821569000138,"[0, 0, 0]",1,1241.3988020999823,1243.3988032999914,,,,,,,,,,,,,,,,,0.013115220004692674,5.0091416200157255,8,f,2,18,r,MS,49,49,2022_Jul_22_1014,2020.2.10,distractmap2,59.973827417916326,"['Left Face', 'Chest', 'Left Face', 'Chest']",
3,"[0.2, 0.2]",None,0,1,1,1,,,None,None,"[0, 0, 0]",1243.4154881000286,1245.4155346000334,1243.4154881000286,1244.4154929999495,1244.3988274000585,1245.3988280999474,"[0, 0, 0]",1,1243.4154881000286,1245.4155346000334,,,,,,,,,,,,,,,,,,,8,f,2,18,r,MS,49,49,2022_Jul_22_1014,2020.2.10,distractmap2,59.973827417916326,"['Left Face', 'Chest', 'Left Face', 'Chest']",
5,"[0, 0]",0,0,2,2,2,,,None,None,"[0, 0, 0]",1245.432172599947,1247.4321893999586,1245.432172599947,1246.4321781999897,1246.4155067000538,1247.415513999993,"[0, 0, 0]",1,1245.432172599947,1247.4321893999586,,,,,,,,,,,,,,,,,,,8,f,2,18,r,MS,49,49,2022_Jul_22_1014,2020.2.10,distractmap2,59.973827417916326,"['Left Face', 'Chest', 'Left Face', 'Chest']",
1,"[-0.2, 0.2]",0,0,3,3,3,,,None,None,"[0, 0, 0]",1247.4488456000108,1249.4488611000124,1247.4488456000108,1248.4488569999812,1248.4321994000347,1249.4322245999938,"[0, 0, 0]",1,1247.4488456000108,1249.4488611000124,,,,,,,,,,,,,,,,,,,8,f,2,18,r,MS,49,49,2022_Jul_22_1014,2020.2.10,distractmap2,59.973827417916326,"['Left Face', 'Chest', 'Left Face', 'Chest']",
5,"[0, 0]",1,0,4,4,4,,,None,None,"[0, 0, 0]",1249.5152874999912,None,1249.5152874999912,1250.5155364000238,1250.4988788999617,None,"[0, 0, 0]",1,1249.5152874999912,None,,,,,,,,,,,,,,,,,,,8,f,2,18,r,MS,49,49,2022_Jul_22_1014,2020.2.10,distractmap2,59.973827417916326,"['Left Face', 'Chest', 'Left Face', 'Chest']",
8,"[0, -0.2]",0,0,5,5,5,,,None,None,"[0, 0, 0]",1251.4822140999604,1253.4822539000306,1251.4822140999604,1252.4822276999475,1252.4655504999682,1253.4655585000291,"[0, 0, 0]",1,1251.4822140999604,1253.4822539000306,,,,,,,,,,,,,,,,,,,8,f,2,18,r,MS,49,49,2022_Jul_22_1014,2020.2.10,distractmap2,59.973827417916326,"['Left Face', 'Chest', 'Left Face', 'Chest']",
5,"[0, 0]",1,0,6,6,6,,,None,None,"[0, 0, 0]",1253.498902500025,1255.4989115999779,1253.498902500025,1254.4989086999558,1254.482239700039,1255.4822549000382,"[0, 0, 0]",1,1253.498902500025,1255.4989115999779,,,,,,,,,,,,,,,,,,,8,f,2,18,r,MS,49,49,2022_Jul_22_1014,2020.2.10,distractmap2,59.973827417916326,"['Left Face', 'Chest', 'Left Face', 'Chest']",
7,"[-0.2, -0.2]",0,0,7,7,7,,,None,None,"[0, 0, 0]",1255.5155793000013,1257.5155976000242,1255.5155793000013,1256.515585300047,1256.4989303000038,1257.4989350000396,"[0, 0, 0]",1,1255.5155793000013,1257.5155976000242,,,,,,,,,,,,,,,,,,,8,f,2,18,r,MS,49,49,2022_Jul_22_1014,2020.2.10,distractmap2,59.973827417916326,"['Left Face', 'Chest', 'Left Face', 'Chest']",
5,"[0, 0]",1,0,8,8,8,,,None,None,"[0, 0, 0]",1257.5321749000577,1259.532289099996,1257.5321749000577,1258.5323633999797,1258.5156163000502,1259.5156064999755,"[0, 0, 0]",1,1257.5321749000577,1259.532289099996,,,,,,,,,,,,,,,,,,,8,f,2,18,r,MS,49,49,2022_Jul_22_1014,2020.2.10,distractmap2,59.973827417916326,"['Left Face', 'Chest', 'Left Face', 'Chest']",
7,"[-0.2, -0.2]",1,0,9,9,9,,,None,None,"[0, 0, 0]",1259.5489413000178,1261.5489703000057,1259.5489413000178,1260.5489666999783,1260.5323079000227,1261.5323145999573,"[0, 0, 0]",1,1259.5489413000178,1261.5489703000057,,,,,,,,,,,,,,,,,,,8,f,2,18,r,MS,49,49,2022_Jul_22_1014,2020.2.10,distractmap2,59.973827417916326,"['Left Face', 'Chest', 'Left Face', 'Chest']",
,,,,,,,,,,,,,,,,,,,,,,1261.5656242000405,None,,,,,,,,,,,,,,,,,8,f,2,18,r,MS,49,49,2022_Jul_22_1014,2020.2.10,distractmap2,59.973827417916326,"['Left Face', 'Chest', 'Left Face', 'Chest']",
,,,,,,,,,,,,,,,,,,,,,,,,,,,,,,,,,,,,10.802469135802472,925.9935204799986,,,8,f,2,18,r,MS,49,49,2022_Jul_22_1014,2020.2.10,distractmap2,59.973827417916326,"['Left Face', 'Chest', 'Left Face', 'Chest']",
,,,,,,,1296.582595600048,None,,,,,,,,,,,,,,,,,,,,,,,,,,1276.582429699949,None,12.716049382716053,958.8248551799916,0.01293362001888454,5.00873112003319,8,f,2,18,r,MS,49,49,2022_Jul_22_1014,2020.2.10,distractmap2,59.973827417916326,"['Left Face', 'Chest', 'Left Face', 'Chest']",
,,,,,,,1331.59956230002,None,,,,,,,,,,,,,,,,,,,,,,,,,,1311.5993805000326,None,14.691358024691356,994.9237199800555,0.015195320011116564,5.013410820043646,8,f,2,18,r,MS,49,49,2022_Jul_22_1014,2020.2.10,distractmap2,59.973827417916326,"['Left Face', 'Chest', 'Left Face', 'Chest']",
,,,,,,,1366.6165231999476,None,,,,,,,,,,,,,,,,,,,,,,,,,,1346.616360999993,None,13.33333333333333,1032.207358279964,0.01664051995612681,5.016156619996764,8,f,2,18,r,MS,49,49,2022_Jul_22_1014,2020.2.10,distractmap2,59.973827417916326,"['Left Face', 'Chest', 'Left Face', 'Chest']",
6,"[0.2, 0]",None,0,0,0,0,1623.2523256000131,None,None,None,"[0, 0, 0]",1629.8020852999762,1631.8021071000258,1629.8020852999762,1630.8020903000142,1630.785442500026,1631.7854355999734,"[0, 0, 0]",1,1629.8020852999762,1631.8021071000258,,,,,,1412.717172899982,1412.717172899982,None,space,180.3192855999805,1412.717172899982,None,,,,,0.016647320124320686,5.01614702004008,8,f,2,18,r,MS,49,49,2022_Jul_22_1014,2020.2.10,distractmap2,59.973827417916326,"['Left Face', 'Chest', 'Left Face', 'Chest']",
1,"[-0.2, 0.2]",None,0,1,1,1,,,None,None,"[0, 0, 0]",1631.8187620999524,1633.8187822999898,1631.8187620999524,1632.8187844000058,1632.8021089000395,1633.8021286999574,"[0, 0, 0]",1,1631.8187620999524,1633.8187822999898,,,,,,,,,,,,,,,,,,,8,f,2,18,r,MS,49,49,2022_Jul_22_1014,2020.2.10,distractmap2,59.973827417916326,"['Left Face', 'Chest', 'Left Face', 'Chest']",
6,"[0.2, 0]",1,0,2,2,2,,,None,None,"[0, 0, 0]",1633.8354576999554,1635.8354724999517,1633.8354576999554,1634.8354702000506,1634.8187984999968,1635.8187950999709,"[0, 0, 0]",1,1633.8354576999554,1635.8354724999517,,,,,,,,,,,,,,,,,,,8,f,2,18,r,MS,49,49,2022_Jul_22_1014,2020.2.10,distractmap2,59.973827417916326,"['Left Face', 'Chest', 'Left Face', 'Chest']",
4,"[-0.2, 0]",0,0,3,3,3,,,None,None,"[0, 0, 0]",1635.8521459000185,1637.8521579999942,1635.8521459000185,1636.852141899988,1636.8354842000408,1637.835498200031,"[0, 0, 0]",1,1635.8521459000185,1637.8521579999942,,,,,,,,,,,,,,,,,,,8,f,2,18,r,MS,49,49,2022_Jul_22_1014,2020.2.10,distractmap2,59.973827417916326,"['Left Face', 'Chest', 'Left Face', 'Chest']",
1,"[-0.2, 0.2]",0,0,4,4,4,,,None,None,"[0, 0, 0]",1637.952532800031,None,1637.952532800031,1638.9521678000456,1638.935529200011,None,"[0, 0, 0]",1,1637.952532800031,None,,,,,,,,,,,,,,,,,,,8,f,2,18,r,MS,49,49,2022_Jul_22_1014,2020.2.10,distractmap2,59.973827417916326,"['Left Face', 'Chest', 'Left Face', 'Chest']",
8,"[0, -0.2]",0,0,5,5,5,,,None,None,"[0, 0, 0]",1639.8855183999985,1641.8855251000496,1639.8855183999985,1640.8855225000298,1640.8688480999554,1641.8688607000513,"[0, 0, 0]",1,1639.8855183999985,1641.8855251000496,,,,,,,,,,,,,,,,,,,8,f,2,18,r,MS,49,49,2022_Jul_22_1014,2020.2.10,distractmap2,59.973827417916326,"['Left Face', 'Chest', 'Left Face', 'Chest']",
1,"[-0.2, 0.2]",1,0,6,6,6,,,None,None,"[0, 0, 0]",1641.9021858000197,1643.9022173000267,1641.9021858000197,1642.9022270999849,1642.8855675000232,1643.8854978999589,"[0, 0, 0]",1,1641.9021858000197,1643.9022173000267,,,,,,,,,,,,,,,,,,,8,f,2,18,r,MS,49,49,2022_Jul_22_1014,2020.2.10,distractmap2,59.973827417916326,"['Left Face', 'Chest', 'Left Face', 'Chest']",
8,"[0, -0.2]",1,0,7,7,7,,,None,None,"[0, 0, 0]",1643.9188835000386,1645.9188888999633,1643.9188835000386,1644.9188779999968,1644.902241099975,1645.9022322000237,"[0, 0, 0]",1,1643.9188835000386,1645.9188888999633,,,,,,,,,,,,,,,,,,,8,f,2,18,r,MS,49,49,2022_Jul_22_1014,2020.2.10,distractmap2,59.973827417916326,"['Left Face', 'Chest', 'Left Face', 'Chest']",
1,"[-0.2, 0.2]",1,0,8,8,8,,,None,None,"[0, 0, 0]",1645.9355606000172,1647.9355863999808,1645.9355606000172,1646.9355707999784,1646.9188990000403,1647.9189156000502,"[0, 0, 0]",1,1645.9355606000172,1647.9355863999808,,,,,,,,,,,,,,,,,,,8,f,2,18,r,MS,49,49,2022_Jul_22_1014,2020.2.10,distractmap2,59.973827417916326,"['Left Face', 'Chest', 'Left Face', 'Chest']",
6,"[0.2, 0]",0,0,9,9,9,,,None,None,"[0, 0, 0]",1647.9522381999996,1649.9522656999761,1647.9522381999996,1648.952258000034,1648.9355919000227,1649.935587199987,"[0, 0, 0]",1,1647.9522381999996,1649.9522656999761,,,,,,,,,,,,,,,,,,,8,f,2,18,r,MS,49,49,2022_Jul_22_1014,2020.2.10,distractmap2,59.973827417916326,"['Left Face', 'Chest', 'Left Face', 'Chest']",
,,,,,,,,,,,,,,,,,,,,,,1649.9689102000557,None,,,,,,,,,,,,,,,,,8,f,2,18,r,MS,49,49,2022_Jul_22_1014,2020.2.10,distractmap2,59.973827417916326,"['Left Face', 'Chest', 'Left Face', 'Chest']",
,,,,,,,,,,,,,,,,,,,,,,,,,,,,,,,,,,,,27.65432098765432,1311.0299105800223,,,8,f,2,18,r,MS,49,49,2022_Jul_22_1014,2020.2.10,distractmap2,59.973827417916326,"['Left Face', 'Chest', 'Left Face', 'Chest']",
7,"[-0.2, -0.2]",None,0,0,0,0,1663.236098799971,None,None,None,"[0, 0, 0]",1670.0024329000153,None,1670.0024329000153,1671.0024493000237,1670.9857816000003,1671.9858284000074,"[0, 0, 0]",1,1670.0024329000153,None,,,,,,,,,,,,,,,,,0.013100420008413494,5.009022520040162,8,f,2,18,r,MS,49,49,2022_Jul_22_1014,2020.2.10,distractmap2,59.973827417916326,"['Left Face', 'Chest', 'Left Face', 'Chest']",
7,"[-0.2, -0.2]",None,0,1,1,1,,,None,None,"[0, 0, 0]",1672.0024547999492,1674.0024761999957,1672.0024547999492,1673.0024733999744,1672.9857947999844,1673.9857909999555,"[0, 0, 0]",1,1672.0024547999492,1674.0024761999957,,,,,,,,,,,,,,,,,,,8,f,2,18,r,MS,49,49,2022_Jul_22_1014,2020.2.10,distractmap2,59.973827417916326,"['Left Face', 'Chest', 'Left Face', 'Chest']",
7,"[-0.2, -0.2]",1,0,2,2,2,,,None,None,"[0, 0, 0]",1674.0191368999658,1676.0190700000385,1674.0191368999658,1675.0191330000525,1675.0024823000422,1676.0024951000232,"[0, 0, 0]",1,1674.0191368999658,1676.0190700000385,,,,,,,,,,,,,,,,,,,8,f,2,18,r,MS,49,49,2022_Jul_22_1014,2020.2.10,distractmap2,59.973827417916326,"['Left Face', 'Chest', 'Left Face', 'Chest']",
5,"[0, 0]",0,0,3,3,3,,,None,None,"[0, 0, 0]",1676.0358173999703,1678.0358339999802,1676.0358173999703,1677.0358301999513,1677.019147700048,1678.0191579000093,"[0, 0, 0]",1,1676.0358173999703,1678.0358339999802,,,,,,,,,,,,,,,,,,,8,f,2,18,r,MS,49,49,2022_Jul_22_1014,2020.2.10,distractmap2,59.973827417916326,"['Left Face', 'Chest', 'Left Face', 'Chest']",
1,"[-0.2, 0.2]",0,0,4,4,4,,,None,None,"[0, 0, 0]",1678.102518400061,None,1678.102518400061,1679.1025220999727,1679.0858436999843,None,"[0, 0, 0]",1,1678.102518400061,None,,,,,,,,,,,,,,,,,,,8,f,2,18,r,MS,49,49,2022_Jul_22_1014,2020.2.10,distractmap2,59.973827417916326,"['Left Face', 'Chest', 'Left Face', 'Chest']",
6,"[0.2, 0]",0,0,5,5,5,,,None,None,"[0, 0, 0]",1680.0690888999961,1682.0691994000226,1680.0690888999961,1681.0691838000203,1681.0525229000486,1682.0525187000167,"[0, 0, 0]",1,1680.0690888999961,1682.0691994000226,,,,,,,,,,,,,,,,,,,8,f,2,18,r,MS,49,49,2022_Jul_22_1014,2020.2.10,distractmap2,59.973827417916326,"['Left Face', 'Chest', 'Left Face', 'Chest']",
1,"[-0.2, 0.2]",1,0,6,6,6,,,None,None,"[0, 0, 0]",1682.0858647000277,1684.085883300053,1682.0858647000277,1683.0858758999966,1683.069213700015,1684.0692191000562,"[0, 0, 0]",1,1682.0858647000277,1684.085883300053,,,,,,,,,,,,,,,,,,,8,f,2,18,r,MS,49,49,2022_Jul_22_1014,2020.2.10,distractmap2,59.973827417916326,"['Left Face', 'Chest', 'Left Face', 'Chest']",
7,"[-0.2, -0.2]",0,0,7,7,7,,,None,None,"[0, 0, 0]",1684.1025745000225,1686.1025791000575,1684.1025745000225,1685.1025558999972,1685.085898600053,1686.0858972000424,"[0, 0, 0]",1,1684.1025745000225,1686.1025791000575,,,,,,,,,,,,,,,,,,,8,f,2,18,r,MS,49,49,2022_Jul_22_1014,2020.2.10,distractmap2,59.973827417916326,"['Left Face', 'Chest', 'Left Face', 'Chest']",
6,"[0.2, 0]",0,0,8,8,8,,,None,None,"[0, 0, 0]",1686.1192280000541,1688.1192512999987,1686.1192280000541,1687.1192352999933,1687.1025834999746,1688.102599899983,"[0, 0, 0]",1,1686.1192280000541,1688.1192512999987,,,,,,,,,,,,,,,,,,,8,f,2,18,r,MS,49,49,2022_Jul_22_1014,2020.2.10,distractmap2,59.973827417916326,"['Left Face', 'Chest', 'Left Face', 'Chest']",
7,"[-0.2, -0.2]",1,0,9,9,9,,,None,None,"[0, 0, 0]",1688.1359310999978,1690.1359239000594,1688.1359310999978,1689.135930599994,1689.1192611999577,1690.11927809997,"[0, 0, 0]",1,1688.1359310999978,1690.1359239000594,,,,,,,,,,,,,,,,,,,8,f,2,18,r,MS,49,49,2022_Jul_22_1014,2020.2.10,distractmap2,59.973827417916326,"['Left Face', 'Chest', 'Left Face', 'Chest']",
,,,,,,,,,,,,,,,,,,,,,,1690.1526026000502,None,,,,,,,,,,,,,,,,,8,f,2,18,r,MS,49,49,2022_Jul_22_1014,2020.2.10,distractmap2,59.973827417916326,"['Left Face', 'Chest', 'Left Face', 'Chest']",
,,,,,,,,,,,,,,,,,,,,,,,,,,,,,,,,,,,,30.74074074074074,1356.0298375800485,,,8,f,2,18,r,MS,49,49,2022_Jul_22_1014,2020.2.10,distractmap2,59.973827417916326,"['Left Face', 'Chest', 'Left Face', 'Chest']",
4,"[-0.2, 0]",None,0,0,0,0,1707.3856879000086,None,None,None,"[0, 0, 0]",1710.1861190999625,None,1710.1861190999625,1711.1861215999816,1711.1694524999475,1712.1694702999666,"[0, 0, 0]",1,1710.1861190999625,None,,,,,,,,,,,,,,,,,0.013548220042139292,5.009973620064557,8,f,2,18,r,MS,49,49,2022_Jul_22_1014,2020.2.10,distractmap2,59.973827417916326,"['Left Face', 'Chest', 'Left Face', 'Chest']",
5,"[0, 0]",None,0,1,1,1,,,None,None,"[0, 0, 0]",1712.1861052999739,1714.1861391999992,1712.1861052999739,1713.1861225999892,1713.1694676000625,1714.1694898999995,"[0, 0, 0]",1,1712.1861052999739,1714.1861391999992,,,,,,,,,,,,,,,,,,,8,f,2,18,r,MS,49,49,2022_Jul_22_1014,2020.2.10,distractmap2,59.973827417916326,"['Left Face', 'Chest', 'Left Face', 'Chest']",
6,"[0.2, 0]",0,0,2,2,2,,,None,None,"[0, 0, 0]",1714.2028168999823,1716.2028215000173,1714.2028168999823,1715.2031713000033,1715.186528500053,1716.1861465000547,"[0, 0, 0]",1,1714.2028168999823,1716.2028215000173,,,,,,,,,,,,,,,,,,,8,f,2,18,r,MS,49,49,2022_Jul_22_1014,2020.2.10,distractmap2,59.973827417916326,"['Left Face', 'Chest', 'Left Face', 'Chest']",
1,"[-0.2, 0.2]",0,0,3,3,3,,,None,None,"[0, 0, 0]",1716.2194973999867,1718.2195298000006,1716.2194973999867,1717.2195085999556,1717.2028417000547,1718.2028413000517,"[0, 0, 0]",1,1716.2194973999867,1718.2195298000006,,,,,,,,,,,,,,,,,,,8,f,2,18,r,MS,49,49,2022_Jul_22_1014,2020.2.10,distractmap2,59.973827417916326,"['Left Face', 'Chest', 'Left Face', 'Chest']",
6,"[0.2, 0]",1,0,4,4,4,,,None,None,"[0, 0, 0]",1718.2866206000326,None,1718.2866206000326,1719.2861886000028,1719.2695147000486,None,"[0, 0, 0]",1,1718.2866206000326,None,,,,,,,,,,,,,,,,,,,8,f,2,18,r,MS,49,49,2022_Jul_22_1014,2020.2.10,distractmap2,59.973827417916326,"['Left Face', 'Chest', 'Left Face', 'Chest']",
1,"[-0.2, 0.2]",1,0,5,5,5,,,None,None,"[0, 0, 0]",1720.2528180000372,1722.252880700049,1720.2528180000372,1721.2528597000055,1721.2362014000537,1722.236201300053,"[0, 0, 0]",1,1720.2528180000372,1722.252880700049,,,,,,,,,,,,,,,,,,,8,f,2,18,r,MS,49,49,2022_Jul_22_1014,2020.2.10,distractmap2,59.973827417916326,"['Left Face', 'Chest', 'Left Face', 'Chest']",
2,"[0, 0.2]",0,0,6,6,6,,,None,None,"[0, 0, 0]",1722.2695596000412,1724.2695654999698,1722.2695596000412,1723.269565799972,1723.2528843999607,1724.2529018999776,"[0, 0, 0]",1,1722.2695596000412,1724.2695654999698,,,,,,,,,,,,,,,,,,,8,f,2,18,r,MS,49,49,2022_Jul_22_1014,2020.2.10,distractmap2,59.973827417916326,"['Left Face', 'Chest', 'Left Face', 'Chest']",
3,"[0.2, 0.2]",0,0,7,7,7,,,None,None,"[0, 0, 0]",1724.286222500028,1726.2862432999536,1724.286222500028,1725.2862417000579,1725.269565399969,1726.2695795999607,"[0, 0, 0]",1,1724.286222500028,1726.2862432999536,,,,,,,,,,,,,,,,,,,8,f,2,18,r,MS,49,49,2022_Jul_22_1014,2020.2.10,distractmap2,59.973827417916326,"['Left Face', 'Chest', 'Left Face', 'Chest']",
6,"[0.2, 0]",0,0,8,8,8,,,None,None,"[0, 0, 0]",1726.3029183000326,1728.302933500032,1726.3029183000326,1727.3029184000334,1727.286241200054,1728.286258899956,"[0, 0, 0]",1,1726.3029183000326,1728.302933500032,,,,,,,,,,,,,,,,,,,8,f,2,18,r,MS,49,49,2022_Jul_22_1014,2020.2.10,distractmap2,59.973827417916326,"['Left Face', 'Chest', 'Left Face', 'Chest']",
3,"[0.2, 0.2]",1,0,9,9,9,,,None,None,"[0, 0, 0]",1728.31959129998,1730.3196132000303,1728.31959129998,1729.3196071999846,1729.3029276999878,1730.302944199997,"[0, 0, 0]",1,1728.31959129998,1730.3196132000303,,,,,,,,,,,,,,,,,,,8,f,2,18,r,MS,49,49,2022_Jul_22_1014,2020.2.10,distractmap2,59.973827417916326,"['Left Face', 'Chest', 'Left Face', 'Chest']",
,,,,,,,,,,,,,,,,,,,,,,1730.3362782000331,None,,,,,,,,,,,,,,,,,8,f,2,18,r,MS,49,49,2022_Jul_22_1014,2020.2.10,distractmap2,59.973827417916326,"['Left Face', 'Chest', 'Left Face', 'Chest']",
,,,,,,,,,,,,,,,,,,,,,,,,,,,,,,,,,,,,31.41975308641975,1394.4469987800112,,,8,f,2,18,r,MS,49,49,2022_Jul_22_1014,2020.2.10,distractmap2,59.973827417916326,"['Left Face', 'Chest', 'Left Face', 'Chest']",
2,"[0, 0.2]",None,0,0,0,0,1747.3531032999745,None,None,None,"[0, 0, 0]",1750.3531002999516,1752.3531338999746,1750.3531002999516,1751.3531258000294,1751.3531258000294,1752.3531338999746,"[0, 0, 0]",1,1750.3531002999516,1752.3531338999746,,,,,,,,,,,,,,,,,0.013429520069621503,5.009753720019944,8,f,2,18,r,MS,49,49,2022_Jul_22_1014,2020.2.10,distractmap2,59.973827417916326,"['Left Face', 'Chest', 'Left Face', 'Chest']",
5,"[0, 0]",None,0,1,1,1,,,None,None,"[0, 0, 0]",1752.3698074000422,1754.369808700052,1752.3698074000422,1753.3698012999957,1753.3531433000462,1754.3531556000235,"[0, 0, 0]",1,1752.3698074000422,1754.369808700052,,,,,,,,,,,,,,,,,,,8,f,2,18,r,MS,49,49,2022_Jul_22_1014,2020.2.10,distractmap2,59.973827417916326,"['Left Face', 'Chest', 'Left Face', 'Chest']",
6,"[0.2, 0]",0,0,2,2,2,,,None,None,"[0, 0, 0]",1754.3865735,1756.386513400008,1754.3865735,1755.386501800036,1755.369826799957,1756.3698367000325,"[0, 0, 0]",1,1754.3865735,1756.386513400008,,,,,,,,,,,,,,,,,,,8,f,2,18,r,MS,49,49,2022_Jul_22_1014,2020.2.10,distractmap2,59.973827417916326,"['Left Face', 'Chest', 'Left Face', 'Chest']",
1,"[-0.2, 0.2]",0,0,3,3,3,,,None,None,"[0, 0, 0]",1756.4030964999693,1758.403192400001,1756.4030964999693,1757.4031717999605,1757.3865135000087,1758.386525399983,"[0, 0, 0]",1,1756.4030964999693,1758.403192400001,,,,,,,,,,,,,,,,,,,8,f,2,18,r,MS,49,49,2022_Jul_22_1014,2020.2.10,distractmap2,59.973827417916326,"['Left Face', 'Chest', 'Left Face', 'Chest']",
6,"[0.2, 0]",1,0,4,4,4,,,None,None,"[0, 0, 0]",1758.41984950006,1760.4198662999552,1758.41984950006,1759.4198587000137,1759.4031955000246,1760.4032033999683,"[0, 0, 0]",1,1758.41984950006,1760.4198662999552,,,,,,,,,,,,,,,,,,,8,f,2,18,r,MS,49,49,2022_Jul_22_1014,2020.2.10,distractmap2,59.973827417916326,"['Left Face', 'Chest', 'Left Face', 'Chest']",
6,"[0.2, 0]",0,0,5,5,5,,,None,None,"[0, 0, 0]",1760.4365506999893,1762.4365593000548,1760.4365506999893,1761.4369271000614,1761.4198680999689,1762.4198908000253,"[0, 0, 0]",1,1760.4365506999893,1762.4365593000548,,,,,,,,,,,,,,,,,,,8,f,2,18,r,MS,49,49,2022_Jul_22_1014,2020.2.10,distractmap2,59.973827417916326,"['Left Face', 'Chest', 'Left Face', 'Chest']",
9,"[0.2, -0.2]",0,0,6,6,6,,,None,None,"[0, 0, 0]",1762.453221600037,1764.4532397000585,1762.453221600037,1763.453236500034,1763.4365780999651,1764.4365775999613,"[0, 0, 0]",1,1762.453221600037,1764.4532397000585,,,,,,,,,,,,,,,,,,,8,f,2,18,r,MS,49,49,2022_Jul_22_1014,2020.2.10,distractmap2,59.973827417916326,"['Left Face', 'Chest', 'Left Face', 'Chest']",
6,"[0.2, 0]",1,0,7,7,7,,,None,None,"[0, 0, 0]",1764.4699041000567,1766.46992329997,1764.4699041000567,1765.4699034000514,1765.4532445999794,1766.4532632000046,"[0, 0, 0]",1,1764.4699041000567,1766.46992329997,,,,,,,,,,,,,,,,,,,8,f,2,18,r,MS,49,49,2022_Jul_22_1014,2020.2.10,distractmap2,59.973827417916326,"['Left Face', 'Chest', 'Left Face', 'Chest']",
3,"[0.2, 0.2]",0,0,8,8,8,,,None,None,"[0, 0, 0]",1766.4865867999615,1768.4865035000257,1766.4865867999615,1767.486605299986,1767.4699286000105,1768.4699308000272,"[0, 0, 0]",1,1766.4865867999615,1768.4865035000257,,,,,,,,,,,,,,,,,,,8,f,2,18,r,MS,49,49,2022_Jul_22_1014,2020.2.10,distractmap2,59.973827417916326,"['Left Face', 'Chest', 'Left Face', 'Chest']",
9,"[0.2, -0.2]",0,0,9,9,9,,,None,None,"[0, 0, 0]",1768.5032787000528,1770.5032883000094,1768.5032787000528,1769.5032876000041,1769.4866213999921,1770.4866331999656,"[0, 0, 0]",0,1768.5032787000528,1770.5032883000094,,,,,,,,,,,,,,,,,,,8,f,2,18,r,MS,49,49,2022_Jul_22_1014,2020.2.10,distractmap2,59.973827417916326,"['Left Face', 'Chest', 'Left Face', 'Chest']",
,,,,,,,,,,,,,,,,,,,,,,1770.51995300001,None,,,,,,,,,,,,,,,,,8,f,2,18,r,MS,49,49,2022_Jul_22_1014,2020.2.10,distractmap2,59.973827417916326,"['Left Face', 'Chest', 'Left Face', 'Chest']",
3,"[0.2, 0.2]",None,0,0,0,0,1782.5367194999708,None,None,None,"[0, 0, 0]",1785.5367391000036,None,1785.5367391000036,1786.5367571000243,1786.5200984999537,1787.5201031999895,"[0, 0, 0]",1,1785.5367391000036,None,,,,,,,,,,,,,,,,,,,8,f,2,18,r,MS,49,49,2022_Jul_22_1014,2020.2.10,distractmap2,59.973827417916326,"['Left Face', 'Chest', 'Left Face', 'Chest']",
9,"[0.2, -0.2]",None,0,1,1,1,,,None,None,"[0, 0, 0]",1787.5367758000502,1789.5367949999636,1787.5367758000502,1788.5367677999893,1788.5201112000505,1789.5201201000018,"[0, 0, 0]",1,1787.5367758000502,1789.5367949999636,,,,,,,,,,,,,,,,,,,8,f,2,18,r,MS,49,49,2022_Jul_22_1014,2020.2.10,distractmap2,59.973827417916326,"['Left Face', 'Chest', 'Left Face', 'Chest']",
3,"[0.2, 0.2]",1,0,2,2,2,,,None,None,"[0, 0, 0]",1789.5534509000136,1791.5535217999713,1789.5534509000136,1790.5534939999925,1790.5367876000237,1791.5368009000085,"[0, 0, 0]",1,1789.5534509000136,1791.5535217999713,,,,,,,,,,,,,,,,,,,8,f,2,18,r,MS,49,49,2022_Jul_22_1014,2020.2.10,distractmap2,59.973827417916326,"['Left Face', 'Chest', 'Left Face', 'Chest']",
7,"[-0.2, -0.2]",0,0,3,3,3,,,None,None,"[0, 0, 0]",1791.5701237999601,1793.5701640000334,1791.5701237999601,1792.5701573999831,1792.5534805000061,1793.553501300048,"[0, 0, 0]",1,1791.5701237999601,1793.5701640000334,,,,,,,,,,,,,,,,,,,8,f,2,18,r,MS,49,49,2022_Jul_22_1014,2020.2.10,distractmap2,59.973827417916326,"['Left Face', 'Chest', 'Left Face', 'Chest']",
8,"[0, -0.2]",0,0,4,4,4,,,None,None,"[0, 0, 0]",1793.5868140000384,1795.5868371999823,1793.5868140000384,1794.5868290000362,1794.5696722000139,1795.5701700999634,"[0, 0, 0]",1,1793.5868140000384,1795.5868371999823,,,,,,,,,,,,,,,,,,,8,f,2,18,r,MS,49,49,2022_Jul_22_1014,2020.2.10,distractmap2,59.973827417916326,"['Left Face', 'Chest', 'Left Face', 'Chest']",
4,"[-0.2, 0]",0,0,5,5,5,,,None,None,"[0, 0, 0]",1795.6035184999928,1797.6035399000393,1795.6035184999928,1796.6035258000484,1796.5868529999861,1797.5868499999633,"[0, 0, 0]",1,1795.6035184999928,1797.6035399000393,,,,,,,,,,,,,,,,,,,8,f,2,18,r,MS,49,49,2022_Jul_22_1014,2020.2.10,distractmap2,59.973827417916326,"['Left Face', 'Chest', 'Left Face', 'Chest']",
4,"[-0.2, 0]",0,0,6,6,6,,,None,None,"[0, 0, 0]",1797.6201822999865,1799.6202069000574,1797.6201822999865,1798.620192399947,1798.603545699967,1799.6035372000188,"[0, 0, 0]",1,1797.6201822999865,1799.6202069000574,,,,,,,,,,,,,,,,,,,8,f,2,18,r,MS,49,49,2022_Jul_22_1014,2020.2.10,distractmap2,59.973827417916326,"['Left Face', 'Chest', 'Left Face', 'Chest']",
1,"[-0.2, 0.2]",0,0,7,7,7,,,None,None,"[0, 0, 0]",1799.6368718000595,1801.6368934999919,1799.6368718000595,1800.6368885999545,1800.6202035000315,1801.620220700046,"[0, 0, 0]",1,1799.6368718000595,1801.6368934999919,,,,,,,,,,,,,,,,,,,8,f,2,18,r,MS,49,49,2022_Jul_22_1014,2020.2.10,distractmap2,59.973827417916326,"['Left Face', 'Chest', 'Left Face', 'Chest']",
4,"[-0.2, 0]",1,0,8,8,8,,,None,None,"[0, 0, 0]",1801.653556699981,1803.653595300042,1801.653556699981,1802.653461699956,1802.636895100004,1803.6369054999668,"[0, 0, 0]",1,1801.653556699981,1803.653595300042,,,,,,,,,,,,,,,,,,,8,f,2,18,r,MS,49,49,2022_Jul_22_1014,2020.2.10,distractmap2,59.973827417916326,"['Left Face', 'Chest', 'Left Face', 'Chest']",
8,"[0, -0.2]",0,0,9,9,9,,,None,None,"[0, 0, 0]",1803.6702459000517,1805.670247699949,1803.6702459000517,1804.6702406000113,1804.6535993999569,1805.6535971000558,"[0, 0, 0]",1,1803.6702459000517,1805.670247699949,,,,,,,,,,,,,,,,,,,8,f,2,18,r,MS,49,49,2022_Jul_22_1014,2020.2.10,distractmap2,59.973827417916326,"['Left Face', 'Chest', 'Left Face', 'Chest']",
,,,,,,,,,,,,,,,,,,,,,,1805.6868859999813,None,,,,,,,,,,,,,,,,,8,f,2,18,r,MS,49,49,2022_Jul_22_1014,2020.2.10,distractmap2,59.973827417916326,"['Left Face', 'Chest', 'Left Face', 'Chest']",
2,"[0, 0.2]",None,0,0,0,0,1815.7036875999765,None,None,None,"[0, 0, 0]",1820.7037364999996,1822.7037651999854,1820.7037364999996,1821.7037224000087,1821.686965300003,1822.6870651999488,"[0, 0, 0]",1,1820.7037364999996,1822.7037651999854,,,,,,,,,,,,,,,,,,,8,f,2,18,r,MS,49,49,2022_Jul_22_1014,2020.2.10,distractmap2,59.973827417916326,"['Left Face', 'Chest', 'Left Face', 'Chest']",
5,"[0, 0]",None,0,1,1,1,,,None,None,"[0, 0, 0]",1822.7204163999995,1824.7204343000194,1822.7204163999995,1823.7204230000498,1823.7037613999564,1824.703757600044,"[0, 0, 0]",1,1822.7204163999995,1824.7204343000194,,,,,,,,,,,,,,,,,,,8,f,2,18,r,MS,49,49,2022_Jul_22_1014,2020.2.10,distractmap2,59.973827417916326,"['Left Face', 'Chest', 'Left Face', 'Chest']",
3,"[0.2, 0.2]",0,0,2,2,2,,,None,None,"[0, 0, 0]",1824.7370927999727,1826.7370976000093,1824.7370927999727,1825.7370966000017,1825.7204385000514,1826.7204294999829,"[0, 0, 0]",1,1824.7370927999727,1826.7370976000093,,,,,,,,,,,,,,,,,,,8,f,2,18,r,MS,49,49,2022_Jul_22_1014,2020.2.10,distractmap2,59.973827417916326,"['Left Face', 'Chest', 'Left Face', 'Chest']",
5,"[0, 0]",1,0,3,3,3,,,None,None,"[0, 0, 0]",1826.7537702999543,1828.7537852999521,1826.7537702999543,1827.7537730999757,1827.7366212999914,1828.7371182000497,"[0, 0, 0]",1,1826.7537702999543,1828.7537852999521,,,,,,,,,,,,,,,,,,,8,f,2,18,r,MS,49,49,2022_Jul_22_1014,2020.2.10,distractmap2,59.973827417916326,"['Left Face', 'Chest', 'Left Face', 'Chest']",
2,"[0, 0.2]",0,0,4,4,4,,,None,None,"[0, 0, 0]",1828.7704479000531,1830.770492700045,1828.7704479000531,1829.7704678999726,1829.7541315000271,1830.7538038999774,"[0, 0, 0]",1,1828.7704479000531,1830.770492700045,,,,,,,,,,,,,,,,,,,8,f,2,18,r,MS,49,49,2022_Jul_22_1014,2020.2.10,distractmap2,59.973827417916326,"['Left Face', 'Chest', 'Left Face', 'Chest']",
8,"[0, -0.2]",0,0,5,5,5,,,None,None,"[0, 0, 0]",1830.787144599948,1832.7870666000526,1830.787144599948,1831.7866286999779,1831.770421299967,1832.7704890000168,"[0, 0, 0]",1,1830.787144599948,1832.7870666000526,,,,,,,,,,,,,,,,,,,8,f,2,18,r,MS,49,49,2022_Jul_22_1014,2020.2.10,distractmap2,59.973827417916326,"['Left Face', 'Chest', 'Left Face', 'Chest']",
4,"[-0.2, 0]",0,0,6,6,6,,,None,None,"[0, 0, 0]",1832.803832400008,1834.8038638000144,1832.803832400008,1833.8038260999601,1833.787157600047,1834.7871655999916,"[0, 0, 0]",1,1832.803832400008,1834.8038638000144,,,,,,,,,,,,,,,,,,,8,f,2,18,r,MS,49,49,2022_Jul_22_1014,2020.2.10,distractmap2,59.973827417916326,"['Left Face', 'Chest', 'Left Face', 'Chest']",
8,"[0, -0.2]",1,0,7,7,7,,,None,None,"[0, 0, 0]",1834.8205110999988,1836.8205305000301,1834.8205110999988,1835.8204179999884,1835.8038493000204,1836.80385450006,"[0, 0, 0]",1,1834.8205110999988,1836.8205305000301,,,,,,,,,,,,,,,,,,,8,f,2,18,r,MS,49,49,2022_Jul_22_1014,2020.2.10,distractmap2,59.973827417916326,"['Left Face', 'Chest', 'Left Face', 'Chest']",
7,"[-0.2, -0.2]",0,0,8,8,8,,,None,None,"[0, 0, 0]",1836.8372200999875,1838.8372068000026,1836.8372200999875,1837.8371896999888,1837.8205324000446,1838.8205521999625,"[0, 0, 0]",1,1836.8372200999875,1838.8372068000026,,,,,,,,,,,,,,,,,,,8,f,2,18,r,MS,49,49,2022_Jul_22_1014,2020.2.10,distractmap2,59.973827417916326,"['Left Face', 'Chest', 'Left Face', 'Chest']",
8,"[0, -0.2]",1,0,9,9,9,,,None,None,"[0, 0, 0]",1838.8538786000572,1840.8538861999987,1838.8538786000572,1839.8538730000146,1839.8372136000544,1840.8372324999655,"[0, 0, 0]",1,1838.8538786000572,1840.8538861999987,,,,,,,,,,,,,,,,,,,8,f,2,18,r,MS,49,49,2022_Jul_22_1014,2020.2.10,distractmap2,59.973827417916326,"['Left Face', 'Chest', 'Left Face', 'Chest']",
,,,,,,,,,,,,,,,,,,,,,,1840.870562599972,None,,,,,,,,,,,,,,,,,8,f,2,18,r,MS,49,49,2022_Jul_22_1014,2020.2.10,distractmap2,59.973827417916326,"['Left Face', 'Chest', 'Left Face', 'Chest']",
,,,,,,,1870.8874431999866,None,,,,,,,,,,,,,,,,,,,,,,,,,,1850.8873175999615,None,34.50617283950617,1531.6299316799268,,,8,f,2,18,r,MS,49,49,2022_Jul_22_1014,2020.2.10,distractmap2,59.973827417916326,"['Left Face', 'Chest', 'Left Face', 'Chest']",
,,,,,,,1905.9045035999734,None,,,,,,,,,,,,,,,,,,,,,,,,,,1885.9042799000163,None,34.5679012345679,1567.7805465799756,0.01499012007843703,5.012829720042646,8,f,2,18,r,MS,49,49,2022_Jul_22_1014,2020.2.10,distractmap2,59.973827417916326,"['Left Face', 'Chest', 'Left Face', 'Chest']",
,,,,,,,1940.921406700043,None,,,,,,,,,,,,,,,,,,,,,,,,,,1920.9212479999987,None,36.41975308641975,1601.8955548800295,0.014663820038549602,5.012202520039864,8,f,2,18,r,MS,49,49,2022_Jul_22_1014,2020.2.10,distractmap2,59.973827417916326,"['Left Face', 'Chest', 'Left Face', 'Chest']",
2,"[0, 0.2]",None,0,0,0,0,2046.1723575999495,None,None,None,"[0, 0, 0]",2050.955721699982,None,2050.955721699982,2051.955717399949,2051.939035300049,2052.939047700027,"[0, 0, 0]",1,2050.955721699982,None,,,,,,,,,,,,,2015.922057799995,None,,,0.016642519971355796,5.016132719931193,8,f,2,18,r,MS,49,49,2022_Jul_22_1014,2020.2.10,distractmap2,59.973827417916326,"['Left Face', 'Chest', 'Left Face', 'Chest']",
2,"[0, 0.2]",None,0,1,1,1,,,None,None,"[0, 0, 0]",2052.955718699959,2054.9557798999595,2052.955718699959,2053.9557193999644,2053.9390598000027,2054.9390539999586,"[0, 0, 0]",1,2052.955718699959,2054.9557798999595,,,,,,,,,,,,,,,,,,,8,f,2,18,r,MS,49,49,2022_Jul_22_1014,2020.2.10,distractmap2,59.973827417916326,"['Left Face', 'Chest', 'Left Face', 'Chest']",
2,"[0, 0.2]",1,0,2,2,2,,,None,None,"[0, 0, 0]",2054.972398999962,2056.9723603000166,2054.972398999962,2055.9724042000016,2055.95574070001,2056.955762800062,"[0, 0, 0]",1,2054.972398999962,2056.9723603000166,,,,,,,,,,,,,,,,,,,8,f,2,18,r,MS,49,49,2022_Jul_22_1014,2020.2.10,distractmap2,59.973827417916326,"['Left Face', 'Chest', 'Left Face', 'Chest']",
8,"[0, -0.2]",0,0,3,3,3,,,None,None,"[0, 0, 0]",2056.9890755000524,2058.9890948999673,2056.9890755000524,2057.9890963999787,2057.9724294999614,2058.9724800999975,"[0, 0, 0]",1,2056.9890755000524,2058.9890948999673,,,,,,,,,,,,,,,,,,,8,f,2,18,r,MS,49,49,2022_Jul_22_1014,2020.2.10,distractmap2,59.973827417916326,"['Left Face', 'Chest', 'Left Face', 'Chest']",
2,"[0, 0.2]",1,0,4,4,4,,,None,None,"[0, 0, 0]",2059.05615650001,None,2059.05615650001,2060.055771399988,2060.039115300053,None,"[0, 0, 0]",1,2059.05615650001,None,,,,,,,,,,,,,,,,,,,8,f,2,18,r,MS,49,49,2022_Jul_22_1014,2020.2.10,distractmap2,59.973827417916326,"['Left Face', 'Chest', 'Left Face', 'Chest']",
5,"[0, 0]",0,0,5,5,5,,,None,None,"[0, 0, 0]",2061.0224514000583,2063.0224731999915,2061.0224514000583,2062.02245639998,2062.0058036999544,2063.0058021000586,"[0, 0, 0]",1,2061.0224514000583,2063.0224731999915,,,,,,,,,,,,,,,,,,,8,f,2,18,r,MS,49,49,2022_Jul_22_1014,2020.2.10,distractmap2,59.973827417916326,"['Left Face', 'Chest', 'Left Face', 'Chest']",
1,"[-0.2, 0.2]",0,0,6,6,6,,,None,None,"[0, 0, 0]",2063.0391257000156,2065.039159100037,2063.0391257000156,2064.0392198000336,2064.0224778000265,2065.022484199959,"[0, 0, 0]",1,2063.0391257000156,2065.039159100037,,,,,,,,,,,,,,,,,,,8,f,2,18,r,MS,49,49,2022_Jul_22_1014,2020.2.10,distractmap2,59.973827417916326,"['Left Face', 'Chest', 'Left Face', 'Chest']",
1,"[-0.2, 0.2]",0,0,7,7,7,,,None,None,"[0, 0, 0]",2065.0552782999584,2067.0557860999834,2065.0552782999584,2066.0558306999737,2066.039162799949,2067.039169800002,"[0, 0, 0]",1,2065.0552782999584,2067.0557860999834,,,,,,,,,,,,,,,,,,,8,f,2,18,r,MS,49,49,2022_Jul_22_1014,2020.2.10,distractmap2,59.973827417916326,"['Left Face', 'Chest', 'Left Face', 'Chest']",
6,"[0.2, 0]",0,0,8,8,8,,,None,None,"[0, 0, 0]",2067.0724986999994,2069.07252409996,2067.0724986999994,2068.072523199953,2068.055842499947,2069.0558495000005,"[0, 0, 0]",1,2067.0724986999994,2069.07252409996,,,,,,,,,,,,,,,,,,,8,f,2,18,r,MS,49,49,2022_Jul_22_1014,2020.2.10,distractmap2,59.973827417916326,"['Left Face', 'Chest', 'Left Face', 'Chest']",
1,"[-0.2, 0.2]",1,0,9,9,9,,,None,None,"[0, 0, 0]",2069.0891937999986,2071.0891989000374,2069.0891937999986,2070.089189399965,2070.0725642000325,2071.072555199964,"[0, 0, 0]",1,2069.0891937999986,2071.0891989000374,,,,,,,,,,,,,,,,,,,8,f,2,18,r,MS,49,49,2022_Jul_22_1014,2020.2.10,distractmap2,59.973827417916326,"['Left Face', 'Chest', 'Left Face', 'Chest']",
,,,,,,,,,,,,,,,,,,,,,,2071.1058092999738,None,,,,,,,,,,,,,,,,,8,f,2,18,r,MS,49,49,2022_Jul_22_1014,2020.2.10,distractmap2,59.973827417916326,"['Left Face', 'Chest', 'Left Face', 'Chest']",
,,,,,,,,,,,,,,,,,,,,,,,,,,,,,,,,,,,,34.69135802469136,1733.683257680037,,,8,f,2,18,r,MS,49,49,2022_Jul_22_1014,2020.2.10,distractmap2,59.973827417916326,"['Left Face', 'Chest', 'Left Face', 'Chest']",
3,"[0.2, 0.2]",None,0,0,0,0,2086.373021999956,None,None,None,"[0, 0, 0]",2091.139378400054,2093.1394024000037,2091.139378400054,2092.1393877000082,2092.122734099976,2093.1227235000115,"[0, 0, 0]",1,2091.139378400054,2093.1394024000037,,,,,,,,,,,,,,,,,0.013427520054392517,5.009735620114952,8,f,2,18,r,MS,49,49,2022_Jul_22_1014,2020.2.10,distractmap2,59.973827417916326,"['Left Face', 'Chest', 'Left Face', 'Chest']",
3,"[0.2, 0.2]",None,0,1,1,1,,,None,None,"[0, 0, 0]",2093.15605520003,2095.156089200056,2093.15605520003,2094.1560717000393,2094.139406900038,2095.139405700029,"[0, 0, 0]",1,2093.15605520003,2095.156089200056,,,,,,,,,,,,,,,,,,,8,f,2,18,r,MS,49,49,2022_Jul_22_1014,2020.2.10,distractmap2,59.973827417916326,"['Left Face', 'Chest', 'Left Face', 'Chest']",
5,"[0, 0]",0,0,2,2,2,,,None,None,"[0, 0, 0]",2095.172672900022,2097.172766200034,2095.172672900022,2096.172656800016,2096.156092799967,2097.156097500003,"[0, 0, 0]",1,2095.172672900022,2097.172766200034,,,,,,,,,,,,,,,,,,,8,f,2,18,r,MS,49,49,2022_Jul_22_1014,2020.2.10,distractmap2,59.973827417916326,"['Left Face', 'Chest', 'Left Face', 'Chest']",
1,"[-0.2, 0.2]",0,0,3,3,3,,,None,None,"[0, 0, 0]",2097.1894368999638,2099.189450499951,2097.1894368999638,2098.18944820005,2098.172779900022,2099.172804599977,"[0, 0, 0]",1,2097.1894368999638,2099.189450499951,,,,,,,,,,,,,,,,,,,8,f,2,18,r,MS,49,49,2022_Jul_22_1014,2020.2.10,distractmap2,59.973827417916326,"['Left Face', 'Chest', 'Left Face', 'Chest']",
5,"[0, 0]",1,0,4,4,4,,,None,None,"[0, 0, 0]",2099.2727893999545,None,2099.2727893999545,2100.2731569999596,2100.256464599981,None,"[0, 0, 0]",1,2099.2727893999545,None,,,,,,,,,,,,,,,,,,,8,f,2,18,r,MS,49,49,2022_Jul_22_1014,2020.2.10,distractmap2,59.973827417916326,"['Left Face', 'Chest', 'Left Face', 'Chest']",
8,"[0, -0.2]",0,0,5,5,5,,,None,None,"[0, 0, 0]",2101.2228056000313,2103.222800599993,2101.2228056000313,2102.222805300029,2102.206145000062,2103.2061530000065,"[0, 0, 0]",1,2101.2228056000313,2103.222800599993,,,,,,,,,,,,,,,,,,,8,f,2,18,r,MS,49,49,2022_Jul_22_1014,2020.2.10,distractmap2,59.973827417916326,"['Left Face', 'Chest', 'Left Face', 'Chest']",
5,"[0, 0]",1,0,6,6,6,,,None,None,"[0, 0, 0]",2103.239476699964,2105.239503900055,2103.239476699964,2104.2394900999498,2104.2228264999576,2105.222827599966,"[0, 0, 0]",1,2103.239476699964,2105.239503900055,,,,,,,,,,,,,,,,,,,8,f,2,18,r,MS,49,49,2022_Jul_22_1014,2020.2.10,distractmap2,59.973827417916326,"['Left Face', 'Chest', 'Left Face', 'Chest']",
7,"[-0.2, -0.2]",0,0,7,7,7,,,None,None,"[0, 0, 0]",2105.256173199974,2107.25618320005,2105.256173199974,2106.2561678000493,2106.239514500019,2107.2395212999545,"[0, 0, 0]",1,2105.256173199974,2107.25618320005,,,,,,,,,,,,,,,,,,,8,f,2,18,r,MS,49,49,2022_Jul_22_1014,2020.2.10,distractmap2,59.973827417916326,"['Left Face', 'Chest', 'Left Face', 'Chest']",
5,"[0, 0]",1,0,8,8,8,,,None,None,"[0, 0, 0]",2107.272847300046,2109.2728778000455,2107.272847300046,2108.272865399951,2108.256197800045,2109.2561951000243,"[0, 0, 0]",1,2107.272847300046,2109.2728778000455,,,,,,,,,,,,,,,,,,,8,f,2,18,r,MS,49,49,2022_Jul_22_1014,2020.2.10,distractmap2,59.973827417916326,"['Left Face', 'Chest', 'Left Face', 'Chest']",
7,"[-0.2, -0.2]",1,0,9,9,9,,,None,None,"[0, 0, 0]",2109.289536600001,2111.289565299987,2109.289536600001,2110.289550799993,2110.2728765000356,2111.272884899983,"[0, 0, 0]",1,2109.289536600001,2111.289565299987,,,,,,,,,,,,,,,,,,,8,f,2,18,r,MS,49,49,2022_Jul_22_1014,2020.2.10,distractmap2,59.973827417916326,"['Left Face', 'Chest', 'Left Face', 'Chest']",
,,,,,,,,,,,,,,,,,,,,,,2111.3063352999743,None,,,,,,,,,,,,,,,,,8,f,2,18,r,MS,49,49,2022_Jul_22_1014,2020.2.10,distractmap2,59.973827417916326,"['Left Face', 'Chest', 'Left Face', 'Chest']",
,,,,,,,,,,,,,,,,,,,,,,,,,,,,,,,,,,,,31.666666666666664,1771.6344054799993,,,8,f,2,18,r,MS,49,49,2022_Jul_22_1014,2020.2.10,distractmap2,59.973827417916326,"['Left Face', 'Chest', 'Left Face', 'Chest']",
6,"[0.2, 0]",None,0,0,0,0,2124.5566921000136,None,None,None,"[0, 0, 0]",2131.3397298000054,2133.339749500039,2131.3397298000054,2132.339733300032,2132.323076599976,2133.3230639999965,"[0, 0, 0]",1,2131.3397298000054,2133.339749500039,,,,,,,,,,,,,,,,,0.01258232002146542,5.008022419991903,8,f,2,18,r,MS,49,49,2022_Jul_22_1014,2020.2.10,distractmap2,59.973827417916326,"['Left Face', 'Chest', 'Left Face', 'Chest']",
1,"[-0.2, 0.2]",None,0,1,1,1,,,None,None,"[0, 0, 0]",2133.356400700053,2135.356432599947,2133.356400700053,2134.3564133000327,2134.3397668000543,2135.3397616000148,"[0, 0, 0]",1,2133.356400700053,2135.356432599947,,,,,,,,,,,,,,,,,,,8,f,2,18,r,MS,49,49,2022_Jul_22_1014,2020.2.10,distractmap2,59.973827417916326,"['Left Face', 'Chest', 'Left Face', 'Chest']",
6,"[0.2, 0]",1,0,2,2,2,,,None,None,"[0, 0, 0]",2135.373090600013,2137.373096900061,2135.373090600013,2136.3731013999786,2136.356443800032,2137.3564343999606,"[0, 0, 0]",1,2135.373090600013,2137.373096900061,,,,,,,,,,,,,,,,,,,8,f,2,18,r,MS,49,49,2022_Jul_22_1014,2020.2.10,distractmap2,59.973827417916326,"['Left Face', 'Chest', 'Left Face', 'Chest']",
4,"[-0.2, 0]",0,0,3,3,3,,,None,None,"[0, 0, 0]",2137.3897713000188,2139.389802200021,2137.3897713000188,2138.3897837999975,2138.373118699994,2139.3731436999515,"[0, 0, 0]",1,2137.3897713000188,2139.389802200021,,,,,,,,,,,,,,,,,,,8,f,2,18,r,MS,49,49,2022_Jul_22_1014,2020.2.10,distractmap2,59.973827417916326,"['Left Face', 'Chest', 'Left Face', 'Chest']",
1,"[-0.2, 0.2]",0,0,4,4,4,,,None,None,"[0, 0, 0]",2139.4567947000032,None,2139.4567947000032,2140.4564644000493,2140.4398186999606,None,"[0, 0, 0]",0,2139.4567947000032,None,,,,,,,,,,,,,,,,,,,8,f,2,18,r,MS,49,49,2022_Jul_22_1014,2020.2.10,distractmap2,59.973827417916326,"['Left Face', 'Chest', 'Left Face', 'Chest']",
8,"[0, -0.2]",0,0,5,5,5,,,None,None,"[0, 0, 0]",2141.423138299957,2143.423169699963,2141.423138299957,2142.423153099953,2142.406493699993,2143.4064887999557,"[0, 0, 0]",1,2141.423138299957,2143.423169699963,,,,,,,,,,,,,,,,,,,8,f,2,18,r,MS,49,49,2022_Jul_22_1014,2020.2.10,distractmap2,59.973827417916326,"['Left Face', 'Chest', 'Left Face', 'Chest']",
1,"[-0.2, 0.2]",1,0,6,6,6,,,None,None,"[0, 0, 0]",2143.439827300026,2145.4398455000482,2143.439827300026,2144.439840200008,2144.423163600033,2145.423174399999,"[0, 0, 0]",1,2143.439827300026,2145.4398455000482,,,,,,,,,,,,,,,,,,,8,f,2,18,r,MS,49,49,2022_Jul_22_1014,2020.2.10,distractmap2,59.973827417916326,"['Left Face', 'Chest', 'Left Face', 'Chest']",
8,"[0, -0.2]",1,0,7,7,7,,,None,None,"[0, 0, 0]",2145.4565156999743,2147.4565518000163,2145.4565156999743,2146.4565305999713,2146.439852599986,2147.4398573000217,"[0, 0, 0]",1,2145.4565156999743,2147.4565518000163,,,,,,,,,,,,,,,,,,,8,f,2,18,r,MS,49,49,2022_Jul_22_1014,2020.2.10,distractmap2,59.973827417916326,"['Left Face', 'Chest', 'Left Face', 'Chest']",
1,"[-0.2, 0.2]",1,0,8,8,8,,,None,None,"[0, 0, 0]",2147.4732035000343,2149.4732063000556,2147.4732035000343,2148.4731979999924,2148.456533999997,2149.456531199976,"[0, 0, 0]",1,2147.4732035000343,2149.4732063000556,,,,,,,,,,,,,,,,,,,8,f,2,18,r,MS,49,49,2022_Jul_22_1014,2020.2.10,distractmap2,59.973827417916326,"['Left Face', 'Chest', 'Left Face', 'Chest']",
6,"[0.2, 0]",0,0,9,9,9,,,None,None,"[0, 0, 0]",2149.4898842000403,2151.4899012000533,2149.4898842000403,2150.4898836000357,2150.4732213000534,2151.473238399951,"[0, 0, 0]",1,2149.4898842000403,2151.4899012000533,,,,,,,,,,,,,,,,,,,8,f,2,18,r,MS,49,49,2022_Jul_22_1014,2020.2.10,distractmap2,59.973827417916326,"['Left Face', 'Chest', 'Left Face', 'Chest']",
,,,,,,,,,,,,,,,,,,,,,,2151.5065986999543,None,,,,,,,,,,,,,,,,,8,f,2,18,r,MS,49,49,2022_Jul_22_1014,2020.2.10,distractmap2,59.973827417916326,"['Left Face', 'Chest', 'Left Face', 'Chest']",
,,,,,,,,,,,,,,,,,,,,,,,,,,,,,,,,,,,,31.851851851851855,1812.083961479948,,,8,f,2,18,r,MS,49,49,2022_Jul_22_1014,2020.2.10,distractmap2,59.973827417916326,"['Left Face', 'Chest', 'Left Face', 'Chest']",
,,,,,,,2186.5235344000394,None,,,,,,,,,,,,,,,,,,,,,,,,,,2166.5233580999775,None,35.55555555555556,1848.3990651800996,0.013370220083743334,5.009592720074579,8,f,2,18,r,MS,49,49,2022_Jul_22_1014,2020.2.10,distractmap2,59.973827417916326,"['Left Face', 'Chest', 'Left Face', 'Chest']",
,,,,,,,2221.54051229998,None,,,,,,,,,,,,,,,,,,,,,,,,,,2201.5403255999554,None,36.7283950617284,1887.0480502800783,0.01522831991314888,5.013313920004293,8,f,2,18,r,MS,49,49,2022_Jul_22_1014,2020.2.10,distractmap2,59.973827417916326,"['Left Face', 'Chest', 'Left Face', 'Chest']",
,,,,,,,2256.5574699999997,None,,,,,,,,,,,,,,,,,,,,,,,,,,2236.5573026000056,None,34.32098765432099,1918.799834280042,0.016627819975838065,5.0161208199569955,8,f,2,18,r,MS,49,49,2022_Jul_22_1014,2020.2.10,distractmap2,59.973827417916326,"['Left Face', 'Chest', 'Left Face', 'Chest']",
7,"[-0.2, -0.2]",None,0,0,0,0,2484.8598522000248,None,None,None,"[0, 0, 0]",2487.5594778000377,2489.5594928000355,2487.5594778000377,2488.5594916000264,2488.5594916000264,2489.5594928000355,"[0, 0, 0]",1,2487.5594778000377,2489.5594928000355,,,,,,2300.5745200000238,2300.5745200000238,None,space,159.46246640000027,2300.5745200000238,None,,,,,0.015107620041817427,5.013215420069173,8,f,2,18,r,MS,49,49,2022_Jul_22_1014,2020.2.10,distractmap2,59.973827417916326,"['Left Face', 'Chest', 'Left Face', 'Chest']",
7,"[-0.2, -0.2]",None,0,1,1,1,,,None,None,"[0, 0, 0]",2489.5761616999516,2491.576168300002,2489.5761616999516,2490.5761679999996,2490.559507100028,2491.559513999964,"[0, 0, 0]",1,2489.5761616999516,2491.576168300002,,,,,,,,,,,,,,,,,,,8,f,2,18,r,MS,49,49,2022_Jul_22_1014,2020.2.10,distractmap2,59.973827417916326,"['Left Face', 'Chest', 'Left Face', 'Chest']",
7,"[-0.2, -0.2]",1,0,2,2,2,,,None,None,"[0, 0, 0]",2491.5928549000528,2493.592859599972,2491.5928549000528,2492.5928551000543,2492.5761795999715,2493.576206800062,"[0, 0, 0]",1,2491.5928549000528,2493.592859599972,,,,,,,,,,,,,,,,,,,8,f,2,18,r,MS,49,49,2022_Jul_22_1014,2020.2.10,distractmap2,59.973827417916326,"['Left Face', 'Chest', 'Left Face', 'Chest']",
5,"[0, 0]",0,0,3,3,3,,,None,None,"[0, 0, 0]",2493.609524999978,2495.609546700027,2493.609524999978,2494.609551999951,2494.5928683000384,2495.59288120002,"[0, 0, 0]",1,2493.609524999978,2495.609546700027,,,,,,,,,,,,,,,,,,,8,f,2,18,r,MS,49,49,2022_Jul_22_1014,2020.2.10,distractmap2,59.973827417916326,"['Left Face', 'Chest', 'Left Face', 'Chest']",
1,"[-0.2, 0.2]",0,0,4,4,4,,,None,None,"[0, 0, 0]",2495.693215999985,None,2495.693215999985,2496.6928477999754,2496.6762248000596,None,"[0, 0, 0]",1,2495.693215999985,None,,,,,,,,,,,,,,,,,,,8,f,2,18,r,MS,49,49,2022_Jul_22_1014,2020.2.10,distractmap2,59.973827417916326,"['Left Face', 'Chest', 'Left Face', 'Chest']",
6,"[0.2, 0]",0,0,5,5,5,,,None,None,"[0, 0, 0]",2497.642896299949,2499.642927399953,2497.642896299949,2498.642927399953,2498.6262424000306,2499.626235599979,"[0, 0, 0]",1,2497.642896299949,2499.642927399953,,,,,,,,,,,,,,,,,,,8,f,2,18,r,MS,49,49,2022_Jul_22_1014,2020.2.10,distractmap2,59.973827417916326,"['Left Face', 'Chest', 'Left Face', 'Chest']",
1,"[-0.2, 0.2]",1,0,6,6,6,,,None,None,"[0, 0, 0]",2499.6595771999564,2501.6596077999566,2499.6595771999564,2500.659598600003,2500.6429312999826,2501.642946799984,"[0, 0, 0]",1,2499.6595771999564,2501.6596077999566,,,,,,,,,,,,,,,,,,,8,f,2,18,r,MS,49,49,2022_Jul_22_1014,2020.2.10,distractmap2,59.973827417916326,"['Left Face', 'Chest', 'Left Face', 'Chest']",
7,"[-0.2, -0.2]",0,0,7,7,7,,,None,None,"[0, 0, 0]",2501.6762632000027,2503.6762857000576,2501.6762632000027,2502.676267300034,2502.6596171000274,2503.6596146000084,"[0, 0, 0]",1,2501.6762632000027,2503.6762857000576,,,,,,,,,,,,,,,,,,,8,f,2,18,r,MS,49,49,2022_Jul_22_1014,2020.2.10,distractmap2,59.973827417916326,"['Left Face', 'Chest', 'Left Face', 'Chest']",
6,"[0.2, 0]",0,0,8,8,8,,,None,None,"[0, 0, 0]",2503.692960300017,2505.6929648000514,2503.692960300017,2504.6929655000567,2504.676289599971,2505.6763084999984,"[0, 0, 0]",1,2503.692960300017,2505.6929648000514,,,,,,,,,,,,,,,,,,,8,f,2,18,r,MS,49,49,2022_Jul_22_1014,2020.2.10,distractmap2,59.973827417916326,"['Left Face', 'Chest', 'Left Face', 'Chest']",
7,"[-0.2, -0.2]",1,0,9,9,9,,,None,None,"[0, 0, 0]",2505.70963930001,2507.7096420000307,2505.70963930001,2506.7096391000086,2506.692461000057,2507.6928776999703,"[0, 0, 0]",1,2505.70963930001,2507.7096420000307,,,,,,,,,,,,,,,,,,,8,f,2,18,r,MS,49,49,2022_Jul_22_1014,2020.2.10,distractmap2,59.973827417916326,"['Left Face', 'Chest', 'Left Face', 'Chest']",
,,,,,,,,,,,,,,,,,,,,,,2507.7263050000183,None,,,,,,,,,,,,,,,,,8,f,2,18,r,MS,49,49,2022_Jul_22_1014,2020.2.10,distractmap2,59.973827417916326,"['Left Face', 'Chest', 'Left Face', 'Chest']",
,,,,,,,,,,,,,,,,,,,,,,,,,,,,,,,,,,,,16.419753086419757,2169.454366379883,,,8,f,2,18,r,MS,49,49,2022_Jul_22_1014,2020.2.10,distractmap2,59.973827417916326,"['Left Face', 'Chest', 'Left Face', 'Chest']",
4,"[-0.2, 0]",None,0,0,0,0,2520.976769000059,None,None,None,"[0, 0, 0]",2527.7598341000266,2529.7598546999507,2527.7598341000266,2528.7598422999727,2528.7431766999653,2529.7431817000033,"[0, 0, 0]",1,2527.7598341000266,2529.7598546999507,,,,,,,,,,,,,,,,,0.012795120128430426,5.00845822005067,8,f,2,18,r,MS,49,49,2022_Jul_22_1014,2020.2.10,distractmap2,59.973827417916326,"['Left Face', 'Chest', 'Left Face', 'Chest']",
5,"[0, 0]",None,0,1,1,1,,,None,None,"[0, 0, 0]",2529.7765084999846,2531.7765216999687,2529.7765084999846,2530.7765088999877,2530.759861300001,2531.7598773000063,"[0, 0, 0]",1,2529.7765084999846,2531.7765216999687,,,,,,,,,,,,,,,,,,,8,f,2,18,r,MS,49,49,2022_Jul_22_1014,2020.2.10,distractmap2,59.973827417916326,"['Left Face', 'Chest', 'Left Face', 'Chest']",
6,"[0.2, 0]",0,0,2,2,2,,,None,None,"[0, 0, 0]",2531.7931925000157,2533.7932059000013,2531.7931925000157,2532.793263199972,2532.776540199993,2533.7765533999773,"[0, 0, 0]",1,2531.7931925000157,2533.7932059000013,,,,,,,,,,,,,,,,,,,8,f,2,18,r,MS,49,49,2022_Jul_22_1014,2020.2.10,distractmap2,59.973827417916326,"['Left Face', 'Chest', 'Left Face', 'Chest']",
1,"[-0.2, 0.2]",0,0,3,3,3,,,None,None,"[0, 0, 0]",2533.8098736000247,2535.809902400011,2533.8098736000247,2534.8099015000043,2534.793219199986,2535.79323760001,"[0, 0, 0]",1,2533.8098736000247,2535.809902400011,,,,,,,,,,,,,,,,,,,8,f,2,18,r,MS,49,49,2022_Jul_22_1014,2020.2.10,distractmap2,59.973827417916326,"['Left Face', 'Chest', 'Left Face', 'Chest']",
6,"[0.2, 0]",1,0,4,4,4,,,None,None,"[0, 0, 0]",2535.9102594000287,None,2535.9102594000287,2536.909914699965,2536.893227500026,None,"[0, 0, 0]",1,2535.9102594000287,None,,,,,,,,,,,,,,,,,,,8,f,2,18,r,MS,49,49,2022_Jul_22_1014,2020.2.10,distractmap2,59.973827417916326,"['Left Face', 'Chest', 'Left Face', 'Chest']",
1,"[-0.2, 0.2]",1,0,5,5,5,,,None,None,"[0, 0, 0]",2537.8432455,2539.8432619000087,2537.8432455,2538.8432513000444,2538.8260986000532,2539.8265851000324,"[0, 0, 0]",1,2537.8432455,2539.8432619000087,,,,,,,,,,,,,,,,,,,8,f,2,18,r,MS,49,49,2022_Jul_22_1014,2020.2.10,distractmap2,59.973827417916326,"['Left Face', 'Chest', 'Left Face', 'Chest']",
2,"[0, 0.2]",0,0,6,6,6,,,None,None,"[0, 0, 0]",2539.859941200004,2541.8598422999494,2539.859941200004,2540.859956500004,2540.8432816000422,2541.8433379000053,"[0, 0, 0]",1,2539.859941200004,2541.8598422999494,,,,,,,,,,,,,,,,,,,8,f,2,18,r,MS,49,49,2022_Jul_22_1014,2020.2.10,distractmap2,59.973827417916326,"['Left Face', 'Chest', 'Left Face', 'Chest']",
3,"[0.2, 0.2]",0,0,7,7,7,,,None,None,"[0, 0, 0]",2541.8765585999936,2543.8766340999864,2541.8765585999936,2542.8766328999773,2542.85999180004,2543.8599656999577,"[0, 0, 0]",1,2541.8765585999936,2543.8766340999864,,,,,,,,,,,,,,,,,,,8,f,2,18,r,MS,49,49,2022_Jul_22_1014,2020.2.10,distractmap2,59.973827417916326,"['Left Face', 'Chest', 'Left Face', 'Chest']",
6,"[0.2, 0]",0,0,8,8,8,,,None,None,"[0, 0, 0]",2543.893320000032,2545.8933062000433,2543.893320000032,2544.8933104999596,2544.8766396000283,2545.876647499972,"[0, 0, 0]",1,2543.893320000032,2545.8933062000433,,,,,,,,,,,,,,,,,,,8,f,2,18,r,MS,49,49,2022_Jul_22_1014,2020.2.10,distractmap2,59.973827417916326,"['Left Face', 'Chest', 'Left Face', 'Chest']",
3,"[0.2, 0.2]",1,0,9,9,9,,,None,None,"[0, 0, 0]",2545.9099940999877,2547.910014800029,2545.9099940999877,2546.9100012000417,2546.893331500003,2547.893337800051,"[0, 0, 0]",1,2545.9099940999877,2547.910014800029,,,,,,,,,,,,,,,,,,,8,f,2,18,r,MS,49,49,2022_Jul_22_1014,2020.2.10,distractmap2,59.973827417916326,"['Left Face', 'Chest', 'Left Face', 'Chest']",
,,,,,,,,,,,,,,,,,,,,,,2547.926656699972,None,,,,,,,,,,,,,,,,,8,f,2,18,r,MS,49,49,2022_Jul_22_1014,2020.2.10,distractmap2,59.973827417916326,"['Left Face', 'Chest', 'Left Face', 'Chest']",
,,,,,,,,,,,,,,,,,,,,,,,,,,,,,,,,,,,,15.802469135802468,2210.854602180072,,,8,f,2,18,r,MS,49,49,2022_Jul_22_1014,2020.2.10,distractmap2,59.973827417916326,"['Left Face', 'Chest', 'Left Face', 'Chest']",
2,"[0, 0.2]",None,0,0,0,0,2563.160148499999,None,None,None,"[0, 0, 0]",2567.9601788000436,2569.960195200052,2567.9601788000436,2568.960183599964,2568.9435489999596,2569.9435256000143,"[0, 0, 0]",1,2567.9601788000436,2569.960195200052,,,,,,,,,,,,,,,,,0.012836119974963367,5.008540119975805,8,f,2,18,r,MS,49,49,2022_Jul_22_1014,2020.2.10,distractmap2,59.973827417916326,"['Left Face', 'Chest', 'Left Face', 'Chest']",
5,"[0, 0]",None,0,1,1,1,,,None,None,"[0, 0, 0]",2569.9768546000123,2571.97688880004,2569.9768546000123,2570.976886300021,2570.960247299983,2571.9602079000324,"[0, 0, 0]",1,2569.9768546000123,2571.97688880004,,,,,,,,,,,,,,,,,,,8,f,2,18,r,MS,49,49,2022_Jul_22_1014,2020.2.10,distractmap2,59.973827417916326,"['Left Face', 'Chest', 'Left Face', 'Chest']",
6,"[0.2, 0]",0,0,2,2,2,,,None,None,"[0, 0, 0]",2571.9935432999628,2573.9935535000404,2571.9935432999628,2572.9935565999476,2572.976889500045,2573.9769150000066,"[0, 0, 0]",1,2571.9935432999628,2573.9935535000404,,,,,,,,,,,,,,,,,,,8,f,2,18,r,MS,49,49,2022_Jul_22_1014,2020.2.10,distractmap2,59.973827417916326,"['Left Face', 'Chest', 'Left Face', 'Chest']",
1,"[-0.2, 0.2]",0,0,3,3,3,,,None,None,"[0, 0, 0]",2574.0101785999723,2576.010247700033,2574.0101785999723,2575.01022549998,2574.993561799987,2575.9935812000185,"[0, 0, 0]",1,2574.0101785999723,2576.010247700033,,,,,,,,,,,,,,,,,,,8,f,2,18,r,MS,49,49,2022_Jul_22_1014,2020.2.10,distractmap2,59.973827417916326,"['Left Face', 'Chest', 'Left Face', 'Chest']",
6,"[0.2, 0]",1,0,4,4,4,,,None,None,"[0, 0, 0]",2576.077254700009,None,2576.077254700009,2577.076926699956,2577.060242300038,None,"[0, 0, 0]",1,2576.077254700009,None,,,,,,,,,,,,,,,,,,,8,f,2,18,r,MS,49,49,2022_Jul_22_1014,2020.2.10,distractmap2,59.973827417916326,"['Left Face', 'Chest', 'Left Face', 'Chest']",
6,"[0.2, 0]",0,0,5,5,5,,,None,None,"[0, 0, 0]",2578.0436003999785,2580.043641000055,2578.0436003999785,2579.043625200051,2579.026948399958,2580.026939500007,"[0, 0, 0]",1,2578.0436003999785,2580.043641000055,,,,,,,,,,,,,,,,,,,8,f,2,18,r,MS,49,49,2022_Jul_22_1014,2020.2.10,distractmap2,59.973827417916326,"['Left Face', 'Chest', 'Left Face', 'Chest']",
9,"[0.2, -0.2]",0,0,6,6,6,,,None,None,"[0, 0, 0]",2580.0602823999943,2582.0603662000503,2580.0602823999943,2581.0602836000035,2581.043629199965,2582.043633399997,"[0, 0, 0]",1,2580.0602823999943,2582.0603662000503,,,,,,,,,,,,,,,,,,,8,f,2,18,r,MS,49,49,2022_Jul_22_1014,2020.2.10,distractmap2,59.973827417916326,"['Left Face', 'Chest', 'Left Face', 'Chest']",
6,"[0.2, 0]",1,0,7,7,7,,,None,None,"[0, 0, 0]",2582.076975599979,2584.076982700033,2582.076975599979,2583.077016700059,2583.0603006000165,2584.060317900032,"[0, 0, 0]",1,2582.076975599979,2584.076982700033,,,,,,,,,,,,,,,,,,,8,f,2,18,r,MS,49,49,2022_Jul_22_1014,2020.2.10,distractmap2,59.973827417916326,"['Left Face', 'Chest', 'Left Face', 'Chest']",
3,"[0.2, 0.2]",0,0,8,8,8,,,None,None,"[0, 0, 0]",2584.0936849999707,2586.0936675999546,2584.0936849999707,2585.093664300046,2585.0770016000606,2586.0770115000196,"[0, 0, 0]",1,2584.0936849999707,2586.0936675999546,,,,,,,,,,,,,,,,,,,8,f,2,18,r,MS,49,49,2022_Jul_22_1014,2020.2.10,distractmap2,59.973827417916326,"['Left Face', 'Chest', 'Left Face', 'Chest']",
9,"[0.2, -0.2]",0,0,9,9,9,,,None,None,"[0, 0, 0]",2586.1103163999505,2588.1103554000147,2586.1103163999505,2587.1103406000184,2587.0936887999997,2588.093690800015,"[0, 0, 0]",1,2586.1103163999505,2588.1103554000147,,,,,,,,,,,,,,,,,,,8,f,2,18,r,MS,49,49,2022_Jul_22_1014,2020.2.10,distractmap2,59.973827417916326,"['Left Face', 'Chest', 'Left Face', 'Chest']",
,,,,,,,,,,,,,,,,,,,,,,2588.127012699959,None,,,,,,,,,,,,,,,,,8,f,2,18,r,MS,49,49,2022_Jul_22_1014,2020.2.10,distractmap2,59.973827417916326,"['Left Face', 'Chest', 'Left Face', 'Chest']",
,,,,,,,,,,,,,,,,,,,,,,,,,,,,,,,,,,,,14.197530864197528,2250.371157280053,,,8,f,2,18,r,MS,49,49,2022_Jul_22_1014,2020.2.10,distractmap2,59.973827417916326,"['Left Face', 'Chest', 'Left Face', 'Chest']",
,,,,,,,2623.1439878999954,None,,,,,,,,,,,,,,,,,,,,,,,,,,2603.1438177999808,None,16.728395061728396,2285.3861797800055,0.013316120021045208,5.009582819999196,8,f,2,18,r,MS,49,49,2022_Jul_22_1014,2020.2.10,distractmap2,59.973827417916326,"['Left Face', 'Chest', 'Left Face', 'Chest']",
,,,,,,,2658.1609706999734,None,,,,,,,,,,,,,,,,,,,,,,,,,,2638.1607869999716,None,15.246913580246915,2321.6851161798695,0.015253519988618791,5.013509919983335,8,f,2,18,r,MS,49,49,2022_Jul_22_1014,2020.2.10,distractmap2,59.973827417916326,"['Left Face', 'Chest', 'Left Face', 'Chest']",
,,,,,,,2693.1779444999993,None,,,,,,,,,,,,,,,,,,,,,,,,,,2673.1777453999966,None,15.370370370370367,2359.4187701799674,0.016647220123559237,5.016144220135175,8,f,2,18,r,MS,49,49,2022_Jul_22_1014,2020.2.10,distractmap2,59.973827417916326,"['Left Face', 'Chest', 'Left Face', 'Chest']",
3,"[0.2, 0.2]",None,0,0,0,0,2710.4282020999817,None,None,None,"[0, 0, 0]",2713.2113353000022,2715.2114570999984,2713.2113353000022,2714.2114492000546,2714.1947604999878,2715.19477479998,"[0, 0, 0]",1,2713.2113353000022,2715.2114570999984,,,,,,,,,,,,,,,,,0.01665082003455609,5.016288520069793,8,f,2,18,r,MS,49,49,2022_Jul_22_1014,2020.2.10,distractmap2,59.973827417916326,"['Left Face', 'Chest', 'Left Face', 'Chest']",
9,"[0.2, -0.2]",None,0,1,1,1,,,None,None,"[0, 0, 0]",2715.228117599967,2717.2281309999526,2715.228117599967,2716.228122600005,2716.2114616000326,2717.2114655000623,"[0, 0, 0]",1,2715.228117599967,2717.2281309999526,,,,,,,,,,,,,,,,,,,8,f,2,18,r,MS,49,49,2022_Jul_22_1014,2020.2.10,distractmap2,59.973827417916326,"['Left Face', 'Chest', 'Left Face', 'Chest']",
3,"[0.2, 0.2]",1,0,2,2,2,,,None,None,"[0, 0, 0]",2717.244788000011,2719.2448117999593,2717.244788000011,2718.24481449998,2718.228150399984,2719.2281543000136,"[0, 0, 0]",1,2717.244788000011,2719.2448117999593,,,,,,,,,,,,,,,,,,,8,f,2,18,r,MS,49,49,2022_Jul_22_1014,2020.2.10,distractmap2,59.973827417916326,"['Left Face', 'Chest', 'Left Face', 'Chest']",
7,"[-0.2, -0.2]",0,0,3,3,3,,,None,None,"[0, 0, 0]",2719.261495099985,2721.2615072999615,2719.261495099985,2720.261499400018,2720.2448234000476,2721.244831899996,"[0, 0, 0]",1,2719.261495099985,2721.2615072999615,,,,,,,,,,,,,,,,,,,8,f,2,18,r,MS,49,49,2022_Jul_22_1014,2020.2.10,distractmap2,59.973827417916326,"['Left Face', 'Chest', 'Left Face', 'Chest']",
8,"[0, -0.2]",0,0,4,4,4,,,None,None,"[0, 0, 0]",2721.3285184999695,None,2721.3285184999695,2722.3281741000246,2722.311508500017,None,"[0, 0, 0]",1,2721.3285184999695,None,,,,,,,,,,,,,,,,,,,8,f,2,18,r,MS,49,49,2022_Jul_22_1014,2020.2.10,distractmap2,59.973827417916326,"['Left Face', 'Chest', 'Left Face', 'Chest']",
