	onset	duration	rt	response	correct	bodySite	temperature	condition	pretrial-jitter
0	2.767199800000526	7.775582299917005				Chest	32.0	2back Instructions	
1	14.784375699935481	1.9992736199637875			1.0	Chest	49.0	2back-stim	
2	16.795800699968822	2.0097841201350093			1.0	Chest	49.0	2back-stim	7.0
3	18.812074999907054	2.0105763198807836	0.666886999970302	0.0	1.0	Chest	49.0	2back-stim	
4	20.828637999948114	2.0108452199492604	0.0	2.0	1.0	Chest	49.0	2back-stim	
5	22.92433579999488	1.9194766000146046	0.0	2.0	1.0	Chest	49.0	2back-stim	
6	24.862123399972916	2.0105988200521097	0.0	2.0	1.0	Chest	49.0	2back-stim	
7	26.87863969989121	2.0108988200081512	0.7668983000330627	0.0	1.0	Chest	49.0	2back-stim	
8	28.895420199958608	2.0107590201077983	0.6502058999612927	0.0	1.0	Chest	49.0	2back-stim	
9	30.912088999990374	2.01077712001279	0.8168911000248045	0.0	1.0	Chest	49.0	2back-stim	
10	32.92875959991943	2.0108047199901193	0.0	2.0	1.0	Chest	49.0	2back-stim	
11	37.94656379998196	5.009022520040162		27.65432098765432		Chest	49.0	2back-stim Rating	3.0
12	42.95167579990812	47.959640199900605				Chest	32.0	2back Instructions	
13	54.984316899906844	1.9833901199745014			1.0	Chest	49.0	2back-stim	
14	56.97948270000052	2.0098048200597987			1.0	Chest	49.0	2back-stim	7.0
15	58.99574829998892	2.0106267200317234	0.5502558998996392	0.0	1.0	Chest	49.0	2back-stim	
16	61.012150699971244	2.011078220093623	0.0	2.0	1.0	Chest	49.0	2back-stim	
17	63.07226449996233	1.9576340600615367	0.0	2.0	1.0	Chest	49.0	2back-stim	
18	65.04581469995901	2.0105547200655565	0.0	2.0	1.0	Chest	49.0	2back-stim	
19	67.06237309996504	2.01082202012185	0.5335573999909684	0.0	1.0	Chest	49.0	2back-stim	
20	69.0789986999007	2.0109351200517267	0.0	2.0	1.0	Chest	49.0	2back-stim	
21	71.09579589997884	2.0107403200818226	0.0	2.0	1.0	Chest	49.0	2back-stim	
22	73.11237959994469	2.0109237199649215	0.6002131000859663	0.0	1.0	Chest	49.0	2back-stim	
23	82.12976439995691	5.009973620064557		30.74074074074074		Chest	49.0	2back-stim Rating	7.0
24	87.13556819991209	92.14336729992647				Chest	32.0	2back Instructions	
25	95.16821419994812	1.9829668200109154			1.0	Chest	49.0	2back-stim	
26	97.16305979993194	2.0099982200190425			1.0	Chest	49.0	2back-stim	3.0
27	99.1793332999805	2.01077192008961	0.0	2.0	1.0	Chest	49.0	2back-stim	
28	101.19596119993366	2.0108901200583205	0.0	2.0	1.0	Chest	49.0	2back-stim	
29	103.25545709999278	1.9586099600419402	0.48309269989840686	0.0	1.0	Chest	49.0	2back-stim	
30	105.22939259989653	2.010748520027846	0.5169441000325605	0.0	1.0	Chest	49.0	2back-stim	
31	107.24600079993252	2.0109159200219437	0.0	2.0	1.0	Chest	49.0	2back-stim	
32	109.26280379993841	2.010691719944589	0.0	2.0	1.0	Chest	49.0	2back-stim	
33	111.27954999997746	2.0105503200320527	0.0	2.0	1.0	Chest	49.0	2back-stim	
34	113.29618869989645	2.010652119992301	0.4352129000471905	0.0	1.0	Chest	49.0	2back-stim	
35	122.31354569992982	5.009753720019944		31.41975308641975		Chest	49.0	2back-stim Rating	7.0
36	127.31876519997604	132.32706609996967				Chest	49.0	2back Instructions	
37	135.33677439996973	1.9965122200082988			1.0	Chest	32.0	2back-nostim	
38	137.34688179998193	2.0096767200157046			1.0	Chest	32.0	2back-nostim	3.0
39	139.36300239991397	2.0107900199946016	0.0	2.0	1.0	Chest	32.0	2back-nostim	
40	141.37981989991385	2.010550419916399	0.0	2.0	1.0	Chest	32.0	2back-nostim	
41	143.39634739991743	2.0108340200968087	0.4169003999559209	0.0	1.0	Chest	32.0	2back-nostim	
42	145.41309059993364	2.010732420021668	0.0	2.0	1.0	Chest	32.0	2back-nostim	
43	147.42983659997117	2.0106146200560033	0.0	2.0	1.0	Chest	32.0	2back-nostim	
44	149.44634489994496	2.010946620022878	0.616887699929066	0.0	1.0	Chest	32.0	2back-nostim	
45	151.46309330000076	2.01081891998183	0.0	2.0	1.0	Chest	32.0	2back-nostim	
46	153.4797913999064	2.0107061199378222	0.6502925999229774	0.0	0.0	Chest	32.0	2back-nostim	
47	162.50380179996137	167.51031159993727				Chest	49.0	2back Instructions	
48	170.51907729997765	1.9825031200889498			1.0	Chest	32.0	2back-nostim	
49	172.5139041999355	2.00956411997322			1.0	Chest	32.0	2back-nostim	3.0
50	174.52999419998378	2.0107596199959517	0.5668979999609292	0.0	1.0	Chest	32.0	2back-nostim	
51	176.54671179992147	2.0107479200232774	0.0	2.0	1.0	Chest	32.0	2back-nostim	
52	178.56334429990966	2.010797719936818	0.0	2.0	1.0	Chest	32.0	2back-nostim	
53	180.58001019991934	2.010816920083016	0.0	2.0	1.0	Chest	32.0	2back-nostim	
54	182.59665409999434	2.0109022200340405	0.0	2.0	1.0	Chest	32.0	2back-nostim	
55	184.61350279999897	2.0105733200907707	0.0	2.0	1.0	Chest	32.0	2back-nostim	
56	186.6299871999072	2.0109735199948773	0.4835849000373855	0.0	1.0	Chest	32.0	2back-nostim	
57	188.64680589991622	2.0107309201266617	0.0	2.0	1.0	Chest	32.0	2back-nostim	
58	195.6706027999753	200.67726929998025				Chest	49.0	2back Instructions	
59	205.68554569990374	2.0001706200418994			1.0	Chest	32.0	2back-nostim	
60	207.69739099999424	2.009892120026052			1.0	Chest	32.0	2back-nostim	5.0
61	209.71368599997368	2.010642520035617	0.0	2.0	1.0	Chest	32.0	2back-nostim	
62	211.7303504999727	2.01066862011794	0.9002544999821112	0.0	1.0	Chest	32.0	2back-nostim	
63	213.74701059993822	2.010719519923441	0.0	2.0	1.0	Chest	32.0	2back-nostim	
64	215.7636614999501	2.010809720028192	0.0	2.0	1.0	Chest	32.0	2back-nostim	
65	217.78033249999862	2.0107182200299576	0.0	2.0	1.0	Chest	32.0	2back-nostim	
66	219.79699499998242	2.0108626200817525	0.43364920001477003	0.0	1.0	Chest	32.0	2back-nostim	
67	221.8137723999098	2.010692819952965	0.0	2.0	1.0	Chest	32.0	2back-nostim	
68	223.830409499933	2.010773519985378	0.7002619999693707	0.0	1.0	Chest	32.0	2back-nostim	
69	235.86094329995103	20.00005491997581				Chest	49.0	Rest-Stim	3.0
70	255.86112669995055	3.016542320023291				Chest		PostTrialFixation	
71	258.8631769999629	5.012829720042646		34.50617283950617		Chest	49.0	Rest-Stim Rating	3.0
72	270.8779110999312	20.00004182010889				Chest	49.0	Rest-Stim	7.0
73	290.8781037000008	3.016514220042154				Chest		PostTrialFixation	
74	293.8804590998916	5.012202520039864		34.5679012345679		Chest	49.0	Rest-Stim Rating	3.0
75	305.89489149989095	20.00003002001904				Chest	49.0	Rest-Stim	7.0
76	325.89505739999004	2.999876720015891				Chest		PostTrialFixation	
77	328.89548039995134	5.016132719931193		36.41975308641975		Chest	49.0	Rest-Stim Rating	3.0
78	340.8970152999973	20.013040320016444				Chest	32.0	Rest-NoStim	7.0
79	360.89705959998537	3.0131411199690774				Chest		PostTrialFixation	
80	370.897309999913	20.012971620075405				Chest	32.0	Rest-NoStim	7.0
81	390.8971732999198	7.013468420016579				Chest		PostTrialFixation	
82	400.89730149996467	20.013504120055586				Chest	32.0	Rest-NoStim	3.0
83	420.89802419999614	5.012297120061703				Chest		PostTrialFixation	
84	425.9052189999493	430.91414259991143				Chest	32.0	2back Instructions	
85	435.937787199975	1.9829818201251328			1.0	Chest	49.0	2back-stim	
86	437.93339639995247	2.008459520060569			1.0	Chest	49.0	2back-stim	5.0
87	439.9489301999565	2.0108319200808182	0.48356039996724576	0.0	1.0	Chest	49.0	2back-stim	
88	441.9655466999393	2.010883520008065	0.0	2.0	1.0	Chest	49.0	2back-stim	
89	444.0311079999665	1.9631384800886735	0.5664886999875307	0.0	1.0	Chest	49.0	2back-stim	
90	445.9984447999159	2.0113489200593904	0.0	2.0	1.0	Chest	49.0	2back-stim	
91	448.01566829998046	2.0107900199946016	0.0	2.0	1.0	Chest	49.0	2back-stim	
92	450.03228699998	2.010905920062214	0.0	2.0	1.0	Chest	49.0	2back-stim	
93	452.04895480000414	2.010875319945626	0.0	2.0	1.0	Chest	49.0	2back-stim	
94	454.06576599995606	2.010696820099838	0.4170693000778556	0.0	1.0	Chest	49.0	2back-stim	
95	461.083146299934	5.009735620114952		34.69135802469136		Chest	49.0	2back-stim Rating	5.0
96	466.0885454999516	471.0966158999363				Chest	32.0	2back Instructions	
97	476.1213306999998	1.9999309199629351			1.0	Chest	49.0	2back-stim	
98	478.13300849997904	2.009941320051439			1.0	Chest	49.0	2back-stim	5.0
99	480.1492676999187	2.010800520074554	0.0	2.0	1.0	Chest	49.0	2back-stim	
100	482.16613479994703	2.01043992000632	0.0	2.0	1.0	Chest	49.0	2back-stim	
101	484.24306029989384	1.9399259800557047	0.9668963000876829	0.0	1.0	Chest	49.0	2back-stim	
102	486.1995242999401	2.010394320008345	0.0	2.0	1.0	Chest	49.0	2back-stim	
103	488.21594939997885	2.0108799199806526	0.5358210999984294	0.0	1.0	Chest	49.0	2back-stim	
104	490.23267629998736	2.0108253200305626	0.0	2.0	1.0	Chest	49.0	2back-stim	
105	492.24932839989197	2.010873520048335	0.7169098999584094	0.0	1.0	Chest	49.0	2back-stim	
106	494.26606059994083	2.010793420020491	0.7668929999927059	0.0	1.0	Chest	49.0	2back-stim	
107	499.2843297999352	5.008022419991903		31.666666666666664		Chest	49.0	2back-stim Rating	3.0
108	504.28971859999	509.2968990999507				Chest	32.0	2back Instructions	
109	516.3214462999022	2.000369819928892			1.0	Chest	49.0	2back-stim	
110	518.3335324999643	2.009595120092854			1.0	Chest	49.0	2back-stim	7.0
111	520.3496371998917	2.010745219886303	0.583548599970527	0.0	1.0	Chest	49.0	2back-stim	
112	522.3666417999193	2.0100927201565355	0.0	2.0	1.0	Chest	49.0	2back-stim	
113	524.4296699999832	1.9507568600820377	0.8331178999505937	0.0	0.0	Chest	49.0	2back-stim	
114	526.399720299989	2.0107084199553356	0.0	2.0	1.0	Chest	49.0	2back-stim	
115	528.4167258999078	2.0100249198731035	0.7668870999477804	0.0	1.0	Chest	49.0	2back-stim	
116	530.4330811999971	2.0106911200564355	0.8335570000344887	0.0	1.0	Chest	49.0	2back-stim	
117	532.4497663999209	2.010702220024541	0.8190819999435917	0.0	1.0	Chest	49.0	2back-stim	
118	534.4663281999528	2.0109376201871783	0.0	2.0	1.0	Chest	49.0	2back-stim	
119	539.4838940999471	5.009592720074579		31.851851851851855		Chest	49.0	2back-stim Rating	3.0
120	551.4970035000006	20.000023619970307				Chest	49.0	Rest-Stim	7.0
121	571.4971948999446	3.0165280199144036				Chest		PostTrialFixation	
122	574.4989923998946	5.013313920004293		35.55555555555556		Chest	49.0	Rest-Stim Rating	3.0
123	586.5139867999824	20.000017420039512				Chest	49.0	Rest-Stim	7.0
124	606.5140529999044	6.999991419957951				Chest		PostTrialFixation	
125	613.5145925999386	5.0161208199569955		36.7283950617284		Chest	49.0	Rest-Stim Rating	7.0
126	621.5309516999405	20.000014820019715				Chest	49.0	Rest-Stim	3.0
127	641.531147899921	3.0165035200770944				Chest		PostTrialFixation	
128	644.5330452999333	5.013215420069173		34.32098765432099		Chest	49.0	Rest-Stim Rating	3.0
