	SID	date	sex	session	handedness	scanner	onset	duration	repetition	rating	body_site	keys	temperature	conditionrt	mouseclick	biopac_channel	condition	rt	value
0	3000	2024_Jul_16_2015	m	1	r	SS MRS	2.774545899941586	5.017970282817259								19	Instructions		
1	3000	2024_Jul_16_2015	m	1	r	SS MRS	8.581667399965227	2.006550229736604								6	Cue		
2	3000	2024_Jul_16_2015	m	1	r	SS MRS	10.587576799909584	5.994958869996481								7	Pre-Jitter		
3	3000	2024_Jul_16_2015	m	1	r	SS MRS	16.616874699946493	15.003327009966597			Abdomen		48.0			18	Heat-Stimulation		
4	3000	2024_Jul_16_2015	m	1	r	SS MRS	31.695916599943303	7.012134419986978								8	Mid-Jitter		
5	3000	2024_Jul_16_2015	m	1	r	SS MRS	38.72140749997925	4.99465563998092								20	PainBinary	1.736103200004436	1.0
6	3000	2024_Jul_16_2015	m	1	r	SS MRS	43.73757629992906	5.012441940023564								21	IntensityRating	2.616831599967554	23.14814814814815
7	3000	2024_Jul_16_2015	m	1	r	SS MRS	48.76871360000223	5.00029503996484								22	ToleranceRating	1.3336436999961734	1.0
8	3000	2024_Jul_16_2015	m	1	r	SS MRS	53.77291950001381	7.008698269841261								9	Post-Q-Jitter		
9	3000	2024_Jul_16_2015	m	1	r	SS MRS	61.53962319996208	2.0086018196307123								6	Cue		
10	3000	2024_Jul_16_2015	m	1	r	SS MRS	63.55412380001508	7.996526769944467								7	Pre-Jitter		
11	3000	2024_Jul_16_2015	m	1	r	SS MRS	71.58011939993594	15.011418509995565			Abdomen		48.5			18	Heat-Stimulation		
12	3000	2024_Jul_16_2015	m	1	r	SS MRS	86.66155379998963	9.015512919984758								8	Mid-Jitter		
13	3000	2024_Jul_16_2015	m	1	r	SS MRS	95.69159930001479	5.005636140005663								20	PainBinary	1.3170054000802338	1.0
14	3000	2024_Jul_16_2015	m	1	r	SS MRS	100.72133299999405	4.996270240051672								21	IntensityRating	3.351139900041744	26.851851851851855
15	3000	2024_Jul_16_2015	m	1	r	SS MRS	105.73588599998038	5.000604239990935								22	ToleranceRating	1.2336694999830797	1.0
16	3000	2024_Jul_16_2015	m	1	r	SS MRS	110.74083209992386	9.007515569915995								9	Post-Q-Jitter		
17	3000	2024_Jul_16_2015	m	1	r	SS MRS	120.33757229999173	2.014088119729422								6	Cue		
18	3000	2024_Jul_16_2015	m	1	r	SS MRS	122.35464989999309	3.9967753699747846								7	Pre-Jitter		
19	3000	2024_Jul_16_2015	m	1	r	SS MRS	126.40363650000654	14.999006979982369			Abdomen		48.5			18	Heat-Stimulation		
20	3000	2024_Jul_16_2015	m	1	r	SS MRS	141.47968819993548	9.013878320110962								8	Mid-Jitter		
21	3000	2024_Jul_16_2015	m	1	r	SS MRS	150.5068243999267	5.009797739912756								20	PainBinary	1.1668723999755457	1.0
22	3000	2024_Jul_16_2015	m	1	r	SS MRS	155.5385116999969	5.013237840030342								21	IntensityRating	2.4861542999278754	28.39506172839506
23	3000	2024_Jul_16_2015	m	1	r	SS MRS	160.5707447999157	4.99887063994538								22	ToleranceRating	1.233651699963957	1.0
24	3000	2024_Jul_16_2015	m	1	r	SS MRS	165.57545659993775	9.006281269947067								9	Post-Q-Jitter		
25	3000	2024_Jul_16_2015	m	1	r	SS MRS	175.38852199993562	1.9968024296686053								6	Cue		
26	3000	2024_Jul_16_2015	m	1	r	SS MRS	177.3887214999413	5.996545369969681								7	Pre-Jitter		
27	3000	2024_Jul_16_2015	m	1	r	SS MRS	183.426280100015	15.005013109999709			Abdomen		48.5			18	Heat-Stimulation		
28	3000	2024_Jul_16_2015	m	1	r	SS MRS	198.5137222999474	7.0138108199462295								8	Mid-Jitter		
29	3000	2024_Jul_16_2015	m	1	r	SS MRS	205.54012419993524	5.011123340111226								20	PainBinary	1.4332057000137866	1.0
30	3000	2024_Jul_16_2015	m	1	r	SS MRS	210.57414119993336	5.0099138400983065								21	IntensityRating	3.733648999943398	24.012345679012345
31	3000	2024_Jul_16_2015	m	1	r	SS MRS	215.60390170000028	5.000530240009539								22	ToleranceRating	1.7669882999034598	1.0
32	3000	2024_Jul_16_2015	m	1	r	SS MRS	220.60933020000812	7.006473869900219								9	Post-Q-Jitter		
33	3000	2024_Jul_16_2015	m	1	r	SS MRS	228.19700569997076	2.0144745197612792								6	Cue		
34	3000	2024_Jul_16_2015	m	1	r	SS MRS	230.20631549996324	5.996068770065904								7	Pre-Jitter		
35	3000	2024_Jul_16_2015	m	1	r	SS MRS	236.21776639996096	15.006747140083462			Abdomen		48.5			18	Heat-Stimulation		
36	3000	2024_Jul_16_2015	m	1	r	SS MRS	251.30179559998214	7.005588219966739								8	Mid-Jitter		
37	3000	2024_Jul_16_2015	m	1	r	SS MRS	258.32515699998476	5.009025440085679								20	PainBinary	3.052554199937731	1.0
38	3000	2024_Jul_16_2015	m	1	r	SS MRS	263.3562084999867	5.013696039910428								21	IntensityRating	3.5520091999787837	11.419753086419753
39	3000	2024_Jul_16_2015	m	1	r	SS MRS	268.38814259995706	4.999947240110487								22	ToleranceRating	1.900322400033474	1.0
40	3000	2024_Jul_16_2015	m	1	r	SS MRS	273.39227939990815	7.008455969858915								9	Post-Q-Jitter		
41	3000	2024_Jul_16_2015	m	1	r	SS MRS	280.7917317999527	2.009614879847504								6	Cue		
42	3000	2024_Jul_16_2015	m	1	r	SS MRS	282.8064929000102	3.996886770008132								7	Pre-Jitter		
43	3000	2024_Jul_16_2015	m	1	r	SS MRS	286.81805599993095	15.007295840070583			Abdomen		48.5			18	Heat-Stimulation		
44	3000	2024_Jul_16_2015	m	1	r	SS MRS	301.89802879991475	9.014317619963549								8	Mid-Jitter		
45	3000	2024_Jul_16_2015	m	1	r	SS MRS	310.92516300000716	5.010260140057653								20	PainBinary	1.9168736999854445	-1.0
46	3000	2024_Jul_16_2015	m	1	r	SS MRS	325.947817999986	9.01334363524802								9	Post-Q-Jitter		
47	3000	2024_Jul_16_2015	m	1	r	SS MRS	335.3418551000068	2.0106169796781614								6	Cue		
48	3000	2024_Jul_16_2015	m	1	r	SS MRS	337.35800959996413	5.9951660700608045								7	Pre-Jitter		
49	3000	2024_Jul_16_2015	m	1	r	SS MRS	343.3711601999821	15.002471340005286			Abdomen		48.5			18	Heat-Stimulation		
50	3000	2024_Jul_16_2015	m	1	r	SS MRS	358.44945660000667	5.012809020001441								8	Mid-Jitter		
51	3000	2024_Jul_16_2015	m	1	r	SS MRS	363.47850669990294	5.004655939992517								20	PainBinary	1.5494668000610545	-1.0
52	3000	2024_Jul_16_2015	m	1	r	SS MRS	378.4979629999725	5.014060835237615								9	Post-Q-Jitter		
53	3000	2024_Jul_16_2015	m	1	r	SS MRS	383.5333836999489	4.662251909961924								26	ComfortRating	4.6336924999486655	31.728395061728406
54	3000	2024_Jul_16_2015	m	1	r	SS MRS	388.21252599998843	6.204103640047833								24	ValenceRating	6.183627999969758	52.77777777777778
55	3000	2024_Jul_16_2015	m	1	r	SS MRS	394.4398227999918	2.832981240004301								26	IntensityRating	2.817025399999693	58.88888888888889
56	3000	2024_Jul_16_2015	m	1	r	SS MRS	397.2908134999452	3.6310751400887966								27	AvoidanceRating	3.586404800065793	31.481481481481495
57	3000	2024_Jul_16_2015	m	1	r	SS MRS	400.93774309998844	2.4206280399812385								28	RelaxationRating	2.400340999942273	68.39506172839506
58	3000	2024_Jul_16_2015	m	1	r	SS MRS	403.37597679998726	3.7275276399450377								29	AttentionRating	3.7001707000890747	53.51851851851852
59	3000	2024_Jul_16_2015	m	1	r	SS MRS	407.1216659999918	2.919501440017484								30	BoredomRating	2.9002628000453115	73.39506172839506
60	3000	2024_Jul_16_2015	m	1	r	SS MRS	410.05660679994617	4.699708739994094								31	AlertnessRating	4.683660999988206	33.580246913580226
61	3000	2024_Jul_16_2015	m	1	r	SS MRS	414.77358249993995	3.3825960401445627								32	PosThxRating	3.367137899971567	76.1728395061728
62	3000	2024_Jul_16_2015	m	1	r	SS MRS	418.1746968999505	2.480442040017806								33	NegThxRating	2.4671269999817014	-75.92592592592592
63	3000	2024_Jul_16_2015	m	1	r	SS MRS	420.67274859989993	2.467709240037948								34	SelfRating	2.4503284000093117	47.65432098765433
64	3000	2024_Jul_16_2015	m	1	r	SS MRS	423.1559640999185	3.0013561400119215								35	OtherRating	2.9836915000341833	71.23456790123456
65	3000	2024_Jul_16_2015	m	1	r	SS MRS	426.17461679992266	3.0141589399427176								32	ImageryRating	3.0008739000186324	78.76543209876544
66	3000	2024_Jul_16_2015	m	1	r	SS MRS	429.2087221000111	3.079360940027982								37	PresentRating	3.050196599913761	43.33333333333334
