	SID	biopac_channel	body_site	condition	correct	date	duration	handedness	mouseclick	onset	rt	scanner	score	session	sex	skin_site	temperature	value
0	2533	43	Left Leg	2-back Instruction		2023_Jan_17_2157	5.0064193464349955	r		2.7794021000154316		MS MH		3	f	1		
1	2533	7	Left Leg	Pre-trial Jitter		2023_Jan_17_2157	7.0056003499776125	r		7.7879906999878585		MS MH		3	f	1		
2	2533	44.0	Left Leg	pretrialfixation		2023_Jan_17_2157	0.9968480000970885	r		15.05077590001747		MS MH		3	f	1		
3	2533		Left Leg	2-back	1.0	2023_Jan_17_2157	1.9904408499132842	r		16.05400539992843		MS MH	12.5	3	f	1	32.0	
4	2533		Left Leg	2-back	1.0	2023_Jan_17_2157	1.9869333499809727	r		18.064091500011273		MS MH	25.0	3	f	1	32.0	
5	2533		Left Leg	2-back	1.0	2023_Jan_17_2157	1.9874357498483732	r	0	20.06385319994297	0.5797833999386057	MS MH	37.5	3	f	1	32.0	
6	2533		Left Leg	2-back	1.0	2023_Jan_17_2157	1.9860582500696182	r	2	22.064588999957778	0.5500957999611273	MS MH	50.0	3	f	1	32.0	
7	2533		Left Leg	2-back	1.0	2023_Jan_17_2157	1.98750355001539	r	0	24.06387840001844	0.5298413001000881	MS MH	62.5	3	f	1	32.0	
8	2533		Left Leg	2-back	1.0	2023_Jan_17_2157	1.9870773499133065	r	2	26.064112299936824	0.6126725999638438	MS MH	75.0	3	f	1	32.0	
9	2533		Left Leg	2-back	1.0	2023_Jan_17_2157	1.9872872498817742	r	2	28.064005799940787	0.6968742000171915	MS MH	87.5	3	f	1	32.0	
10	2533		Left Leg	2-back	1.0	2023_Jan_17_2157	1.9862678499193862	r	2	30.064553300035186	0.6301512999925762	MS MH	100.0	3	f	1	32.0	
11	2533	48.0	Left Leg	ScoreReport		2023_Jan_17_2157	5.00178494991269	r		32.07348829996772		MS MH		3	f	1		
12	2533	8	Left Leg	Post-trial Jitter		2023_Jan_17_2157	4.996874799951911	r		37.13433209992945		MS MH		3	f	1		
13	2533	43	Left Leg	2-back Instruction		2023_Jan_17_2157	5.008739400072955	r		42.15345129999332		MS MH		3	f	1		
14	2533	7	Left Leg	Pre-trial Jitter		2023_Jan_17_2157	9.002236250089481	r		47.17344319995027		MS MH		3	f	1		
15	2533	44.0	Left Leg	pretrialfixation		2023_Jan_17_2157	0.9969258998753503	r		56.434488099999726		MS MH		3	f	1		
16	2533		Left Leg	2-back	1.0	2023_Jan_17_2157	1.990993450046517	r		57.43746289995033		MS MH	12.5	3	f	1	32.0	
17	2533		Left Leg	2-back	1.0	2023_Jan_17_2157	1.9873438499635085	r		59.44764050003141		MS MH	25.0	3	f	1	32.0	
18	2533		Left Leg	2-back	1.0	2023_Jan_17_2157	1.988403649884276	r	2	61.447127599967644	0.8968634000048041	MS MH	37.5	3	f	1	32.0	
19	2533		Left Leg	2-back	1.0	2023_Jan_17_2157	1.987641149898991	r	2	63.44753430003766	0.6300382000626996	MS MH	50.0	3	f	1	32.0	
20	2533		Left Leg	2-back	1.0	2023_Jan_17_2157	1.988170149968937	r	0	65.4473121999763	0.7634557000128552	MS MH	62.5	3	f	1	32.0	
21	2533		Left Leg	2-back	1.0	2023_Jan_17_2157	1.9878222499974072	r	2	67.44748760003131	0.6301441000541672	MS MH	75.0	3	f	1	32.0	
22	2533		Left Leg	2-back	1.0	2023_Jan_17_2157	1.9871969498926774	r	0	69.44784509995952	0.434328900068067	MS MH	87.5	3	f	1	32.0	
23	2533		Left Leg	2-back	1.0	2023_Jan_17_2157	1.9872842500917614	r	2	71.44779879995622	0.6302603000076488	MS MH	100.0	3	f	1	32.0	
24	2533	48.0	Left Leg	ScoreReport		2023_Jan_17_2157	5.0012722498504445	r		73.4574883999303		MS MH		3	f	1		
25	2533	8	Left Leg	Post-trial Jitter		2023_Jan_17_2157	9.004945100052282	r		78.51406940002926		MS MH		3	f	1		
26	2533	51	Left Leg	Expectancy		2023_Jan_17_2157	5.0167212499072775	r		88.60828449996188	2.3502838000422344	MS MH		3	f	1		24.814814814814813
27	2533	45	Left Leg	2-back Instruction		2023_Jan_17_2157	5.009135599946603	r		94.0037835999392		MS MH		3	f	1		
28	2533	7	Left Leg	Pre-trial Jitter		2023_Jan_17_2157	5.00335004995577	r		99.02337740000803		MS MH		3	f	1		
29	2533	44.0	Left Leg	pretrialfixation		2023_Jan_17_2157	1.0035697498824447	r		104.33997119998094		MS MH		3	f	1		
30	2533		Left Leg	2-back	1.0	2023_Jan_17_2157	1.9907442500116304	r		105.35471290000714		MS MH	12.5	3	f	1	47.0	
31	2533		Left Leg	2-back	1.0	2023_Jan_17_2157	1.9852680498734117	r		107.36584049998783		MS MH	25.0	3	f	1	47.0	
32	2533		Left Leg	2-back	1.0	2023_Jan_17_2157	1.9873787499964237	r	2	109.36480859993026	0.6462775999680161	MS MH	37.5	3	f	1	47.0	
33	2533		Left Leg	2-back	1.0	2023_Jan_17_2157	1.9874612500425428	r	2	111.36477390001528	0.5969503000378609	MS MH	50.0	3	f	1	47.0	
34	2533		Left Leg	2-back	1.0	2023_Jan_17_2157	1.9874755500350147	r	0	113.36476919997949	0.4965893999906257	MS MH	62.5	3	f	1	47.0	
35	2533		Left Leg	2-back	1.0	2023_Jan_17_2157	1.987742849974893	r	2	115.36467469995841	0.6131588999414816	MS MH	75.0	3	f	1	47.0	
36	2533		Left Leg	2-back	1.0	2023_Jan_17_2157	1.9873586499597877	r	2	117.36488799995277	0.5801699999719858	MS MH	87.5	3	f	1	47.0	
37	2533		Left Leg	2-back	1.0	2023_Jan_17_2157	1.987326949951239	r	0	119.364927800023	0.7299822999630123	MS MH	100.0	3	f	1	47.0	
38	2533	48.0	Left Leg	ScoreReport		2023_Jan_17_2157	5.001663850038312	r		121.37445969996043		MS MH		3	f	1		
39	2533	8	Left Leg	Post-trial Jitter		2023_Jan_17_2157	9.005037299939431	r		126.43118740001228		MS MH		3	f	1		
40	2533	20	Left Leg	PainBinary		2023_Jan_17_2157	5.00114529998973	r		135.44987709994894	1.2669866998912767	MS MH		3	f	1		-1.0
41	2533	21	Left Leg	IntensityRating		2023_Jan_17_2157	5.011673300061375	r		140.46966369997244	2.8170107000041753	MS MH		3	f	1		23.641975308641975
42	2533	9	Left Leg	Post-Q-Jitter		2023_Jan_17_2157	8.99495774996467	r		145.48641719995067		MS MH		3	f	1		
43	2533	51	Left Leg	Expectancy		2023_Jan_17_2157	5.0008664997294545	r		154.7752002000343	3.9502865000395104	MS MH		3	f	1		23.45679012345679
44	2533	45	Left Leg	2-back Instruction		2023_Jan_17_2157	5.003851499874145	r		160.1737588000251		MS MH		3	f	1		
45	2533	7	Left Leg	Pre-trial Jitter		2023_Jan_17_2157	5.003180449944921	r		165.1908052000217		MS MH		3	f	1		
46	2533	44.0	Left Leg	pretrialfixation		2023_Jan_17_2157	1.0019438500748947	r		170.5081280999584		MS MH		3	f	1		
47	2533		Left Leg	2-back	1.0	2023_Jan_17_2157	1.9902613499434665	r		171.5223210999975		MS MH	12.5	3	f	1	47.0	
48	2533		Left Leg	2-back	1.0	2023_Jan_17_2157	1.9869087499100715	r		173.5323443999514		MS MH	25.0	3	f	1	47.0	
49	2533		Left Leg	2-back	1.0	2023_Jan_17_2157	1.9881431499961764	r	0	175.5317350999685	0.4635017999680713	MS MH	37.5	3	f	1	47.0	
50	2533		Left Leg	2-back	1.0	2023_Jan_17_2157	1.9875638500088826	r	2	177.53205389995128	0.6135421999497339	MS MH	50.0	3	f	1	47.0	
51	2533		Left Leg	2-back	1.0	2023_Jan_17_2157	1.9873805500101298	r	2	179.53219179995358	0.6635185999330133	MS MH	62.5	3	f	1	47.0	
52	2533		Left Leg	2-back	1.0	2023_Jan_17_2157	1.9875761498697102	r	2	181.53210489999037	0.5839996999129653	MS MH	75.0	3	f	1	47.0	
53	2533		Left Leg	2-back	1.0	2023_Jan_17_2157	1.9877133499830961	r	2	183.53205609996803	0.6965668000048026	MS MH	87.5	3	f	1	47.0	
54	2533		Left Leg	2-back	1.0	2023_Jan_17_2157	1.986761249951087	r	2	185.53255529992748	0.5967950000194833	MS MH	100.0	3	f	1	47.0	
55	2533	48.0	Left Leg	ScoreReport		2023_Jan_17_2157	5.001162349944934	r		187.54203409992624		MS MH		3	f	1		
56	2533	8	Left Leg	Post-trial Jitter		2023_Jan_17_2157	9.004047299968079	r		192.5989909999771		MS MH		3	f	1		
57	2533	20	Left Leg	PainBinary		2023_Jan_17_2157	5.002005200018175	r		201.61676669993903	0.9670079998904839	MS MH		3	f	1		-1.0
58	2533	21	Left Leg	IntensityRating		2023_Jan_17_2157	5.0118651000084355	r		206.6369005999295	2.683663500007242	MS MH		3	f	1		22.469135802469133
59	2533	9	Left Leg	Post-Q-Jitter		2023_Jan_17_2157	8.9945773499785	r		211.65395579999313		MS MH		3	f	1		
60	2533	42	Left Leg	0-back Instruction		2023_Jan_17_2157	5.00736060005147	r		220.67260189994704		MS MH		3	f	1		
61	2533	7	Left Leg	Pre-Trial Jitter		2023_Jan_17_2157	5.0021346498979256	r		225.69190590002108		MS MH		3	f	1		
62	2533	44.0	Left Leg	pretrialfixation		2023_Jan_17_2157	0.9951464999467134	r		230.95375839993358		MS MH		3	f	1		
63	2533		Left Leg	0-back	1.0	2023_Jan_17_2157	1.988753249985166	r	0.0	231.95695859997068	0.6135256999405101	MS MH	12.5	3	f	1	32.0	
64	2533		Left Leg	0-back	1.0	2023_Jan_17_2157	1.9874885500175878	r	0.0	233.9659990000073	0.5132816999685019	MS MH	25.0	3	f	1	32.0	
65	2533		Left Leg	0-back	1.0	2023_Jan_17_2157	1.9887688499875367	r	0.0	235.9653828999726	0.4134061000077054	MS MH	37.5	3	f	1	32.0	
66	2533		Left Leg	0-back	1.0	2023_Jan_17_2157	1.987988349981606	r	0.0	237.96580430003814	0.41312709997873753	MS MH	50.0	3	f	1	32.0	
67	2533		Left Leg	0-back	1.0	2023_Jan_17_2157	1.989018650026992	r	0.0	239.96530989999883	0.36322409997228533	MS MH	62.5	3	f	1	32.0	
68	2533		Left Leg	0-back	1.0	2023_Jan_17_2157	1.988007550011389	r	0.0	241.96584199997596	0.4498026999644935	MS MH	75.0	3	f	1	32.0	
69	2533		Left Leg	0-back	1.0	2023_Jan_17_2157	1.9890011500101537	r	0.0	243.96536199992988	0.4346248999936506	MS MH	87.5	3	f	1	32.0	
70	2533		Left Leg	0-back	1.0	2023_Jan_17_2157	1.9885551498737186	r	0.0	245.9655894000316	0.3965978999622166	MS MH	100.0	3	f	1	32.0	
71	2533	48.0	Left Leg	ScoreReport		2023_Jan_17_2157	5.004986749961972	r		247.97406669997144		MS MH		3	f	1		
72	2533	8	Left Leg	Post-Trial Jitter		2023_Jan_17_2157	9.005651399842463	r		253.03215280000586		MS MH		3	f	1		
73	2533	42	Left Leg	0-back Instruction		2023_Jan_17_2157	5.0095237999921665	r		262.0552768999478		MS MH		3	f	1		
74	2533	7	Left Leg	Pre-Trial Jitter		2023_Jan_17_2157	5.001096049905755	r		267.07621049997397		MS MH		3	f	1		
75	2533	44.0	Left Leg	pretrialfixation		2023_Jan_17_2157	0.9955890000564978	r		272.3373494000407		MS MH		3	f	1		
76	2533		Left Leg	0-back	1.0	2023_Jan_17_2157	1.9919277499429882	r	0.0	273.3391990000382	0.680093300063163	MS MH	12.5	3	f	1	32.0	
77	2533		Left Leg	0-back	1.0	2023_Jan_17_2157	1.9879548499593511	r	0.0	275.34953090001363	0.4800353000173345	MS MH	25.0	3	f	1	32.0	
78	2533		Left Leg	0-back	1.0	2023_Jan_17_2157	1.9889194499701262	r	0.0	277.34906749997754	0.4504445999627933	MS MH	37.5	3	f	1	32.0	
79	2533		Left Leg	0-back	1.0	2023_Jan_17_2157	1.9884545500390232	r	0.0	279.3493160000071	0.4330533999018371	MS MH	50.0	3	f	1	32.0	
80	2533		Left Leg	0-back	1.0	2023_Jan_17_2157	1.988865250023082	r	0.0	281.349144399981	0.41779149998910725	MS MH	62.5	3	f	1	32.0	
81	2533		Left Leg	0-back	1.0	2023_Jan_17_2157	1.9891030499711633	r	0.0	283.3490418000147	0.3967267998959869	MS MH	75.0	3	f	1	32.0	
82	2533		Left Leg	0-back	1.0	2023_Jan_17_2157	1.988949149963446	r	0.0	285.349129499984	0.39634830004069954	MS MH	87.5	3	f	1	32.0	
83	2533		Left Leg	0-back	1.0	2023_Jan_17_2157	1.9887865500058979	r	0.0	287.3492326999549	0.363568399916403	MS MH	100.0	3	f	1	32.0	
84	2533	48.0	Left Leg	ScoreReport		2023_Jan_17_2157	5.005054249893874	r		289.3577923999401		MS MH		3	f	1		
85	2533	8	Left Leg	Post-Trial Jitter		2023_Jan_17_2157	9.00573059997987	r		294.41588789992966		MS MH		3	f	1		
86	2533	51	Left Leg	Expectancy		2023_Jan_17_2157	5.003355449764058	r		304.6255130999489	3.283621900016442	MS MH		3	f	1		24.814814814814813
87	2533	44	Left Leg	0-back Instruction		2023_Jan_17_2157	5.016469849972054	r		310.0356543000089		MS MH		3	f	1		
88	2533	7	Left Leg	Pre-Trial Jitter		2023_Jan_17_2157	5.000619349884801	r		315.06027330004144		MS MH		3	f	1		
89	2533	44.0	Left Leg	pretrialfixation		2023_Jan_17_2157	1.000797100015916	r		320.3935710999649		MS MH		3	f	1		
90	2533		Left Leg	0-back	1.0	2023_Jan_17_2157	1.9909160499228165	r	0.0	321.4068574999692	0.7467337000416592	MS MH	12.5	3	f	1	47.0	
91	2533		Left Leg	0-back	1.0	2023_Jan_17_2157	1.9881020500324667	r	0.0	323.4166190000251	0.5464429999701679	MS MH	25.0	3	f	1	47.0	
92	2533		Left Leg	0-back	1.0	2023_Jan_17_2157	1.9881745500024408	r	0.0	325.4166055000387	0.3841749000130221	MS MH	37.5	3	f	1	47.0	
93	2533		Left Leg	0-back	1.0	2023_Jan_17_2157	1.988942249910906	r	0.0	327.4162434999598	0.3500169001054019	MS MH	50.0	3	f	1	47.0	
94	2533		Left Leg	0-back	1.0	2023_Jan_17_2157	1.9885091501055285	r	0.0	329.4164778999984	0.2832632000790909	MS MH	62.5	3	f	1	47.0	
95	2533		Left Leg	0-back	1.0	2023_Jan_17_2157	1.9889924499439076	r	0.0	331.41625020001084	0.42992459994275123	MS MH	75.0	3	f	1	47.0	
96	2533		Left Leg	0-back	1.0	2023_Jan_17_2157	1.9885506499558687	r	0.0	333.4164906999795	0.367077499977313	MS MH	87.5	3	f	1	47.0	
97	2533		Left Leg	0-back	1.0	2023_Jan_17_2157	1.988299849908799	r	0.0	335.4165933999466	0.4302003999473527	MS MH	100.0	3	f	1	47.0	
98	2533	48.0	Left Leg	ScoreReport		2023_Jan_17_2157	5.004916949896142	r		337.4250133000314		MS MH		3	f	1		
99	2533	8	Left Leg	Post-Trial Jitter		2023_Jan_17_2157	9.007203200017102	r		342.49061610002536		MS MH		3	f	1		
100	2533	20	Left Leg	PainBinary		2023_Jan_17_2157	5.001318400143646	r		351.51863119995687	1.0343237998895347	MS MH		3	f	1		1.0
101	2533	21	Left Leg	IntensityRating		2023_Jan_17_2157	5.013323199935257	r		356.53769399994053	4.066935300012119	MS MH		3	f	1		30.246913580246915
102	2533	23	Left Leg	DistractBinary		2023_Jan_17_2157	5.004886099952273	r		361.56695609993767	2.7836340999929234	MS MH		3	f	1		-1.0
103	2533	9	Left Leg	Post-Q-Jitter		2023_Jan_17_2157	8.994842949905433	r		366.57205099996645		MS MH		3	f	1		
104	2533	51	Left Leg	Expectancy		2023_Jan_17_2157	5.01166679977905	r		376.6804207999958	3.9836441000225022	MS MH		3	f	1		28.827160493827158
105	2533	44	Left Leg	0-back Instruction		2023_Jan_17_2157	5.011545549845323	r		382.0805289000273		MS MH		3	f	1		
106	2533	7	Left Leg	Pre-Trial Jitter		2023_Jan_17_2157	5.002990749897435	r		387.09316019993275		MS MH		3	f	1		
107	2533	44.0	Left Leg	pretrialfixation		2023_Jan_17_2157	1.0029041999951005	r		392.4265806999756		MS MH		3	f	1		
108	2533		Left Leg	0-back	1.0	2023_Jan_17_2157	1.9895003499696031	r	0.0	393.44153389998246	0.8134278000798076	MS MH	12.5	3	f	1	47.0	
109	2533		Left Leg	0-back	1.0	2023_Jan_17_2157	1.9876616499386728	r	0.0	395.45091340004	0.5126699999673292	MS MH	25.0	3	f	1	47.0	
110	2533		Left Leg	0-back	1.0	2023_Jan_17_2157	1.9890945500228554	r	0.0	397.4502081000246	0.3798859000671655	MS MH	37.5	3	f	1	47.0	
111	2533		Left Leg	0-back	1.0	2023_Jan_17_2157	1.9892399499658495	r	0.0	399.4501666999422	0.3634472000412643	MS MH	50.0	3	f	1	47.0	
112	2533		Left Leg	0-back	1.0	2023_Jan_17_2157	1.9887652499601245	r	0.0	401.4504409999354	0.37986019998788834	MS MH	62.5	3	f	1	47.0	
113	2533		Left Leg	0-back	1.0	2023_Jan_17_2157	1.989007549942471	r	0.0	403.4503095999826	0.3629642999731004	MS MH	75.0	3	f	1	47.0	
114	2533		Left Leg	0-back	1.0	2023_Jan_17_2157	1.9880775499623269	r	0.0	405.4508039000211	0.3132906999671832	MS MH	87.5	3	f	1	47.0	
115	2533		Left Leg	0-back	1.0	2023_Jan_17_2157	1.988511050119996	r	0.0	407.45060330000706	0.3464403999969363	MS MH	100.0	3	f	1	47.0	
116	2533	48.0	Left Leg	ScoreReport		2023_Jan_17_2157	5.004719149903394	r		409.4591856999323		MS MH		3	f	1		
117	2533	8	Left Leg	Post-Trial Jitter		2023_Jan_17_2157	5.005547899869271	r		414.5171759999357		MS MH		3	f	1		
118	2533	20	Left Leg	PainBinary		2023_Jan_17_2157	5.002075199969113	r		419.5356238000095	1.2837427000049502	MS MH		3	f	1		1.0
119	2533	21	Left Leg	IntensityRating		2023_Jan_17_2157	5.011914900038391	r		424.5557630000403	2.4336343000177294	MS MH		3	f	1		29.691358024691354
120	2533	23	Left Leg	DistractBinary		2023_Jan_17_2157	5.004844599985518	r		429.58434850000776	1.5170184000162408	MS MH		3	f	1		-1.0
121	2533	9	Left Leg	Post-Q-Jitter		2023_Jan_17_2157	4.993919449974783	r		434.5898485999787		MS MH		3	f	1		
122	2533	51	Left Leg	Expectancy		2023_Jan_17_2157	5.001181099913083	r		439.8779450999573	2.9669865999603644	MS MH		3	f	1		25.61728395061728
123	2533	45	Left Leg	2-back Instruction		2023_Jan_17_2157	5.0062244000146165	r		445.27548079995904		MS MH		3	f	1		
124	2533	7	Left Leg	Pre-trial Jitter		2023_Jan_17_2157	9.002669249894097	r		450.29398650000803		MS MH		3	f	1		
125	2533	44.0	Left Leg	pretrialfixation		2023_Jan_17_2157	1.015929599874653	r		459.61243800004013		MS MH		3	f	1		
126	2533		Left Leg	2-back	1.0	2023_Jan_17_2157	1.9914770498871803	r		460.6246904999716		MS MH	12.5	3	f	1	47.0	
127	2533		Left Leg	2-back	1.0	2023_Jan_17_2157	1.9874172499403358	r		462.6350616000127		MS MH	25.0	3	f	1	47.0	
128	2533		Left Leg	2-back	1.0	2023_Jan_17_2157	1.9871502500027418	r	0	464.6351640999783	0.546882800059393	MS MH	37.5	3	f	1	47.0	
129	2533		Left Leg	2-back	1.0	2023_Jan_17_2157	1.9873545499285683	r	2	466.6351145999506	0.6303056000033394	MS MH	50.0	3	f	1	47.0	
130	2533		Left Leg	2-back	1.0	2023_Jan_17_2157	1.9875562499510124	r	2	468.63503899995703	0.613330899970606	MS MH	62.5	3	f	1	47.0	
131	2533		Left Leg	2-back	1.0	2023_Jan_17_2157	1.9871385500300676	r	2	470.635291100014	0.5467909999424592	MS MH	75.0	3	f	1	47.0	
132	2533		Left Leg	2-back	1.0	2023_Jan_17_2157	1.9877231499413028	r	2	472.6350106999744	0.5967810000292957	MS MH	87.5	3	f	1	47.0	
133	2533		Left Leg	2-back	1.0	2023_Jan_17_2157	1.9866732499795035	r	2	474.63555380003527	0.6299266000278294	MS MH	100.0	3	f	1	47.0	
134	2533	48.0	Left Leg	ScoreReport		2023_Jan_17_2157	5.000797149958089	r		476.6451543000294		MS MH		3	f	1		
135	2533	8	Left Leg	Post-trial Jitter		2023_Jan_17_2157	9.003708299947903	r		481.70211429998744		MS MH		3	f	1		
136	2533	20	Left Leg	PainBinary		2023_Jan_17_2157	5.000619599944912	r		490.72041890001856	1.3170356000773609	MS MH		3	f	1		-1.0
137	2533	21	Left Leg	IntensityRating		2023_Jan_17_2157	5.0120591999730095	r		495.7397599000251	3.283670900040306	MS MH		3	f	1		24.629629629629633
138	2533	9	Left Leg	Post-Q-Jitter		2023_Jan_17_2157	8.994167149998248	r		500.7570931999944		MS MH		3	f	1		
139	2533	51	Left Leg	Expectancy		2023_Jan_17_2157	5.00814574980177	r		510.9251913999906	3.450255199917592	MS MH		3	f	1		25.308641975308642
140	2533	45	Left Leg	2-back Instruction		2023_Jan_17_2157	5.0066085999133065	r		516.3260132999858		MS MH		3	f	1		
141	2533	7	Left Leg	Pre-trial Jitter		2023_Jan_17_2157	5.002040149876848	r		521.3450106999371		MS MH		3	f	1		
142	2533	44.0	Left Leg	pretrialfixation		2023_Jan_17_2157	1.0034708997700363	r		526.6360087000066		MS MH		3	f	1		
143	2533		Left Leg	2-back	1.0	2023_Jan_17_2157	1.9885459499200806	r		527.6434825999895		MS MH	12.5	3	f	1	47.0	
144	2533		Left Leg	2-back	1.0	2023_Jan_17_2157	1.9871242499211803	r		529.6525488999905		MS MH	25.0	3	f	1	47.0	
145	2533		Left Leg	2-back	1.0	2023_Jan_17_2157	1.9877784500131384	r	0	531.6522398999659	0.5468878999818116	MS MH	37.5	3	f	1	47.0	
146	2533		Left Leg	2-back	1.0	2023_Jan_17_2157	1.987536349799484	r	2	533.6523750999477	0.563378099934198	MS MH	50.0	3	f	1	47.0	
147	2533		Left Leg	2-back	1.0	2023_Jan_17_2157	1.9872429500101134	r	2	535.6525240000337	0.6133670000126585	MS MH	62.5	3	f	1	47.0	
148	2533		Left Leg	2-back	1.0	2023_Jan_17_2157	1.9873608499765396	r	2	537.6524918000214	0.5632411000551656	MS MH	75.0	3	f	1	47.0	
149	2533		Left Leg	2-back	1.0	2023_Jan_17_2157	1.9874062499729916	r	0	539.6524872999871	0.5466414999682456	MS MH	87.5	3	f	1	47.0	
150	2533		Left Leg	2-back	1.0	2023_Jan_17_2157	1.9871108500519767	r	2	541.6526514999568	0.5803390999790281	MS MH	100.0	3	f	1	47.0	
151	2533	48.0	Left Leg	ScoreReport		2023_Jan_17_2157	5.000170250074007	r		543.6628232999938		MS MH		3	f	1		
152	2533	8	Left Leg	Post-trial Jitter		2023_Jan_17_2157	6.9994272999465466	r		548.7215832000365		MS MH		3	f	1		
153	2533	20	Left Leg	PainBinary		2023_Jan_17_2157	5.000056200078689	r		555.7379955999786	1.1003017000621185	MS MH		3	f	1		-1.0
154	2533	21	Left Leg	IntensityRating		2023_Jan_17_2157	5.0112238000147045	r		560.7574760999996	2.9169953000964597	MS MH		3	f	1		25.061728395061728
155	2533	9	Left Leg	Post-Q-Jitter		2023_Jan_17_2157	6.993716049939394	r		565.774607899948		MS MH		3	f	1		
156	2533	51	Left Leg	Expectancy		2023_Jan_17_2157	5.00845169974491	r		573.8173425999703	4.133661099942401	MS MH		3	f	1		27.34567901234568
157	2533	44	Left Leg	0-back Instruction		2023_Jan_17_2157	5.012183349812403	r		579.2238640999421		MS MH		3	f	1		
158	2533	7	Left Leg	Pre-Trial Jitter		2023_Jan_17_2157	7.00202164996881	r		584.2456680999603		MS MH		3	f	1		
159	2533	44.0	Left Leg	pretrialfixation		2023_Jan_17_2157	1.0011361499782652	r		591.5544963999419		MS MH		3	f	1		
160	2533		Left Leg	0-back	1.0	2023_Jan_17_2157	1.9916075499495491	r	0.0	592.559288199991	0.5465505999745801	MS MH	12.5	3	f	1	47.0	
161	2533		Left Leg	0-back	1.0	2023_Jan_17_2157	1.987616549944505	r	0.0	594.5696591000305	0.5461787000531331	MS MH	25.0	3	f	1	47.0	
162	2533		Left Leg	0-back	1.0	2023_Jan_17_2157	1.9886899498524144	r	0.0	596.5691278999439	0.38230199995450675	MS MH	37.5	3	f	1	47.0	
163	2533		Left Leg	0-back	1.0	2023_Jan_17_2157	1.9890483500203118	r	0.0	598.56897319993	0.3961977999424562	MS MH	50.0	3	f	1	47.0	
164	2533		Left Leg	0-back	1.0	2023_Jan_17_2157	1.9884983499068767	r	0.0	600.5692493999377	0.3966476999921724	MS MH	62.5	3	f	1	47.0	
165	2533		Left Leg	0-back	1.0	2023_Jan_17_2157	1.9891634499654174	r	0.0	602.5689463999588	0.39555819996166974	MS MH	75.0	3	f	1	47.0	
166	2533		Left Leg	0-back	1.0	2023_Jan_17_2157	1.987150750006549	r	0.0	604.5699622000102	0.41340780002065003	MS MH	87.5	3	f	1	47.0	
167	2533		Left Leg	0-back	1.0	2023_Jan_17_2157	1.9875321498839185	r	0.0	606.5697695999406	0.39679290005005896	MS MH	100.0	3	f	1	47.0	
168	2533	48.0	Left Leg	ScoreReport		2023_Jan_17_2157	5.004462549928576	r		608.578030899982		MS MH		3	f	1		
169	2533	8	Left Leg	Post-Trial Jitter		2023_Jan_17_2157	5.003865400096402	r		613.6367209999589		MS MH		3	f	1		
170	2533	20	Left Leg	PainBinary		2023_Jan_17_2157	5.002615100005642	r		618.6540514000226	1.5336402000393718	MS MH		3	f	1		-1.0
171	2533	21	Left Leg	IntensityRating		2023_Jan_17_2157	5.012376100057736	r		623.6742349999258	2.9503646000521258	MS MH		3	f	1		25.308641975308642
172	2533	9	Left Leg	Post-Q-Jitter		2023_Jan_17_2157	4.995887449942529	r		628.6908582999604		MS MH		3	f	1		
173	2533	51	Left Leg	Expectancy		2023_Jan_17_2157	5.006373499985784	r		633.9690070999786	2.283597799949348	MS MH		3	f	1		25.74074074074074
174	2533	44	Left Leg	0-back Instruction		2023_Jan_17_2157	5.006464199861512	r		639.3606800000416		MS MH		3	f	1		
175	2533	7	Left Leg	Pre-Trial Jitter		2023_Jan_17_2157	9.001136249979027	r		644.3800967999268		MS MH		3	f	1		
176	2533	44.0	Left Leg	pretrialfixation		2023_Jan_17_2157	1.0032556998776272	r		653.704095199937		MS MH		3	f	1		
177	2533		Left Leg	0-back	1.0	2023_Jan_17_2157	1.9913819499779493	r	0.0	654.7100350999972	0.9463238000171259	MS MH	12.5	3	f	1	47.0	
178	2533		Left Leg	0-back	1.0	2023_Jan_17_2157	1.9882263499312103	r	0.0	656.7199712999864	0.650823500007391	MS MH	25.0	3	f	1	47.0	
179	2533		Left Leg	0-back	1.0	2023_Jan_17_2157	1.988895749906078	r	0.0	658.7196547000203	0.4007889999775216	MS MH	37.5	3	f	1	47.0	
180	2533		Left Leg	0-back	1.0	2023_Jan_17_2157	1.9886164498748258	r	0.0	660.7198136999505	0.4630574999609962	MS MH	50.0	3	f	1	47.0	
181	2533		Left Leg	0-back	1.0	2023_Jan_17_2157	1.9886170499958098	r	0.0	662.719824800035	0.45107540010940284	MS MH	62.5	3	f	1	47.0	
182	2533		Left Leg	0-back	1.0	2023_Jan_17_2157	1.9892000498948619	r	0.0	664.7195491000311	0.346831800066866	MS MH	75.0	3	f	1	47.0	
183	2533		Left Leg	0-back	1.0	2023_Jan_17_2157	1.987244249903597	r	0.0	666.7205476999516	0.4339731000363827	MS MH	87.5	3	f	1	47.0	
184	2533		Left Leg	0-back	1.0	2023_Jan_17_2157	1.9891539498930797	r	0.0	668.7196387000149	0.45074210001621395	MS MH	100.0	3	f	1	47.0	
185	2533	48.0	Left Leg	ScoreReport		2023_Jan_17_2157	5.004268949851394	r		670.7287564999424		MS MH		3	f	1		
186	2533	8	Left Leg	Post-Trial Jitter		2023_Jan_17_2157	9.004944800049998	r		675.786827199976		MS MH		3	f	1		
187	2533	20	Left Leg	PainBinary		2023_Jan_17_2157	5.00152670009993	r		684.8052658999804	1.4836505999555811	MS MH		3	f	1		1.0
188	2533	21	Left Leg	IntensityRating		2023_Jan_17_2157	5.01206269999966	r		689.8250506999902	2.8336457000114024	MS MH		3	f	1		30.123456790123456
189	2533	23	Left Leg	DistractBinary		2023_Jan_17_2157	5.004472800064832	r		694.8539070000406	1.9670171000761911	MS MH		3	f	1		-1.0
190	2533	9	Left Leg	Post-Q-Jitter		2023_Jan_17_2157	8.993846550001763	r		699.8592929999577		MS MH		3	f	1		
191	2533	26	Left Leg	ComfortRating		2023_Jan_17_2157	3.8127550000790507	r		708.8749549000058	3.783652500016615	MS MH		3	f	1		-2.962962962962962
192	2533	24	Left Leg	ValenceRating		2023_Jan_17_2157	2.6591728000203148	r		712.7101210999535	2.6336589000420645	MS MH		3	f	1		48.148148148148145
193	2533	26	Left Leg	IntensityRating		2023_Jan_17_2157	2.1473858000244945	r		715.3910462999484	2.117079099989496	MS MH		3	f	1		51.66666666666667
194	2533	27	Left Leg	AvoidanceRating		2023_Jan_17_2157	2.696197200100869	r		717.5583788999356	2.6845331999938935	MS MH		3	f	1		22.222222222222214
195	2533	28	Left Leg	RelaxationRating		2023_Jan_17_2157	2.4525593001162633	r		720.2718891999684	2.433700100053102	MS MH		3	f	1		39.62962962962963
196	2533	29	Left Leg	AttentionRating		2023_Jan_17_2157	2.008977000019513	r		722.7436437000288	1.983614100026898	MS MH		3	f	1		58.64197530864198
197	2533	30	Left Leg	BoredomRating		2023_Jan_17_2157	2.018804999999702	r		724.7720638000173	2.0003833000082523	MS MH		3	f	1		52.53086419753087
198	2533	31	Left Leg	AlertnessRating		2023_Jan_17_2157	5.033768500084989	r		726.8063024999574	5.017006100038998	MS MH		3	f	1		-5.308641975308646
199	2533	32	Left Leg	PosThxRating		2023_Jan_17_2157	3.0805943000596017	r		731.8579325999599	3.036217499990016	MS MH		3	f	1		11.234567901234556
200	2533	33	Left Leg	NegThxRating		2023_Jan_17_2157	1.4296958000632003	r		734.958406199934	1.41744240000844	MS MH		3	f	1		11.851851851851848
201	2533	34	Left Leg	SelfRating		2023_Jan_17_2157	2.64673110016156	r		736.4082626999589	2.6197124999016523	MS MH		3	f	1		20.370370370370367
202	2533	35	Left Leg	OtherRating		2023_Jan_17_2157	2.3324720000382513	r		739.0737309999531	2.3168925000354648	MS MH		3	f	1		20.0
203	2533	32	Left Leg	ImageryRating		2023_Jan_17_2157	2.0616943000350147	r		741.4258064000169	2.0336920999689028	MS MH		3	f	1		22.46913580246914
204	2533	37	Left Leg	PresentRating		2023_Jan_17_2157	1.9754709000699222	r		743.5106246999931	1.9503209000686184	MS MH		3	f	1		23.580246913580254
