RestT1,TaskT1,square,location,corrAns,counterbalancer.thisRepN,counterbalancer.thisTrialN,counterbalancer.thisN,counterbalancer.thisIndex,RestT1Loop.thisRepN,RestT1Loop.thisTrialN,RestT1Loop.thisN,RestT1Loop.thisIndex,TaskT1Loop.thisRepN,TaskT1Loop.thisTrialN,TaskT1Loop.thisN,TaskT1Loop.thisIndex,trials_2.thisRepN,trials_2.thisTrialN,trials_2.thisN,trials_2.thisIndex,fixation_1.started,fixation_1.stopped,NbackInstructions.started,NbackInstructions.stopped,NbackStart.keys,NbackStart.rt,NbackStart.started,NbackStart.stopped,fixation_2.started,fixation_2.stopped,response_2.x,response_2.y,response_2.leftButton,grid_lines_2.started,grid_lines_2.stopped,target_square_2.started,target_square_2.stopped,fixation_3.started,fixation_3.stopped,response_2.click,response_2.corr,response_2.started,response_2.stopped,subject number,gender,session,handedness,scanner,date,expName,psychopyVersion,frameRate,
1,0,,,,0,0,0,0,0,0,0,0,,,,,,,,,68.04952130001038,None,,,,,,,,,,,,,,,,,,,,,,1,m,28,r,MCK,2022_Jan_03_2004,WASABI Nback,2020.2.10,59.97440292541698,
0,1,,,,0,1,1,1,,,,,0,0,0,0,,,,,,,345.9851610001642,None,space,26.57468510000035,345.9851610001642,None,,,,,,,,,,,,,,,,1,m,28,r,MCK,2022_Jan_03_2004,WASABI Nback,2020.2.10,59.97440292541698,
0,1,5,"[0, 0]",None,0,1,1,1,,,,,0,0,0,0,0,0,0,0,,,,,,,,,None,None,None,None,[],None,None,None,None,None,None,[],[],None,None,1,m,28,r,MCK,2022_Jan_03_2004,WASABI Nback,2020.2.10,59.97440292541698,
0,1,2,"[0, 0.2]",None,0,1,1,1,,,,,0,0,0,0,0,1,1,1,,,,,,,,,,,None,None,[],None,None,None,None,None,None,[],[],None,None,1,m,28,r,MCK,2022_Jan_03_2004,WASABI Nback,2020.2.10,59.97440292541698,
0,1,6,"[0.2, 0]",None,0,1,1,1,,,,,0,0,0,0,0,2,2,2,,,,,,,,,,,None,None,[],None,None,None,None,None,None,[],[],None,None,1,m,28,r,MCK,2022_Jan_03_2004,WASABI Nback,2020.2.10,59.97440292541698,
0,1,9,"[0.2, -0.2]",None,0,1,1,1,,,,,0,0,0,0,0,3,3,3,,,,,,,,,,,None,None,[],None,None,None,None,None,None,[],[],None,None,1,m,28,r,MCK,2022_Jan_03_2004,WASABI Nback,2020.2.10,59.97440292541698,
0,1,3,"[0.2, 0.2]",None,0,1,1,1,,,,,0,0,0,0,0,4,4,4,,,,,,,,,,,None,None,[],None,None,None,None,None,None,[],[],None,None,1,m,28,r,MCK,2022_Jan_03_2004,WASABI Nback,2020.2.10,59.97440292541698,
0,1,9,"[0.2, -0.2]",1,0,1,1,1,,,,,0,0,0,0,0,5,5,5,,,,,,,,,,,None,None,[],None,None,None,None,None,None,[],[],None,None,1,m,28,r,MCK,2022_Jan_03_2004,WASABI Nback,2020.2.10,59.97440292541698,
0,1,7,"[-0.2, -0.2]",None,0,1,1,1,,,,,0,0,0,0,0,6,6,6,,,,,,,,,,,None,None,0,386.06882290006615,None,386.06882290006615,387.0688150001224,387.05216670013033,None,0,1,386.06882290006615,None,1,m,28,r,MCK,2022_Jan_03_2004,WASABI Nback,2020.2.10,59.97440292541698,
0,1,1,"[-0.2, 0.2]",None,0,1,1,1,,,,,0,0,0,0,0,7,7,7,,,,,,,,,,,None,None,0,387.6021649001632,None,387.6021649001632,388.6021654000506,388.58548780018464,389.58549730014056,0,1,387.6021649001632,None,1,m,28,r,MCK,2022_Jan_03_2004,WASABI Nback,2020.2.10,59.97440292541698,
0,1,5,"[0, 0]",None,0,1,1,1,,,,,0,0,0,0,0,8,8,8,,,,,,,,,,,None,None,0,389.6021827000659,None,389.6021827000659,390.60217530000955,390.5855122001376,391.58550300006755,0,1,389.6021827000659,None,1,m,28,r,MCK,2022_Jan_03_2004,WASABI Nback,2020.2.10,59.97440292541698,
0,1,7,"[-0.2, -0.2]",None,0,1,1,1,,,,,0,0,0,0,0,9,9,9,,,,,,,,,,,None,None,0,391.60217740014195,None,391.60217740014195,392.6022067000158,392.5855239999946,393.58554540015757,0,0,391.60217740014195,None,1,m,28,r,MCK,2022_Jan_03_2004,WASABI Nback,2020.2.10,59.97440292541698,
0,1,5,"[0, 0]",1,0,1,1,1,,,,,0,0,0,0,0,10,10,10,,,,,,,,,,,None,None,0,393.6022012999747,None,393.6022012999747,394.6022067000158,394.58553529996425,395.5855484001804,0,0,393.6022012999747,None,1,m,28,r,MCK,2022_Jan_03_2004,WASABI Nback,2020.2.10,59.97440292541698,
0,1,6,"[0.2, 0]",None,0,1,1,1,,,,,0,0,0,0,0,11,11,11,,,,,,,,,,,None,None,0,395.60221490007825,None,395.60221490007825,396.602227000054,396.585551999975,397.58556310017593,0,1,395.60221490007825,None,1,m,28,r,MCK,2022_Jan_03_2004,WASABI Nback,2020.2.10,59.97440292541698,
0,1,3,"[0.2, 0.2]",None,0,1,1,1,,,,,0,0,0,0,0,12,12,12,,,,,,,,,,,None,None,0,397.60224670008756,None,397.60224670008756,398.6022267001681,398.5855805000756,399.5855769000482,0,1,397.60224670008756,None,1,m,28,r,MCK,2022_Jan_03_2004,WASABI Nback,2020.2.10,59.97440292541698,
0,1,6,"[0.2, 0]",1,0,1,1,1,,,,,0,0,0,0,0,13,13,13,,,,,,,,,,,None,None,0,399.6022644001059,None,399.6022644001059,400.60224650008604,400.5855873001274,401.5855980999768,0,0,399.6022644001059,None,1,m,28,r,MCK,2022_Jan_03_2004,WASABI Nback,2020.2.10,59.97440292541698,
0,1,8,"[0, -0.2]",None,0,1,1,1,,,,,0,0,0,0,0,14,14,14,,,,,,,,,,,None,None,0,401.60226710001007,None,401.60226710001007,402.6022795001045,402.5856200000271,403.58561339997686,0,1,401.60226710001007,None,1,m,28,r,MCK,2022_Jan_03_2004,WASABI Nback,2020.2.10,59.97440292541698,
0,1,9,"[0.2, -0.2]",None,0,1,1,1,,,,,0,0,0,0,0,15,15,15,,,,,,,,,,,None,None,0,403.6022852000315,None,403.6022852000315,404.60230240016244,404.58563410001807,405.5856443999801,0,1,403.6022852000315,None,1,m,28,r,MCK,2022_Jan_03_2004,WASABI Nback,2020.2.10,59.97440292541698,
0,1,9,"[0.2, -0.2]",None,0,1,1,1,,,,,0,0,0,0,0,16,16,16,,,,,,,,,,,None,None,0,405.6023012001533,None,405.6023012001533,406.6023069000803,406.5856477001216,407.5856500000227,0,1,405.6023012001533,None,1,m,28,r,MCK,2022_Jan_03_2004,WASABI Nback,2020.2.10,59.97440292541698,
0,1,1,"[-0.2, 0.2]",None,0,1,1,1,,,,,0,0,0,0,0,17,17,17,,,,,,,,,,,None,None,0,407.6023185001686,None,407.6023185001686,408.60231690015644,408.5856638001278,409.5856638001278,0,1,407.6023185001686,None,1,m,28,r,MCK,2022_Jan_03_2004,WASABI Nback,2020.2.10,59.97440292541698,
0,1,3,"[0.2, 0.2]",None,0,1,1,1,,,,,0,0,0,0,0,18,18,18,,,,,,,,,,,None,None,0,409.60232409997843,None,409.60232409997843,410.60234059998766,410.5856714001857,411.5855847001076,0,1,409.60232409997843,None,1,m,28,r,MCK,2022_Jan_03_2004,WASABI Nback,2020.2.10,59.97440292541698,
0,1,5,"[0, 0]",None,0,1,1,1,,,,,0,0,0,0,0,19,19,19,,,,,,,,,,,None,None,0,411.6023455001414,None,411.6023455001414,412.6023662001826,412.58571100002155,413.58568880008534,0,1,411.6023455001414,None,1,m,28,r,MCK,2022_Jan_03_2004,WASABI Nback,2020.2.10,59.97440292541698,
0,1,3,"[0.2, 0.2]",1,0,1,1,1,,,,,0,0,0,0,0,20,20,20,,,,,,,,,,,None,None,0,413.6023628001567,None,413.6023628001567,414.6023811001796,414.58571380004287,415.58572780014947,0,1,413.6023628001567,None,1,m,28,r,MCK,2022_Jan_03_2004,WASABI Nback,2020.2.10,59.97440292541698,
0,1,4,"[-0.2, 0]",None,0,1,1,1,,,,,0,0,0,0,0,21,21,21,,,,,,,,,,,None,None,0,415.6023719999939,None,415.6023719999939,416.60239290003665,416.5857308001723,417.58574000000954,0,1,415.6023719999939,None,1,m,28,r,MCK,2022_Jan_03_2004,WASABI Nback,2020.2.10,59.97440292541698,
0,1,7,"[-0.2, -0.2]",None,0,1,1,1,,,,,0,0,0,0,0,22,22,22,,,,,,,,,,,None,None,0,417.60241030016914,None,417.60241030016914,418.6024054000154,418.5858001001179,419.58575480012223,0,1,417.60241030016914,None,1,m,28,r,MCK,2022_Jan_03_2004,WASABI Nback,2020.2.10,59.97440292541698,
0,1,4,"[-0.2, 0]",1,0,1,1,1,,,,,0,0,0,0,0,23,23,23,,,,,,,,,,,None,None,0,419.60240690014325,None,419.60240690014325,420.6024331001099,420.58575060009025,421.5857552001253,0,1,419.60240690014325,None,1,m,28,r,MCK,2022_Jan_03_2004,WASABI Nback,2020.2.10,59.97440292541698,
0,1,4,"[-0.2, 0]",None,0,1,1,1,,,,,0,0,0,0,0,24,24,24,,,,,,,,,,,None,None,0,421.6023341000546,None,421.6023341000546,422.60242390003987,422.5857774000615,423.5857659999747,0,1,421.6023341000546,None,1,m,28,r,MCK,2022_Jan_03_2004,WASABI Nback,2020.2.10,59.97440292541698,
0,1,5,"[0, 0]",None,0,1,1,1,,,,,0,0,0,0,0,25,25,25,,,,,,,,,,,None,None,0,423.6024409001693,None,423.6024409001693,424.60244700009935,424.58579380018637,425.5858019001316,0,0,423.6024409001693,None,1,m,28,r,MCK,2022_Jan_03_2004,WASABI Nback,2020.2.10,59.97440292541698,
0,1,2,"[0, 0.2]",None,0,1,1,1,,,,,0,0,0,0,0,26,26,26,,,,,,,,,,,None,None,0,425.6024683001451,None,425.6024683001451,426.60247829998843,426.5858120000921,427.58581760013476,0,1,425.6024683001451,None,1,m,28,r,MCK,2022_Jan_03_2004,WASABI Nback,2020.2.10,59.97440292541698,
0,1,6,"[0.2, 0]",None,0,1,1,1,,,,,0,0,0,0,0,27,27,27,,,,,,,,,,,None,None,0,427.6024751001969,None,427.6024751001969,428.6024701001588,428.5858144001104,429.5858393001836,0,1,427.6024751001969,None,1,m,28,r,MCK,2022_Jan_03_2004,WASABI Nback,2020.2.10,59.97440292541698,
0,1,7,"[-0.2, -0.2]",None,0,1,1,1,,,,,0,0,0,0,0,28,28,28,,,,,,,,,,,None,None,0,429.6025296000298,None,429.6025296000298,430.60251500015147,430.5858265000861,431.5858478001319,0,1,429.6025296000298,None,1,m,28,r,MCK,2022_Jan_03_2004,WASABI Nback,2020.2.10,59.97440292541698,
0,1,6,"[0.2, 0]",1,0,1,1,1,,,,,0,0,0,0,0,29,29,29,,,,,,,,,,,None,None,0,431.60252230009064,None,431.60252230009064,432.6025299001485,432.58587730000727,433.58586710016243,0,1,431.60252230009064,None,1,m,28,r,MCK,2022_Jan_03_2004,WASABI Nback,2020.2.10,59.97440292541698,
0,1,6,"[0.2, 0]",None,0,1,1,1,,,,,0,0,0,0,0,30,30,30,,,,,,,,,,,None,None,0,433.6025188001804,None,433.6025188001804,434.6025468001608,434.5858614000026,435.5858819000423,0,1,433.6025188001804,None,1,m,28,r,MCK,2022_Jan_03_2004,WASABI Nback,2020.2.10,59.97440292541698,
0,1,7,"[-0.2, -0.2]",None,0,1,1,1,,,,,0,0,0,0,0,31,31,31,,,,,,,,,,,None,None,0,435.6025821999647,None,435.6025821999647,436.6025421000086,436.5858772001229,437.5858847000636,0,1,435.6025821999647,None,1,m,28,r,MCK,2022_Jan_03_2004,WASABI Nback,2020.2.10,59.97440292541698,
0,1,6,"[0.2, 0]",1,0,1,1,1,,,,,0,0,0,0,0,32,32,32,,,,,,,,,,,None,None,0,437.6025517000817,None,437.6025517000817,438.6025723000057,438.5859068999998,439.5859135000501,0,1,437.6025517000817,None,1,m,28,r,MCK,2022_Jan_03_2004,WASABI Nback,2020.2.10,59.97440292541698,
0,1,2,"[0, 0.2]",None,0,1,1,1,,,,,0,0,0,0,0,33,33,33,,,,,,,,,,,None,None,0,439.60258510010317,None,439.60258510010317,440.6025674000848,440.58591850008816,441.585936000105,0,1,439.60258510010317,None,1,m,28,r,MCK,2022_Jan_03_2004,WASABI Nback,2020.2.10,59.97440292541698,
0,1,5,"[0, 0]",None,0,1,1,1,,,,,0,0,0,0,0,34,34,34,,,,,,,,,,,None,None,0,441.6025897001382,None,441.6025897001382,442.602537299972,442.5859404001385,443.5859521001112,0,1,441.6025897001382,None,1,m,28,r,MCK,2022_Jan_03_2004,WASABI Nback,2020.2.10,59.97440292541698,
0,1,4,"[-0.2, 0]",None,0,1,1,1,,,,,0,0,0,0,0,35,35,35,,,,,,,,,,,None,None,0,443.60262160003185,None,443.60262160003185,444.60262760007754,444.5859466001857,445.585965000093,0,1,443.60262160003185,None,1,m,28,r,MCK,2022_Jan_03_2004,WASABI Nback,2020.2.10,59.97440292541698,
0,1,4,"[-0.2, 0]",None,0,1,1,1,,,,,0,0,0,0,0,36,36,36,,,,,,,,,,,None,None,0,445.602625900181,None,445.602625900181,446.6026459999848,446.58597100013867,447.5859906000551,0,1,445.602625900181,None,1,m,28,r,MCK,2022_Jan_03_2004,WASABI Nback,2020.2.10,59.97440292541698,
0,1,7,"[-0.2, -0.2]",None,0,1,1,1,,,,,0,0,0,0,0,37,37,37,,,,,,,,,,,None,None,0,447.6026300000958,None,447.6026300000958,448.60264980001375,448.58597670006566,449.5859960000962,0,1,447.6026300000958,None,1,m,28,r,MCK,2022_Jan_03_2004,WASABI Nback,2020.2.10,59.97440292541698,
0,1,4,"[-0.2, 0]",1,0,1,1,1,,,,,0,0,0,0,0,38,38,38,,,,,,,,,,,None,None,0,449.6026701000519,None,449.6026701000519,450.6026789001189,450.58604419999756,451.58601710014045,0,1,449.6026701000519,None,1,m,28,r,MCK,2022_Jan_03_2004,WASABI Nback,2020.2.10,59.97440292541698,
0,1,3,"[0.2, 0.2]",None,0,1,1,1,,,,,0,0,0,0,0,39,39,39,,,,,,,,,,,None,None,0,451.6026665000245,None,451.6026665000245,452.60267410008237,452.5860148000065,453.5860151001252,0,1,451.6026665000245,None,1,m,28,r,MCK,2022_Jan_03_2004,WASABI Nback,2020.2.10,59.97440292541698,
0,1,5,"[0, 0]",None,0,1,1,1,,,,,0,0,0,0,0,40,40,40,,,,,,,,,,,None,None,0,453.60262240003794,None,453.60262240003794,454.6026855001692,454.5860464000143,455.5860392001923,0,1,453.60262240003794,None,1,m,28,r,MCK,2022_Jan_03_2004,WASABI Nback,2020.2.10,59.97440292541698,
0,1,3,"[0.2, 0.2]",1,0,1,1,1,,,,,0,0,0,0,0,41,41,41,,,,,,,,,,,None,None,0,455.60269820014946,None,455.60269820014946,456.6027222000994,456.58603930007666,457.5860633000266,0,1,455.60269820014946,None,1,m,28,r,MCK,2022_Jan_03_2004,WASABI Nback,2020.2.10,59.97440292541698,
0,1,1,"[-0.2, 0.2]",None,0,1,1,1,,,,,0,0,0,0,0,42,42,42,,,,,,,,,,,None,None,0,457.60272020008415,None,457.60272020008415,458.6027255000081,458.58607010007836,459.586090200115,0,1,457.60272020008415,None,1,m,28,r,MCK,2022_Jan_03_2004,WASABI Nback,2020.2.10,59.97440292541698,
0,1,9,"[0.2, -0.2]",None,0,1,1,1,,,,,0,0,0,0,0,43,43,43,,,,,,,,,,,None,None,0,459.60275180009194,None,459.60275180009194,460.60275069996715,460.5860890999902,461.5860850000754,0,1,459.60275180009194,None,1,m,28,r,MCK,2022_Jan_03_2004,WASABI Nback,2020.2.10,59.97440292541698,
0,1,9,"[0.2, -0.2]",None,0,1,1,1,,,,,0,0,0,0,0,44,44,44,,,,,,,,,,,None,None,0,461.6027689999901,None,461.6027689999901,462.6027563000098,462.5861057001166,463.58611620008014,0,1,461.6027689999901,None,1,m,28,r,MCK,2022_Jan_03_2004,WASABI Nback,2020.2.10,59.97440292541698,
0,1,8,"[0, -0.2]",None,0,1,1,1,,,,,0,0,0,0,0,45,45,45,,,,,,,,,,,None,None,0,463.602758300025,None,463.602758300025,464.60279310005717,464.5861119001638,465.5861381001305,0,1,463.602758300025,None,1,m,28,r,MCK,2022_Jan_03_2004,WASABI Nback,2020.2.10,59.97440292541698,
0,1,6,"[0.2, 0]",None,0,1,1,1,,,,,0,0,0,0,0,46,46,46,,,,,,,,,,,None,None,0,465.60278620012105,None,465.60278620012105,466.6028071001638,466.5861415001564,467.58608210016973,0,1,465.60278620012105,None,1,m,28,r,MCK,2022_Jan_03_2004,WASABI Nback,2020.2.10,59.97440292541698,
0,1,3,"[0.2, 0.2]",None,0,1,1,1,,,,,0,0,0,0,0,47,47,47,,,,,,,,,,,None,None,0,467.6028083001729,None,467.6028083001729,468.6028179000132,468.5861623000819,469.5861587000545,0,1,467.6028083001729,None,1,m,28,r,MCK,2022_Jan_03_2004,WASABI Nback,2020.2.10,59.97440292541698,
0,1,6,"[0.2, 0]",1,0,1,1,1,,,,,0,0,0,0,0,48,48,48,,,,,,,,,,,None,None,0,469.60288140014745,None,469.60288140014745,470.6028241000604,470.5861567000393,471.58618370001204,0,1,469.60288140014745,None,1,m,28,r,MCK,2022_Jan_03_2004,WASABI Nback,2020.2.10,59.97440292541698,
0,1,5,"[0, 0]",None,0,1,1,1,,,,,0,0,0,0,0,49,49,49,,,,,,,,,,,None,None,0,471.6028344000224,None,471.6028344000224,472.6028428999707,472.5861782999709,473.5861780999694,0,1,471.6028344000224,None,1,m,28,r,MCK,2022_Jan_03_2004,WASABI Nback,2020.2.10,59.97440292541698,
0,1,7,"[-0.2, -0.2]",None,0,1,1,1,,,,,0,0,0,0,0,50,50,50,,,,,,,,,,,None,None,0,473.6028500001412,None,473.6028500001412,474.6028595000971,474.58618580014445,475.58621400012635,0,1,473.6028500001412,None,1,m,28,r,MCK,2022_Jan_03_2004,WASABI Nback,2020.2.10,59.97440292541698,
0,1,5,"[0, 0]",1,0,1,1,1,,,,,0,0,0,0,0,51,51,51,,,,,,,,,,,None,None,0,475.60286430013366,None,475.60286430013366,476.60288970009424,476.58621760015376,477.58623450016603,0,1,475.60286430013366,None,1,m,28,r,MCK,2022_Jan_03_2004,WASABI Nback,2020.2.10,59.97440292541698,
0,1,1,"[-0.2, 0.2]",None,0,1,1,1,,,,,0,0,0,0,0,52,52,52,,,,,,,,,,,None,None,0,477.60285990010016,None,477.60285990010016,478.60288630006835,478.5862183000427,479.5862170001492,0,1,477.60285990010016,None,1,m,28,r,MCK,2022_Jan_03_2004,WASABI Nback,2020.2.10,59.97440292541698,
0,1,7,"[-0.2, -0.2]",None,0,1,1,1,,,,,0,0,0,0,0,53,53,53,,,,,,,,,,,None,None,0,479.602898000041,None,479.602898000041,480.6028973001521,480.5862581001129,481.58624590002,0,1,479.602898000041,None,1,m,28,r,MCK,2022_Jan_03_2004,WASABI Nback,2020.2.10,59.97440292541698,
0,1,9,"[0.2, -0.2]",None,0,1,1,1,,,,,0,0,0,0,0,54,54,54,,,,,,,,,,,None,None,0,481.60293100005947,None,481.60293100005947,482.6029384001158,482.58627369999886,483.58627289999276,0,1,481.60293100005947,None,1,m,28,r,MCK,2022_Jan_03_2004,WASABI Nback,2020.2.10,59.97440292541698,
0,1,3,"[0.2, 0.2]",None,0,1,1,1,,,,,0,0,0,0,0,55,55,55,,,,,,,,,,,None,None,0,483.60294760018587,None,483.60294760018587,484.60292950016446,484.58627890003845,485.5862739000004,0,1,483.60294760018587,None,1,m,28,r,MCK,2022_Jan_03_2004,WASABI Nback,2020.2.10,59.97440292541698,
0,1,9,"[0.2, -0.2]",1,0,1,1,1,,,,,0,0,0,0,0,56,56,56,,,,,,,,,,,None,None,0,485.6029509000946,None,485.6029509000946,486.6029425000306,486.5863094001543,487.5863047000021,0,0,485.6029509000946,None,1,m,28,r,MCK,2022_Jan_03_2004,WASABI Nback,2020.2.10,59.97440292541698,
0,1,6,"[0.2, 0]",None,0,1,1,1,,,,,0,0,0,0,0,57,57,57,,,,,,,,,,,None,None,0,487.6029931001831,None,487.6029931001831,488.6029744001571,488.5862806001678,489.5863077000249,0,1,487.6029931001831,None,1,m,28,r,MCK,2022_Jan_03_2004,WASABI Nback,2020.2.10,59.97440292541698,
0,1,2,"[0, 0.2]",None,0,1,1,1,,,,,0,0,0,0,0,58,58,58,,,,,,,,,,,None,None,0,489.60297820018604,None,489.60297820018604,490.60300300014205,490.5863248000387,491.5863246000372,0,1,489.60297820018604,None,1,m,28,r,MCK,2022_Jan_03_2004,WASABI Nback,2020.2.10,59.97440292541698,
0,1,5,"[0, 0]",None,0,1,1,1,,,,,0,0,0,0,0,59,59,59,,,,,,,,,,,None,None,0,491.6029876000248,None,491.6029876000248,492.60302000003867,492.5862827000674,493.58633640012704,0,1,491.6029876000248,None,1,m,28,r,MCK,2022_Jan_03_2004,WASABI Nback,2020.2.10,59.97440292541698,
0,1,5,"[0, 0]",None,0,1,1,1,,,,,0,0,0,0,0,60,60,60,,,,,,,,,,,None,None,0,493.60303450003266,None,493.60303450003266,494.6030251001939,494.58634540019557,495.586365400115,0,1,493.60303450003266,None,1,m,28,r,MCK,2022_Jan_03_2004,WASABI Nback,2020.2.10,59.97440292541698,
0,1,2,"[0, 0.2]",None,0,1,1,1,,,,,0,0,0,0,0,61,61,61,,,,,,,,,,,None,None,0,495.6030386001803,None,495.6030386001803,496.603037300054,496.58636529999785,497.58631819998845,0,0,495.6030386001803,None,1,m,28,r,MCK,2022_Jan_03_2004,WASABI Nback,2020.2.10,59.97440292541698,
0,1,6,"[0.2, 0]",None,0,1,1,1,,,,,0,0,0,0,0,62,62,62,,,,,,,,,,,None,None,0,497.6030500000343,None,497.6030500000343,498.6030562000815,498.5863978001289,499.5863892000634,0,1,497.6030500000343,None,1,m,28,r,MCK,2022_Jan_03_2004,WASABI Nback,2020.2.10,59.97440292541698,
0,1,9,"[0.2, -0.2]",None,0,1,1,1,,,,,0,0,0,0,0,63,63,63,,,,,,,,,,,None,None,0,499.60306970006786,None,499.60306970006786,500.6030872000847,500.58631310006604,501.58641530014575,0,1,499.60306970006786,None,1,m,28,r,MCK,2022_Jan_03_2004,WASABI Nback,2020.2.10,59.97440292541698,
0,1,3,"[0.2, 0.2]",None,0,1,1,1,,,,,0,0,0,0,0,64,64,64,,,,,,,,,,,None,None,0,501.603091099998,None,501.603091099998,502.6030859001912,502.5864312001504,503.5864268001169,0,1,501.603091099998,None,1,m,28,r,MCK,2022_Jan_03_2004,WASABI Nback,2020.2.10,59.97440292541698,
0,1,9,"[0.2, -0.2]",1,0,1,1,1,,,,,0,0,0,0,0,65,65,65,,,,,,,,,,,None,None,0,503.60309880017303,None,503.60309880017303,504.60312720015645,504.5864409999922,505.586432200158,0,0,503.60309880017303,None,1,m,28,r,MCK,2022_Jan_03_2004,WASABI Nback,2020.2.10,59.97440292541698,
0,1,7,"[-0.2, -0.2]",None,0,1,1,1,,,,,0,0,0,0,0,66,66,66,,,,,,,,,,,None,None,0,505.6031250001397,None,505.6031250001397,506.6031216001138,506.58645850000903,507.5864493001718,0,1,505.6031250001397,None,1,m,28,r,MCK,2022_Jan_03_2004,WASABI Nback,2020.2.10,59.97440292541698,
0,1,1,"[-0.2, 0.2]",None,0,1,1,1,,,,,0,0,0,0,0,67,67,67,,,,,,,,,,,None,None,0,507.60314090014435,None,507.60314090014435,508.60313550010324,508.58655160013586,509.58648540009744,0,1,507.60314090014435,None,1,m,28,r,MCK,2022_Jan_03_2004,WASABI Nback,2020.2.10,59.97440292541698,
0,1,5,"[0, 0]",None,0,1,1,1,,,,,0,0,0,0,0,68,68,68,,,,,,,,,,,None,None,0,509.60315720015205,None,509.60315720015205,510.60316539998166,510.586480300175,511.5864836999681,0,1,509.60315720015205,None,1,m,28,r,MCK,2022_Jan_03_2004,WASABI Nback,2020.2.10,59.97440292541698,
0,1,7,"[-0.2, -0.2]",None,0,1,1,1,,,,,0,0,0,0,0,69,69,69,,,,,,,,,,,None,None,0,511.60316130006686,None,511.60316130006686,512.6031848001294,512.5865046000108,513.5865095001645,0,1,511.60316130006686,None,1,m,28,r,MCK,2022_Jan_03_2004,WASABI Nback,2020.2.10,59.97440292541698,
0,1,5,"[0, 0]",1,0,1,1,1,,,,,0,0,0,0,0,70,70,70,,,,,,,,,,,None,None,0,513.6031800999772,None,513.6031800999772,514.6032028000336,514.586027600104,515.5865283000749,0,1,513.6031800999772,None,1,m,28,r,MCK,2022_Jan_03_2004,WASABI Nback,2020.2.10,59.97440292541698,
0,1,6,"[0.2, 0]",None,0,1,1,1,,,,,0,0,0,0,0,71,71,71,,,,,,,,,,,None,None,0,515.6032138001174,None,515.6032138001174,516.6032166001387,516.5865319001023,517.5865511000156,0,1,515.6032138001174,None,1,m,28,r,MCK,2022_Jan_03_2004,WASABI Nback,2020.2.10,59.97440292541698,
0,1,3,"[0.2, 0.2]",None,0,1,1,1,,,,,0,0,0,0,0,72,72,72,,,,,,,,,,,None,None,0,517.6032291001175,None,517.6032291001175,518.6032319001388,518.5865545000415,519.5865648000035,0,1,517.6032291001175,None,1,m,28,r,MCK,2022_Jan_03_2004,WASABI Nback,2020.2.10,59.97440292541698,
0,1,6,"[0.2, 0]",1,0,1,1,1,,,,,0,0,0,0,0,73,73,73,,,,,,,,,,,None,None,0,519.6032084000763,None,519.6032084000763,520.6032370000612,520.5865762999747,521.5865841000341,0,1,519.6032084000763,None,1,m,28,r,MCK,2022_Jan_03_2004,WASABI Nback,2020.2.10,59.97440292541698,
0,1,8,"[0, -0.2]",None,0,1,1,1,,,,,0,0,0,0,0,74,74,74,,,,,,,,,,,None,None,0,521.6032563000917,None,521.6032563000917,522.6032531000674,522.5865774999838,523.5865987001453,0,1,521.6032563000917,None,1,m,28,r,MCK,2022_Jan_03_2004,WASABI Nback,2020.2.10,59.97440292541698,
0,1,9,"[0.2, -0.2]",None,0,1,1,1,,,,,0,0,0,0,0,75,75,75,,,,,,,,,,,None,None,0,523.6032573000994,None,523.6032573000994,524.6032814001665,524.5865929999854,525.5866001001559,0,1,523.6032573000994,None,1,m,28,r,MCK,2022_Jan_03_2004,WASABI Nback,2020.2.10,59.97440292541698,
0,1,9,"[0.2, -0.2]",None,0,1,1,1,,,,,0,0,0,0,0,76,76,76,,,,,,,,,,,None,None,0,525.6031587000471,None,525.6031587000471,526.6032867000904,526.5866251001135,527.5866156001575,0,1,525.6031587000471,None,1,m,28,r,MCK,2022_Jan_03_2004,WASABI Nback,2020.2.10,59.97440292541698,
0,1,1,"[-0.2, 0.2]",None,0,1,1,1,,,,,0,0,0,0,0,77,77,77,,,,,,,,,,,None,None,0,527.6033179000951,None,527.6033179000951,528.60330409999,528.586625300115,529.5866502001882,0,1,527.6033179000951,None,1,m,28,r,MCK,2022_Jan_03_2004,WASABI Nback,2020.2.10,59.97440292541698,
0,1,3,"[0.2, 0.2]",None,0,1,1,1,,,,,0,0,0,0,0,78,78,78,,,,,,,,,,,None,None,0,529.6033242000267,None,529.6033242000267,530.6033128001727,530.5866496001836,531.5866808001883,0,1,529.6033242000267,None,1,m,28,r,MCK,2022_Jan_03_2004,WASABI Nback,2020.2.10,59.97440292541698,
0,1,5,"[0, 0]",None,0,1,1,1,,,,,0,0,0,0,0,79,79,79,,,,,,,,,,,None,None,0,531.6033169999719,None,531.6033169999719,532.6033288000617,532.5866567001212,533.5866676000878,0,1,531.6033169999719,None,1,m,28,r,MCK,2022_Jan_03_2004,WASABI Nback,2020.2.10,59.97440292541698,
0,1,3,"[0.2, 0.2]",1,0,1,1,1,,,,,0,0,0,0,0,80,80,80,,,,,,,,,,,None,None,0,533.6033527001273,None,533.6033527001273,534.603345700074,534.5866744001396,535.5866976000834,0,0,533.6033527001273,None,1,m,28,r,MCK,2022_Jan_03_2004,WASABI Nback,2020.2.10,59.97440292541698,
0,1,4,"[-0.2, 0]",None,0,1,1,1,,,,,0,0,0,0,0,81,81,81,,,,,,,,,,,None,None,0,535.6033597001806,None,535.6033597001806,536.6033515001182,536.5867038001306,537.5867135999724,0,1,535.6033597001806,None,1,m,28,r,MCK,2022_Jan_03_2004,WASABI Nback,2020.2.10,59.97440292541698,
0,1,7,"[-0.2, -0.2]",None,0,1,1,1,,,,,0,0,0,0,0,82,82,82,,,,,,,,,,,None,None,0,537.6033719000407,None,537.6033719000407,538.6033853001427,538.5867046001367,539.5867310001049,0,1,537.6033719000407,None,1,m,28,r,MCK,2022_Jan_03_2004,WASABI Nback,2020.2.10,59.97440292541698,
0,1,4,"[-0.2, 0]",1,0,1,1,1,,,,,0,0,0,0,0,83,83,83,,,,,,,,,,,None,None,0,539.6033894000575,None,539.6033894000575,540.6033974001184,540.5867337000091,541.5867271001916,0,0,539.6033894000575,None,1,m,28,r,MCK,2022_Jan_03_2004,WASABI Nback,2020.2.10,59.97440292541698,
0,1,4,"[-0.2, 0]",None,0,1,1,1,,,,,0,0,0,0,0,84,84,84,,,,,,,,,,,None,None,0,541.6033987000119,None,541.6033987000119,542.6034164000303,542.5867586000822,543.5867610001005,0,1,541.6033987000119,None,1,m,28,r,MCK,2022_Jan_03_2004,WASABI Nback,2020.2.10,59.97440292541698,
0,1,5,"[0, 0]",None,0,1,1,1,,,,,0,0,0,0,0,85,85,85,,,,,,,,,,,None,None,0,543.6034356001765,None,543.6034356001765,544.6034280001186,544.5867747000884,545.5867763001006,0,1,543.6034356001765,None,1,m,28,r,MCK,2022_Jan_03_2004,WASABI Nback,2020.2.10,59.97440292541698,
0,1,2,"[0, 0.2]",None,0,1,1,1,,,,,0,0,0,0,0,86,86,86,,,,,,,,,,,None,None,0,545.6034322001506,None,545.6034322001506,546.603447200032,546.586832200177,547.5867985000368,0,1,545.6034322001506,None,1,m,28,r,MCK,2022_Jan_03_2004,WASABI Nback,2020.2.10,59.97440292541698,
0,1,6,"[0.2, 0]",None,0,1,1,1,,,,,0,0,0,0,0,87,87,87,,,,,,,,,,,None,None,0,547.6034548000898,None,547.6034548000898,548.6034051000606,548.5867881001905,549.586795500014,0,1,547.6034548000898,None,1,m,28,r,MCK,2022_Jan_03_2004,WASABI Nback,2020.2.10,59.97440292541698,
0,1,7,"[-0.2, -0.2]",None,0,1,1,1,,,,,0,0,0,0,0,88,88,88,,,,,,,,,,,None,None,0,549.6035128000658,None,549.6035128000658,550.6034782000352,550.5868075999897,551.5868260001298,0,1,549.6035128000658,None,1,m,28,r,MCK,2022_Jan_03_2004,WASABI Nback,2020.2.10,59.97440292541698,
0,1,6,"[0.2, 0]",1,0,1,1,1,,,,,0,0,0,0,0,89,89,89,,,,,,,,,,,None,None,0,551.6034796000458,None,551.6034796000458,552.6035085001495,552.5868365999777,553.5868293000385,0,1,551.6034796000458,None,1,m,28,r,MCK,2022_Jan_03_2004,WASABI Nback,2020.2.10,59.97440292541698,
0,1,6,"[0.2, 0]",None,0,1,1,1,,,,,0,0,0,0,0,90,90,90,,,,,,,,,,,None,None,0,553.6034127001185,None,553.6034127001185,554.603504100116,554.586852000095,555.5868598001543,0,1,553.6034127001185,None,1,m,28,r,MCK,2022_Jan_03_2004,WASABI Nback,2020.2.10,59.97440292541698,
0,1,7,"[-0.2, -0.2]",None,0,1,1,1,,,,,0,0,0,0,0,91,91,91,,,,,,,,,,,None,None,0,555.603519400116,None,555.603519400116,556.6035227000248,556.5868735001422,557.5868691999931,0,1,555.603519400116,None,1,m,28,r,MCK,2022_Jan_03_2004,WASABI Nback,2020.2.10,59.97440292541698,
0,1,6,"[0.2, 0]",1,0,1,1,1,,,,,0,0,0,0,0,92,92,92,,,,,,,,,,,None,None,0,557.6035362000111,None,557.6035362000111,558.6035368000157,558.5868887000252,559.5868766000494,0,0,557.6035362000111,None,1,m,28,r,MCK,2022_Jan_03_2004,WASABI Nback,2020.2.10,59.97440292541698,
0,1,2,"[0, 0.2]",None,0,1,1,1,,,,,0,0,0,0,0,93,93,93,,,,,,,,,,,None,None,0,559.6035515000112,None,559.6035515000112,560.6035762999672,560.5868995999917,561.5868945000693,0,1,559.6035515000112,None,1,m,28,r,MCK,2022_Jan_03_2004,WASABI Nback,2020.2.10,59.97440292541698,
0,1,5,"[0, 0]",None,0,1,1,1,,,,,0,0,0,0,0,94,94,94,,,,,,,,,,,None,None,0,561.6035546001513,None,561.6035546001513,562.6035735001788,562.5869160001166,563.586926799966,0,1,561.6035546001513,None,1,m,28,r,MCK,2022_Jan_03_2004,WASABI Nback,2020.2.10,59.97440292541698,
0,1,4,"[-0.2, 0]",None,0,1,1,1,,,,,0,0,0,0,0,95,95,95,,,,,,,,,,,None,None,0,563.6035989001393,None,563.6035989001393,564.6036010000389,564.5869218001608,565.5869430000894,0,1,563.6035989001393,None,1,m,28,r,MCK,2022_Jan_03_2004,WASABI Nback,2020.2.10,59.97440292541698,
0,1,4,"[-0.2, 0]",None,0,1,1,1,,,,,0,0,0,0,0,96,96,96,,,,,,,,,,,None,None,0,565.6036621001549,None,565.6036621001549,566.6036057001911,566.5869416000787,567.586958500091,0,1,565.6036621001549,None,1,m,28,r,MCK,2022_Jan_03_2004,WASABI Nback,2020.2.10,59.97440292541698,
0,1,7,"[-0.2, -0.2]",None,0,1,1,1,,,,,0,0,0,0,0,97,97,97,,,,,,,,,,,None,None,0,567.6036299001426,None,567.6036299001426,568.6036259001121,568.5869714000728,569.5869770999998,0,1,567.6036299001426,None,1,m,28,r,MCK,2022_Jan_03_2004,WASABI Nback,2020.2.10,59.97440292541698,
0,1,4,"[-0.2, 0]",1,0,1,1,1,,,,,0,0,0,0,0,98,98,98,,,,,,,,,,,None,None,0,569.6035707001574,None,569.6035707001574,570.6035792001057,570.5869680000469,571.5869893000927,0,1,569.6035707001574,None,1,m,28,r,MCK,2022_Jan_03_2004,WASABI Nback,2020.2.10,59.97440292541698,
0,1,3,"[0.2, 0.2]",None,0,1,1,1,,,,,0,0,0,0,0,99,99,99,,,,,,,,,,,None,None,0,571.6036578000057,None,571.6036578000057,572.6036591001321,572.5869883000851,573.5869907999877,0,1,571.6036578000057,None,1,m,28,r,MCK,2022_Jan_03_2004,WASABI Nback,2020.2.10,59.97440292541698,
0,1,5,"[0, 0]",None,0,1,1,1,,,,,0,0,0,0,0,100,100,100,,,,,,,,,,,None,None,0,573.6036641001701,None,573.6036641001701,574.6036730001215,574.587002400076,575.5870133000426,0,1,573.6036641001701,None,1,m,28,r,MCK,2022_Jan_03_2004,WASABI Nback,2020.2.10,59.97440292541698,
0,1,3,"[0.2, 0.2]",1,0,1,1,1,,,,,0,0,0,0,0,101,101,101,,,,,,,,,,,None,None,0,575.6036869999953,None,575.6036869999953,576.6036863001063,576.5870144001674,577.587037099991,0,1,575.6036869999953,None,1,m,28,r,MCK,2022_Jan_03_2004,WASABI Nback,2020.2.10,59.97440292541698,
0,1,1,"[-0.2, 0.2]",None,0,1,1,1,,,,,0,0,0,0,0,102,102,102,,,,,,,,,,,None,None,0,577.6036978000775,None,577.6036978000775,578.6037074001506,578.5870527001098,579.5870529001113,0,1,577.6036978000775,None,1,m,28,r,MCK,2022_Jan_03_2004,WASABI Nback,2020.2.10,59.97440292541698,
0,1,9,"[0.2, -0.2]",None,0,1,1,1,,,,,0,0,0,0,0,103,103,103,,,,,,,,,,,None,None,0,579.6037179001141,None,579.6037179001141,580.6037479999941,580.5870555001311,581.5870622000657,0,1,579.6037179001141,None,1,m,28,r,MCK,2022_Jan_03_2004,WASABI Nback,2020.2.10,59.97440292541698,
0,1,9,"[0.2, -0.2]",None,0,1,1,1,,,,,0,0,0,0,0,104,104,104,,,,,,,,,,,None,None,0,581.6037512000185,None,581.6037512000185,582.6037481999956,582.587079100078,583.5870847001206,0,1,581.6037512000185,None,1,m,28,r,MCK,2022_Jan_03_2004,WASABI Nback,2020.2.10,59.97440292541698,
0,1,8,"[0, -0.2]",None,0,1,1,1,,,,,0,0,0,0,0,105,105,105,,,,,,,,,,,None,None,0,583.6037483001128,None,583.6037483001128,584.6037538000382,584.5870844000019,585.5871232000645,0,1,583.6037483001128,None,1,m,28,r,MCK,2022_Jan_03_2004,WASABI Nback,2020.2.10,59.97440292541698,
0,1,6,"[0.2, 0]",None,0,1,1,1,,,,,0,0,0,0,0,106,106,106,,,,,,,,,,,None,None,0,585.603779700119,None,585.603779700119,586.6037749000825,586.5871264000889,587.5871221001726,0,1,585.603779700119,None,1,m,28,r,MCK,2022_Jan_03_2004,WASABI Nback,2020.2.10,59.97440292541698,
0,1,3,"[0.2, 0.2]",None,0,1,1,1,,,,,0,0,0,0,0,107,107,107,,,,,,,,,,,None,None,0,587.6037827001419,None,587.6037827001419,588.6037922000978,588.5871191001497,589.5871399000753,0,1,587.6037827001419,None,1,m,28,r,MCK,2022_Jan_03_2004,WASABI Nback,2020.2.10,59.97440292541698,
0,1,6,"[0.2, 0]",1,0,1,1,1,,,,,0,0,0,0,0,108,108,108,,,,,,,,,,,None,None,0,589.6037936001085,None,589.6037936001085,590.6038023000583,590.5871409000829,591.5871439999901,0,1,589.6037936001085,None,1,m,28,r,MCK,2022_Jan_03_2004,WASABI Nback,2020.2.10,59.97440292541698,
0,1,5,"[0, 0]",None,0,1,1,1,,,,,0,0,0,0,0,109,109,109,,,,,,,,,,,None,None,0,591.6038210000843,None,591.6038210000843,592.6038174000569,592.587150900159,593.5871705000754,0,1,591.6038210000843,None,1,m,28,r,MCK,2022_Jan_03_2004,WASABI Nback,2020.2.10,59.97440292541698,
0,1,7,"[-0.2, -0.2]",None,0,1,1,1,,,,,0,0,0,0,0,110,110,110,,,,,,,,,,,None,None,0,593.6038330001757,None,593.6038330001757,594.6038397001103,594.5871850000694,595.5872367999982,0,1,593.6038330001757,None,1,m,28,r,MCK,2022_Jan_03_2004,WASABI Nback,2020.2.10,59.97440292541698,
0,1,5,"[0, 0]",1,0,1,1,1,,,,,0,0,0,0,0,111,111,111,,,,,,,,,,,None,None,0,595.6038427001331,None,595.6038427001331,596.6038546001073,596.5871952001471,597.5872159001883,0,0,595.6038427001331,None,1,m,28,r,MCK,2022_Jan_03_2004,WASABI Nback,2020.2.10,59.97440292541698,
0,1,1,"[-0.2, 0.2]",None,0,1,1,1,,,,,0,0,0,0,0,112,112,112,,,,,,,,,,,None,None,0,597.603856800124,None,597.603856800124,598.603866700083,598.5872021999676,599.5872216999996,0,1,597.603856800124,None,1,m,28,r,MCK,2022_Jan_03_2004,WASABI Nback,2020.2.10,59.97440292541698,
0,1,7,"[-0.2, -0.2]",None,0,1,1,1,,,,,0,0,0,0,0,113,113,113,,,,,,,,,,,None,None,0,599.6038763001561,None,599.6038763001561,600.6038848999888,600.5872274001595,601.5872279000469,0,1,599.6038763001561,None,1,m,28,r,MCK,2022_Jan_03_2004,WASABI Nback,2020.2.10,59.97440292541698,
0,1,9,"[0.2, -0.2]",None,0,1,1,1,,,,,0,0,0,0,0,114,114,114,,,,,,,,,,,None,None,0,601.6038909000345,None,601.6038909000345,602.6039126999676,602.5872351001017,603.5872663999908,0,1,601.6038909000345,None,1,m,28,r,MCK,2022_Jan_03_2004,WASABI Nback,2020.2.10,59.97440292541698,
0,1,3,"[0.2, 0.2]",None,0,1,1,1,,,,,0,0,0,0,0,115,115,115,,,,,,,,,,,None,None,0,603.6039150999859,None,603.6039150999859,604.6039225000422,604.5872651000973,605.5872802999802,0,1,603.6039150999859,None,1,m,28,r,MCK,2022_Jan_03_2004,WASABI Nback,2020.2.10,59.97440292541698,
0,1,9,"[0.2, -0.2]",1,0,1,1,1,,,,,0,0,0,0,0,116,116,116,,,,,,,,,,,None,None,0,605.6039309001062,None,605.6039309001062,606.6039370000362,606.5872728000395,607.587291300064,0,1,605.6039309001062,None,1,m,28,r,MCK,2022_Jan_03_2004,WASABI Nback,2020.2.10,59.97440292541698,
0,1,6,"[0.2, 0]",None,0,1,1,1,,,,,0,0,0,0,0,117,117,117,,,,,,,,,,,None,None,0,607.6039440999739,None,607.6039440999739,608.603966700146,608.5872975999955,609.5873143000063,0,1,607.6039440999739,None,1,m,28,r,MCK,2022_Jan_03_2004,WASABI Nback,2020.2.10,59.97440292541698,
0,1,2,"[0, 0.2]",None,0,1,1,1,,,,,0,0,0,0,0,118,118,118,,,,,,,,,,,None,None,0,609.6039561000653,None,609.6039561000653,610.6039627001155,610.5873177000321,611.5873171000276,0,1,609.6039561000653,None,1,m,28,r,MCK,2022_Jan_03_2004,WASABI Nback,2020.2.10,59.97440292541698,
0,1,5,"[0, 0]",None,0,1,1,1,,,,,0,0,0,0,0,119,119,119,,,,,,,,,,,None,None,0,611.6039931001142,None,611.6039931001142,612.6039974000305,612.587339400081,613.5873400000855,0,1,611.6039931001142,None,1,m,28,r,MCK,2022_Jan_03_2004,WASABI Nback,2020.2.10,59.97440292541698,
