square,location,corrAns,trials_2.thisRepN,trials_2.thisTrialN,trials_2.thisN,trials_2.thisIndex,fixation_1.started,fixation_1.stopped,response_2.x,response_2.y,response_2.leftButton,grid_lines_2.started,grid_lines_2.stopped,target_square_2.started,target_square_2.stopped,fixation_3.started,fixation_3.stopped,response_2.click,response_2.corr,response_2.started,response_2.stopped,ScoreReportText.started,ScoreReportText.stopped,ScoreReportResponse.keys,ScoreReportResponse.started,ScoreReportResponse.stopped,BodySiteInstructionText.started,BodySiteImg.started,BodySiteImg.stopped,BodySiteInstructionRead.keys,BodySiteInstructionRead.rt,BodySiteInstructionRead.started,BodySiteInstructionRead.stopped,subject number,gender,distractMap first- or second-half (1 or 2),session,handedness,scanner,bodysite1 temp,bodysite2 temp,date,psychopyVersion,expName,frameRate,body_site_order,
6,"[0.2, 0]",None,0,0,0,0,77.16818549996242,None,None,None,"[0, 0, 0]",78.18486989999656,None,78.18486989999656,79.18485389999114,79.16818989999592,80.16819799994119,"[0, 0, 0]",1,78.18486989999656,None,,,,,,,,,,,,,5,m,2,30,r,MS,49,49,2022_Jul_21_1409,2020.2.10,distractmap2,59.97976282754257,"['Right Face', 'Left Face', 'Right Face', 'Left Face']",
7,"[-0.2, -0.2]",None,0,1,1,1,,,None,None,"[0, 0, 0]",80.18488209997304,82.18489369994495,80.18488209997304,81.18487399991136,81.16814429999795,82.16820049996022,"[0, 0, 0]",1,80.18488209997304,82.18489369994495,,,,,,,,,,,,,5,m,2,30,r,MS,49,49,2022_Jul_21_1409,2020.2.10,distractmap2,59.97976282754257,"['Right Face', 'Left Face', 'Right Face', 'Left Face']",
6,"[0.2, 0]",1,0,2,2,2,,,None,None,"[0, 0, 0]",82.2015363998944,84.20155949995387,82.2015363998944,83.20154839998577,83.18490799993742,84.18490719993133,"[0, 0, 0]",0,82.2015363998944,84.20155949995387,,,,,,,,,,,,,5,m,2,30,r,MS,49,49,2022_Jul_21_1409,2020.2.10,distractmap2,59.97976282754257,"['Right Face', 'Left Face', 'Right Face', 'Left Face']",
2,"[0, 0.2]",0,0,3,3,3,,,None,None,"[0, 0, 0]",84.21823419991415,86.21823499992024,84.21823419991415,85.21824779990129,85.20156909991056,86.20156779990066,"[0, 0, 0]",1,84.21823419991415,86.21823499992024,,,,,,,,,,,,,5,m,2,30,r,MS,49,49,2022_Jul_21_1409,2020.2.10,distractmap2,59.97976282754257,"['Right Face', 'Left Face', 'Right Face', 'Left Face']",
5,"[0, 0]",0,0,4,4,4,,,None,None,"[0, 0, 0]",86.23492939991411,88.23494130000472,86.23492939991411,87.23492949991487,87.21825279993936,88.21826359990519,"[0, 0, 0]",1,86.23492939991411,88.23494130000472,,,,,,,,,,,,,5,m,2,30,r,MS,49,49,2022_Jul_21_1409,2020.2.10,distractmap2,59.97976282754257,"['Right Face', 'Left Face', 'Right Face', 'Left Face']",
4,"[-0.2, 0]",0,0,5,5,5,,,None,None,"[0, 0, 0]",88.25159050000366,90.25160299998242,88.25159050000366,89.25158919999376,89.23494039999787,90.23495630000252,"[0, 0, 0]",1,88.25159050000366,90.25160299998242,,,,,,,,,,,,,5,m,2,30,r,MS,49,49,2022_Jul_21_1409,2020.2.10,distractmap2,59.97976282754257,"['Right Face', 'Left Face', 'Right Face', 'Left Face']",
4,"[-0.2, 0]",0,0,6,6,6,,,None,None,"[0, 0, 0]",90.26826959999744,92.26829389994964,90.26826959999744,91.26828279998153,91.25161659996957,92.25162999995518,"[0, 0, 0]",1,90.26826959999744,92.26829389994964,,,,,,,,,,,,,5,m,2,30,r,MS,49,49,2022_Jul_21_1409,2020.2.10,distractmap2,59.97976282754257,"['Right Face', 'Left Face', 'Right Face', 'Left Face']",
7,"[-0.2, -0.2]",0,0,7,7,7,,,None,None,"[0, 0, 0]",92.2849766999716,94.28499359998386,92.2849766999716,93.28497059992515,93.26829979999457,94.2683154999977,"[0, 0, 0]",1,92.2849766999716,94.28499359998386,,,,,,,,,,,,,5,m,2,30,r,MS,49,49,2022_Jul_21_1409,2020.2.10,distractmap2,59.97976282754257,"['Right Face', 'Left Face', 'Right Face', 'Left Face']",
4,"[-0.2, 0]",1,0,8,8,8,,,None,None,"[0, 0, 0]",94.30164479999803,96.30165289994329,94.30164479999803,95.30165539996233,95.28501279989723,96.28501639992464,"[0, 0, 0]",1,94.30164479999803,96.30165289994329,,,,,,,,,,,,,5,m,2,30,r,MS,49,49,2022_Jul_21_1409,2020.2.10,distractmap2,59.97976282754257,"['Right Face', 'Left Face', 'Right Face', 'Left Face']",
3,"[0.2, 0.2]",0,0,9,9,9,,,None,None,"[0, 0, 0]",96.3183308999287,98.3183582999045,96.3183308999287,97.31833239994012,97.3016644999152,98.3016776998993,"[0, 0, 0]",1,96.3183308999287,98.3183582999045,,,,,,,,,,,,,5,m,2,30,r,MS,49,49,2022_Jul_21_1409,2020.2.10,distractmap2,59.97976282754257,"['Right Face', 'Left Face', 'Right Face', 'Left Face']",
5,"[0, 0]",0,0,10,10,10,,,None,None,"[0, 0, 0]",98.33502050000243,100.33502969995607,98.33502050000243,99.33503459999338,99.31835869990755,100.31836539995857,"[0, 0, 0]",1,98.33502050000243,100.33502969995607,,,,,,,,,,,,,5,m,2,30,r,MS,49,49,2022_Jul_21_1409,2020.2.10,distractmap2,59.97976282754257,"['Right Face', 'Left Face', 'Right Face', 'Left Face']",
3,"[0.2, 0.2]",1,0,11,11,11,,,None,None,"[0, 0, 0]",100.3517083999468,102.3517044999171,100.3517083999468,101.35170090000611,101.33504209993407,102.33505769993644,"[0, 0, 0]",1,100.3517083999468,102.3517044999171,,,,,,,,,,,,,5,m,2,30,r,MS,49,49,2022_Jul_21_1409,2020.2.10,distractmap2,59.97976282754257,"['Right Face', 'Left Face', 'Right Face', 'Left Face']",
1,"[-0.2, 0.2]",0,0,12,12,12,,,None,None,"[0, 0, 0]",102.36838070000522,104.36839999991935,102.36838070000522,103.3683884999482,103.35173009999562,104.35173739993479,"[0, 0, 0]",1,102.36838070000522,104.36839999991935,,,,,,,,,,,,,5,m,2,30,r,MS,49,49,2022_Jul_21_1409,2020.2.10,distractmap2,59.97976282754257,"['Right Face', 'Left Face', 'Right Face', 'Left Face']",
9,"[0.2, -0.2]",0,0,13,13,13,,,None,None,"[0, 0, 0]",104.38508529996034,106.38413679995574,104.38508529996034,105.38508489995729,105.36841689993162,106.36749129998498,"[0, 0, 0]",1,104.38508529996034,106.38413679995574,,,,,,,,,,,,,5,m,2,30,r,MS,49,49,2022_Jul_21_1409,2020.2.10,distractmap2,59.97976282754257,"['Right Face', 'Left Face', 'Right Face', 'Left Face']",
9,"[0.2, -0.2]",0,0,14,14,14,,,None,None,"[0, 0, 0]",106.40082589990925,108.40084349992685,106.40082589990925,107.4008332999656,107.38414669991471,108.3841487999307,"[0, 0, 0]",1,106.40082589990925,108.40084349992685,,,,,,,,,,,,,5,m,2,30,r,MS,49,49,2022_Jul_21_1409,2020.2.10,distractmap2,59.97976282754257,"['Right Face', 'Left Face', 'Right Face', 'Left Face']",
8,"[0, -0.2]",0,0,15,15,15,,,None,None,"[0, 0, 0]",108.4175081999274,110.41827059991192,108.4175081999274,109.41760529996827,109.40093999996316,110.40160230000038,"[0, 0, 0]",1,108.4175081999274,110.41827059991192,,,,,,,,,,,,,5,m,2,30,r,MS,49,49,2022_Jul_21_1409,2020.2.10,distractmap2,59.97976282754257,"['Right Face', 'Left Face', 'Right Face', 'Left Face']",
6,"[0.2, 0]",0,0,16,16,16,,,None,None,"[0, 0, 0]",110.43490499991458,112.43514109996613,110.43490499991458,111.43491069995798,111.41827029990964,112.4184579999419,"[0, 0, 0]",1,110.43490499991458,112.43514109996613,,,,,,,,,,,,,5,m,2,30,r,MS,49,49,2022_Jul_21_1409,2020.2.10,distractmap2,59.97976282754257,"['Right Face', 'Left Face', 'Right Face', 'Left Face']",
3,"[0.2, 0.2]",0,0,17,17,17,,,None,None,"[0, 0, 0]",112.45181130000856,114.45181869994849,112.45181130000856,113.45180489995982,113.43515259993728,114.435152299935,"[0, 0, 0]",1,112.45181130000856,114.45181869994849,,,,,,,,,,,,,5,m,2,30,r,MS,49,49,2022_Jul_21_1409,2020.2.10,distractmap2,59.97976282754257,"['Right Face', 'Left Face', 'Right Face', 'Left Face']",
6,"[0.2, 0]",1,0,18,18,18,,,None,None,"[0, 0, 0]",114.46849129989278,116.46853209997062,114.46849129989278,115.46852140000556,115.45183949999046,116.45184509991668,"[0, 0, 0]",1,114.46849129989278,116.46853209997062,,,,,,,,,,,,,5,m,2,30,r,MS,49,49,2022_Jul_21_1409,2020.2.10,distractmap2,59.97976282754257,"['Right Face', 'Left Face', 'Right Face', 'Left Face']",
5,"[0, 0]",0,0,19,19,19,,,None,None,"[0, 0, 0]",116.48518209997565,118.48518600000534,116.48518209997565,117.48517999995966,117.4685121999355,118.4685235999059,"[0, 0, 0]",1,116.48518209997565,118.48518600000534,,,,,,,,,,,,,5,m,2,30,r,MS,49,49,2022_Jul_21_1409,2020.2.10,distractmap2,59.97976282754257,"['Right Face', 'Left Face', 'Right Face', 'Left Face']",
7,"[-0.2, -0.2]",0,0,20,20,20,,,None,None,"[0, 0, 0]",118.50178229995072,120.5018702999223,118.50178229995072,119.50186709989794,119.48519709997345,120.48520120000467,"[0, 0, 0]",1,118.50178229995072,120.5018702999223,,,,,,,,,,,,,5,m,2,30,r,MS,49,49,2022_Jul_21_1409,2020.2.10,distractmap2,59.97976282754257,"['Right Face', 'Left Face', 'Right Face', 'Left Face']",
5,"[0, 0]",1,0,21,21,21,,,None,None,"[0, 0, 0]",120.51853289990686,122.51854799990542,120.51853289990686,121.51854560000356,121.50188749993686,122.50188909994904,"[0, 0, 0]",1,120.51853289990686,122.51854799990542,,,,,,,,,,,,,5,m,2,30,r,MS,49,49,2022_Jul_21_1409,2020.2.10,distractmap2,59.97976282754257,"['Right Face', 'Left Face', 'Right Face', 'Left Face']",
1,"[-0.2, 0.2]",0,0,22,22,22,,,None,None,"[0, 0, 0]",122.53522540000267,None,122.53522540000267,123.53525369998533,123.51855459995568,124.58518860000186,"[0, 0, 0]",1,122.53522540000267,None,,,,,,,,,,,,,5,m,2,30,r,MS,49,49,2022_Jul_21_1409,2020.2.10,distractmap2,59.97976282754257,"['Right Face', 'Left Face', 'Right Face', 'Left Face']",
7,"[-0.2, -0.2]",0,0,23,23,23,,,None,None,"[0, 0, 0]",124.6019000998931,126.60180899989791,124.6019000998931,125.60192109993659,125.58515529998112,126.58527789998334,"[0, 0, 0]",1,124.6019000998931,126.60180899989791,,,,,,,,,,,,,5,m,2,30,r,MS,49,49,2022_Jul_21_1409,2020.2.10,distractmap2,59.97976282754257,"['Right Face', 'Left Face', 'Right Face', 'Left Face']",
9,"[0.2, -0.2]",0,0,24,24,24,,,None,None,"[0, 0, 0]",126.61859589989763,128.61859379999805,126.61859589989763,127.61861269990914,127.60194349999074,128.60191759990994,"[0, 0, 0]",1,126.61859589989763,128.61859379999805,,,,,,,,,,,,,5,m,2,30,r,MS,49,49,2022_Jul_21_1409,2020.2.10,distractmap2,59.97976282754257,"['Right Face', 'Left Face', 'Right Face', 'Left Face']",
3,"[0.2, 0.2]",0,0,25,25,25,,,None,None,"[0, 0, 0]",128.6352757998975,130.63529020000715,128.6352757998975,129.63521759992,129.61860289995093,130.6186544999946,"[0, 0, 0]",1,128.6352757998975,130.63529020000715,,,,,,,,,,,,,5,m,2,30,r,MS,49,49,2022_Jul_21_1409,2020.2.10,distractmap2,59.97976282754257,"['Right Face', 'Left Face', 'Right Face', 'Left Face']",
9,"[0.2, -0.2]",1,0,26,26,26,,,None,None,"[0, 0, 0]",130.65198269998655,132.65199689997826,130.65198269998655,131.65199699997902,131.63532439991832,132.6353412999306,"[0, 0, 0]",1,130.65198269998655,132.65199689997826,,,,,,,,,,,,,5,m,2,30,r,MS,49,49,2022_Jul_21_1409,2020.2.10,distractmap2,59.97976282754257,"['Right Face', 'Left Face', 'Right Face', 'Left Face']",
6,"[0.2, 0]",0,0,27,27,27,,,None,None,"[0, 0, 0]",132.66863899992313,134.66861729999073,132.66863899992313,133.66867859999184,133.6520140999928,134.6519734999165,"[0, 0, 0]",1,132.66863899992313,134.66861729999073,,,,,,,,,,,,,5,m,2,30,r,MS,49,49,2022_Jul_21_1409,2020.2.10,distractmap2,59.97976282754257,"['Right Face', 'Left Face', 'Right Face', 'Left Face']",
2,"[0, 0.2]",0,0,28,28,28,,,None,None,"[0, 0, 0]",134.68530329992063,136.68533919996116,134.68530329992063,135.6853719999781,135.66868859995157,136.66869259998202,"[0, 0, 0]",1,134.68530329992063,136.68533919996116,,,,,,,,,,,,,5,m,2,30,r,MS,49,49,2022_Jul_21_1409,2020.2.10,distractmap2,59.97976282754257,"['Right Face', 'Left Face', 'Right Face', 'Left Face']",
5,"[0, 0]",0,0,29,29,29,,,None,None,"[0, 0, 0]",136.70201409992296,138.7020323999459,136.70201409992296,137.7020080999937,137.68536459992174,138.68540259997826,"[0, 0, 0]",1,136.70201409992296,138.7020323999459,,,,,,,,,,,,,5,m,2,30,r,MS,49,49,2022_Jul_21_1409,2020.2.10,distractmap2,59.97976282754257,"['Right Face', 'Left Face', 'Right Face', 'Left Face']",
,,,,,,,,,,,,,,,,,,,,,,138.71868279995397,None,space,138.71868279995397,None,,,,,,,,5,m,2,30,r,MS,49,49,2022_Jul_21_1409,2020.2.10,distractmap2,59.97976282754257,"['Right Face', 'Left Face', 'Right Face', 'Left Face']",
,,,,,,,,,,,,,,,,,,,,,,,,,,,151.55238829995506,151.55238829995506,None,space,81.23603769997135,151.55238829995506,None,,,,,,,,,,,,,,
