square,location,corrAns,trials_2.thisRepN,trials_2.thisTrialN,trials_2.thisN,trials_2.thisIndex,fixation_1.started,fixation_1.stopped,response_2.x,response_2.y,response_2.leftButton,grid_lines_2.started,grid_lines_2.stopped,target_square_2.started,target_square_2.stopped,fixation_3.started,fixation_3.stopped,response_2.click,response_2.corr,response_2.started,response_2.stopped,response_2.rt_left,response_2.rt_right,ScoreReportText.started,ScoreReportText.stopped,ScoreReportResponse.keys,ScoreReportResponse.started,ScoreReportResponse.stopped,BodySiteInstructionText.started,BodySiteImg.started,BodySiteImg.stopped,BodySiteInstructionRead.keys,BodySiteInstructionRead.rt,BodySiteInstructionRead.started,BodySiteInstructionRead.stopped,IntensityRating.response,IntensityRating.rt,IntensityRating.started,IntensityRating.stopped,fixation_rest.started,fixation_rest.stopped,subject number,gender,distractMap first- or second-half (1 or 2),session,handedness,scanner,bodysite1 temp,bodysite2 temp,date,psychopyVersion,expName,frameRate,body_site_order,
6,"[0.2, 0]",None,0,0,0,0,39.38573219999671,None,None,None,"[0, 0, 0]",40.40241189999506,None,40.40241189999506,41.40240760007873,41.38573970005382,42.38576140010264,"[0, 0, 0]",1,40.40241189999506,None,,,,,,,,,,,,,,,,,,,,,5,m,2,30,r,MS,49,49,2022_Jul_21_1415,2020.2.10,distractmap2,59.98512368778086,"['Right Face', 'Left Face', 'Right Face', 'Left Face']",
7,"[-0.2, -0.2]",None,0,1,1,1,,,None,None,"[0, 0, 0]",42.40241000009701,44.40242659999058,42.40241000009701,43.40243870008271,43.38577300007455,44.38576480001211,"[0, 0, 0]",1,42.40241000009701,44.40242659999058,,,,,,,,,,,,,,,,,,,,,5,m,2,30,r,MS,49,49,2022_Jul_21_1415,2020.2.10,distractmap2,59.98512368778086,"['Right Face', 'Left Face', 'Right Face', 'Left Face']",
6,"[0.2, 0]",1,0,2,2,2,,,None,None,"[0, 0, 0]",44.419108400004916,46.419134900090285,44.419108400004916,45.41912420000881,45.40243930008728,46.40248230006546,"[0, 0, 0]",1,44.419108400004916,46.419134900090285,,,,,,,,,,,,,,,,,,,,,5,m,2,30,r,MS,49,49,2022_Jul_21_1415,2020.2.10,distractmap2,59.98512368778086,"['Right Face', 'Left Face', 'Right Face', 'Left Face']",
2,"[0, 0.2]",0,0,3,3,3,,,None,None,"[0, 0, 0]",46.435786799993366,48.43580160010606,46.435786799993366,47.435817899997346,47.419142200029455,48.41915970004629,"[0, 0, 0]",1,46.435786799993366,48.43580160010606,,,,,,,,,,,,,,,,,,,,,5,m,2,30,r,MS,49,49,2022_Jul_21_1415,2020.2.10,distractmap2,59.98512368778086,"['Right Face', 'Left Face', 'Right Face', 'Left Face']",
5,"[0, 0]",0,0,4,4,4,,,None,None,"[0, 0, 0]",48.45237410010304,50.45247290004045,48.45237410010304,49.452455700025894,49.435823300038464,50.435815300093964,"[0, 0, 0]",1,48.45237410010304,50.45247290004045,,,,,,,,,,,,,,,,,,,,,5,m,2,30,r,MS,49,49,2022_Jul_21_1415,2020.2.10,distractmap2,59.98512368778086,"['Right Face', 'Left Face', 'Right Face', 'Left Face']",
4,"[-0.2, 0]",0,0,5,5,5,,,None,None,"[0, 0, 0]",50.4691720000701,52.46918690006714,50.4691720000701,51.46917000005487,51.452502500033006,52.45249779999722,"[0, 0, 0]",1,50.4691720000701,52.46918690006714,,,,,,,,,,,,,,,,,,,,,5,m,2,30,r,MS,49,49,2022_Jul_21_1415,2020.2.10,distractmap2,59.98512368778086,"['Right Face', 'Left Face', 'Right Face', 'Left Face']",
4,"[-0.2, 0]",0,0,6,6,6,,,None,None,"[0, 0, 0]",52.48584760003723,54.485851300065406,52.48584760003723,53.48588010005187,53.46919070009608,54.469191200099885,"[0, 0, 0]",1,52.48584760003723,54.485851300065406,,,,,,,,,,,,,,,,,,,,,5,m,2,30,r,MS,49,49,2022_Jul_21_1415,2020.2.10,distractmap2,59.98512368778086,"['Right Face', 'Left Face', 'Right Face', 'Left Face']",
7,"[-0.2, -0.2]",0,0,7,7,7,,,None,None,"[1, 0, 0]",54.502507299999706,56.50252740003634,54.502507299999706,55.502502600080334,55.485860600019805,56.48586930008605,"[1, 0, 0]",1,54.502507299999706,56.50252740003634,1.8881834999192506,0.4502903000684455,,,,,,,,,,,,,,,,,,,5,m,2,30,r,MS,49,49,2022_Jul_21_1415,2020.2.10,distractmap2,59.98512368778086,"['Right Face', 'Left Face', 'Right Face', 'Left Face']",
4,"[-0.2, 0]",1,0,8,8,8,,,None,None,"[0, 0, 0]",56.51920620002784,58.51921440009028,56.51920620002784,57.51920840004459,57.50252120010555,58.50256360007916,"[0, 0, 0]",1,56.51920620002784,58.51921440009028,,,,,,,,,,,,,,,,,,,,,5,m,2,30,r,MS,49,49,2022_Jul_21_1415,2020.2.10,distractmap2,59.98512368778086,"['Right Face', 'Left Face', 'Right Face', 'Left Face']",
3,"[0.2, 0.2]",0,0,9,9,9,,,None,None,"[0, 0, 0]",58.535887100035325,60.53595330007374,58.535887100035325,59.53590760007501,59.519164100056514,60.51923510001507,"[0, 0, 0]",1,58.535887100035325,60.53595330007374,,,,,,,,,,,,,,,,,,,,,5,m,2,30,r,MS,49,49,2022_Jul_21_1415,2020.2.10,distractmap2,59.98512368778086,"['Right Face', 'Left Face', 'Right Face', 'Left Face']",
5,"[0, 0]",0,0,10,10,10,,,None,None,"[0, 0, 0]",60.55258350004442,62.55256660003215,60.55258350004442,61.5525727000786,61.53592550009489,62.53541330003645,"[0, 0, 0]",1,60.55258350004442,62.55256660003215,,,,,,,,,,,,,,,,,,,,,5,m,2,30,r,MS,49,49,2022_Jul_21_1415,2020.2.10,distractmap2,59.98512368778086,"['Right Face', 'Left Face', 'Right Face', 'Left Face']",
3,"[0.2, 0.2]",1,0,11,11,11,,,None,None,"[0, 0, 0]",62.569258700008504,64.56928729999345,62.569258700008504,63.569276300026104,63.5526415000204,64.55249100003857,"[0, 0, 0]",0,62.569258700008504,64.56928729999345,,,,,,,,,,,,,,,,,,,,,5,m,2,30,r,MS,49,49,2022_Jul_21_1415,2020.2.10,distractmap2,59.98512368778086,"['Right Face', 'Left Face', 'Right Face', 'Left Face']",
1,"[-0.2, 0.2]",0,0,12,12,12,,,None,None,"[0, 0, 0]",64.5859564000275,66.58597370004281,64.5859564000275,65.58596040005796,65.56929560005665,66.56929230003152,"[0, 0, 0]",1,64.5859564000275,66.58597370004281,,,,,,,,,,,,,,,,,,,,,5,m,2,30,r,MS,49,49,2022_Jul_21_1415,2020.2.10,distractmap2,59.98512368778086,"['Right Face', 'Left Face', 'Right Face', 'Left Face']",
9,"[0.2, -0.2]",0,0,13,13,13,,,None,None,"[0, 0, 0]",66.60260540002491,68.60263050009962,66.60260540002491,67.60266400000546,67.58598810003605,68.58598570001777,"[0, 0, 0]",1,66.60260540002491,68.60263050009962,,,,,,,,,,,,,,,,,,,,,5,m,2,30,r,MS,49,49,2022_Jul_21_1415,2020.2.10,distractmap2,59.98512368778086,"['Right Face', 'Left Face', 'Right Face', 'Left Face']",
9,"[0.2, -0.2]",0,0,14,14,14,,,None,None,"[0, 0, 0]",68.61932450009044,70.61933680006769,68.61932450009044,69.61932630010415,69.6026466001058,70.60258500010241,"[0, 0, 0]",1,68.61932450009044,70.61933680006769,,,,,,,,,,,,,,,,,,,,,5,m,2,30,r,MS,49,49,2022_Jul_21_1415,2020.2.10,distractmap2,59.98512368778086,"['Right Face', 'Left Face', 'Right Face', 'Left Face']",
8,"[0, -0.2]",0,0,15,15,15,,,None,None,"[1, 0, 0]",70.63598550006282,72.636026400025,70.63598550006282,71.63600779999979,71.61934860004112,72.61935390008148,"[1, 0, 0]",1,70.63598550006282,72.636026400025,1.9335933000547811,0.5169300999259576,,,,,,,,,,,,,,,,,,,5,m,2,30,r,MS,49,49,2022_Jul_21_1415,2020.2.10,distractmap2,59.98512368778086,"['Right Face', 'Left Face', 'Right Face', 'Left Face']",
6,"[0.2, 0]",0,0,16,16,16,,,None,None,"[0, 0, 0]",72.65270740003325,74.65268460009247,72.65270740003325,73.65267770003993,73.63603020005394,74.63603280007374,"[0, 0, 0]",1,72.65270740003325,74.65268460009247,,,,,,,,,,,,,,,,,,,,,5,m,2,30,r,MS,49,49,2022_Jul_21_1415,2020.2.10,distractmap2,59.98512368778086,"['Right Face', 'Left Face', 'Right Face', 'Left Face']",
3,"[0.2, 0.2]",0,0,17,17,17,,,None,None,"[0, 0, 0]",74.66924409999046,76.66938880004454,74.66924409999046,75.66938430001028,75.65272580005694,76.65271650010254,"[0, 0, 0]",1,74.66924409999046,76.66938880004454,,,,,,,,,,,,,,,,,,,,,5,m,2,30,r,MS,49,49,2022_Jul_21_1415,2020.2.10,distractmap2,59.98512368778086,"['Right Face', 'Left Face', 'Right Face', 'Left Face']",
6,"[0.2, 0]",1,0,18,18,18,,,None,None,"[0, 0, 0]",76.68607060005888,78.68606110010296,76.68607060005888,77.68593270005658,77.66938850004226,78.6693936000811,"[0, 0, 0]",1,76.68607060005888,78.68606110010296,,,,,,,,,,,,,,,,,,,,,5,m,2,30,r,MS,49,49,2022_Jul_21_1415,2020.2.10,distractmap2,59.98512368778086,"['Right Face', 'Left Face', 'Right Face', 'Left Face']",
5,"[0, 0]",0,0,19,19,19,,,None,None,"[0, 0, 0]",78.70270170003641,80.70275190006942,78.70270170003641,79.70274179999251,79.686088400078,80.68609130010009,"[0, 0, 0]",1,78.70270170003641,80.70275190006942,,,,,,,,,,,,,,,,,,,,,5,m,2,30,r,MS,49,49,2022_Jul_21_1415,2020.2.10,distractmap2,59.98512368778086,"['Right Face', 'Left Face', 'Right Face', 'Left Face']",
7,"[-0.2, -0.2]",0,0,20,20,20,,,None,None,"[0, 0, 0]",80.71943070006091,82.71943260007538,80.71943070006091,81.71942420001142,81.70274130010512,82.7027444000123,"[0, 0, 0]",1,80.71943070006091,82.71943260007538,,,,,,,,,,,,,,,,,,,,,5,m,2,30,r,MS,49,49,2022_Jul_21_1415,2020.2.10,distractmap2,59.98512368778086,"['Right Face', 'Left Face', 'Right Face', 'Left Face']",
5,"[0, 0]",1,0,21,21,21,,,None,None,"[0, 0, 0]",82.73610209999606,84.7361222000327,82.73610209999606,83.73612340004183,83.71945010009222,84.7194579000352,"[0, 0, 0]",1,82.73610209999606,84.7361222000327,,,,,,,,,,,,,,,,,,,,,5,m,2,30,r,MS,49,49,2022_Jul_21_1415,2020.2.10,distractmap2,59.98512368778086,"['Right Face', 'Left Face', 'Right Face', 'Left Face']",
1,"[-0.2, 0.2]",0,0,22,22,22,,,None,None,"[0, 0, 0]",84.75277970009483,86.75280650006607,84.75277970009483,85.75281219999306,85.73613750003278,86.73615810007323,"[0, 0, 0]",1,84.75277970009483,86.75280650006607,,,,,,,,,,,,,,,,,,,,,5,m,2,30,r,MS,49,49,2022_Jul_21_1415,2020.2.10,distractmap2,59.98512368778086,"['Right Face', 'Left Face', 'Right Face', 'Left Face']",
7,"[-0.2, -0.2]",0,0,23,23,23,,,None,None,"[0, 0, 0]",86.76947130006738,88.76948390004691,86.76947130006738,87.76948440005071,87.75280300003942,88.75280310004018,"[0, 0, 0]",1,86.76947130006738,88.76948390004691,,,,,,,,,,,,,,,,,,,,,5,m,2,30,r,MS,49,49,2022_Jul_21_1415,2020.2.10,distractmap2,59.98512368778086,"['Right Face', 'Left Face', 'Right Face', 'Left Face']",
9,"[0.2, -0.2]",0,0,24,24,24,,,None,None,"[0, 0, 0]",88.78615659999195,90.78618719999213,88.78615659999195,89.78616810007952,89.76950940000825,90.76950960000977,"[0, 0, 0]",1,88.78615659999195,90.78618719999213,,,,,,,,,,,,,,,,,,,,,5,m,2,30,r,MS,49,49,2022_Jul_21_1415,2020.2.10,distractmap2,59.98512368778086,"['Right Face', 'Left Face', 'Right Face', 'Left Face']",
3,"[0.2, 0.2]",0,0,25,25,25,,,None,None,"[0, 0, 0]",90.80281220003963,92.80283580010291,90.80281220003963,91.8028684000019,91.78618050005753,92.78619380004238,"[0, 0, 0]",1,90.80281220003963,92.80283580010291,,,,,,,,,,,,,,,,,,,,,5,m,2,30,r,MS,49,49,2022_Jul_21_1415,2020.2.10,distractmap2,59.98512368778086,"['Right Face', 'Left Face', 'Right Face', 'Left Face']",
9,"[0.2, -0.2]",1,0,26,26,26,,,None,None,"[0, 0, 0]",92.81952450005338,94.81954679999035,92.81952450005338,93.81953730003443,93.80286670010537,94.80286670010537,"[0, 0, 0]",1,92.81952450005338,94.81954679999035,,,,,,,,,,,,,,,,,,,,,5,m,2,30,r,MS,49,49,2022_Jul_21_1415,2020.2.10,distractmap2,59.98512368778086,"['Right Face', 'Left Face', 'Right Face', 'Left Face']",
6,"[0.2, 0]",0,0,27,27,27,,,None,None,"[0, 0, 0]",94.83621310000308,96.83617950009648,94.83621310000308,95.83621580002364,95.81954699999187,96.81957020005211,"[0, 0, 0]",1,94.83621310000308,96.83617950009648,,,,,,,,,,,,,,,,,,,,,5,m,2,30,r,MS,49,49,2022_Jul_21_1415,2020.2.10,distractmap2,59.98512368778086,"['Right Face', 'Left Face', 'Right Face', 'Left Face']",
2,"[0, 0.2]",0,0,28,28,28,,,None,None,"[0, 0, 0]",96.85288960009348,98.8528952000197,96.85288960009348,97.85290620010346,97.83623200003058,98.83626520005055,"[0, 0, 0]",1,96.85288960009348,98.8528952000197,,,,,,,,,,,,,,,,,,,,,5,m,2,30,r,MS,49,49,2022_Jul_21_1415,2020.2.10,distractmap2,59.98512368778086,"['Right Face', 'Left Face', 'Right Face', 'Left Face']",
5,"[0, 0]",0,0,29,29,29,,,None,None,"[0, 0, 0]",98.86958050006069,100.86959510005545,98.86958050006069,99.86957370000891,99.85292680002749,100.85291320004035,"[0, 0, 0]",1,98.86958050006069,100.86959510005545,,,,,,,,,,,,,,,,,,,,,5,m,2,30,r,MS,49,49,2022_Jul_21_1415,2020.2.10,distractmap2,59.98512368778086,"['Right Face', 'Left Face', 'Right Face', 'Left Face']",
,,,,,,,,,,,,,,,,,,,,,,,,100.88628790003713,None,space,100.88628790003713,None,,,,,,,,,,,,,,5,m,2,30,r,MS,49,49,2022_Jul_21_1415,2020.2.10,distractmap2,59.98512368778086,"['Right Face', 'Left Face', 'Right Face', 'Left Face']",
3,"[0.2, 0.2]",None,0,0,0,0,143.9034105000319,None,None,None,"[0, 0, 0]",148.6365948000457,150.63667060004082,148.6365948000457,149.6366823000135,149.6366823000135,150.63667060004082,"[0, 0, 0]",1,148.6365948000457,150.63667060004082,,,,,,,,107.86991800006945,107.86991800006945,None,space,3.0110838999971747,107.86991800006945,None,,,,,,,5,m,2,30,r,MS,49,49,2022_Jul_21_1415,2020.2.10,distractmap2,59.98512368778086,"['Right Face', 'Left Face', 'Right Face', 'Left Face']",
3,"[0.2, 0.2]",None,0,1,1,1,,,None,None,"[0, 0, 0]",150.65335370006505,152.65337110008113,150.65335370006505,151.6532651000889,151.6366766000865,152.63671089999843,"[0, 0, 0]",1,150.65335370006505,152.65337110008113,,,,,,,,,,,,,,,,,,,,,5,m,2,30,r,MS,49,49,2022_Jul_21_1415,2020.2.10,distractmap2,59.98512368778086,"['Right Face', 'Left Face', 'Right Face', 'Left Face']",
5,"[0, 0]",0,0,2,2,2,,,None,None,"[0, 0, 0]",152.6700550999958,154.67006100004073,152.6700550999958,153.67005920002703,153.65336750005372,154.65340310009196,"[0, 0, 0]",1,152.6700550999958,154.67006100004073,,,,,,,,,,,,,,,,,,,,,5,m,2,30,r,MS,49,49,2022_Jul_21_1415,2020.2.10,distractmap2,59.98512368778086,"['Right Face', 'Left Face', 'Right Face', 'Left Face']",
1,"[-0.2, 0.2]",0,0,3,3,3,,,None,None,"[0, 0, 0]",154.68671330006327,156.6867435000604,154.68671330006327,155.68671620008536,155.67006560007576,156.67008380009793,"[0, 0, 0]",1,154.68671330006327,156.6867435000604,,,,,,,,,,,,,,,,,,,,,5,m,2,30,r,MS,49,49,2022_Jul_21_1415,2020.2.10,distractmap2,59.98512368778086,"['Right Face', 'Left Face', 'Right Face', 'Left Face']",
5,"[0, 0]",1,0,4,4,4,,,None,None,"[0, 0, 0]",156.73709519999102,None,156.73709519999102,157.73675340006594,157.72010140004568,None,"[0, 0, 0]",1,156.73709519999102,None,,,,,,,,,,,,,,,,,,,,,5,m,2,30,r,MS,49,49,2022_Jul_21_1415,2020.2.10,distractmap2,59.98512368778086,"['Right Face', 'Left Face', 'Right Face', 'Left Face']",
8,"[0, -0.2]",0,0,5,5,5,,,None,None,"[0, 0, 0]",158.72008570004255,160.72011380002368,158.72008570004255,159.7201052000746,159.70342470007017,160.70344410010148,"[0, 0, 0]",1,158.72008570004255,160.72011380002368,,,,,,,,,,,,,,,,,,,,,5,m,2,30,r,MS,49,49,2022_Jul_21_1415,2020.2.10,distractmap2,59.98512368778086,"['Right Face', 'Left Face', 'Right Face', 'Left Face']",
5,"[0, 0]",1,0,6,6,6,,,None,None,"[0, 0, 0]",160.73677620000672,162.73679440002888,160.73677620000672,161.7367770000128,161.72012270009145,162.72012370009907,"[0, 0, 0]",1,160.73677620000672,162.73679440002888,,,,,,,,,,,,,,,,,,,,,5,m,2,30,r,MS,49,49,2022_Jul_21_1415,2020.2.10,distractmap2,59.98512368778086,"['Right Face', 'Left Face', 'Right Face', 'Left Face']",
7,"[-0.2, -0.2]",0,0,7,7,7,,,None,None,"[0, 0, 0]",162.75344430003315,164.75346120004542,162.75344430003315,163.75345230009407,163.73679710004944,164.73681150004268,"[0, 0, 0]",1,162.75344430003315,164.75346120004542,,,,,,,,,,,,,,,,,,,,,5,m,2,30,r,MS,49,49,2022_Jul_21_1415,2020.2.10,distractmap2,59.98512368778086,"['Right Face', 'Left Face', 'Right Face', 'Left Face']",
5,"[0, 0]",1,0,8,8,8,,,None,None,"[0, 0, 0]",164.77015260001644,166.77017930010334,164.77015260001644,165.77015470003244,165.75348469999153,166.7534972000867,"[0, 0, 0]",1,164.77015260001644,166.77017930010334,,,,,,,,,,,,,,,,,,,,,5,m,2,30,r,MS,49,49,2022_Jul_21_1415,2020.2.10,distractmap2,59.98512368778086,"['Right Face', 'Left Face', 'Right Face', 'Left Face']",
7,"[-0.2, -0.2]",1,0,9,9,9,,,None,None,"[0, 0, 0]",166.78681870002765,168.7868367000483,166.78681870002765,167.78682720009238,167.7701760000782,168.77018260001205,"[0, 0, 0]",1,166.78681870002765,168.7868367000483,,,,,,,,,,,,,,,,,,,,,5,m,2,30,r,MS,49,49,2022_Jul_21_1415,2020.2.10,distractmap2,59.98512368778086,"['Right Face', 'Left Face', 'Right Face', 'Left Face']",
,,,,,,,,,,,,,,,,,,,,,,,,168.82018570008222,None,,,,,,,,,,,,,,,,,5,m,2,30,r,MS,49,49,2022_Jul_21_1415,2020.2.10,distractmap2,59.98512368778086,"['Right Face', 'Left Face', 'Right Face', 'Left Face']",
,,,,,,,,,,,,,,,,,,,,,,,,,,,,,,,,,,,,22.71604938271605,155.64294594014063,,,,,5,m,2,30,r,MS,49,49,2022_Jul_21_1415,2020.2.10,distractmap2,59.98512368778086,"['Right Face', 'Left Face', 'Right Face', 'Left Face']",
6,"[0.2, 0]",None,0,0,0,0,186.0698766000569,None,None,None,"[0, 0, 0]",188.8536715999944,190.853705800022,188.8536715999944,189.8536750000203,189.8536750000203,190.853705800022,"[0, 0, 0]",0,188.8536715999944,190.853705800022,,,,,,,,,,,,,,,,,0.013502159854397178,5.009791359887458,,,5,m,2,30,r,MS,49,49,2022_Jul_21_1415,2020.2.10,distractmap2,59.98512368778086,"['Right Face', 'Left Face', 'Right Face', 'Left Face']",
1,"[-0.2, 0.2]",None,0,1,1,1,,,None,None,"[0, 0, 0]",190.87037130002864,192.87033380009234,190.87037130002864,191.87036820000503,191.85369950009044,192.85369680006988,"[0, 0, 0]",0,190.87037130002864,192.87033380009234,,,,,,,,,,,,,,,,,,,,,5,m,2,30,r,MS,49,49,2022_Jul_21_1415,2020.2.10,distractmap2,59.98512368778086,"['Right Face', 'Left Face', 'Right Face', 'Left Face']",
6,"[0.2, 0]",1,0,2,2,2,,,None,None,"[0, 0, 0]",192.8870551000582,194.88708530005533,192.8870551000582,193.88706540002022,193.87040150002576,194.87051070004236,"[0, 0, 0]",1,192.8870551000582,194.88708530005533,,,,,,,,,,,,,,,,,,,,,5,m,2,30,r,MS,49,49,2022_Jul_21_1415,2020.2.10,distractmap2,59.98512368778086,"['Right Face', 'Left Face', 'Right Face', 'Left Face']",
4,"[-0.2, 0]",0,0,3,3,3,,,None,None,"[0, 0, 0]",194.90373620006721,196.90374740003608,194.90373620006721,195.9037318000337,195.8870767999906,196.88709460000973,"[0, 0, 0]",1,194.90373620006721,196.90374740003608,,,,,,,,,,,,,,,,,,,,,5,m,2,30,r,MS,49,49,2022_Jul_21_1415,2020.2.10,distractmap2,59.98512368778086,"['Right Face', 'Left Face', 'Right Face', 'Left Face']",
1,"[-0.2, 0.2]",0,0,4,4,4,,,None,None,"[0, 0, 0]",196.95398180000484,None,196.95398180000484,197.95374980010092,197.93709240003955,None,"[0, 0, 0]",1,196.95398180000484,None,,,,,,,,,,,,,,,,,,,,,5,m,2,30,r,MS,49,49,2022_Jul_21_1415,2020.2.10,distractmap2,59.98512368778086,"['Right Face', 'Left Face', 'Right Face', 'Left Face']",
8,"[0, -0.2]",0,0,5,5,5,,,None,None,"[0, 0, 0]",198.93711520009674,200.93712960008997,198.93711520009674,199.93710189999547,199.92043320008088,200.92050380003639,"[0, 0, 0]",1,198.93711520009674,200.93712960008997,,,,,,,,,,,,,,,,,,,,,5,m,2,30,r,MS,49,49,2022_Jul_21_1415,2020.2.10,distractmap2,59.98512368778086,"['Right Face', 'Left Face', 'Right Face', 'Left Face']",
1,"[-0.2, 0.2]",1,0,6,6,6,,,None,None,"[0, 0, 0]",200.95378930005245,202.9538109001005,200.95378930005245,201.9537971999962,201.93714860000182,202.93713500001468,"[0, 0, 0]",1,200.95378930005245,202.9538109001005,,,,,,,,,,,,,,,,,,,,,5,m,2,30,r,MS,49,49,2022_Jul_21_1415,2020.2.10,distractmap2,59.98512368778086,"['Right Face', 'Left Face', 'Right Face', 'Left Face']",
8,"[0, -0.2]",1,0,7,7,7,,,None,None,"[0, 0, 0]",202.97047510009725,204.97047450009268,202.97047510009725,203.97047200007364,203.9538202000549,204.9538218000671,"[0, 0, 0]",1,202.97047510009725,204.97047450009268,,,,,,,,,,,,,,,,,,,,,5,m,2,30,r,MS,49,49,2022_Jul_21_1415,2020.2.10,distractmap2,59.98512368778086,"['Right Face', 'Left Face', 'Right Face', 'Left Face']",
1,"[-0.2, 0.2]",1,0,8,8,8,,,None,None,"[0, 0, 0]",204.98717100010253,206.98717690003105,204.98717100010253,205.98705240001436,205.97049630002584,206.97058090008795,"[0, 0, 0]",1,204.98717100010253,206.98717690003105,,,,,,,,,,,,,,,,,,,,,5,m,2,30,r,MS,49,49,2022_Jul_21_1415,2020.2.10,distractmap2,59.98512368778086,"['Right Face', 'Left Face', 'Right Face', 'Left Face']",
6,"[0.2, 0]",0,0,9,9,9,,,None,None,"[0, 0, 0]",207.00386140006594,209.00385390000883,207.00386140006594,208.00385259999894,207.98718290007673,208.98718960001133,"[0, 0, 0]",1,207.00386140006594,209.00385390000883,,,,,,,,,,,,,,,,,,,,,5,m,2,30,r,MS,49,49,2022_Jul_21_1415,2020.2.10,distractmap2,59.98512368778086,"['Right Face', 'Left Face', 'Right Face', 'Left Face']",
,,,,,,,,,,,,,,,,,,,,,,,,209.02051709999796,None,,,,,,,,,,,,,,,,,5,m,2,30,r,MS,49,49,2022_Jul_21_1415,2020.2.10,distractmap2,59.98512368778086,"['Right Face', 'Left Face', 'Right Face', 'Left Face']",
,,,,,,,,,,,,,,,,,,,,,,,,,,,,,,,,,,,,16.79012345679012,193.44392053992487,,,,,5,m,2,30,r,MS,49,49,2022_Jul_21_1415,2020.2.10,distractmap2,59.98512368778086,"['Right Face', 'Left Face', 'Right Face', 'Left Face']",
7,"[-0.2, -0.2]",None,0,0,0,0,224.2708818000974,None,None,None,"[0, 0, 0]",229.0539931000676,231.05405580007937,229.0539931000676,230.05402120004874,230.03736539999954,231.03737210005056,"[0, 0, 0]",1,229.0539931000676,231.05405580007937,,,,,,,,,,,,,,,,,0.012796160066500306,5.008416360011324,,,5,m,2,30,r,MS,49,49,2022_Jul_21_1415,2020.2.10,distractmap2,59.98512368778086,"['Right Face', 'Left Face', 'Right Face', 'Left Face']",
7,"[-0.2, -0.2]",None,0,1,1,1,,,None,None,"[0, 0, 0]",231.07070120004937,233.07071150001138,231.07070120004937,232.07071860006545,232.05406390002463,233.05405120004434,"[0, 0, 0]",1,231.07070120004937,233.07071150001138,,,,,,,,,,,,,,,,,,,,,5,m,2,30,r,MS,49,49,2022_Jul_21_1415,2020.2.10,distractmap2,59.98512368778086,"['Right Face', 'Left Face', 'Right Face', 'Left Face']",
7,"[-0.2, -0.2]",1,0,2,2,2,,,None,None,"[0, 0, 0]",233.0874006000813,235.08741910010576,233.0874006000813,234.0874035001034,234.07073280005716,235.07074630004354,"[0, 0, 0]",1,233.0874006000813,235.08741910010576,,,,,,,,,,,,,,,,,,,,,5,m,2,30,r,MS,49,49,2022_Jul_21_1415,2020.2.10,distractmap2,59.98512368778086,"['Right Face', 'Left Face', 'Right Face', 'Left Face']",
5,"[0, 0]",0,0,3,3,3,,,None,None,"[0, 0, 0]",235.10408580000512,237.10409100004472,235.10408580000512,236.10409200005233,236.08742400002666,237.08743020007387,"[0, 0, 0]",1,235.10408580000512,237.10409100004472,,,,,,,,,,,,,,,,,,,,,5,m,2,30,r,MS,49,49,2022_Jul_21_1415,2020.2.10,distractmap2,59.98512368778086,"['Right Face', 'Left Face', 'Right Face', 'Left Face']",
1,"[-0.2, 0.2]",0,0,4,4,4,,,None,None,"[0, 0, 0]",237.15449179999996,None,237.15449179999996,238.15411350002978,238.13749850005843,None,"[0, 0, 0]",1,237.15449179999996,None,,,,,,,,,,,,,,,,,,,,,5,m,2,30,r,MS,49,49,2022_Jul_21_1415,2020.2.10,distractmap2,59.98512368778086,"['Right Face', 'Left Face', 'Right Face', 'Left Face']",
6,"[0.2, 0]",0,0,5,5,5,,,None,None,"[0, 0, 0]",239.13744030008093,241.13745480007492,239.13744030008093,240.13746560004074,240.12078220001422,241.1207951999968,"[0, 0, 0]",1,239.13744030008093,241.13745480007492,,,,,,,,,,,,,,,,,,,,,5,m,2,30,r,MS,49,49,2022_Jul_21_1415,2020.2.10,distractmap2,59.98512368778086,"['Right Face', 'Left Face', 'Right Face', 'Left Face']",
1,"[-0.2, 0.2]",1,0,6,6,6,,,None,None,"[0, 0, 0]",241.15411740005948,243.1541510000825,241.15411740005948,242.15414670004975,242.13746110000648,243.13746980007272,"[0, 0, 0]",1,241.15411740005948,243.1541510000825,,,,,,,,,,,,,,,,,,,,,5,m,2,30,r,MS,49,49,2022_Jul_21_1415,2020.2.10,distractmap2,59.98512368778086,"['Right Face', 'Left Face', 'Right Face', 'Left Face']",
7,"[-0.2, -0.2]",0,0,7,7,7,,,None,None,"[0, 0, 0]",243.17081680009142,245.17083610000554,243.17081680009142,244.1708243000321,244.15416300005745,245.15415920002852,"[0, 0, 0]",1,243.17081680009142,245.17083610000554,,,,,,,,,,,,,,,,,,,,,5,m,2,30,r,MS,49,49,2022_Jul_21_1415,2020.2.10,distractmap2,59.98512368778086,"['Right Face', 'Left Face', 'Right Face', 'Left Face']",
6,"[0.2, 0]",0,0,8,8,8,,,None,None,"[0, 0, 0]",245.18749600008596,247.18752400006633,245.18749600008596,246.18750070000533,246.1708396000322,247.17084540007636,"[0, 0, 0]",1,245.18749600008596,247.18752400006633,,,,,,,,,,,,,,,,,,,,,5,m,2,30,r,MS,49,49,2022_Jul_21_1415,2020.2.10,distractmap2,59.98512368778086,"['Right Face', 'Left Face', 'Right Face', 'Left Face']",
7,"[-0.2, -0.2]",1,0,9,9,9,,,None,None,"[0, 0, 0]",247.20418520004023,249.20420200005174,247.20418520004023,248.20419670001138,248.18751780001912,249.18753710004967,"[0, 0, 0]",1,247.20418520004023,249.20420200005174,,,,,,,,,,,,,,,,,,,,,5,m,2,30,r,MS,49,49,2022_Jul_21_1415,2020.2.10,distractmap2,59.98512368778086,"['Right Face', 'Left Face', 'Right Face', 'Left Face']",
,,,,,,,,,,,,,,,,,,,,,,,,249.22085230005905,None,,,,,,,,,,,,,,,,,5,m,2,30,r,MS,49,49,2022_Jul_21_1415,2020.2.10,distractmap2,59.98512368778086,"['Right Face', 'Left Face', 'Right Face', 'Left Face']",
,,,,,,,,,,,,,,,,,,,,,,,,,,,,,,,,,,,,16.97530864197531,233.29389513994101,,,,,5,m,2,30,r,MS,49,49,2022_Jul_21_1415,2020.2.10,distractmap2,59.98512368778086,"['Right Face', 'Left Face', 'Right Face', 'Left Face']",
4,"[-0.2, 0]",None,0,0,0,0,264.23766980005894,None,None,None,"[0, 0, 0]",269.2377002000576,271.2377270000288,269.2377002000576,270.23771380004473,270.23771380004473,271.2377270000288,"[0, 0, 0]",1,269.2377002000576,271.2377270000288,,,,,,,,,,,,,,,,,0.013171960017643869,5.009240059996955,,,5,m,2,30,r,MS,49,49,2022_Jul_21_1415,2020.2.10,distractmap2,59.98512368778086,"['Right Face', 'Left Face', 'Right Face', 'Left Face']",
5,"[0, 0]",None,0,1,1,1,,,None,None,"[0, 0, 0]",271.25438070006203,273.25441590009723,271.25438070006203,272.25438840000425,272.23773779999465,273.23774120002054,"[0, 0, 0]",1,271.25438070006203,273.25441590009723,,,,,,,,,,,,,,,,,,,,,5,m,2,30,r,MS,49,49,2022_Jul_21_1415,2020.2.10,distractmap2,59.98512368778086,"['Right Face', 'Left Face', 'Right Face', 'Left Face']",
6,"[0.2, 0]",0,0,2,2,2,,,None,None,"[0, 0, 0]",273.2710966001032,275.27109650010243,273.2710966001032,274.2710930000758,274.25442380004097,275.2544499000069,"[0, 0, 0]",1,273.2710966001032,275.27109650010243,,,,,,,,,,,,,,,,,,,,,5,m,2,30,r,MS,49,49,2022_Jul_21_1415,2020.2.10,distractmap2,59.98512368778086,"['Right Face', 'Left Face', 'Right Face', 'Left Face']",
1,"[-0.2, 0.2]",0,0,3,3,3,,,None,None,"[0, 0, 0]",275.2877523000352,277.28778060001787,275.2877523000352,276.2877510000253,276.27110500005074,277.27110630006064,"[0, 0, 0]",1,275.2877523000352,277.28778060001787,,,,,,,,,,,,,,,,,,,,,5,m,2,30,r,MS,49,49,2022_Jul_21_1415,2020.2.10,distractmap2,59.98512368778086,"['Right Face', 'Left Face', 'Right Face', 'Left Face']",
6,"[0.2, 0]",1,0,4,4,4,,,None,None,"[0, 0, 0]",277.3044493000489,279.3043633000925,277.3044493000489,278.30445660010446,278.2877770999912,279.28778450004756,"[0, 0, 0]",1,277.3044493000489,279.3043633000925,,,,,,,,,,,,,,,,,,,,,5,m,2,30,r,MS,49,49,2022_Jul_21_1415,2020.2.10,distractmap2,59.98512368778086,"['Right Face', 'Left Face', 'Right Face', 'Left Face']",
1,"[-0.2, 0.2]",1,0,5,5,5,,,None,None,"[0, 0, 0]",279.32112810004037,281.3211562000215,279.32112810004037,280.3211638000794,280.30447630002163,281.3044705000939,"[0, 0, 0]",1,279.32112810004037,281.3211562000215,,,,,,,,,,,,,,,,,,,,,5,m,2,30,r,MS,49,49,2022_Jul_21_1415,2020.2.10,distractmap2,59.98512368778086,"['Right Face', 'Left Face', 'Right Face', 'Left Face']",
2,"[0, 0.2]",0,0,6,6,6,,,None,None,"[0, 0, 0]",281.3378135000821,283.33781260007527,281.3378135000821,282.3378195000114,282.3211611000588,283.3211710000178,"[0, 0, 0]",1,281.3378135000821,283.33781260007527,,,,,,,,,,,,,,,,,,,,,5,m,2,30,r,MS,49,49,2022_Jul_21_1415,2020.2.10,distractmap2,59.98512368778086,"['Right Face', 'Left Face', 'Right Face', 'Left Face']",
3,"[0.2, 0.2]",0,0,7,7,7,,,None,None,"[0, 0, 0]",283.3543968000449,285.35442000010516,283.3543968000449,284.3544974999968,284.33783800003584,285.3378326999955,"[0, 0, 0]",1,283.3543968000449,285.35442000010516,,,,,,,,,,,,,,,,,,,,,5,m,2,30,r,MS,49,49,2022_Jul_21_1415,2020.2.10,distractmap2,59.98512368778086,"['Right Face', 'Left Face', 'Right Face', 'Left Face']",
6,"[0.2, 0]",0,0,8,8,8,,,None,None,"[0, 0, 0]",285.3711786000058,287.3712130000349,285.3711786000058,286.3711830000393,286.3545118001057,287.3545216000639,"[0, 0, 0]",1,285.3711786000058,287.3712130000349,,,,,,,,,,,,,,,,,,,,,5,m,2,30,r,MS,49,49,2022_Jul_21_1415,2020.2.10,distractmap2,59.98512368778086,"['Right Face', 'Left Face', 'Right Face', 'Left Face']",
3,"[0.2, 0.2]",1,0,9,9,9,,,None,None,"[0, 0, 0]",287.3878551000962,289.38786870008335,287.3878551000962,288.3878975000698,288.371206000098,289.3712221001042,"[0, 0, 0]",1,287.3878551000962,289.38786870008335,,,,,,,,,,,,,,,,,,,,,5,m,2,30,r,MS,49,49,2022_Jul_21_1415,2020.2.10,distractmap2,59.98512368778086,"['Right Face', 'Left Face', 'Right Face', 'Left Face']",
,,,,,,,,,,,,,,,,,,,,,,,,289.4045308000641,None,,,,,,,,,,,,,,,,,5,m,2,30,r,MS,49,49,2022_Jul_21_1415,2020.2.10,distractmap2,59.98512368778086,"['Right Face', 'Left Face', 'Right Face', 'Left Face']",
2,"[0, 0.2]",None,0,0,0,0,301.4213241999969,None,None,None,"[0, 0, 0]",304.42136050004046,306.4213472000556,304.42136050004046,305.42134450003505,305.42134450003505,306.4213472000556,"[0, 0, 0]",1,304.42136050004046,306.4213472000556,,,,,,,,,,,,,,,,,,,,,5,m,2,30,r,MS,49,49,2022_Jul_21_1415,2020.2.10,distractmap2,59.98512368778086,"['Right Face', 'Left Face', 'Right Face', 'Left Face']",
5,"[0, 0]",None,0,1,1,1,,,None,None,"[0, 0, 0]",306.4380361000076,308.4380659000017,306.4380361000076,307.43806160008535,307.4213625000557,308.4213966000825,"[0, 0, 0]",1,306.4380361000076,308.4380659000017,,,,,,,,,,,,,,,,,,,,,5,m,2,30,r,MS,49,49,2022_Jul_21_1415,2020.2.10,distractmap2,59.98512368778086,"['Right Face', 'Left Face', 'Right Face', 'Left Face']",
6,"[0.2, 0]",0,0,2,2,2,,,None,None,"[0, 0, 0]",308.4547004000051,310.4547240000684,308.4547004000051,309.45471270009875,309.4380565000465,310.4379355000565,"[0, 0, 0]",1,308.4547004000051,310.4547240000684,,,,,,,,,,,,,,,,,,,,,5,m,2,30,r,MS,49,49,2022_Jul_21_1415,2020.2.10,distractmap2,59.98512368778086,"['Right Face', 'Left Face', 'Right Face', 'Left Face']",
1,"[-0.2, 0.2]",0,0,3,3,3,,,None,None,"[0, 0, 0]",310.4714177000569,312.47141870006453,310.4714177000569,311.47141710005235,311.4547436001012,312.4547532000579,"[0, 0, 0]",1,310.4714177000569,312.47141870006453,,,,,,,,,,,,,,,,,,,,,5,m,2,30,r,MS,49,49,2022_Jul_21_1415,2020.2.10,distractmap2,59.98512368778086,"['Right Face', 'Left Face', 'Right Face', 'Left Face']",
6,"[0.2, 0]",1,0,4,4,4,,,None,None,"[0, 0, 0]",312.4880867000902,314.4881669000024,312.4880867000902,313.48809640004765,313.4714545001043,314.47143060003873,"[0, 0, 0]",1,312.4880867000902,314.4881669000024,,,,,,,,,,,,,,,,,,,,,5,m,2,30,r,MS,49,49,2022_Jul_21_1415,2020.2.10,distractmap2,59.98512368778086,"['Right Face', 'Left Face', 'Right Face', 'Left Face']",
6,"[0.2, 0]",0,0,5,5,5,,,None,None,"[0, 0, 0]",314.504771900014,316.5047665000893,314.504771900014,315.5047681001015,315.488109500031,316.48811890010256,"[0, 0, 0]",0,314.504771900014,316.5047665000893,,,,,,,,,,,,,,,,,,,,,5,m,2,30,r,MS,49,49,2022_Jul_21_1415,2020.2.10,distractmap2,59.98512368778086,"['Right Face', 'Left Face', 'Right Face', 'Left Face']",
9,"[0.2, -0.2]",0,0,6,6,6,,,None,None,"[0, 0, 0]",316.521457200055,318.52146250009537,316.521457200055,317.5214533000253,317.50479880010244,318.5047840999905,"[0, 0, 0]",1,316.521457200055,318.52146250009537,,,,,,,,,,,,,,,,,,,,,5,m,2,30,r,MS,49,49,2022_Jul_21_1415,2020.2.10,distractmap2,59.98512368778086,"['Right Face', 'Left Face', 'Right Face', 'Left Face']",
6,"[0.2, 0]",1,0,7,7,7,,,None,None,"[0, 0, 0]",318.5381542000687,320.53813820006326,318.5381542000687,319.5381442999933,319.5214653000003,320.52147420006804,"[0, 0, 0]",1,318.5381542000687,320.53813820006326,,,,,,,,,,,,,,,,,,,,,5,m,2,30,r,MS,49,49,2022_Jul_21_1415,2020.2.10,distractmap2,59.98512368778086,"['Right Face', 'Left Face', 'Right Face', 'Left Face']",
3,"[0.2, 0.2]",0,0,8,8,8,,,None,None,"[0, 0, 0]",320.5548093999969,322.5548228000989,320.5548093999969,321.554816900054,321.53816620004363,322.53816950006876,"[0, 0, 0]",1,320.5548093999969,322.5548228000989,,,,,,,,,,,,,,,,,,,,,5,m,2,30,r,MS,49,49,2022_Jul_21_1415,2020.2.10,distractmap2,59.98512368778086,"['Right Face', 'Left Face', 'Right Face', 'Left Face']",
9,"[0.2, -0.2]",0,0,9,9,9,,,None,None,"[0, 0, 0]",322.5715122000547,324.5715190001065,322.5715122000547,323.571514600073,323.55483410006855,324.55484470003285,"[0, 0, 0]",1,322.5715122000547,324.5715190001065,,,,,,,,,,,,,,,,,,,,,5,m,2,30,r,MS,49,49,2022_Jul_21_1415,2020.2.10,distractmap2,59.98512368778086,"['Right Face', 'Left Face', 'Right Face', 'Left Face']",
,,,,,,,,,,,,,,,,,,,,,,,,324.5881946000736,None,,,,,,,,,,,,,,,,,5,m,2,30,r,MS,49,49,2022_Jul_21_1415,2020.2.10,distractmap2,59.98512368778086,"['Right Face', 'Left Face', 'Right Face', 'Left Face']",
3,"[0.2, 0.2]",None,0,0,0,0,336.6049485000549,None,None,None,"[0, 0, 0]",339.6049728000071,341.60499930009246,339.6049728000071,340.60497990006115,340.60497990006115,341.60499930009246,"[0, 0, 0]",1,339.6049728000071,341.60499930009246,,,,,,,,,,,,,,,,,,,,,5,m,2,30,r,MS,49,49,2022_Jul_21_1415,2020.2.10,distractmap2,59.98512368778086,"['Right Face', 'Left Face', 'Right Face', 'Left Face']",
9,"[0.2, -0.2]",None,0,1,1,1,,,None,None,"[0, 0, 0]",341.6216728000436,343.6216984000057,341.6216728000436,342.6216633000877,342.60500760003924,343.6050230000401,"[0, 0, 0]",1,341.6216728000436,343.6216984000057,,,,,,,,,,,,,,,,,,,,,5,m,2,30,r,MS,49,49,2022_Jul_21_1415,2020.2.10,distractmap2,59.98512368778086,"['Right Face', 'Left Face', 'Right Face', 'Left Face']",
3,"[0.2, 0.2]",1,0,2,2,2,,,None,None,"[0, 0, 0]",343.63834530010354,345.6383718000725,343.63834530010354,344.6383671000367,344.6212003000546,345.6216303000692,"[0, 0, 0]",1,343.63834530010354,345.6383718000725,,,,,,,,,,,,,,,,,,,,,5,m,2,30,r,MS,49,49,2022_Jul_21_1415,2020.2.10,distractmap2,59.98512368778086,"['Right Face', 'Left Face', 'Right Face', 'Left Face']",
7,"[-0.2, -0.2]",0,0,3,3,3,,,None,None,"[0, 0, 0]",345.6550451000221,347.6550666000694,345.6550451000221,346.65506620006636,346.63835790008307,347.6383868000703,"[0, 0, 0]",1,345.6550451000221,347.6550666000694,,,,,,,,,,,,,,,,,,,,,5,m,2,30,r,MS,49,49,2022_Jul_21_1415,2020.2.10,distractmap2,59.98512368778086,"['Right Face', 'Left Face', 'Right Face', 'Left Face']",
8,"[0, -0.2]",0,0,4,4,4,,,None,None,"[0, 0, 0]",347.6717187000904,349.6717413000297,347.6717187000904,348.6717333000852,348.65499870001804,349.65507239999715,"[0, 0, 0]",1,347.6717187000904,349.6717413000297,,,,,,,,,,,,,,,,,,,,,5,m,2,30,r,MS,49,49,2022_Jul_21_1415,2020.2.10,distractmap2,59.98512368778086,"['Right Face', 'Left Face', 'Right Face', 'Left Face']",
4,"[-0.2, 0]",0,0,5,5,5,,,None,None,"[0, 0, 0]",349.6883910000324,351.6884268000722,349.6883910000324,350.68842280004174,350.6717343000928,351.6717567000305,"[0, 0, 0]",1,349.6883910000324,351.6884268000722,,,,,,,,,,,,,,,,,,,,,5,m,2,30,r,MS,49,49,2022_Jul_21_1415,2020.2.10,distractmap2,59.98512368778086,"['Right Face', 'Left Face', 'Right Face', 'Left Face']",
4,"[-0.2, 0]",0,0,6,6,6,,,None,None,"[0, 0, 0]",351.7049612000119,353.70510390005074,351.7049612000119,352.7050802001031,352.6883929000469,353.68841910001356,"[0, 0, 0]",1,351.7049612000119,353.70510390005074,,,,,,,,,,,,,,,,,,,,,5,m,2,30,r,MS,49,49,2022_Jul_21_1415,2020.2.10,distractmap2,59.98512368778086,"['Right Face', 'Left Face', 'Right Face', 'Left Face']",
1,"[-0.2, 0.2]",0,0,7,7,7,,,None,None,"[0, 0, 0]",353.7217773000011,355.72177520010155,353.7217773000011,354.7217715000734,354.70510990009643,355.70512300007977,"[0, 0, 0]",1,353.7217773000011,355.72177520010155,,,,,,,,,,,,,,,,,,,,,5,m,2,30,r,MS,49,49,2022_Jul_21_1415,2020.2.10,distractmap2,59.98512368778086,"['Right Face', 'Left Face', 'Right Face', 'Left Face']",
4,"[-0.2, 0]",1,0,8,8,8,,,None,None,"[0, 0, 0]",355.7384437000146,357.7384838000871,355.7384437000146,356.7384686000878,356.7218009000644,357.72180030005984,"[0, 0, 0]",1,355.7384437000146,357.7384838000871,,,,,,,,,,,,,,,,,,,,,5,m,2,30,r,MS,49,49,2022_Jul_21_1415,2020.2.10,distractmap2,59.98512368778086,"['Right Face', 'Left Face', 'Right Face', 'Left Face']",
8,"[0, -0.2]",0,0,9,9,9,,,None,None,"[0, 0, 0]",357.75513410009444,359.75516850000713,357.75513410009444,358.7551517999964,358.7384821000742,359.7384942000499,"[0, 0, 0]",1,357.75513410009444,359.75516850000713,,,,,,,,,,,,,,,,,,,,,5,m,2,30,r,MS,49,49,2022_Jul_21_1415,2020.2.10,distractmap2,59.98512368778086,"['Right Face', 'Left Face', 'Right Face', 'Left Face']",
,,,,,,,,,,,,,,,,,,,,,,,,359.77180690004025,None,,,,,,,,,,,,,,,,,5,m,2,30,r,MS,49,49,2022_Jul_21_1415,2020.2.10,distractmap2,59.98512368778086,"['Right Face', 'Left Face', 'Right Face', 'Left Face']",
,,,,,,,389.7887829000829,None,,,,,,,,,,,,,,,,,,,,,,,,,,,,13.703703703703706,371.5269132400863,,,369.7884863000363,None,5,m,2,30,r,MS,49,49,2022_Jul_21_1415,2020.2.10,distractmap2,59.98512368778086,"['Right Face', 'Left Face', 'Right Face', 'Left Face']",
,,,,,,,424.80571680003777,None,,,,,,,,,,,,,,,,,,,,,,,,,,,,13.271604938271606,408.92529133998323,0.014661159948445857,5.012186659965664,404.80553060001694,None,5,m,2,30,r,MS,49,49,2022_Jul_21_1415,2020.2.10,distractmap2,59.98512368778086,"['Right Face', 'Left Face', 'Right Face', 'Left Face']",
,,,,,,,459.8227109001018,None,,,,,,,,,,,,,,,,,,,,,,,,,,,,13.148148148148145,443.4611671399325,0.016646760050207376,5.016144660068676,439.8225062000565,None,5,m,2,30,r,MS,49,49,2022_Jul_21_1415,2020.2.10,distractmap2,59.98512368778086,"['Right Face', 'Left Face', 'Right Face', 'Left Face']",
2,"[0, 0.2]",None,0,0,0,0,567.0736478000181,None,None,None,"[0, 0, 0]",569.8569776000222,571.8570135000627,569.8569776000222,570.8570056000026,570.8570056000026,571.8570135000627,"[0, 0, 0]",1,569.8569776000222,571.8570135000627,,,,,,,,,,,,,,,,,0.014413260039873421,5.011730259982869,534.8233271000208,None,5,m,2,30,r,MS,49,49,2022_Jul_21_1415,2020.2.10,distractmap2,59.98512368778086,"['Right Face', 'Left Face', 'Right Face', 'Left Face']",
5,"[0, 0]",None,0,1,1,1,,,None,None,"[0, 0, 0]",571.8736816000892,573.8736826000968,571.8736816000892,572.873680000077,572.8570026000962,573.8570337001001,"[0, 0, 0]",1,571.8736816000892,573.8736826000968,,,,,,,,,,,,,,,,,,,,,5,m,2,30,r,MS,49,49,2022_Jul_21_1415,2020.2.10,distractmap2,59.98512368778086,"['Right Face', 'Left Face', 'Right Face', 'Left Face']",
3,"[0.2, 0.2]",0,0,2,2,2,,,None,None,"[0, 0, 0]",573.8903686000267,575.8903913000831,573.8903686000267,574.8903708000435,574.8737085000612,575.8737149999943,"[0, 0, 0]",1,573.8903686000267,575.8903913000831,,,,,,,,,,,,,,,,,,,,,5,m,2,30,r,MS,49,49,2022_Jul_21_1415,2020.2.10,distractmap2,59.98512368778086,"['Right Face', 'Left Face', 'Right Face', 'Left Face']",
5,"[0, 0]",1,0,3,3,3,,,None,None,"[0, 0, 0]",575.907050400041,577.907067000051,575.907050400041,576.9070447999984,576.8903965000063,577.8903988000238,"[0, 0, 0]",0,575.907050400041,577.907067000051,,,,,,,,,,,,,,,,,,,,,5,m,2,30,r,MS,49,49,2022_Jul_21_1415,2020.2.10,distractmap2,59.98512368778086,"['Right Face', 'Left Face', 'Right Face', 'Left Face']",
2,"[0, 0.2]",0,0,4,4,4,,,None,None,"[0, 0, 0]",577.9573756000027,None,577.9573756000027,578.9570554000093,578.9404133000644,None,"[0, 0, 0]",1,577.9573756000027,None,,,,,,,,,,,,,,,,,,,,,5,m,2,30,r,MS,49,49,2022_Jul_21_1415,2020.2.10,distractmap2,59.98512368778086,"['Right Face', 'Left Face', 'Right Face', 'Left Face']",
8,"[0, -0.2]",0,0,5,5,5,,,None,None,"[0, 0, 0]",579.9404327000957,581.9404388000257,579.9404327000957,580.9404362000059,580.9237514000852,581.9237553999992,"[0, 0, 0]",1,579.9404327000957,581.9404388000257,,,,,,,,,,,,,,,,,,,,,5,m,2,30,r,MS,49,49,2022_Jul_21_1415,2020.2.10,distractmap2,59.98512368778086,"['Right Face', 'Left Face', 'Right Face', 'Left Face']",
4,"[-0.2, 0]",0,0,6,6,6,,,None,None,"[0, 0, 0]",581.9570987001061,583.9571071000537,581.9570987001061,582.9570886000292,582.9404430000577,583.9404333001003,"[0, 0, 0]",1,581.9570987001061,583.9571071000537,,,,,,,,,,,,,,,,,,,,,5,m,2,30,r,MS,49,49,2022_Jul_21_1415,2020.2.10,distractmap2,59.98512368778086,"['Right Face', 'Left Face', 'Right Face', 'Left Face']",
8,"[0, -0.2]",1,0,7,7,7,,,None,None,"[0, 0, 0]",583.9737871000543,585.9737879000604,583.9737871000543,584.9739453000948,584.9570714000147,585.9571363000432,"[0, 0, 0]",1,583.9737871000543,585.9737879000604,,,,,,,,,,,,,,,,,,,,,5,m,2,30,r,MS,49,49,2022_Jul_21_1415,2020.2.10,distractmap2,59.98512368778086,"['Right Face', 'Left Face', 'Right Face', 'Left Face']",
7,"[-0.2, -0.2]",0,0,8,8,8,,,None,None,"[0, 0, 0]",585.9904602000024,587.9904912000056,585.9904602000024,586.9904684000649,586.973811600008,587.973811600008,"[0, 0, 0]",1,585.9904602000024,587.9904912000056,,,,,,,,,,,,,,,,,,,,,5,m,2,30,r,MS,49,49,2022_Jul_21_1415,2020.2.10,distractmap2,59.98512368778086,"['Right Face', 'Left Face', 'Right Face', 'Left Face']",
8,"[0, -0.2]",1,0,9,9,9,,,None,None,"[0, 0, 0]",588.007158500026,590.0071684001014,588.007158500026,589.0071455000434,588.9904958000407,589.9905186000979,"[0, 0, 0]",1,588.007158500026,590.0071684001014,,,,,,,,,,,,,,,,,,,,,5,m,2,30,r,MS,49,49,2022_Jul_21_1415,2020.2.10,distractmap2,59.98512368778086,"['Right Face', 'Left Face', 'Right Face', 'Left Face']",
,,,,,,,,,,,,,,,,,,,,,,,,590.0238223000197,None,,,,,,,,,,,,,,,,,5,m,2,30,r,MS,49,49,2022_Jul_21_1415,2020.2.10,distractmap2,59.98512368778086,"['Right Face', 'Left Face', 'Right Face', 'Left Face']",
,,,,,,,,,,,,,,,,,,,,,,,,,,,,,,,,,,,,12.592592592592592,577.3476069399621,,,,,5,m,2,30,r,MS,49,49,2022_Jul_21_1415,2020.2.10,distractmap2,59.98512368778086,"['Right Face', 'Left Face', 'Right Face', 'Left Face']",
2,"[0, 0.2]",None,0,0,0,0,607.290466500097,None,None,None,"[0, 0, 0]",610.0572990000946,None,610.0572990000946,611.0572539001005,611.0572539001005,None,"[0, 0, 0]",1,610.0572990000946,None,,,,,,,,,,,,,,,,,0.012452760012820363,5.007763660047203,,,5,m,2,30,r,MS,49,49,2022_Jul_21_1415,2020.2.10,distractmap2,59.98512368778086,"['Right Face', 'Left Face', 'Right Face', 'Left Face']",
2,"[0, 0.2]",None,0,1,1,1,,,None,None,"[0, 0, 0]",612.0573732000776,614.0573740000837,612.0573732000776,613.0573824000312,613.0407040000428,614.0407682000659,"[0, 0, 0]",1,612.0573732000776,614.0573740000837,,,,,,,,,,,,,,,,,,,,,5,m,2,30,r,MS,49,49,2022_Jul_21_1415,2020.2.10,distractmap2,59.98512368778086,"['Right Face', 'Left Face', 'Right Face', 'Left Face']",
2,"[0, 0.2]",1,0,2,2,2,,,None,None,"[0, 0, 0]",614.0740309000248,616.0740695000859,614.0740309000248,615.074044900015,615.0573934999993,616.0574303000467,"[0, 0, 0]",1,614.0740309000248,616.0740695000859,,,,,,,,,,,,,,,,,,,,,5,m,2,30,r,MS,49,49,2022_Jul_21_1415,2020.2.10,distractmap2,59.98512368778086,"['Right Face', 'Left Face', 'Right Face', 'Left Face']",
8,"[0, -0.2]",0,0,3,3,3,,,None,None,"[0, 0, 0]",616.0907505000941,618.0907364001032,616.0907505000941,617.0907386000035,617.0740671000676,618.0740710000973,"[0, 0, 0]",1,616.0907505000941,618.0907364001032,,,,,,,,,,,,,,,,,,,,,5,m,2,30,r,MS,49,49,2022_Jul_21_1415,2020.2.10,distractmap2,59.98512368778086,"['Right Face', 'Left Face', 'Right Face', 'Left Face']",
2,"[0, 0.2]",1,0,4,4,4,,,None,None,"[0, 0, 0]",618.1743909000652,None,618.1743909000652,619.1741105000256,619.1574405001011,None,"[0, 0, 0]",1,618.1743909000652,None,,,,,,,,,,,,,,,,,,,,,5,m,2,30,r,MS,49,49,2022_Jul_21_1415,2020.2.10,distractmap2,59.98512368778086,"['Right Face', 'Left Face', 'Right Face', 'Left Face']",
5,"[0, 0]",0,0,5,5,5,,,None,None,"[0, 0, 0]",620.1241064000642,622.1241346000461,620.1241064000642,621.1241096000886,621.1074372000294,622.1074603000889,"[0, 0, 0]",1,620.1241064000642,622.1241346000461,,,,,,,,,,,,,,,,,,,,,5,m,2,30,r,MS,49,49,2022_Jul_21_1415,2020.2.10,distractmap2,59.98512368778086,"['Right Face', 'Left Face', 'Right Face', 'Left Face']",
1,"[-0.2, 0.2]",0,0,6,6,6,,,None,None,"[0, 0, 0]",622.1407726000762,624.1408116000239,622.1407726000762,623.1407988000428,623.124129600008,624.1241117001045,"[0, 0, 0]",1,622.1407726000762,624.1408116000239,,,,,,,,,,,,,,,,,,,,,5,m,2,30,r,MS,49,49,2022_Jul_21_1415,2020.2.10,distractmap2,59.98512368778086,"['Right Face', 'Left Face', 'Right Face', 'Left Face']",
1,"[-0.2, 0.2]",0,0,7,7,7,,,None,None,"[0, 0, 0]",624.1574664000655,626.1574825000716,624.1574664000655,625.1574615000281,625.1408181000734,626.1408100000117,"[0, 0, 0]",1,624.1574664000655,626.1574825000716,,,,,,,,,,,,,,,,,,,,,5,m,2,30,r,MS,49,49,2022_Jul_21_1415,2020.2.10,distractmap2,59.98512368778086,"['Right Face', 'Left Face', 'Right Face', 'Left Face']",
6,"[0.2, 0]",0,0,8,8,8,,,None,None,"[0, 0, 0]",626.1741428000387,628.1741772000678,626.1741428000387,627.1741670999909,627.1574987000786,628.157488900004,"[0, 0, 0]",1,626.1741428000387,628.1741772000678,,,,,,,,,,,,,,,,,,,,,5,m,2,30,r,MS,49,49,2022_Jul_21_1415,2020.2.10,distractmap2,59.98512368778086,"['Right Face', 'Left Face', 'Right Face', 'Left Face']",
1,"[-0.2, 0.2]",1,0,9,9,9,,,None,None,"[0, 0, 0]",628.1908402000554,630.1908405000577,628.1908402000554,629.1908379000379,629.1741798000876,630.1741932000732,"[0, 0, 0]",1,628.1908402000554,630.1908405000577,,,,,,,,,,,,,,,,,,,,,5,m,2,30,r,MS,49,49,2022_Jul_21_1415,2020.2.10,distractmap2,59.98512368778086,"['Right Face', 'Left Face', 'Right Face', 'Left Face']",
,,,,,,,,,,,,,,,,,,,,,,,,630.2076266000513,None,,,,,,,,,,,,,,,,,5,m,2,30,r,MS,49,49,2022_Jul_21_1415,2020.2.10,distractmap2,59.98512368778086,"['Right Face', 'Left Face', 'Right Face', 'Left Face']",
,,,,,,,,,,,,,,,,,,,,,,,,,,,,,,,,,,,,17.839506172839506,611.6646353399847,,,,,5,m,2,30,r,MS,49,49,2022_Jul_21_1415,2020.2.10,distractmap2,59.98512368778086,"['Right Face', 'Left Face', 'Right Face', 'Left Face']",
3,"[0.2, 0.2]",None,0,0,0,0,644.1912779000122,None,None,None,"[0, 0, 0]",650.2243748001056,652.2243886000942,650.2243748001056,651.2243842000607,651.2076921000844,652.2076224000193,"[0, 0, 0]",1,650.2243748001056,652.2243886000942,,,,,,,,,,,,,,,,,0.01240265998058021,5.007663459982723,,,5,m,2,30,r,MS,49,49,2022_Jul_21_1415,2020.2.10,distractmap2,59.98512368778086,"['Right Face', 'Left Face', 'Right Face', 'Left Face']",
3,"[0.2, 0.2]",None,0,1,1,1,,,None,None,"[0, 0, 0]",652.2410441000247,654.2410630000522,652.2410441000247,653.2410648000659,653.2244013000745,654.2243898001034,"[0, 0, 0]",1,652.2410441000247,654.2410630000522,,,,,,,,,,,,,,,,,,,,,5,m,2,30,r,MS,49,49,2022_Jul_21_1415,2020.2.10,distractmap2,59.98512368778086,"['Right Face', 'Left Face', 'Right Face', 'Left Face']",
5,"[0, 0]",0,0,2,2,2,,,None,None,"[0, 0, 0]",654.2578083000844,656.2577384000178,654.2578083000844,655.2577243000269,655.2410732000135,656.2410854001064,"[0, 0, 0]",1,654.2578083000844,656.2577384000178,,,,,,,,,,,,,,,,,,,,,5,m,2,30,r,MS,49,49,2022_Jul_21_1415,2020.2.10,distractmap2,59.98512368778086,"['Right Face', 'Left Face', 'Right Face', 'Left Face']",
1,"[-0.2, 0.2]",0,0,3,3,3,,,None,None,"[0, 0, 0]",656.274437300046,658.274430599995,656.274437300046,657.2744217000436,657.2577436000574,658.2577694000211,"[0, 0, 0]",1,656.274437300046,658.274430599995,,,,,,,,,,,,,,,,,,,,,5,m,2,30,r,MS,49,49,2022_Jul_21_1415,2020.2.10,distractmap2,59.98512368778086,"['Right Face', 'Left Face', 'Right Face', 'Left Face']",
5,"[0, 0]",1,0,4,4,4,,,None,None,"[0, 0, 0]",658.324011299992,None,658.324011299992,659.3244560000021,659.3077614000067,None,"[0, 0, 0]",1,658.324011299992,None,,,,,,,,,,,,,,,,,,,,,5,m,2,30,r,MS,49,49,2022_Jul_21_1415,2020.2.10,distractmap2,59.98512368778086,"['Right Face', 'Left Face', 'Right Face', 'Left Face']",
8,"[0, -0.2]",0,0,5,5,5,,,None,None,"[0, 0, 0]",660.3077717000851,662.3078024000861,660.3077717000851,661.3077889000997,661.2911421000026,662.2911504000658,"[0, 0, 0]",1,660.3077717000851,662.3078024000861,,,,,,,,,,,,,,,,,,,,,5,m,2,30,r,MS,49,49,2022_Jul_21_1415,2020.2.10,distractmap2,59.98512368778086,"['Right Face', 'Left Face', 'Right Face', 'Left Face']",
5,"[0, 0]",1,0,6,6,6,,,None,None,"[0, 0, 0]",662.3244811000768,664.324471400003,662.3244811000768,663.3244658000767,663.3078112000367,664.3078226000071,"[0, 0, 0]",1,662.3244811000768,664.324471400003,,,,,,,,,,,,,,,,,,,,,5,m,2,30,r,MS,49,49,2022_Jul_21_1415,2020.2.10,distractmap2,59.98512368778086,"['Right Face', 'Left Face', 'Right Face', 'Left Face']",
7,"[-0.2, -0.2]",0,0,7,7,7,,,None,None,"[0, 0, 0]",664.3411643001018,666.3412061000708,664.3411643001018,665.3411706000334,665.3244847001042,666.3245135000907,"[0, 0, 0]",1,664.3411643001018,666.3412061000708,,,,,,,,,,,,,,,,,,,,,5,m,2,30,r,MS,49,49,2022_Jul_21_1415,2020.2.10,distractmap2,59.98512368778086,"['Right Face', 'Left Face', 'Right Face', 'Left Face']",
5,"[0, 0]",1,0,8,8,8,,,None,None,"[0, 0, 0]",666.3578465000028,668.3578444001032,666.3578465000028,667.3578395000659,667.3411859000335,668.3411913000746,"[0, 0, 0]",1,666.3578465000028,668.3578444001032,,,,,,,,,,,,,,,,,,,,,5,m,2,30,r,MS,49,49,2022_Jul_21_1415,2020.2.10,distractmap2,59.98512368778086,"['Right Face', 'Left Face', 'Right Face', 'Left Face']",
7,"[-0.2, -0.2]",1,0,9,9,9,,,None,None,"[0, 0, 0]",668.3745199000696,670.3745233000955,668.3745199000696,669.3745287000202,669.3578904001042,670.357874300098,"[0, 0, 0]",0,668.3745199000696,670.3745233000955,,,,,,,,,,,,,,,,,,,,,5,m,2,30,r,MS,49,49,2022_Jul_21_1415,2020.2.10,distractmap2,59.98512368778086,"['Right Face', 'Left Face', 'Right Face', 'Left Face']",
,,,,,,,,,,,,,,,,,,,,,,,,670.3912226000102,None,,,,,,,,,,,,,,,,,5,m,2,30,r,MS,49,49,2022_Jul_21_1415,2020.2.10,distractmap2,59.98512368778086,"['Right Face', 'Left Face', 'Right Face', 'Left Face']",
,,,,,,,,,,,,,,,,,,,,,,,,,,,,,,,,,,,,14.50617283950617,656.7143128400203,,,,,5,m,2,30,r,MS,49,49,2022_Jul_21_1415,2020.2.10,distractmap2,59.98512368778086,"['Right Face', 'Left Face', 'Right Face', 'Left Face']",
,,,,,,,705.4081855000695,None,,,,,,,,,,,,,,,,,,,,,,,,,,,,15.92592592592593,690.4125233400846,0.013080860022455454,5.009040859993547,685.4079927999992,None,5,m,2,30,r,MS,49,49,2022_Jul_21_1415,2020.2.10,distractmap2,59.98512368778086,"['Right Face', 'Left Face', 'Right Face', 'Left Face']",
,,,,,,,740.4251596000977,None,,,,,,,,,,,,,,,,,,,,,,,,,,,,13.395061728395063,725.629833640065,0.015210659941658378,5.0132658599177375,720.4249712000601,None,5,m,2,30,r,MS,49,49,2022_Jul_21_1415,2020.2.10,distractmap2,59.98512368778086,"['Right Face', 'Left Face', 'Right Face', 'Left Face']",
,,,,,,,775.4421436000848,None,,,,,,,,,,,,,,,,,,,,,,,,,,,,15.555555555555554,757.330418539932,0.014882260002195835,5.012675260077231,755.4419293000828,None,5,m,2,30,r,MS,49,49,2022_Jul_21_1415,2020.2.10,distractmap2,59.98512368778086,"['Right Face', 'Left Face', 'Right Face', 'Left Face']",
6,"[0.2, 0]",None,0,0,0,0,1061.0779722000007,None,None,None,"[0, 0, 0]",1064.077976700035,None,1064.077976700035,1065.078007800039,1065.0613333000802,1066.0613443000475,"[0, 0, 0]",1,1064.077976700035,None,,,,,,,,894.943194600055,894.943194600055,None,space,139.12340359995142,894.943194600055,None,,,0.014581260038539767,5.0120221599936485,,,5,m,2,30,r,MS,49,49,2022_Jul_21_1415,2020.2.10,distractmap2,59.98512368778086,"['Right Face', 'Left Face', 'Right Face', 'Left Face']",
1,"[-0.2, 0.2]",None,0,1,1,1,,,None,None,"[0, 0, 0]",1066.0780015999917,1068.0780286000809,1066.0780015999917,1067.0780291000847,1067.0613581000362,1068.0613497000886,"[0, 0, 0]",1,1066.0780015999917,1068.0780286000809,,,,,,,,,,,,,,,,,,,,,5,m,2,30,r,MS,49,49,2022_Jul_21_1415,2020.2.10,distractmap2,59.98512368778086,"['Right Face', 'Left Face', 'Right Face', 'Left Face']",
6,"[0.2, 0]",1,0,2,2,2,,,None,None,"[0, 0, 0]",1068.0947020000312,1070.0947211000603,1068.0947020000312,1069.0947252000915,1069.0780476999935,1070.0780489000026,"[0, 0, 0]",1,1068.0947020000312,1070.0947211000603,,,,,,,,,,,,,,,,,,,,,5,m,2,30,r,MS,49,49,2022_Jul_21_1415,2020.2.10,distractmap2,59.98512368778086,"['Right Face', 'Left Face', 'Right Face', 'Left Face']",
4,"[-0.2, 0]",0,0,3,3,3,,,None,None,"[0, 0, 0]",1070.1113779000007,1072.1114253000123,1070.1113779000007,1071.1114026000723,1071.0947198000504,1072.0947362000588,"[0, 0, 0]",1,1070.1113779000007,1072.1114253000123,,,,,,,,,,,,,,,,,,,,,5,m,2,30,r,MS,49,49,2022_Jul_21_1415,2020.2.10,distractmap2,59.98512368778086,"['Right Face', 'Left Face', 'Right Face', 'Left Face']",
1,"[-0.2, 0.2]",0,0,4,4,4,,,None,None,"[0, 0, 0]",1072.1280673000729,1074.1280892000068,1072.1280673000729,1073.1280776000349,1073.1114370001014,1074.1114282000344,"[0, 0, 0]",1,1072.1280673000729,1074.1280892000068,,,,,,,,,,,,,,,,,,,,,5,m,2,30,r,MS,49,49,2022_Jul_21_1415,2020.2.10,distractmap2,59.98512368778086,"['Right Face', 'Left Face', 'Right Face', 'Left Face']",
8,"[0, -0.2]",0,0,5,5,5,,,None,None,"[0, 0, 0]",1074.1447609000606,1076.144798399997,1074.1447609000606,1075.1447630000766,1075.128097900073,1076.1280957000563,"[0, 0, 0]",1,1074.1447609000606,1076.144798399997,,,,,,,,,,,,,,,,,,,,,5,m,2,30,r,MS,49,49,2022_Jul_21_1415,2020.2.10,distractmap2,59.98512368778086,"['Right Face', 'Left Face', 'Right Face', 'Left Face']",
1,"[-0.2, 0.2]",1,0,6,6,6,,,None,None,"[0, 0, 0]",1076.161358500016,1078.1614489000058,1076.161358500016,1077.1614617001032,1077.1447634000797,1078.1447917000623,"[0, 0, 0]",1,1076.161358500016,1078.1614489000058,,,,,,,,,,,,,,,,,,,,,5,m,2,30,r,MS,49,49,2022_Jul_21_1415,2020.2.10,distractmap2,59.98512368778086,"['Right Face', 'Left Face', 'Right Face', 'Left Face']",
8,"[0, -0.2]",1,0,7,7,7,,,None,None,"[0, 0, 0]",1078.1781194000505,1080.1781432999996,1078.1781194000505,1079.178131600027,1079.1614642000059,1080.1614779999945,"[0, 0, 0]",1,1078.1781194000505,1080.1781432999996,,,,,,,,,,,,,,,,,,,,,5,m,2,30,r,MS,49,49,2022_Jul_21_1415,2020.2.10,distractmap2,59.98512368778086,"['Right Face', 'Left Face', 'Right Face', 'Left Face']",
1,"[-0.2, 0.2]",1,0,8,8,8,,,None,None,"[0, 0, 0]",1080.1948097000131,1082.1948456000537,1080.1948097000131,1081.1948182000779,1081.1781551000895,1082.1781459000194,"[0, 0, 0]",1,1080.1948097000131,1082.1948456000537,,,,,,,,,,,,,,,,,,,,,5,m,2,30,r,MS,49,49,2022_Jul_21_1415,2020.2.10,distractmap2,59.98512368778086,"['Right Face', 'Left Face', 'Right Face', 'Left Face']",
6,"[0.2, 0]",0,0,9,9,9,,,None,None,"[0, 0, 0]",1082.2114899000153,1084.2115015001036,1082.2114899000153,1083.21148920001,1083.194832200068,1084.1948391000042,"[0, 0, 0]",1,1082.2114899000153,1084.2115015001036,,,,,,,,,,,,,,,,,,,,,5,m,2,30,r,MS,49,49,2022_Jul_21_1415,2020.2.10,distractmap2,59.98512368778086,"['Right Face', 'Left Face', 'Right Face', 'Left Face']",
,,,,,,,,,,,,,,,,,,,,,,,,1084.228166899993,None,,,,,,,,,,,,,,,,,5,m,2,30,r,MS,49,49,2022_Jul_21_1415,2020.2.10,distractmap2,59.98512368778086,"['Right Face', 'Left Face', 'Right Face', 'Left Face']",
7,"[-0.2, -0.2]",None,0,0,0,0,1092.2449170000618,None,None,None,"[0, 0, 0]",1099.2449122000253,1101.2449899000349,1099.2449122000253,1100.2449692999944,1100.228317500092,1101.2283255000366,"[0, 0, 0]",1,1099.2449122000253,1101.2449899000349,,,,,,,,,,,,,,,,,,,,,5,m,2,30,r,MS,49,49,2022_Jul_21_1415,2020.2.10,distractmap2,59.98512368778086,"['Right Face', 'Left Face', 'Right Face', 'Left Face']",
7,"[-0.2, -0.2]",None,0,1,1,1,,,None,None,"[0, 0, 0]",1101.2616621000925,1103.261676400085,1101.2616621000925,1102.2616667000111,1102.2450068000471,1103.245014000102,"[0, 0, 0]",1,1101.2616621000925,1103.261676400085,,,,,,,,,,,,,,,,,,,,,5,m,2,30,r,MS,49,49,2022_Jul_21_1415,2020.2.10,distractmap2,59.98512368778086,"['Right Face', 'Left Face', 'Right Face', 'Left Face']",
7,"[-0.2, -0.2]",1,0,2,2,2,,,None,None,"[0, 0, 0]",1103.278333400027,1105.2783705000766,1103.278333400027,1104.2783503000392,1104.2616890000645,1105.2617006000364,"[0, 0, 0]",1,1103.278333400027,1105.2783705000766,,,,,,,,,,,,,,,,,,,,,5,m,2,30,r,MS,49,49,2022_Jul_21_1415,2020.2.10,distractmap2,59.98512368778086,"['Right Face', 'Left Face', 'Right Face', 'Left Face']",
5,"[0, 0]",0,0,3,3,3,,,None,None,"[0, 0, 0]",1105.2950235001044,1107.2950284000253,1105.2950235001044,1106.2950330000604,1106.278373700101,1107.2783029000275,"[0, 0, 0]",1,1105.2950235001044,1107.2950284000253,,,,,,,,,,,,,,,,,,,,,5,m,2,30,r,MS,49,49,2022_Jul_21_1415,2020.2.10,distractmap2,59.98512368778086,"['Right Face', 'Left Face', 'Right Face', 'Left Face']",
1,"[-0.2, 0.2]",0,0,4,4,4,,,None,None,"[0, 0, 0]",1107.311703100102,1109.3117341001052,1107.311703100102,1108.3117177000968,1108.295062100049,1109.2950560000027,"[0, 0, 0]",1,1107.311703100102,1109.3117341001052,,,,,,,,,,,,,,,,,,,,,5,m,2,30,r,MS,49,49,2022_Jul_21_1415,2020.2.10,distractmap2,59.98512368778086,"['Right Face', 'Left Face', 'Right Face', 'Left Face']",
6,"[0.2, 0]",0,0,5,5,5,,,None,None,"[0, 0, 0]",1109.3284075000556,1111.3284158000024,1109.3284075000556,1110.3284178000176,1110.31172160001,1111.311753600021,"[0, 0, 0]",1,1109.3284075000556,1111.3284158000024,,,,,,,,,,,,,,,,,,,,,5,m,2,30,r,MS,49,49,2022_Jul_21_1415,2020.2.10,distractmap2,59.98512368778086,"['Right Face', 'Left Face', 'Right Face', 'Left Face']",
1,"[-0.2, 0.2]",1,0,6,6,6,,,None,None,"[0, 0, 0]",1111.3450600000797,1113.3450843000319,1111.3450600000797,1112.3449938000413,1112.3284433000954,1113.3284343000269,"[0, 0, 0]",1,1111.3450600000797,1113.3450843000319,,,,,,,,,,,,,,,,,,,,,5,m,2,30,r,MS,49,49,2022_Jul_21_1415,2020.2.10,distractmap2,59.98512368778086,"['Right Face', 'Left Face', 'Right Face', 'Left Face']",
7,"[-0.2, -0.2]",0,0,7,7,7,,,None,None,"[0, 0, 0]",1113.3616621000692,1115.3617732001003,1113.3616621000692,1114.36176790006,1114.3450943999924,1115.3451176000526,"[0, 0, 0]",1,1113.3616621000692,1115.3617732001003,,,,,,,,,,,,,,,,,,,,,5,m,2,30,r,MS,49,49,2022_Jul_21_1415,2020.2.10,distractmap2,59.98512368778086,"['Right Face', 'Left Face', 'Right Face', 'Left Face']",
6,"[0.2, 0]",0,0,8,8,8,,,None,None,"[0, 0, 0]",1115.378458000021,1117.37846050004,1115.378458000021,1116.378472100012,1116.3617854000768,1117.3617858000798,"[0, 0, 0]",1,1115.378458000021,1117.37846050004,,,,,,,,,,,,,,,,,,,,,5,m,2,30,r,MS,49,49,2022_Jul_21_1415,2020.2.10,distractmap2,59.98512368778086,"['Right Face', 'Left Face', 'Right Face', 'Left Face']",
7,"[-0.2, -0.2]",1,0,9,9,9,,,None,None,"[0, 0, 0]",1117.3951174000977,1119.395141200046,1117.3951174000977,1118.3951281000627,1118.3784773000516,1119.378493300057,"[0, 0, 0]",1,1117.3951174000977,1119.395141200046,,,,,,,,,,,,,,,,,,,,,5,m,2,30,r,MS,49,49,2022_Jul_21_1415,2020.2.10,distractmap2,59.98512368778086,"['Right Face', 'Left Face', 'Right Face', 'Left Face']",
,,,,,,,,,,,,,,,,,,,,,,,,1119.411831800011,None,,,,,,,,,,,,,,,,,5,m,2,30,r,MS,49,49,2022_Jul_21_1415,2020.2.10,distractmap2,59.98512368778086,"['Right Face', 'Left Face', 'Right Face', 'Left Face']",
4,"[-0.2, 0]",None,0,0,0,0,1127.428560600034,None,None,None,"[0, 0, 0]",1134.4286187000107,None,1134.4286187000107,1135.4286234000465,1135.4119431000436,1136.4119609000627,"[0, 0, 0]",1,1134.4286187000107,None,,,,,,,,,,,,,,,,,,,,,5,m,2,30,r,MS,49,49,2022_Jul_21_1415,2020.2.10,distractmap2,59.98512368778086,"['Right Face', 'Left Face', 'Right Face', 'Left Face']",
5,"[0, 0]",None,0,1,1,1,,,None,None,"[0, 0, 0]",1136.4286397000542,1138.4286666000262,1136.4286397000542,1137.428662899998,1137.4119806000963,1138.4119913000613,"[0, 0, 0]",1,1136.4286397000542,1138.4286666000262,,,,,,,,,,,,,,,,,,,,,5,m,2,30,r,MS,49,49,2022_Jul_21_1415,2020.2.10,distractmap2,59.98512368778086,"['Right Face', 'Left Face', 'Right Face', 'Left Face']",
6,"[0.2, 0]",0,0,2,2,2,,,None,None,"[0, 0, 0]",1138.4453223000746,1140.445326999994,1138.4453223000746,1139.4453376000747,1139.4286648000125,1140.4286666000262,"[0, 0, 0]",1,1138.4453223000746,1140.445326999994,,,,,,,,,,,,,,,,,,,,,5,m,2,30,r,MS,49,49,2022_Jul_21_1415,2020.2.10,distractmap2,59.98512368778086,"['Right Face', 'Left Face', 'Right Face', 'Left Face']",
1,"[-0.2, 0.2]",0,0,3,3,3,,,None,None,"[0, 0, 0]",1140.462006799993,1142.4620200000936,1140.462006799993,1141.462005800102,1141.4453410001006,1142.4453601000132,"[0, 0, 0]",1,1140.462006799993,1142.4620200000936,,,,,,,,,,,,,,,,,,,,,5,m,2,30,r,MS,49,49,2022_Jul_21_1415,2020.2.10,distractmap2,59.98512368778086,"['Right Face', 'Left Face', 'Right Face', 'Left Face']",
6,"[0.2, 0]",1,0,4,4,4,,,None,None,"[0, 0, 0]",1142.4786656000651,1144.478687499999,1142.4786656000651,1143.4787060000235,1143.4620111000258,1144.4620279000374,"[0, 0, 0]",1,1142.4786656000651,1144.478687499999,,,,,,,,,,,,,,,,,,,,,5,m,2,30,r,MS,49,49,2022_Jul_21_1415,2020.2.10,distractmap2,59.98512368778086,"['Right Face', 'Left Face', 'Right Face', 'Left Face']",
1,"[-0.2, 0.2]",1,0,5,5,5,,,None,None,"[0, 0, 0]",1144.4953756000614,1146.495377000072,1144.4953756000614,1145.4953776000766,1145.4787099000532,1146.478711700067,"[0, 0, 0]",1,1144.4953756000614,1146.495377000072,,,,,,,,,,,,,,,,,,,,,5,m,2,30,r,MS,49,49,2022_Jul_21_1415,2020.2.10,distractmap2,59.98512368778086,"['Right Face', 'Left Face', 'Right Face', 'Left Face']",
2,"[0, 0.2]",0,0,6,6,6,,,None,None,"[0, 0, 0]",1146.5120406000642,1148.5120588000864,1146.5120406000642,1147.512085000053,1147.495399700012,1148.4953968999907,"[0, 0, 0]",1,1146.5120406000642,1148.5120588000864,,,,,,,,,,,,,,,,,,,,,5,m,2,30,r,MS,49,49,2022_Jul_21_1415,2020.2.10,distractmap2,59.98512368778086,"['Right Face', 'Left Face', 'Right Face', 'Left Face']",
3,"[0.2, 0.2]",0,0,7,7,7,,,None,None,"[0, 0, 0]",1148.5287412001053,1150.528762800037,1148.5287412001053,1149.5287398000946,1149.5120629000012,1150.5120946000097,"[0, 0, 0]",1,1148.5287412001053,1150.528762800037,,,,,,,,,,,,,,,,,,,,,5,m,2,30,r,MS,49,49,2022_Jul_21_1415,2020.2.10,distractmap2,59.98512368778086,"['Right Face', 'Left Face', 'Right Face', 'Left Face']",
6,"[0.2, 0]",0,0,8,8,8,,,None,None,"[0, 0, 0]",1150.545414000051,1152.5454631000757,1150.545414000051,1151.5454431000398,1151.5287742000073,1152.5287750000134,"[0, 0, 0]",1,1150.545414000051,1152.5454631000757,,,,,,,,,,,,,,,,,,,,,5,m,2,30,r,MS,49,49,2022_Jul_21_1415,2020.2.10,distractmap2,59.98512368778086,"['Right Face', 'Left Face', 'Right Face', 'Left Face']",
3,"[0.2, 0.2]",1,0,9,9,9,,,None,None,"[0, 0, 0]",1152.562091400032,1154.5621265000664,1152.562091400032,1153.562177899992,1153.5453444001032,1154.5454674999928,"[0, 0, 0]",1,1152.562091400032,1154.5621265000664,,,,,,,,,,,,,,,,,,,,,5,m,2,30,r,MS,49,49,2022_Jul_21_1415,2020.2.10,distractmap2,59.98512368778086,"['Right Face', 'Left Face', 'Right Face', 'Left Face']",
,,,,,,,,,,,,,,,,,,,,,,,,1154.578780400101,None,,,,,,,,,,,,,,,,,5,m,2,30,r,MS,49,49,2022_Jul_21_1415,2020.2.10,distractmap2,59.98512368778086,"['Right Face', 'Left Face', 'Right Face', 'Left Face']",
2,"[0, 0.2]",None,0,0,0,0,1163.0289053000743,None,None,None,"[0, 0, 0]",1169.595604400034,1171.5950862000464,1169.595604400034,1170.595603600028,1170.5789310000837,1171.578942000051,"[0, 0, 0]",1,1169.595604400034,1171.5950862000464,,,,,,,,,,,,,,,,,,,,,5,m,2,30,r,MS,49,49,2022_Jul_21_1415,2020.2.10,distractmap2,59.98512368778086,"['Right Face', 'Left Face', 'Right Face', 'Left Face']",
5,"[0, 0]",None,0,1,1,1,,,None,None,"[0, 0, 0]",1171.6122606000863,1173.6122838000301,1171.6122606000863,1172.6122904000804,1172.5955569000216,1173.5956344000297,"[0, 0, 0]",1,1171.6122606000863,1173.6122838000301,,,,,,,,,,,,,,,,,,,,,5,m,2,30,r,MS,49,49,2022_Jul_21_1415,2020.2.10,distractmap2,59.98512368778086,"['Right Face', 'Left Face', 'Right Face', 'Left Face']",
6,"[0.2, 0]",0,0,2,2,2,,,None,None,"[0, 0, 0]",1173.6289660000475,1175.629032200086,1173.6289660000475,1174.6289729001,1174.6124176000012,1175.6123060000828,"[0, 0, 0]",1,1173.6289660000475,1175.629032200086,,,,,,,,,,,,,,,,,,,,,5,m,2,30,r,MS,49,49,2022_Jul_21_1415,2020.2.10,distractmap2,59.98512368778086,"['Right Face', 'Left Face', 'Right Face', 'Left Face']",
1,"[-0.2, 0.2]",0,0,3,3,3,,,None,None,"[0, 0, 0]",1175.6456493000733,1177.6456492000725,1175.6456493000733,1176.6456645000726,1176.628973300103,1177.628983200062,"[0, 0, 0]",1,1175.6456493000733,1177.6456492000725,,,,,,,,,,,,,,,,,,,,,5,m,2,30,r,MS,49,49,2022_Jul_21_1415,2020.2.10,distractmap2,59.98512368778086,"['Right Face', 'Left Face', 'Right Face', 'Left Face']",
6,"[0.2, 0]",1,0,4,4,4,,,None,None,"[0, 0, 0]",1177.712178100017,None,1177.712178100017,1178.712342700106,1178.6956629999913,None,"[0, 0, 0]",1,1177.712178100017,None,,,,,,,,,,,,,,,,,,,,,5,m,2,30,r,MS,49,49,2022_Jul_21_1415,2020.2.10,distractmap2,59.98512368778086,"['Right Face', 'Left Face', 'Right Face', 'Left Face']",
6,"[0.2, 0]",0,0,5,5,5,,,None,None,"[0, 0, 0]",1179.6790004000068,1181.6790247000754,1179.6790004000068,1180.6790201000404,1180.6623640001053,1181.6623518000124,"[0, 0, 0]",1,1179.6790004000068,1181.6790247000754,,,,,,,,,,,,,,,,,,,,,5,m,2,30,r,MS,49,49,2022_Jul_21_1415,2020.2.10,distractmap2,59.98512368778086,"['Right Face', 'Left Face', 'Right Face', 'Left Face']",
9,"[0.2, -0.2]",0,0,6,6,6,,,None,None,"[0, 0, 0]",1181.6957058000844,1183.695723400102,1181.6957058000844,1182.695683100028,1182.6790312000085,1183.6790489000268,"[0, 0, 0]",1,1181.6957058000844,1183.695723400102,,,,,,,,,,,,,,,,,,,,,5,m,2,30,r,MS,49,49,2022_Jul_21_1415,2020.2.10,distractmap2,59.98512368778086,"['Right Face', 'Left Face', 'Right Face', 'Left Face']",
6,"[0.2, 0]",1,0,7,7,7,,,None,None,"[0, 0, 0]",1183.7123864000896,1185.71238250006,1183.7123864000896,1184.7123834000668,1184.6957293000305,1185.6957318000495,"[0, 0, 0]",1,1183.7123864000896,1185.71238250006,,,,,,,,,,,,,,,,,,,,,5,m,2,30,r,MS,49,49,2022_Jul_21_1415,2020.2.10,distractmap2,59.98512368778086,"['Right Face', 'Left Face', 'Right Face', 'Left Face']",
3,"[0.2, 0.2]",0,0,8,8,8,,,None,None,"[0, 0, 0]",1185.7290748000378,1187.7290855000028,1185.7290748000378,1186.7290787000675,1186.7124111000448,1187.712451600004,"[0, 0, 0]",1,1185.7290748000378,1187.7290855000028,,,,,,,,,,,,,,,,,,,,,5,m,2,30,r,MS,49,49,2022_Jul_21_1415,2020.2.10,distractmap2,59.98512368778086,"['Right Face', 'Left Face', 'Right Face', 'Left Face']",
9,"[0.2, -0.2]",0,0,9,9,9,,,None,None,"[0, 0, 0]",1187.7457521000179,1189.7457597000757,1187.7457521000179,1188.7457601000788,1188.7290834001033,1189.7291099000722,"[0, 0, 0]",0,1187.7457521000179,1189.7457597000757,,,,,,,,,,,,,,,,,,,,,5,m,2,30,r,MS,49,49,2022_Jul_21_1415,2020.2.10,distractmap2,59.98512368778086,"['Right Face', 'Left Face', 'Right Face', 'Left Face']",
,,,,,,,,,,,,,,,,,,,,,,,,1189.7624388000695,None,,,,,,,,,,,,,,,,,5,m,2,30,r,MS,49,49,2022_Jul_21_1415,2020.2.10,distractmap2,59.98512368778086,"['Right Face', 'Left Face', 'Right Face', 'Left Face']",
,,,,,,,,,,,,,,,,,,,,,,,,,,,,,,,,,,,,23.45679012345679,1170.735422739992,,,,,5,m,2,30,r,MS,49,49,2022_Jul_21_1415,2020.2.10,distractmap2,59.98512368778086,"['Right Face', 'Left Face', 'Right Face', 'Left Face']",
3,"[0.2, 0.2]",None,0,0,0,0,1203.6956237000413,None,None,None,"[0, 0, 0]",1209.7959427000023,1211.7959519000724,1209.7959427000023,1210.7959488000488,1210.7792751000961,1211.779282900039,"[0, 0, 0]",1,1209.7959427000023,1211.7959519000724,,,,,,,,,,,,,,,,,0.013197259977459908,5.009228860028088,,,5,m,2,30,r,MS,49,49,2022_Jul_21_1415,2020.2.10,distractmap2,59.98512368778086,"['Right Face', 'Left Face', 'Right Face', 'Left Face']",
9,"[0.2, -0.2]",None,0,1,1,1,,,None,None,"[0, 0, 0]",1211.812629400054,1213.8126610000618,1211.812629400054,1212.8126308000647,1212.7959644000512,1213.7959789000452,"[0, 0, 0]",1,1211.812629400054,1213.8126610000618,,,,,,,,,,,,,,,,,,,,,5,m,2,30,r,MS,49,49,2022_Jul_21_1415,2020.2.10,distractmap2,59.98512368778086,"['Right Face', 'Left Face', 'Right Face', 'Left Face']",
3,"[0.2, 0.2]",1,0,2,2,2,,,None,None,"[0, 0, 0]",1213.8293181000045,1215.8293343000114,1213.8293181000045,1214.829324200051,1214.8126610000618,1215.8126603000565,"[0, 0, 0]",1,1213.8293181000045,1215.8293343000114,,,,,,,,,,,,,,,,,,,,,5,m,2,30,r,MS,49,49,2022_Jul_21_1415,2020.2.10,distractmap2,59.98512368778086,"['Right Face', 'Left Face', 'Right Face', 'Left Face']",
7,"[-0.2, -0.2]",0,0,3,3,3,,,None,None,"[0, 0, 0]",1215.8459995000158,1217.8460179000394,1215.8459995000158,1216.8460241000867,1216.8293463001028,1217.8293463001028,"[0, 0, 0]",1,1215.8459995000158,1217.8460179000394,,,,,,,,,,,,,,,,,,,,,5,m,2,30,r,MS,49,49,2022_Jul_21_1415,2020.2.10,distractmap2,59.98512368778086,"['Right Face', 'Left Face', 'Right Face', 'Left Face']",
8,"[0, -0.2]",0,0,4,4,4,,,None,None,"[0, 0, 0]",1217.8963823000668,None,1217.8963823000668,1218.8960258000297,1218.879368300084,None,"[0, 0, 0]",1,1217.8963823000668,None,,,,,,,,,,,,,,,,,,,,,5,m,2,30,r,MS,49,49,2022_Jul_21_1415,2020.2.10,distractmap2,59.98512368778086,"['Right Face', 'Left Face', 'Right Face', 'Left Face']",
4,"[-0.2, 0]",0,0,5,5,5,,,None,None,"[0, 0, 0]",1219.8793764000293,1221.879380300059,1219.8793764000293,1220.8793816000689,1220.8627433000365,1221.8627132000402,"[0, 0, 0]",1,1219.8793764000293,1221.879380300059,,,,,,,,,,,,,,,,,,,,,5,m,2,30,r,MS,49,49,2022_Jul_21_1415,2020.2.10,distractmap2,59.98512368778086,"['Right Face', 'Left Face', 'Right Face', 'Left Face']",
4,"[-0.2, 0]",0,0,6,6,6,,,None,None,"[0, 0, 0]",1221.8960690000094,1223.8960587000474,1221.8960690000094,1222.896055900026,1222.8794028999982,1223.8793926000362,"[0, 0, 0]",0,1221.8960690000094,1223.8960587000474,,,,,,,,,,,,,,,,,,,,,5,m,2,30,r,MS,49,49,2022_Jul_21_1415,2020.2.10,distractmap2,59.98512368778086,"['Right Face', 'Left Face', 'Right Face', 'Left Face']",
1,"[-0.2, 0.2]",0,0,7,7,7,,,None,None,"[0, 0, 0]",1223.9127410000656,1225.912738300045,1223.9127410000656,1224.9127397000557,1224.896080100094,1225.8960835000034,"[0, 0, 0]",1,1223.9127410000656,1225.912738300045,,,,,,,,,,,,,,,,,,,,,5,m,2,30,r,MS,49,49,2022_Jul_21_1415,2020.2.10,distractmap2,59.98512368778086,"['Right Face', 'Left Face', 'Right Face', 'Left Face']",
4,"[-0.2, 0]",1,0,8,8,8,,,None,None,"[0, 0, 0]",1225.929414000013,1227.9294421999948,1225.929414000013,1226.9294184000464,1226.91273500002,1227.9127858000575,"[0, 0, 0]",1,1225.929414000013,1227.9294421999948,,,,,,,,,,,,,,,,,,,,,5,m,2,30,r,MS,49,49,2022_Jul_21_1415,2020.2.10,distractmap2,59.98512368778086,"['Right Face', 'Left Face', 'Right Face', 'Left Face']",
8,"[0, -0.2]",0,0,9,9,9,,,None,None,"[0, 0, 0]",1227.9461004000623,1229.9461077000014,1227.9461004000623,1228.9460986000486,1228.9293840000173,1229.929454300087,"[0, 0, 0]",1,1227.9461004000623,1229.9461077000014,,,,,,,,,,,,,,,,,,,,,5,m,2,30,r,MS,49,49,2022_Jul_21_1415,2020.2.10,distractmap2,59.98512368778086,"['Right Face', 'Left Face', 'Right Face', 'Left Face']",
,,,,,,,,,,,,,,,,,,,,,,,,1229.9627810000675,None,,,,,,,,,,,,,,,,,5,m,2,30,r,MS,49,49,2022_Jul_21_1415,2020.2.10,distractmap2,59.98512368778086,"['Right Face', 'Left Face', 'Right Face', 'Left Face']",
,,,,,,,,,,,,,,,,,,,,,,,,,,,,,,,,,,,,18.88888888888889,1213.2362696399214,,,,,5,m,2,30,r,MS,49,49,2022_Jul_21_1415,2020.2.10,distractmap2,59.98512368778086,"['Right Face', 'Left Face', 'Right Face', 'Left Face']",
2,"[0, 0.2]",None,0,0,0,0,1243.1958790000062,None,None,None,"[0, 0, 0]",1249.9963022000156,1251.9963146999944,1249.9963022000156,1250.996310000075,1250.979647600092,1251.9796478000935,"[0, 0, 0]",1,1249.9963022000156,1251.9963146999944,,,,,,,,,,,,,,,,,0.012723660096526146,5.00832656014245,,,5,m,2,30,r,MS,49,49,2022_Jul_21_1415,2020.2.10,distractmap2,59.98512368778086,"['Right Face', 'Left Face', 'Right Face', 'Left Face']",
5,"[0, 0]",None,0,1,1,1,,,None,None,"[0, 0, 0]",1252.0129713000497,1254.0129849000368,1252.0129713000497,1253.0129589000717,1252.9963303999975,1253.9962285000365,"[0, 0, 0]",1,1252.0129713000497,1254.0129849000368,,,,,,,,,,,,,,,,,,,,,5,m,2,30,r,MS,49,49,2022_Jul_21_1415,2020.2.10,distractmap2,59.98512368778086,"['Right Face', 'Left Face', 'Right Face', 'Left Face']",
3,"[0.2, 0.2]",0,0,2,2,2,,,None,None,"[0, 0, 0]",1254.0296757000033,1256.029684600071,1254.0296757000033,1255.0296820000513,1255.0129954000004,1256.012996800011,"[0, 0, 0]",1,1254.0296757000033,1256.029684600071,,,,,,,,,,,,,,,,,,,,,5,m,2,30,r,MS,49,49,2022_Jul_21_1415,2020.2.10,distractmap2,59.98512368778086,"['Right Face', 'Left Face', 'Right Face', 'Left Face']",
5,"[0, 0]",1,0,3,3,3,,,None,None,"[0, 0, 0]",1256.0463556000032,1258.046352100093,1256.0463556000032,1257.0463646000717,1257.0297032000963,1258.029702500091,"[0, 0, 0]",1,1256.0463556000032,1258.046352100093,,,,,,,,,,,,,,,,,,,,,5,m,2,30,r,MS,49,49,2022_Jul_21_1415,2020.2.10,distractmap2,59.98512368778086,"['Right Face', 'Left Face', 'Right Face', 'Left Face']",
2,"[0, 0.2]",0,0,4,4,4,,,None,None,"[0, 0, 0]",1258.1296433000825,None,1258.1296433000825,1259.1297098000068,1259.1297098000068,None,"[0, 0, 0]",1,1258.1296433000825,None,,,,,,,,,,,,,,,,,,,,,5,m,2,30,r,MS,49,49,2022_Jul_21_1415,2020.2.10,distractmap2,59.98512368778086,"['Right Face', 'Left Face', 'Right Face', 'Left Face']",
8,"[0, -0.2]",0,0,5,5,5,,,None,None,"[0, 0, 0]",1260.0797283001011,1262.079734000028,1260.0797283001011,1261.0797323000152,1261.063075800077,1262.0630533000221,"[0, 0, 0]",1,1260.0797283001011,1262.079734000028,,,,,,,,,,,,,,,,,,,,,5,m,2,30,r,MS,49,49,2022_Jul_21_1415,2020.2.10,distractmap2,59.98512368778086,"['Right Face', 'Left Face', 'Right Face', 'Left Face']",
4,"[-0.2, 0]",0,0,6,6,6,,,None,None,"[0, 0, 0]",1262.0964027000591,1264.0964115000097,1262.0964027000591,1263.096419800073,1263.0797530000564,1264.079766000039,"[0, 0, 0]",1,1262.0964027000591,1264.0964115000097,,,,,,,,,,,,,,,,,,,,,5,m,2,30,r,MS,49,49,2022_Jul_21_1415,2020.2.10,distractmap2,59.98512368778086,"['Right Face', 'Left Face', 'Right Face', 'Left Face']",
8,"[0, -0.2]",1,0,7,7,7,,,None,None,"[0, 0, 0]",1264.1130598000018,1266.1130995000713,1264.1130598000018,1265.113101300085,1265.096415600041,1266.0964485000586,"[0, 0, 0]",1,1264.1130598000018,1266.1130995000713,,,,,,,,,,,,,,,,,,,,,5,m,2,30,r,MS,49,49,2022_Jul_21_1415,2020.2.10,distractmap2,59.98512368778086,"['Right Face', 'Left Face', 'Right Face', 'Left Face']",
7,"[-0.2, -0.2]",0,0,8,8,8,,,None,None,"[0, 0, 0]",1266.1297813000856,1268.1297987001017,1266.1297813000856,1267.1297725000186,1267.1131039001048,1268.11311330006,"[0, 0, 0]",1,1266.1297813000856,1268.1297987001017,,,,,,,,,,,,,,,,,,,,,5,m,2,30,r,MS,49,49,2022_Jul_21_1415,2020.2.10,distractmap2,59.98512368778086,"['Right Face', 'Left Face', 'Right Face', 'Left Face']",
8,"[0, -0.2]",1,0,9,9,9,,,None,None,"[0, 0, 0]",1268.1464544000337,1270.146392500028,1268.1464544000337,1269.1464691000292,1269.1298062000424,1270.1298062000424,"[0, 0, 0]",1,1268.1464544000337,1270.146392500028,,,,,,,,,,,,,,,,,,,,,5,m,2,30,r,MS,49,49,2022_Jul_21_1415,2020.2.10,distractmap2,59.98512368778086,"['Right Face', 'Left Face', 'Right Face', 'Left Face']",
,,,,,,,,,,,,,,,,,,,,,,,,1270.163152400055,None,,,,,,,,,,,,,,,,,5,m,2,30,r,MS,49,49,2022_Jul_21_1415,2020.2.10,distractmap2,59.98512368778086,"['Right Face', 'Left Face', 'Right Face', 'Left Face']",
,,,,,,,,,,,,,,,,,,,,,,,,,,,,,,,,,,,,21.666666666666668,1253.2532757399604,,,,,5,m,2,30,r,MS,49,49,2022_Jul_21_1415,2020.2.10,distractmap2,59.98512368778086,"['Right Face', 'Left Face', 'Right Face', 'Left Face']",
,,,,,,,1395.1809235000983,None,,,,,,,,,,,,,,,,,,,,,,,,,,,,18.08641975308642,1381.0671722401166,0.01275986002292484,5.008390260045417,1375.1807285000104,None,5,m,2,30,r,MS,49,49,2022_Jul_21_1415,2020.2.10,distractmap2,59.98512368778086,"['Right Face', 'Left Face', 'Right Face', 'Left Face']",
,,,,,,,1430.197888600058,None,,,,,,,,,,,,,,,,,,,,,,,,,,,,16.296296296296298,1415.8364247400314,0.016633859951980412,5.016155959921889,1410.1977255000966,None,5,m,2,30,r,MS,49,49,2022_Jul_21_1415,2020.2.10,distractmap2,59.98512368778086,"['Right Face', 'Left Face', 'Right Face', 'Left Face']",
,,,,,,,1465.2148500001058,None,,,,,,,,,,,,,,,,,,,,,,,,,,,,16.481481481481485,1450.5844468399882,0.01434525998774916,5.011589860077947,1445.2146941000829,None,5,m,2,30,r,MS,49,49,2022_Jul_21_1415,2020.2.10,distractmap2,59.98512368778086,"['Right Face', 'Left Face', 'Right Face', 'Left Face']",
2,"[0, 0.2]",None,0,0,0,0,1482.4654276000801,None,None,None,"[0, 0, 0]",1485.2482788000489,1487.2483996000374,1485.2482788000489,1486.2483879000647,1486.2317240000702,1487.231724500074,"[0, 0, 0]",1,1485.2482788000489,1487.2483996000374,,,,,,,,,,,,,,,,,0.016640760004520416,5.016140659921803,,,5,m,2,30,r,MS,49,49,2022_Jul_21_1415,2020.2.10,distractmap2,59.98512368778086,"['Right Face', 'Left Face', 'Right Face', 'Left Face']",
2,"[0, 0.2]",None,0,1,1,1,,,None,None,"[0, 0, 0]",1487.2650500000454,1489.2650637000334,1487.2650500000454,1488.2650724000996,1488.2484053000808,1489.248415900045,"[0, 0, 0]",1,1487.2650500000454,1489.2650637000334,,,,,,,,,,,,,,,,,,,,,5,m,2,30,r,MS,49,49,2022_Jul_21_1415,2020.2.10,distractmap2,59.98512368778086,"['Right Face', 'Left Face', 'Right Face', 'Left Face']",
2,"[0, 0.2]",1,0,2,2,2,,,None,None,"[0, 0, 0]",1489.2817559000105,1491.2817774000578,1489.2817559000105,1490.2817659000866,1490.2650918000145,1491.2650828000624,"[0, 0, 0]",1,1489.2817559000105,1491.2817774000578,,,,,,,,,,,,,,,,,,,,,5,m,2,30,r,MS,49,49,2022_Jul_21_1415,2020.2.10,distractmap2,59.98512368778086,"['Right Face', 'Left Face', 'Right Face', 'Left Face']",
8,"[0, -0.2]",0,0,3,3,3,,,None,None,"[0, 0, 0]",1491.298415300087,1493.298450400005,1491.298415300087,1492.2984318000963,1492.281775600044,1493.2817934000632,"[0, 0, 0]",1,1491.298415300087,1493.298450400005,,,,,,,,,,,,,,,,,,,,,5,m,2,30,r,MS,49,49,2022_Jul_21_1415,2020.2.10,distractmap2,59.98512368778086,"['Right Face', 'Left Face', 'Right Face', 'Left Face']",
2,"[0, 0.2]",1,0,4,4,4,,,None,None,"[0, 0, 0]",1493.3484541000798,None,1493.3484541000798,1494.3484623000259,1494.3317970000207,None,"[0, 0, 0]",1,1493.3484541000798,None,,,,,,,,,,,,,,,,,,,,,5,m,2,30,r,MS,49,49,2022_Jul_21_1415,2020.2.10,distractmap2,59.98512368778086,"['Right Face', 'Left Face', 'Right Face', 'Left Face']",
5,"[0, 0]",0,0,5,5,5,,,None,None,"[0, 0, 0]",1495.3318046000786,1497.3318169000559,1495.3318046000786,1496.3318073000992,1496.3151457000058,1497.3151365000522,"[0, 0, 0]",1,1495.3318046000786,1497.3318169000559,,,,,,,,,,,,,,,,,,,,,5,m,2,30,r,MS,49,49,2022_Jul_21_1415,2020.2.10,distractmap2,59.98512368778086,"['Right Face', 'Left Face', 'Right Face', 'Left Face']",
1,"[-0.2, 0.2]",0,0,6,6,6,,,None,None,"[0, 0, 0]",1497.3484881999902,1499.3485565000447,1497.3484881999902,1498.3484735999955,1498.3318229001015,1499.3318302000407,"[0, 0, 0]",1,1497.3484881999902,1499.3485565000447,,,,,,,,,,,,,,,,,,,,,5,m,2,30,r,MS,49,49,2022_Jul_21_1415,2020.2.10,distractmap2,59.98512368778086,"['Right Face', 'Left Face', 'Right Face', 'Left Face']",
1,"[-0.2, 0.2]",0,0,7,7,7,,,None,None,"[0, 0, 0]",1499.3651652000844,1501.365189800039,1499.3651652000844,1500.3651862000115,1500.3485143000726,1501.3485048000002,"[0, 0, 0]",1,1499.3651652000844,1501.365189800039,,,,,,,,,,,,,,,,,,,,,5,m,2,30,r,MS,49,49,2022_Jul_21_1415,2020.2.10,distractmap2,59.98512368778086,"['Right Face', 'Left Face', 'Right Face', 'Left Face']",
6,"[0.2, 0]",0,0,8,8,8,,,None,None,"[0, 0, 0]",1501.3818584000692,1503.3818633999908,1501.3818584000692,1502.3818672000198,1502.3651813000906,1503.3652053000405,"[0, 0, 0]",1,1501.3818584000692,1503.3818633999908,,,,,,,,,,,,,,,,,,,,,5,m,2,30,r,MS,49,49,2022_Jul_21_1415,2020.2.10,distractmap2,59.98512368778086,"['Right Face', 'Left Face', 'Right Face', 'Left Face']",
1,"[-0.2, 0.2]",1,0,9,9,9,,,None,None,"[0, 0, 0]",1503.39853580005,1505.3985536000691,1503.39853580005,1504.398546100012,1504.3818865000503,1505.3818752000807,"[0, 0, 0]",1,1503.39853580005,1505.3985536000691,,,,,,,,,,,,,,,,,,,,,5,m,2,30,r,MS,49,49,2022_Jul_21_1415,2020.2.10,distractmap2,59.98512368778086,"['Right Face', 'Left Face', 'Right Face', 'Left Face']",
,,,,,,,,,,,,,,,,,,,,,,,,1505.4152308000484,None,,,,,,,,,,,,,,,,,5,m,2,30,r,MS,49,49,2022_Jul_21_1415,2020.2.10,distractmap2,59.98512368778086,"['Right Face', 'Left Face', 'Right Face', 'Left Face']",
,,,,,,,,,,,,,,,,,,,,,,,,,,,,,,,,,,,,16.913580246913583,1490.4889774400508,,,,,5,m,2,30,r,MS,49,49,2022_Jul_21_1415,2020.2.10,distractmap2,59.98512368778086,"['Right Face', 'Left Face', 'Right Face', 'Left Face']",
3,"[0.2, 0.2]",None,0,0,0,0,1523.3325868000975,None,None,None,"[0, 0, 0]",1525.4487448000582,1527.448769300012,1525.4487448000582,1526.4487557000248,1526.4320744000142,1527.4320744000142,"[0, 0, 0]",1,1525.4487448000582,1527.448769300012,,,,,,,,,,,,,,,,,0.012435659999027848,5.007736260071397,,,5,m,2,30,r,MS,49,49,2022_Jul_21_1415,2020.2.10,distractmap2,59.98512368778086,"['Right Face', 'Left Face', 'Right Face', 'Left Face']",
3,"[0.2, 0.2]",None,0,1,1,1,,,None,None,"[0, 0, 0]",1527.4654110000702,1529.4654351000208,1527.4654110000702,1528.4654203000246,1528.4487672999967,1529.4487861000234,"[0, 0, 0]",1,1527.4654110000702,1529.4654351000208,,,,,,,,,,,,,,,,,,,,,5,m,2,30,r,MS,49,49,2022_Jul_21_1415,2020.2.10,distractmap2,59.98512368778086,"['Right Face', 'Left Face', 'Right Face', 'Left Face']",
5,"[0, 0]",0,0,2,2,2,,,None,None,"[0, 0, 0]",1529.482110900106,1531.4821059000678,1529.482110900106,1530.4821167000337,1530.4654301000992,1531.4654360000277,"[0, 0, 0]",1,1529.482110900106,1531.4821059000678,,,,,,,,,,,,,,,,,,,,,5,m,2,30,r,MS,49,49,2022_Jul_21_1415,2020.2.10,distractmap2,59.98512368778086,"['Right Face', 'Left Face', 'Right Face', 'Left Face']",
1,"[-0.2, 0.2]",0,0,3,3,3,,,None,None,"[0, 0, 0]",1531.4987959000282,1533.4988050000975,1531.4987959000282,1532.498800200061,1532.4821158000268,1533.4821426999988,"[0, 0, 0]",1,1531.4987959000282,1533.4988050000975,,,,,,,,,,,,,,,,,,,,,5,m,2,30,r,MS,49,49,2022_Jul_21_1415,2020.2.10,distractmap2,59.98512368778086,"['Right Face', 'Left Face', 'Right Face', 'Left Face']",
5,"[0, 0]",1,0,4,4,4,,,None,None,"[0, 0, 0]",1533.5658741000807,None,1533.5658741000807,1534.5654888000572,1534.5488117000787,None,"[0, 0, 0]",1,1533.5658741000807,None,,,,,,,,,,,,,,,,,,,,,5,m,2,30,r,MS,49,49,2022_Jul_21_1415,2020.2.10,distractmap2,59.98512368778086,"['Right Face', 'Left Face', 'Right Face', 'Left Face']",
8,"[0, -0.2]",0,0,5,5,5,,,None,None,"[0, 0, 0]",1535.532140800031,1537.5321743000532,1535.532140800031,1536.532151899999,1536.5155054000206,1537.5155095000518,"[0, 0, 0]",1,1535.532140800031,1537.5321743000532,,,,,,,,,,,,,,,,,,,,,5,m,2,30,r,MS,49,49,2022_Jul_21_1415,2020.2.10,distractmap2,59.98512368778086,"['Right Face', 'Left Face', 'Right Face', 'Left Face']",
5,"[0, 0]",1,0,6,6,6,,,None,None,"[0, 0, 0]",1537.548847099999,1539.5488643000135,1537.548847099999,1538.5488535000477,1538.532170600025,1539.5321856000228,"[0, 0, 0]",1,1537.548847099999,1539.5488643000135,,,,,,,,,,,,,,,,,,,,,5,m,2,30,r,MS,49,49,2022_Jul_21_1415,2020.2.10,distractmap2,59.98512368778086,"['Right Face', 'Left Face', 'Right Face', 'Left Face']",
7,"[-0.2, -0.2]",0,0,7,7,7,,,None,None,"[0, 0, 0]",1539.5655284000095,1541.5655379000818,1539.5655284000095,1540.5655230000848,1540.5488728000782,1541.5488873000722,"[0, 0, 0]",1,1539.5655284000095,1541.5655379000818,,,,,,,,,,,,,,,,,,,,,5,m,2,30,r,MS,49,49,2022_Jul_21_1415,2020.2.10,distractmap2,59.98512368778086,"['Right Face', 'Left Face', 'Right Face', 'Left Face']",
5,"[0, 0]",1,0,8,8,8,,,None,None,"[0, 0, 0]",1541.5822030000854,1543.5822338000871,1541.5822030000854,1542.582216400071,1542.5658003001008,1543.5655620000325,"[0, 0, 0]",1,1541.5822030000854,1543.5822338000871,,,,,,,,,,,,,,,,,,,,,5,m,2,30,r,MS,49,49,2022_Jul_21_1415,2020.2.10,distractmap2,59.98512368778086,"['Right Face', 'Left Face', 'Right Face', 'Left Face']",
7,"[-0.2, -0.2]",1,0,9,9,9,,,None,None,"[0, 0, 0]",1543.5989030000055,1545.5989203000208,1543.5989030000055,1544.5988969000755,1544.582245400059,1545.582245800062,"[0, 0, 0]",0,1543.5989030000055,1545.5989203000208,,,,,,,,,,,,,,,,,,,,,5,m,2,30,r,MS,49,49,2022_Jul_21_1415,2020.2.10,distractmap2,59.98512368778086,"['Right Face', 'Left Face', 'Right Face', 'Left Face']",
,,,,,,,,,,,,,,,,,,,,,,,,1545.6155752000632,None,,,,,,,,,,,,,,,,,5,m,2,30,r,MS,49,49,2022_Jul_21_1415,2020.2.10,distractmap2,59.98512368778086,"['Right Face', 'Left Face', 'Right Face', 'Left Face']",
,,,,,,,,,,,,,,,,,,,,,,,,,,,,,,,,,,,,14.50617283950617,1531.1223170399899,,,,,5,m,2,30,r,MS,49,49,2022_Jul_21_1415,2020.2.10,distractmap2,59.98512368778086,"['Right Face', 'Left Face', 'Right Face', 'Left Face']",
6,"[0.2, 0]",None,0,0,0,0,1562.866108300048,None,None,None,"[0, 0, 0]",1565.6491023000563,1567.6491479000542,1565.6491023000563,1566.649125099997,1566.6324696000665,1567.632453700062,"[0, 0, 0]",1,1565.6491023000563,1567.6491479000542,,,,,,,,,,,,,,,,,0.01281186006963253,5.008495360030793,,,5,m,2,30,r,MS,49,49,2022_Jul_21_1415,2020.2.10,distractmap2,59.98512368778086,"['Right Face', 'Left Face', 'Right Face', 'Left Face']",
1,"[-0.2, 0.2]",None,0,1,1,1,,,None,None,"[0, 0, 0]",1567.6657803000417,1569.665795900044,1567.6657803000417,1568.6657903000014,1568.649122800096,1569.6491567000048,"[0, 0, 0]",1,1567.6657803000417,1569.665795900044,,,,,,,,,,,,,,,,,,,,,5,m,2,30,r,MS,49,49,2022_Jul_21_1415,2020.2.10,distractmap2,59.98512368778086,"['Right Face', 'Left Face', 'Right Face', 'Left Face']",
6,"[0.2, 0]",1,0,2,2,2,,,None,None,"[0, 0, 0]",1569.6824636000674,1571.6825547000626,1569.6824636000674,1570.6824752000393,1570.6658099000342,1571.6658233000198,"[0, 0, 0]",1,1569.6824636000674,1571.6825547000626,,,,,,,,,,,,,,,,,,,,,5,m,2,30,r,MS,49,49,2022_Jul_21_1415,2020.2.10,distractmap2,59.98512368778086,"['Right Face', 'Left Face', 'Right Face', 'Left Face']",
4,"[-0.2, 0]",0,0,3,3,3,,,None,None,"[0, 0, 0]",1571.6991483001038,1573.6991819000104,1571.6991483001038,1572.6991616000887,1572.6824944000691,1573.682658100035,"[0, 0, 0]",1,1571.6991483001038,1573.6991819000104,,,,,,,,,,,,,,,,,,,,,5,m,2,30,r,MS,49,49,2022_Jul_21_1415,2020.2.10,distractmap2,59.98512368778086,"['Right Face', 'Left Face', 'Right Face', 'Left Face']",
1,"[-0.2, 0.2]",0,0,4,4,4,,,None,None,"[0, 0, 0]",1573.7495461000362,None,1573.7495461000362,1574.7491890999954,1574.732513200026,None,"[0, 0, 0]",1,1573.7495461000362,None,,,,,,,,,,,,,,,,,,,,,5,m,2,30,r,MS,49,49,2022_Jul_21_1415,2020.2.10,distractmap2,59.98512368778086,"['Right Face', 'Left Face', 'Right Face', 'Left Face']",
8,"[0, -0.2]",0,0,5,5,5,,,None,None,"[0, 0, 0]",1575.732517000055,1577.7325331000611,1575.732517000055,1576.7325262000086,1576.715848300024,1577.7158758000005,"[0, 0, 0]",1,1575.732517000055,1577.7325331000611,,,,,,,,,,,,,,,,,,,,,5,m,2,30,r,MS,49,49,2022_Jul_21_1415,2020.2.10,distractmap2,59.98512368778086,"['Right Face', 'Left Face', 'Right Face', 'Left Face']",
1,"[-0.2, 0.2]",1,0,6,6,6,,,None,None,"[0, 0, 0]",1577.7491898000007,1579.749213800067,1577.7491898000007,1578.7492108000442,1578.732445300091,1579.7325473000528,"[0, 0, 0]",1,1577.7491898000007,1579.749213800067,,,,,,,,,,,,,,,,,,,,,5,m,2,30,r,MS,49,49,2022_Jul_21_1415,2020.2.10,distractmap2,59.98512368778086,"['Right Face', 'Left Face', 'Right Face', 'Left Face']",
8,"[0, -0.2]",1,0,7,7,7,,,None,None,"[0, 0, 0]",1579.7658143000444,1581.7659141001059,1579.7658143000444,1580.7658921000548,1580.7492380000185,1581.7492174000945,"[0, 0, 0]",1,1579.7658143000444,1581.7659141001059,,,,,,,,,,,,,,,,,,,,,5,m,2,30,r,MS,49,49,2022_Jul_21_1415,2020.2.10,distractmap2,59.98512368778086,"['Right Face', 'Left Face', 'Right Face', 'Left Face']",
1,"[-0.2, 0.2]",1,0,8,8,8,,,None,None,"[0, 0, 0]",1581.782576000085,1583.7826052000746,1581.782576000085,1582.7825814000098,1582.7659163000062,1583.7659002,"[0, 0, 0]",1,1581.782576000085,1583.7826052000746,,,,,,,,,,,,,,,,,,,,,5,m,2,30,r,MS,49,49,2022_Jul_21_1415,2020.2.10,distractmap2,59.98512368778086,"['Right Face', 'Left Face', 'Right Face', 'Left Face']",
6,"[0.2, 0]",0,0,9,9,9,,,None,None,"[0, 0, 0]",1583.7992527000606,1585.7992556000827,1583.7992527000606,1584.7992487000301,1584.7825908000814,1585.782593900105,"[0, 0, 0]",1,1583.7992527000606,1585.7992556000827,,,,,,,,,,,,,,,,,,,,,5,m,2,30,r,MS,49,49,2022_Jul_21_1415,2020.2.10,distractmap2,59.98512368778086,"['Right Face', 'Left Face', 'Right Face', 'Left Face']",
,,,,,,,,,,,,,,,,,,,,,,,,1585.8159227001015,None,,,,,,,,,,,,,,,,,5,m,2,30,r,MS,49,49,2022_Jul_21_1415,2020.2.10,distractmap2,59.98512368778086,"['Right Face', 'Left Face', 'Right Face', 'Left Face']",
,,,,,,,,,,,,,,,,,,,,,,,,,,,,,,,,,,,,21.975308641975307,1567.440034739906,,,,,5,m,2,30,r,MS,49,49,2022_Jul_21_1415,2020.2.10,distractmap2,59.98512368778086,"['Right Face', 'Left Face', 'Right Face', 'Left Face']",
,,,,,,,1620.8329108000034,None,,,,,,,,,,,,,,,,,,,,,,,,,,,,14.320987654320986,1604.1206354401074,0.012128760106861591,5.007110660080798,1600.8327460000291,None,5,m,2,30,r,MS,49,49,2022_Jul_21_1415,2020.2.10,distractmap2,59.98512368778086,"['Right Face', 'Left Face', 'Right Face', 'Left Face']",
,,,,,,,1655.8498899000697,None,,,,,,,,,,,,,,,,,,,,,,,,,,,,22.901234567901234,1638.971168540069,0.015060259960591793,5.012972060008906,1635.8497234000824,None,5,m,2,30,r,MS,49,49,2022_Jul_21_1415,2020.2.10,distractmap2,59.98512368778086,"['Right Face', 'Left Face', 'Right Face', 'Left Face']",
,,,,,,,1690.8668720000423,None,,,,,,,,,,,,,,,,,,,,,,,,,,,,14.382716049382719,1672.5048791399458,0.014879559981636703,5.012661559972912,1670.8667035000399,None,5,m,2,30,r,MS,49,49,2022_Jul_21_1415,2020.2.10,distractmap2,59.98512368778086,"['Right Face', 'Left Face', 'Right Face', 'Left Face']",
,,,,,,,1952.7025188000407,None,,,,,,,,,,,,,,,,,,,,,1770.4175736000761,1770.4175736000761,None,space,122.57510879996698,1770.4175736000761,None,19.012345679012345,1935.1574333399767,0.01485956006217748,5.012606060015969,1932.7023538000649,None,5,m,2,30,r,MS,49,49,2022_Jul_21_1415,2020.2.10,distractmap2,59.98512368778086,"['Right Face', 'Left Face', 'Right Face', 'Left Face']",
,,,,,,,1987.71948780003,None,,,,,,,,,,,,,,,,,,,,,,,,,,,,12.65432098765432,1969.5080447399523,0.01459866005461663,5.012081059976481,1967.7193137001013,None,5,m,2,30,r,MS,49,49,2022_Jul_21_1415,2020.2.10,distractmap2,59.98512368778086,"['Right Face', 'Left Face', 'Right Face', 'Left Face']",
,,,,,,,2022.73647480004,None,,,,,,,,,,,,,,,,,,,,,,,,,,,,14.567901234567904,2009.0409677398857,0.014318860019557178,5.011479260050692,2002.7362963000778,None,5,m,2,30,r,MS,49,49,2022_Jul_21_1415,2020.2.10,distractmap2,59.98512368778086,"['Right Face', 'Left Face', 'Right Face', 'Left Face']",
7,"[-0.2, -0.2]",None,0,0,0,0,2039.7533177000005,None,None,None,"[0, 0, 0]",2042.7700038000476,None,2042.7700038000476,2043.770007400075,2043.7533199000172,2044.7533304000972,"[0, 0, 0]",1,2042.7700038000476,None,,,,,,,,,,,,,,,,,0.015062160091474652,5.01301896001678,,,5,m,2,30,r,MS,49,49,2022_Jul_21_1415,2020.2.10,distractmap2,59.98512368778086,"['Right Face', 'Left Face', 'Right Face', 'Left Face']",
7,"[-0.2, -0.2]",None,0,1,1,1,,,None,None,"[0, 0, 0]",2044.7700151000172,2046.770041400101,2044.7700151000172,2045.7700130000012,2045.7533757000929,2046.753349000006,"[0, 0, 0]",1,2044.7700151000172,2046.770041400101,,,,,,,,,,,,,,,,,,,,,5,m,2,30,r,MS,49,49,2022_Jul_21_1415,2020.2.10,distractmap2,59.98512368778086,"['Right Face', 'Left Face', 'Right Face', 'Left Face']",
7,"[-0.2, -0.2]",1,0,2,2,2,,,None,None,"[0, 0, 0]",2046.786700900062,2048.7867212001,2046.786700900062,2047.7866960000247,2047.7700315000257,2048.7700409000972,"[0, 0, 0]",1,2046.786700900062,2048.7867212001,,,,,,,,,,,,,,,,,,,,,5,m,2,30,r,MS,49,49,2022_Jul_21_1415,2020.2.10,distractmap2,59.98512368778086,"['Right Face', 'Left Face', 'Right Face', 'Left Face']",
5,"[0, 0]",0,0,3,3,3,,,None,None,"[0, 0, 0]",2048.8033864001045,2050.803383700084,2048.8033864001045,2049.803413000074,2049.7867232999997,2050.7867302000523,"[0, 0, 0]",1,2048.8033864001045,2050.803383700084,,,,,,,,,,,,,,,,,,,,,5,m,2,30,r,MS,49,49,2022_Jul_21_1415,2020.2.10,distractmap2,59.98512368778086,"['Right Face', 'Left Face', 'Right Face', 'Left Face']",
1,"[-0.2, 0.2]",0,0,4,4,4,,,None,None,"[0, 0, 0]",2050.820069700014,2052.820080600097,2050.820069700014,2051.820079300087,2051.803432899993,2052.8034232000355,"[0, 0, 0]",1,2050.820069700014,2052.820080600097,,,,,,,,,,,,,,,,,,,,,5,m,2,30,r,MS,49,49,2022_Jul_21_1415,2020.2.10,distractmap2,59.98512368778086,"['Right Face', 'Left Face', 'Right Face', 'Left Face']",
6,"[0.2, 0]",0,0,5,5,5,,,None,None,"[0, 0, 0]",2052.836652200087,2054.836765300017,2052.836652200087,2053.836751100025,2053.820102000027,2054.820095800096,"[0, 0, 0]",1,2052.836652200087,2054.836765300017,,,,,,,,,,,,,,,,,,,,,5,m,2,30,r,MS,49,49,2022_Jul_21_1415,2020.2.10,distractmap2,59.98512368778086,"['Right Face', 'Left Face', 'Right Face', 'Left Face']",
1,"[-0.2, 0.2]",1,0,6,6,6,,,None,None,"[0, 0, 0]",2054.8534456000198,2056.853448900045,2054.8534456000198,2055.853433500044,2055.836780600017,2056.8367857000558,"[0, 0, 0]",1,2054.8534456000198,2056.853448900045,,,,,,,,,,,,,,,,,,,,,5,m,2,30,r,MS,49,49,2022_Jul_21_1415,2020.2.10,distractmap2,59.98512368778086,"['Right Face', 'Left Face', 'Right Face', 'Left Face']",
7,"[-0.2, -0.2]",0,0,7,7,7,,,None,None,"[0, 0, 0]",2056.8701086000074,2058.87013080006,2056.8701086000074,2057.87011680007,2057.853497300064,2058.8534516000655,"[0, 0, 0]",1,2056.8701086000074,2058.87013080006,,,,,,,,,,,,,,,,,,,,,5,m,2,30,r,MS,49,49,2022_Jul_21_1415,2020.2.10,distractmap2,59.98512368778086,"['Right Face', 'Left Face', 'Right Face', 'Left Face']",
6,"[0.2, 0]",0,0,8,8,8,,,None,None,"[0, 0, 0]",2058.8867997000925,2060.8868088000454,2058.8867997000925,2059.8868130000774,2059.8701294000493,2060.870147300069,"[0, 0, 0]",1,2058.8867997000925,2060.8868088000454,,,,,,,,,,,,,,,,,,,,,5,m,2,30,r,MS,49,49,2022_Jul_21_1415,2020.2.10,distractmap2,59.98512368778086,"['Right Face', 'Left Face', 'Right Face', 'Left Face']",
7,"[-0.2, -0.2]",1,0,9,9,9,,,None,None,"[0, 0, 0]",2060.9035044000484,2062.9034866000293,2060.9035044000484,2061.9034804000985,2061.886829700088,2062.8868628999917,"[0, 0, 0]",1,2060.9035044000484,2062.9034866000293,,,,,,,,,,,,,,,,,,,,,5,m,2,30,r,MS,49,49,2022_Jul_21_1415,2020.2.10,distractmap2,59.98512368778086,"['Right Face', 'Left Face', 'Right Face', 'Left Face']",
,,,,,,,,,,,,,,,,,,,,,,,,2062.920283799991,None,,,,,,,,,,,,,,,,,5,m,2,30,r,MS,49,49,2022_Jul_21_1415,2020.2.10,distractmap2,59.98512368778086,"['Right Face', 'Left Face', 'Right Face', 'Left Face']",
4,"[-0.2, 0]",None,0,0,0,0,2070.936912800069,None,None,None,"[0, 0, 0]",2077.936973800068,2079.936991200084,2077.936973800068,2078.9369926000945,2078.920315299998,2079.9203085000627,"[0, 0, 0]",1,2077.936973800068,2079.936991200084,,,,,,,,,,,,,,,,,,,,,5,m,2,30,r,MS,49,49,2022_Jul_21_1415,2020.2.10,distractmap2,59.98512368778086,"['Right Face', 'Left Face', 'Right Face', 'Left Face']",
5,"[0, 0]",None,0,1,1,1,,,None,None,"[0, 0, 0]",2079.95367409999,2081.9536636000266,2079.95367409999,2080.953662100015,2080.936994299991,2081.9370245001046,"[0, 0, 0]",1,2079.95367409999,2081.9536636000266,,,,,,,,,,,,,,,,,,,,,5,m,2,30,r,MS,49,49,2022_Jul_21_1415,2020.2.10,distractmap2,59.98512368778086,"['Right Face', 'Left Face', 'Right Face', 'Left Face']",
6,"[0.2, 0]",0,0,2,2,2,,,None,None,"[0, 0, 0]",2081.9703451000387,2083.9703460000455,2081.9703451000387,2082.9703528000973,2082.9537080000155,2083.9536961000413,"[0, 0, 0]",0,2081.9703451000387,2083.9703460000455,,,,,,,,,,,,,,,,,,,,,5,m,2,30,r,MS,49,49,2022_Jul_21_1415,2020.2.10,distractmap2,59.98512368778086,"['Right Face', 'Left Face', 'Right Face', 'Left Face']",
1,"[-0.2, 0.2]",0,0,3,3,3,,,None,None,"[0, 0, 0]",2083.9870330000995,2085.9870536000235,2083.9870330000995,2084.987041900051,2084.970350900083,2085.970377800055,"[0, 0, 0]",0,2083.9870330000995,2085.9870536000235,,,,,,,,,,,,,,,,,,,,,5,m,2,30,r,MS,49,49,2022_Jul_21_1415,2020.2.10,distractmap2,59.98512368778086,"['Right Face', 'Left Face', 'Right Face', 'Left Face']",
6,"[0.2, 0]",1,0,4,4,4,,,None,None,"[0, 0, 0]",2086.003720000037,2088.0037185000256,2086.003720000037,2087.0037240000675,2086.987061300082,2087.9870781000936,"[0, 0, 0]",1,2086.003720000037,2088.0037185000256,,,,,,,,,,,,,,,,,,,,,5,m,2,30,r,MS,49,49,2022_Jul_21_1415,2020.2.10,distractmap2,59.98512368778086,"['Right Face', 'Left Face', 'Right Face', 'Left Face']",
1,"[-0.2, 0.2]",1,0,5,5,5,,,None,None,"[0, 0, 0]",2088.0202970000682,2090.020397300017,2088.0202970000682,2089.0204112000065,2089.003729899996,2090.003735000035,"[0, 0, 0]",1,2088.0202970000682,2090.020397300017,,,,,,,,,,,,,,,,,,,,,5,m,2,30,r,MS,49,49,2022_Jul_21_1415,2020.2.10,distractmap2,59.98512368778086,"['Right Face', 'Left Face', 'Right Face', 'Left Face']",
2,"[0, 0.2]",0,0,6,6,6,,,None,None,"[0, 0, 0]",2090.037077500019,2092.037096200045,2090.037077500019,2091.037095000036,2091.020407300093,2092.0204291000264,"[0, 0, 0]",1,2090.037077500019,2092.037096200045,,,,,,,,,,,,,,,,,,,,,5,m,2,30,r,MS,49,49,2022_Jul_21_1415,2020.2.10,distractmap2,59.98512368778086,"['Right Face', 'Left Face', 'Right Face', 'Left Face']",
3,"[0.2, 0.2]",0,0,7,7,7,,,None,None,"[0, 0, 0]",2092.0537491000723,2094.0537941000657,2092.0537491000723,2093.0537678000983,2093.037104200106,2094.037122300011,"[0, 0, 0]",1,2092.0537491000723,2094.0537941000657,,,,,,,,,,,,,,,,,,,,,5,m,2,30,r,MS,49,49,2022_Jul_21_1415,2020.2.10,distractmap2,59.98512368778086,"['Right Face', 'Left Face', 'Right Face', 'Left Face']",
6,"[0.2, 0]",0,0,8,8,8,,,None,None,"[0, 0, 0]",2094.070438500028,2096.0704599000746,2094.070438500028,2095.0704544000328,2095.053789700032,2096.0538053000346,"[0, 0, 0]",1,2094.070438500028,2096.0704599000746,,,,,,,,,,,,,,,,,,,,,5,m,2,30,r,MS,49,49,2022_Jul_21_1415,2020.2.10,distractmap2,59.98512368778086,"['Right Face', 'Left Face', 'Right Face', 'Left Face']",
3,"[0.2, 0.2]",1,0,9,9,9,,,None,None,"[0, 0, 0]",2096.087127600098,2098.0871544000693,2096.087127600098,2097.0870295000495,2097.0704612000845,2098.0704914000817,"[0, 0, 0]",1,2096.087127600098,2098.0871544000693,,,,,,,,,,,,,,,,,,,,,5,m,2,30,r,MS,49,49,2022_Jul_21_1415,2020.2.10,distractmap2,59.98512368778086,"['Right Face', 'Left Face', 'Right Face', 'Left Face']",
,,,,,,,,,,,,,,,,,,,,,,,,2098.1038286000257,None,,,,,,,,,,,,,,,,,5,m,2,30,r,MS,49,49,2022_Jul_21_1415,2020.2.10,distractmap2,59.98512368778086,"['Right Face', 'Left Face', 'Right Face', 'Left Face']",
2,"[0, 0.2]",None,0,0,0,0,2108.1205729000503,None,None,None,"[0, 0, 0]",2113.1206055000657,2115.120638100081,2113.1206055000657,2114.1206181000452,2114.10397070006,2115.1039651000174,"[0, 0, 0]",1,2113.1206055000657,2115.120638100081,,,,,,,,,,,,,,,,,,,,,5,m,2,30,r,MS,49,49,2022_Jul_21_1415,2020.2.10,distractmap2,59.98512368778086,"['Right Face', 'Left Face', 'Right Face', 'Left Face']",
5,"[0, 0]",None,0,1,1,1,,,None,None,"[0, 0, 0]",2115.1373021000763,2117.1373057001038,2115.1373021000763,2116.137330900063,2116.1206342000514,2117.1206465000287,"[0, 0, 0]",1,2115.1373021000763,2117.1373057001038,,,,,,,,,,,,,,,,,,,,,5,m,2,30,r,MS,49,49,2022_Jul_21_1415,2020.2.10,distractmap2,59.98512368778086,"['Right Face', 'Left Face', 'Right Face', 'Left Face']",
6,"[0.2, 0]",0,0,2,2,2,,,None,None,"[0, 0, 0]",2117.154001399991,2119.1539918000344,2117.154001399991,2118.153977900045,2118.137322499999,2119.137343700044,"[0, 0, 0]",0,2117.154001399991,2119.1539918000344,,,,,,,,,,,,,,,,,,,,,5,m,2,30,r,MS,49,49,2022_Jul_21_1415,2020.2.10,distractmap2,59.98512368778086,"['Right Face', 'Left Face', 'Right Face', 'Left Face']",
1,"[-0.2, 0.2]",0,0,3,3,3,,,None,None,"[0, 0, 0]",2119.170667300001,2121.1706716000335,2119.170667300001,2120.1706654001027,2120.154009400052,2121.154001899995,"[0, 0, 0]",1,2119.170667300001,2121.1706716000335,,,,,,,,,,,,,,,,,,,,,5,m,2,30,r,MS,49,49,2022_Jul_21_1415,2020.2.10,distractmap2,59.98512368778086,"['Right Face', 'Left Face', 'Right Face', 'Left Face']",
6,"[0.2, 0]",1,0,4,4,4,,,None,None,"[0, 0, 0]",2121.1873602000996,2123.1873796000145,2121.1873602000996,2122.187365400023,2122.1706808001036,2123.170680200099,"[0, 0, 0]",0,2121.1873602000996,2123.1873796000145,,,,,,,,,,,,,,,,,,,,,5,m,2,30,r,MS,49,49,2022_Jul_21_1415,2020.2.10,distractmap2,59.98512368778086,"['Right Face', 'Left Face', 'Right Face', 'Left Face']",
6,"[0.2, 0]",0,0,5,5,5,,,None,None,"[0, 0, 0]",2123.204010400106,2125.204026899999,2123.204010400106,2124.2040400000988,2124.1873671000358,2125.1873851000564,"[0, 0, 0]",1,2123.204010400106,2125.204026899999,,,,,,,,,,,,,,,,,,,,,5,m,2,30,r,MS,49,49,2022_Jul_21_1415,2020.2.10,distractmap2,59.98512368778086,"['Right Face', 'Left Face', 'Right Face', 'Left Face']",
9,"[0.2, -0.2]",0,0,6,6,6,,,None,None,"[0, 0, 0]",2125.2207112000324,2127.220723700011,2125.2207112000324,2126.2207381000044,2126.204063500045,2127.2040752000175,"[0, 0, 0]",1,2125.2207112000324,2127.220723700011,,,,,,,,,,,,,,,,,,,,,5,m,2,30,r,MS,49,49,2022_Jul_21_1415,2020.2.10,distractmap2,59.98512368778086,"['Right Face', 'Left Face', 'Right Face', 'Left Face']",
