	onset	duration	rt	response	correct	bodySite	temperature	condition	pretrial-jitter
0	5.770518899895251	20.000049959984608				Right Face	49.0	Rest-Stim	3.0
1	25.770752999931574	3.016514460090548				Right Face		PostTrialFixation	
2	28.77316310000606	5.012081059976481		19.012345679012345		Right Face	49.0	Rest-Stim Rating	3.0
3	40.78751039993949	20.000036059995182				Right Face	49.0	Rest-Stim	7.0
4	60.78768730000593	3.016558160074055				Right Face		PostTrialFixation	
5	63.7904406999005	5.011479260050692		12.65432098765432		Right Face	49.0	Rest-Stim Rating	3.0
6	75.80449209990911	20.000019359984435				Right Face	49.0	Rest-Stim	7.0
7	95.80467799992766	7.016543960082345				Right Face		PostTrialFixation	
8	102.80665990000125	5.01301896001678		14.567901234567904		Right Face	49.0	Rest-Stim Rating	7.0
9	107.81409909995273	112.82173349999357				Right Face	49.0	2back Instructions	
10	115.83210879995022	1.9953518599504605			1.0	Right Face	32.0	2back-nostim	
11	117.84165620000567	2.0096048599807546			1.0	Right Face	32.0	2back-nostim	3.0
12	119.85793409997132	2.0104486601194367	0.5334773999638855	0.0	1.0	Right Face	32.0	2back-nostim	
13	121.87481379997917	2.0100578600540757	0.0	2.0	1.0	Right Face	32.0	2back-nostim	
14	123.89133009989746	2.0103820599615574	0.0	2.0	1.0	Right Face	32.0	2back-nostim	
15	125.90799029998016	2.0104307600995526	0.0	2.0	1.0	Right Face	32.0	2back-nostim	
16	127.92486009991262	2.010064559872262	0.7002596000675112	0.0	1.0	Right Face	32.0	2back-nostim	
17	129.94192039989866	2.0092956599546596	0.0	2.0	1.0	Right Face	32.0	2back-nostim	
18	131.95830669999123	2.009898960008286	0.0	2.0	1.0	Right Face	32.0	2back-nostim	
19	133.9746302999556	2.01064546010457	0.533529800013639	0.0	1.0	Right Face	32.0	2back-nostim	
20	138.99917429999914	144.00502829998732				Right Face	49.0	2back Instructions	
21	151.0134249998955	2.000004359986633			1.0	Right Face	32.0	2back-nostim	
22	153.02550129999872	2.009233260061592			1.0	Right Face	32.0	2back-nostim	7.0
23	155.0417601999361	2.0100742599461228			0.0	Right Face	32.0	2back-nostim	
24	157.05831889994442	2.0103288600221276			0.0	Right Face	32.0	2back-nostim	
25	159.0751094999723	2.0101483600446954	0.6002773999935016	0.0	1.0	Right Face	32.0	2back-nostim	
26	161.09197529999074	2.009740659967065	0.7503359999973327	0.0	1.0	Right Face	32.0	2back-nostim	
27	163.10841699992307	2.0102302599698305	0.0	2.0	1.0	Right Face	32.0	2back-nostim	
28	165.12496669997927	2.010519160074182	0.0	2.0	1.0	Right Face	32.0	2back-nostim	
29	167.1415770999156	2.0106811600271612	0.0	2.0	1.0	Right Face	32.0	2back-nostim	
30	169.15876769996248	2.009650260093622	0.7002433999441564	0.0	1.0	Right Face	32.0	2back-nostim	
31	176.18193689989857	181.18868939997628				Right Face	49.0	2back Instructions	
32	186.19700699998066	2.0001557600917295			1.0	Right Face	32.0	2back-nostim	
33	188.20904689992312	2.00942626001779			1.0	Right Face	32.0	2back-nostim	5.0
34	190.22509889991488	2.0106879599625245			0.0	Right Face	32.0	2back-nostim	
35	192.24190759996418	2.0104171599959955	0.0	2.0	1.0	Right Face	32.0	2back-nostim	
36	194.25901549996343	2.0095578600885347	0.0	2.0	0.0	Right Face	32.0	2back-nostim	
37	196.2752296999097	2.0105583599070087	0.0	2.0	1.0	Right Face	32.0	2back-nostim	
38	198.29192619991954	2.010483260033652	0.0	2.0	1.0	Right Face	32.0	2back-nostim	
39	200.3088555999566	2.0099898600019515	0.3527614999329671	0.0	1.0	Right Face	32.0	2back-nostim	
40	202.32525379990693	2.0106116599636152	0.0	2.0	1.0	Right Face	32.0	2back-nostim	
41	204.3422392999055	2.0100652599940076	0.0	2.0	1.0	Right Face	32.0	2back-nostim	
42	209.36765329993796	214.37231989996508				Right Face	32.0	2back Instructions	
43	221.39732879993971	2.0000949599780142			1.0	Right Face	49.0	2back-stim	
44	223.4093223999953	2.0095120599726215			1.0	Right Face	49.0	2back-stim	7.0
45	225.42555269994773	2.010506759979762	0.533585200086236	0.0	1.0	Right Face	49.0	2back-stim	
46	227.44210159999784	2.0106725599616766	0.0	2.0	1.0	Right Face	49.0	2back-stim	
47	229.4995691999793	1.962450879975222	0.0	2.0	1.0	Right Face	49.0	2back-stim	
48	231.4759303999599	2.0097709600813687	0.0	2.0	1.0	Right Face	49.0	2back-stim	
49	233.49222279991955	2.0105602600378916	0.0	2.0	1.0	Right Face	49.0	2back-stim	
50	235.5089886999922	2.0103970599593595	0.0	2.0	1.0	Right Face	49.0	2back-stim	
51	237.52565359999426	2.010421760031022	0.4668968999758363	0.0	1.0	Right Face	49.0	2back-stim	
52	239.54259139997885	2.0099162600236014	0.0	2.0	1.0	Right Face	49.0	2back-stim	
53	244.56007689994294	5.008767160004936		12.777777777777777		Right Face	49.0	2back-stim Rating	3.0
54	249.5651782999048	254.57308050000574				Right Face	32.0	2back Instructions	
55	261.5974396999227	1.9839094600174576			1.0	Right Face	49.0	2back-stim	
56	263.592931299936	2.0096727600321174			1.0	Right Face	49.0	2back-stim	7.0
57	265.609295799979	2.0103001600364223	0.0	2.0	1.0	Right Face	49.0	2back-stim	
58	267.6259251999436	2.0104204600211233	0.6502363999607041	0.0	1.0	Right Face	49.0	2back-stim	
59	269.6743095999118	1.980344680021517	0.0	2.0	1.0	Right Face	49.0	2back-stim	
60	271.65927409997676	2.010446960106492	0.0	2.0	1.0	Right Face	49.0	2back-stim	
61	273.6759286999004	2.010550759965554	0.0	2.0	1.0	Right Face	49.0	2back-stim	
62	275.69251169997733	2.0107160600600764	0.4669090999523178	0.0	1.0	Right Face	49.0	2back-stim	
63	277.7093467999948	2.010431359987706	0.0	2.0	1.0	Right Face	49.0	2back-stim	
64	279.7260387999704	2.010420060134493	0.633559700101614	0.0	1.0	Right Face	49.0	2back-stim	
65	288.74315029999707	5.009989959886298		17.28395061728395		Right Face	49.0	2back-stim Rating	7.0
66	293.74886789999437	298.7567443998996				Right Face	32.0	2back Instructions	
67	301.78129229997285	2.0002702600322664			1.0	Right Face	49.0	2back-stim	
68	303.79351839993615	2.0092163600493222			1.0	Right Face	49.0	2back-stim	3.0
69	305.809563399991	2.0104732600739226	0.6169079999672249	0.0	1.0	Right Face	49.0	2back-stim	
70	307.82613579998724	2.0107019600691274	0.0	2.0	1.0	Right Face	49.0	2back-stim	
71	309.8968943998916	1.9525695401243865	0.7335390000371262	0.0	1.0	Right Face	49.0	2back-stim	
72	311.8599283999065	2.00985365989618	0.0	2.0	1.0	Right Face	49.0	2back-stim	
73	313.8762195999734	2.0106364600360394	0.0	2.0	1.0	Right Face	49.0	2back-stim	
74	315.8930422998965	2.0102353600086644	0.0	2.0	1.0	Right Face	49.0	2back-stim	
75	317.9107183999149	2.0083792599616572	0.0	2.0	1.0	Right Face	49.0	2back-stim	
76	319.9264417999657	2.0103198600700125	0.3668957999907434	0.0	1.0	Right Face	49.0	2back-stim	
77	328.94387129996903	5.009298560093157		13.33333333333333		Right Face	49.0	2back-stim Rating	7.0
78	336.9417877999367	20.01341205998324				Right Face	32.0	Rest-NoStim	3.0
79	356.94197399995755	7.01326736016199				Right Face		PostTrialFixation	
80	366.9418275000062	20.013866259949282				Right Face	32.0	Rest-NoStim	3.0
81	386.9420395999914	5.013638460077345				Right Face		PostTrialFixation	
82	396.94289999990724	20.012342459871434				Right Face	32.0	Rest-NoStim	5.0
83	416.9428012999706	3.012721959967166				Right Face		PostTrialFixation	
84	419.94958729995415	424.95951979991514				Right Face	32.0	2back Instructions	
85	431.98237959994003	2.000440960051492			1.0	Right Face	49.0	2back-stim	
86	433.9947680999758	2.009034060058184			1.0	Right Face	49.0	2back-stim	7.0
87	436.0108134999173	2.010281960014254	0.0	2.0	1.0	Right Face	49.0	2back-stim	
88	438.02742969989777	2.0104475599946454	0.0	2.0	1.0	Right Face	49.0	2back-stim	
89	440.0754139999626	1.9811982801184058	0.7165460999822244	0.0	1.0	Right Face	49.0	2back-stim	
90	442.0608582999557	2.0102953599998727	0.0	2.0	1.0	Right Face	49.0	2back-stim	
91	444.077497899998	2.010429859976284	0.40022660000249743	0.0	1.0	Right Face	49.0	2back-stim	
92	446.0943933998933	2.0100144599564373	0.0	2.0	1.0	Right Face	49.0	2back-stim	
93	448.11063349992037	2.010857759974897	0.5002563999732956	0.0	1.0	Right Face	49.0	2back-stim	
94	450.1279017999768	2.009721360052936	0.5668830999638885	0.0	1.0	Right Face	49.0	2back-stim	
95	459.145950099919	5.007472060038708		13.086419753086421		Right Face	49.0	2back-stim Rating	7.0
96	464.1514885999495	469.1580819999799				Right Face	32.0	2back Instructions	
97	472.1825963999145	1.9840377599466592			1.0	Right Face	49.0	2back-stim	
98	474.1785673999693	2.008818960050121			1.0	Right Face	49.0	2back-stim	3.0
99	476.1946527999826	2.009917060029693	0.5835643999744207	0.0	1.0	Right Face	49.0	2back-stim	
100	478.21112110000104	2.0104976600268856	0.0	2.0	1.0	Right Face	49.0	2back-stim	
101	480.2790240999311	1.9580076400889084	0.0	2.0	1.0	Right Face	49.0	2back-stim	
102	482.2446006999817	2.0102787599898875	0.0	2.0	1.0	Right Face	49.0	2back-stim	
103	484.26126009994186	2.0102856600424275	0.5169157999334857	0.0	1.0	Right Face	49.0	2back-stim	
104	486.2777594999643	2.0106577600818127	0.5502159000607207	0.0	1.0	Right Face	49.0	2back-stim	
105	488.29455409990624	2.0104031598893926	0.7002423000521958	0.0	1.0	Right Face	49.0	2back-stim	
106	490.3112192999106	2.0104818599065766	0.0	2.0	1.0	Right Face	49.0	2back-stim	
107	497.32940499996766	5.007903260062449		20.370370370370374		Right Face	49.0	2back-stim Rating	5.0
108	502.3346358999843	507.3414874000009				Right Face	32.0	2back Instructions	
109	512.3499833999667	1.9999815600458533			1.0	Right Face	49.0	2back-stim	
110	514.3622747999616	2.008801760035567			1.0	Right Face	49.0	2back-stim	5.0
111	516.3782343999483	2.0102541600354016	0.6335956999100745	0.0	1.0	Right Face	49.0	2back-stim	
112	518.3946722999681	2.0107051599770784	0.0	2.0	1.0	Right Face	49.0	2back-stim	
113	520.4481979999691	1.9703770800260827	0.0	2.0	1.0	Right Face	49.0	2back-stim	
114	522.4288037999067	2.009213259909302	0.0	2.0	1.0	Right Face	49.0	2back-stim	
115	524.4454997999128	2.0091598599683493	0.666909100022167	0.0	1.0	Right Face	49.0	2back-stim	
116	526.4619388999417	2.0096374599961564	0.0	2.0	1.0	Right Face	49.0	2back-stim	
117	528.4783363000024	2.0102357600117102	0.0	2.0	1.0	Right Face	49.0	2back-stim	
118	530.4951010999503	2.0100814601173624	0.8361847000196576	0.0	1.0	Right Face	49.0	2back-stim	
119	535.5120559999486	5.009940759977326		13.703703703703706		Right Face	49.0	2back-stim Rating	3.0
120	547.5253533999203	20.00001656007953				Right Face	49.0	Rest-Stim	7.0
121	567.5255461999914	5.016527859959751				Right Face		PostTrialFixation	
122	572.5277019999921	5.012622659909539		14.876543209876539		Right Face	49.0	Rest-Stim Rating	5.0
123	582.5423468999797	20.000006060115993				Right Face	49.0	Rest-Stim	5.0
124	602.5425028000027	5.016552860033698				Right Face		PostTrialFixation	
125	607.5444384999573	5.013108259998262		14.691358024691356		Right Face	49.0	Rest-Stim Rating	5.0
126	617.5592941999203	20.000066759996116				Right Face	49.0	Rest-Stim	5.0
127	637.5594996999716	7.0165506600169465				Right Face		PostTrialFixation	
128	644.5614332999103	5.013223260059021		11.913580246913579		Right Face	49.0	Rest-Stim Rating	7.0
