square,location,corrAns,trials_2.thisRepN,trials_2.thisTrialN,trials_2.thisN,trials_2.thisIndex,fixation_1.started,fixation_1.stopped,response_2.x,response_2.y,response_2.leftButton,grid_lines_2.started,grid_lines_2.stopped,target_square_2.started,target_square_2.stopped,fixation_3.started,fixation_3.stopped,response_2.click,response_2.corr,response_2.started,response_2.stopped,ScoreReportText.started,ScoreReportText.stopped,ScoreReportResponse.keys,ScoreReportResponse.started,ScoreReportResponse.stopped,BodySiteInstructionText.started,BodySiteImg.started,BodySiteImg.stopped,BodySiteInstructionRead.keys,BodySiteInstructionRead.rt,BodySiteInstructionRead.started,BodySiteInstructionRead.stopped,IntensityRating.response,IntensityRating.rt,IntensityRating.started,IntensityRating.stopped,fixation_rest.started,fixation_rest.stopped,subject number,gender,distractMap first- or second-half (1 or 2),session,handedness,scanner,bodysite1 temp,bodysite2 temp,date,psychopyVersion,expName,frameRate,body_site_order,
6,"[0.2, 0]",None,0,0,0,0,120.00359129998833,None,None,None,"[0, 0, 0]",121.02028720011003,None,121.02028720011003,122.02029490005225,122.00362089998089,123.00361500005238,"[0, 0, 0]",1,121.02028720011003,None,,,,,,,,,,,,,,,,,,,7,f,2,20,r,LH,49,49,2022_Aug_06_1033,2020.2.10,distractmap2,60.00740495618469,"['Right Face', 'Left Face', 'Right Face', 'Left Face']",
7,"[-0.2, -0.2]",None,0,1,1,1,,,None,None,"[0, 0, 0]",123.02030250011012,125.02032719994895,123.02030250011012,124.02029799995944,124.00364929996431,125.00364669994451,"[0, 0, 0]",1,123.02030250011012,125.02032719994895,,,,,,,,,,,,,,,,,,,7,f,2,20,r,LH,49,49,2022_Aug_06_1033,2020.2.10,distractmap2,60.00740495618469,"['Right Face', 'Left Face', 'Right Face', 'Left Face']",
6,"[0.2, 0]",1,0,2,2,2,,,None,None,"[0, 0, 0]",125.03700309991837,127.03701009997167,125.03700309991837,126.03700389992446,126.02035459992476,127.0203720999416,"[0, 0, 0]",1,125.03700309991837,127.03701009997167,,,,,,,,,,,,,,,,,,,7,f,2,20,r,LH,49,49,2022_Aug_06_1033,2020.2.10,distractmap2,60.00740495618469,"['Right Face', 'Left Face', 'Right Face', 'Left Face']",
2,"[0, 0.2]",0,0,3,3,3,,,None,None,"[0, 0, 0]",127.05365399993025,129.053670699941,127.05365399993025,128.05368139990605,128.03702819999307,129.03703489992768,"[0, 0, 0]",0,127.05365399993025,129.053670699941,,,,,,,,,,,,,,,,,,,7,f,2,20,r,LH,49,49,2022_Aug_06_1033,2020.2.10,distractmap2,60.00740495618469,"['Right Face', 'Left Face', 'Right Face', 'Left Face']",
5,"[0, 0]",0,0,4,4,4,,,None,None,"[0, 0, 0]",129.07032889989205,131.0703833999578,129.07032889989205,130.0703654999379,130.05363329988904,131.05368510005064,"[0, 0, 0]",0,129.07032889989205,131.0703833999578,,,,,,,,,,,,,,,,,,,7,f,2,20,r,LH,49,49,2022_Aug_06_1033,2020.2.10,distractmap2,60.00740495618469,"['Right Face', 'Left Face', 'Right Face', 'Left Face']",
4,"[-0.2, 0]",0,0,5,5,5,,,None,None,"[0, 0, 0]",131.0870421999134,133.08705740002915,131.0870421999134,132.08704399992712,132.07037959992886,133.070398400072,"[0, 0, 0]",0,131.0870421999134,133.08705740002915,,,,,,,,,,,,,,,,,,,7,f,2,20,r,LH,49,49,2022_Aug_06_1033,2020.2.10,distractmap2,60.00740495618469,"['Right Face', 'Left Face', 'Right Face', 'Left Face']",
4,"[-0.2, 0]",0,0,6,6,6,,,None,None,"[0, 0, 0]",133.10371849988587,135.10371940000914,133.10371849988587,134.1037620001007,134.08707030001096,135.08706649998203,"[0, 0, 0]",1,133.10371849988587,135.10371940000914,,,,,,,,,,,,,,,,,,,7,f,2,20,r,LH,49,49,2022_Aug_06_1033,2020.2.10,distractmap2,60.00740495618469,"['Right Face', 'Left Face', 'Right Face', 'Left Face']",
7,"[-0.2, -0.2]",0,0,7,7,7,,,None,None,"[0, 0, 0]",135.12038760003634,137.12040779995732,135.12038760003634,136.12039189995266,136.1040236998815,137.10374799999408,"[0, 0, 0]",1,135.12038760003634,137.12040779995732,,,,,,,,,,,,,,,,,,,7,f,2,20,r,LH,49,49,2022_Aug_06_1033,2020.2.10,distractmap2,60.00740495618469,"['Right Face', 'Left Face', 'Right Face', 'Left Face']",
4,"[-0.2, 0]",1,0,8,8,8,,,None,None,"[0, 0, 0]",137.13709140010178,139.13699760008603,137.13709140010178,138.13709690002725,138.12043159990571,139.1204669000581,"[0, 0, 0]",1,137.13709140010178,139.13699760008603,,,,,,,,,,,,,,,,,,,7,f,2,20,r,LH,49,49,2022_Aug_06_1033,2020.2.10,distractmap2,60.00740495618469,"['Right Face', 'Left Face', 'Right Face', 'Left Face']",
3,"[0.2, 0.2]",0,0,9,9,9,,,None,None,"[0, 0, 0]",139.15380860003643,141.1537872001063,139.15380860003643,140.15378640010022,140.13659549993463,141.13713550008833,"[0, 0, 0]",1,139.15380860003643,141.1537872001063,,,,,,,,,,,,,,,,,,,7,f,2,20,r,LH,49,49,2022_Aug_06_1033,2020.2.10,distractmap2,60.00740495618469,"['Right Face', 'Left Face', 'Right Face', 'Left Face']",
5,"[0, 0]",0,0,10,10,10,,,None,None,"[0, 0, 0]",141.17044540005736,143.17047909996472,141.17044540005736,142.17040239996277,142.1538007000927,143.15378939989023,"[0, 0, 0]",1,141.17044540005736,143.17047909996472,,,,,,,,,,,,,,,,,,,7,f,2,20,r,LH,49,49,2022_Aug_06_1033,2020.2.10,distractmap2,60.00740495618469,"['Right Face', 'Left Face', 'Right Face', 'Left Face']",
3,"[0.2, 0.2]",1,0,11,11,11,,,None,None,"[0, 0, 0]",143.18714910000563,145.18714460008778,143.18714910000563,144.18714380008169,144.1705159000121,145.17048450000584,"[0, 0, 0]",1,143.18714910000563,145.18714460008778,,,,,,,,,,,,,,,,,,,7,f,2,20,r,LH,49,49,2022_Aug_06_1033,2020.2.10,distractmap2,60.00740495618469,"['Right Face', 'Left Face', 'Right Face', 'Left Face']",
1,"[-0.2, 0.2]",0,0,12,12,12,,,None,None,"[0, 0, 0]",145.2038215000648,147.2038356999401,145.2038215000648,146.20375690003857,146.18717240006663,147.1871593000833,"[0, 0, 0]",1,145.2038215000648,147.2038356999401,,,,,,,,,,,,,,,,,,,7,f,2,20,r,LH,49,49,2022_Aug_06_1033,2020.2.10,distractmap2,60.00740495618469,"['Right Face', 'Left Face', 'Right Face', 'Left Face']",
9,"[0.2, -0.2]",0,0,13,13,13,,,None,None,"[0, 0, 0]",147.22050149994902,149.22050859988667,147.22050149994902,148.22046709991992,148.2038426999934,149.2038449998945,"[0, 0, 0]",1,147.22050149994902,149.22050859988667,,,,,,,,,,,,,,,,,,,7,f,2,20,r,LH,49,49,2022_Aug_06_1033,2020.2.10,distractmap2,60.00740495618469,"['Right Face', 'Left Face', 'Right Face', 'Left Face']",
9,"[0.2, -0.2]",0,0,14,14,14,,,None,None,"[0, 0, 0]",149.2372006000951,151.2372198998928,149.2372006000951,150.2372892999556,150.22053349995986,151.22053950000554,"[0, 0, 0]",1,149.2372006000951,151.2372198998928,,,,,,,,,,,,,,,,,,,7,f,2,20,r,LH,49,49,2022_Aug_06_1033,2020.2.10,distractmap2,60.00740495618469,"['Right Face', 'Left Face', 'Right Face', 'Left Face']",
8,"[0, -0.2]",0,0,15,15,15,,,None,None,"[0, 0, 0]",151.25377440010197,153.25387610006146,151.25377440010197,152.2538592000492,152.23722120001912,153.23722520004958,"[0, 0, 0]",1,151.25377440010197,153.25387610006146,,,,,,,,,,,,,,,,,,,7,f,2,20,r,LH,49,49,2022_Aug_06_1033,2020.2.10,distractmap2,60.00740495618469,"['Right Face', 'Left Face', 'Right Face', 'Left Face']",
6,"[0.2, 0]",0,0,16,16,16,,,None,None,"[0, 0, 0]",153.27055229991674,155.27055929997005,153.27055229991674,154.27057310007513,154.25388769991696,155.2538884000387,"[0, 0, 0]",1,153.27055229991674,155.27055929997005,,,,,,,,,,,,,,,,,,,7,f,2,20,r,LH,49,49,2022_Aug_06_1033,2020.2.10,distractmap2,60.00740495618469,"['Right Face', 'Left Face', 'Right Face', 'Left Face']",
3,"[0.2, 0.2]",0,0,17,17,17,,,None,None,"[0, 0, 0]",155.2872474999167,157.28725749999285,155.2872474999167,156.28724050009623,156.2705673999153,157.2705800998956,"[0, 0, 0]",1,155.2872474999167,157.28725749999285,,,,,,,,,,,,,,,,,,,7,f,2,20,r,LH,49,49,2022_Aug_06_1033,2020.2.10,distractmap2,60.00740495618469,"['Right Face', 'Left Face', 'Right Face', 'Left Face']",
6,"[0.2, 0]",1,0,18,18,18,,,None,None,"[0, 0, 0]",157.30392910004593,159.30394800007343,157.30392910004593,158.30392730003223,158.28726499993354,159.28727349988185,"[0, 0, 0]",1,157.30392910004593,159.30394800007343,,,,,,,,,,,,,,,,,,,7,f,2,20,r,LH,49,49,2022_Aug_06_1033,2020.2.10,distractmap2,60.00740495618469,"['Right Face', 'Left Face', 'Right Face', 'Left Face']",
5,"[0, 0]",0,0,19,19,19,,,None,None,"[0, 0, 0]",159.3205953000579,161.32061020005494,159.3205953000579,160.32061000005342,160.303970299894,161.3039742000401,"[0, 0, 0]",1,159.3205953000579,161.32061020005494,,,,,,,,,,,,,,,,,,,7,f,2,20,r,LH,49,49,2022_Aug_06_1033,2020.2.10,distractmap2,60.00740495618469,"['Right Face', 'Left Face', 'Right Face', 'Left Face']",
7,"[-0.2, -0.2]",0,0,20,20,20,,,None,None,"[0, 0, 0]",161.3372754000593,163.3373147000093,161.3372754000593,162.33729439997114,162.32064169994555,163.32062079990283,"[0, 0, 0]",1,161.3372754000593,163.3373147000093,,,,,,,,,,,,,,,,,,,7,f,2,20,r,LH,49,49,2022_Aug_06_1033,2020.2.10,distractmap2,60.00740495618469,"['Right Face', 'Left Face', 'Right Face', 'Left Face']",
5,"[0, 0]",1,0,21,21,21,,,None,None,"[0, 0, 0]",163.3539825999178,165.35399649990723,163.3539825999178,164.35398239991628,164.33731309999712,165.33730380004272,"[0, 0, 0]",1,163.3539825999178,165.35399649990723,,,,,,,,,,,,,,,,,,,7,f,2,20,r,LH,49,49,2022_Aug_06_1033,2020.2.10,distractmap2,60.00740495618469,"['Right Face', 'Left Face', 'Right Face', 'Left Face']",
1,"[-0.2, 0.2]",0,0,22,22,22,,,None,None,"[0, 0, 0]",165.37065219995566,167.3706696999725,165.37065219995566,166.37066309992224,166.3540191000793,167.3540137000382,"[0, 0, 0]",1,165.37065219995566,167.3706696999725,,,,,,,,,,,,,,,,,,,7,f,2,20,r,LH,49,49,2022_Aug_06_1033,2020.2.10,distractmap2,60.00740495618469,"['Right Face', 'Left Face', 'Right Face', 'Left Face']",
7,"[-0.2, -0.2]",0,0,23,23,23,,,None,None,"[0, 0, 0]",167.387346399948,169.3873620000668,167.387346399948,168.38735130010173,168.3706775000319,169.37069129990414,"[0, 0, 0]",1,167.387346399948,169.3873620000668,,,,,,,,,,,,,,,,,,,7,f,2,20,r,LH,49,49,2022_Aug_06_1033,2020.2.10,distractmap2,60.00740495618469,"['Right Face', 'Left Face', 'Right Face', 'Left Face']",
9,"[0.2, -0.2]",0,0,24,24,24,,,None,None,"[0, 0, 0]",169.40403550001793,171.4040498000104,169.40403550001793,170.40390689997002,170.38736309995875,171.38735840003937,"[0, 0, 0]",1,169.40403550001793,171.4040498000104,,,,,,,,,,,,,,,,,,,7,f,2,20,r,LH,49,49,2022_Aug_06_1033,2020.2.10,distractmap2,60.00740495618469,"['Right Face', 'Left Face', 'Right Face', 'Left Face']",
3,"[0.2, 0.2]",0,0,25,25,25,,,None,None,"[0, 0, 0]",171.42070890008472,173.42072400008328,171.42070890008472,172.42072020005435,172.40406100009568,173.40405769995414,"[0, 0, 0]",1,171.42070890008472,173.42072400008328,,,,,,,,,,,,,,,,,,,7,f,2,20,r,LH,49,49,2022_Aug_06_1033,2020.2.10,distractmap2,60.00740495618469,"['Right Face', 'Left Face', 'Right Face', 'Left Face']",
9,"[0.2, -0.2]",1,0,26,26,26,,,None,None,"[0, 0, 0]",173.43743370007724,175.43741160002537,173.43743370007724,174.43740050005727,174.4207234000787,175.42075409996323,"[0, 0, 0]",1,173.43743370007724,175.43741160002537,,,,,,,,,,,,,,,,,,,7,f,2,20,r,LH,49,49,2022_Aug_06_1033,2020.2.10,distractmap2,60.00740495618469,"['Right Face', 'Left Face', 'Right Face', 'Left Face']",
6,"[0.2, 0]",0,0,27,27,27,,,None,None,"[0, 0, 0]",175.45408120006323,177.45408220007084,175.45408120006323,176.4540832999628,176.43743270006962,177.43742329999804,"[0, 0, 0]",1,175.45408120006323,177.45408220007084,,,,,,,,,,,,,,,,,,,7,f,2,20,r,LH,49,49,2022_Aug_06_1033,2020.2.10,distractmap2,60.00740495618469,"['Right Face', 'Left Face', 'Right Face', 'Left Face']",
2,"[0, 0.2]",0,0,28,28,28,,,None,None,"[0, 0, 0]",177.47075359988958,179.47078499989584,177.47075359988958,178.47076809988357,178.4541088999249,179.45411959988996,"[0, 0, 0]",1,177.47075359988958,179.47078499989584,,,,,,,,,,,,,,,,,,,7,f,2,20,r,LH,49,49,2022_Aug_06_1033,2020.2.10,distractmap2,60.00740495618469,"['Right Face', 'Left Face', 'Right Face', 'Left Face']",
5,"[0, 0]",0,0,29,29,29,,,None,None,"[0, 0, 0]",179.48745039990172,181.48744420008734,179.48745039990172,180.4874712000601,180.47079059993848,181.47079750010744,"[0, 0, 0]",1,179.48745039990172,181.48744420008734,,,,,,,,,,,,,,,,,,,7,f,2,20,r,LH,49,49,2022_Aug_06_1033,2020.2.10,distractmap2,60.00740495618469,"['Right Face', 'Left Face', 'Right Face', 'Left Face']",
,,,,,,,,,,,,,,,,,,,,,,181.5041298000142,None,space,181.5041298000142,None,,,,,,,,,,,,,,7,f,2,20,r,LH,49,49,2022_Aug_06_1033,2020.2.10,distractmap2,60.00740495618469,"['Right Face', 'Left Face', 'Right Face', 'Left Face']",
3,"[0.2, 0.2]",None,0,0,0,0,337.9554612999782,None,None,None,"[0, 0, 0]",340.95546630001627,342.95551080000587,340.95546630001627,341.9555005999282,341.9555005999282,342.95551080000587,"[0, 0, 0]",1,340.95546630001627,342.95551080000587,,,,,,226.53814469999634,226.53814469999634,None,space,80.84605399984866,226.53814469999634,None,,,,,,,7,f,2,20,r,LH,49,49,2022_Aug_06_1033,2020.2.10,distractmap2,60.00740495618469,"['Right Face', 'Left Face', 'Right Face', 'Left Face']",
3,"[0.2, 0.2]",None,0,1,1,1,,,None,None,"[0, 0, 0]",342.9721907998901,344.9721820000559,342.9721907998901,343.9721741999965,343.9555295999162,344.9555269998964,"[0, 0, 0]",1,342.9721907998901,344.9721820000559,,,,,,,,,,,,,,,,,,,7,f,2,20,r,LH,49,49,2022_Aug_06_1033,2020.2.10,distractmap2,60.00740495618469,"['Right Face', 'Left Face', 'Right Face', 'Left Face']",
5,"[0, 0]",0,0,2,2,2,,,None,None,"[0, 0, 0]",344.9888601000421,346.98888320010155,344.9888601000421,345.9888693999965,345.97221320006065,346.97221909998916,"[0, 0, 0]",1,344.9888601000421,346.98888320010155,,,,,,,,,,,,,,,,,,,7,f,2,20,r,LH,49,49,2022_Aug_06_1033,2020.2.10,distractmap2,60.00740495618469,"['Right Face', 'Left Face', 'Right Face', 'Left Face']",
1,"[-0.2, 0.2]",0,0,3,3,3,,,None,None,"[0, 0, 0]",347.00553920003586,349.0055559000466,347.00553920003586,348.00554180005565,347.98888530000113,348.9888810000848,"[0, 0, 0]",1,347.00553920003586,349.0055559000466,,,,,,,,,,,,,,,,,,,7,f,2,20,r,LH,49,49,2022_Aug_06_1033,2020.2.10,distractmap2,60.00740495618469,"['Right Face', 'Left Face', 'Right Face', 'Left Face']",
5,"[0, 0]",1,0,4,4,4,,,None,None,"[0, 0, 0]",349.02224719990045,351.0222386000678,349.02224719990045,350.02216909988783,350.00556549988687,351.0055780999828,"[0, 0, 0]",1,349.02224719990045,351.0222386000678,,,,,,,,,,,,,,,,,,,7,f,2,20,r,LH,49,49,2022_Aug_06_1033,2020.2.10,distractmap2,60.00740495618469,"['Right Face', 'Left Face', 'Right Face', 'Left Face']",
8,"[0, -0.2]",0,0,5,5,5,,,None,None,"[0, 0, 0]",351.03890480007976,353.0389163000509,351.03890480007976,352.0389133999124,352.0222692999523,353.02226969995536,"[0, 0, 0]",1,351.03890480007976,353.0389163000509,,,,,,,,,,,,,,,,,,,7,f,2,20,r,LH,49,49,2022_Aug_06_1033,2020.2.10,distractmap2,60.00740495618469,"['Right Face', 'Left Face', 'Right Face', 'Left Face']",
5,"[0, 0]",1,0,6,6,6,,,None,None,"[0, 0, 0]",353.05557479988784,355.0556101000402,353.05557479988784,354.05559500004165,354.03894210001454,355.03894030000083,"[0, 0, 0]",1,353.05557479988784,355.0556101000402,,,,,,,,,,,,,,,,,,,7,f,2,20,r,LH,49,49,2022_Aug_06_1033,2020.2.10,distractmap2,60.00740495618469,"['Right Face', 'Left Face', 'Right Face', 'Left Face']",
7,"[-0.2, -0.2]",0,0,7,7,7,,,None,None,"[0, 0, 0]",355.0722719000187,357.07230739993975,355.0722719000187,356.07230350002646,356.05562320002355,357.05562389991246,"[0, 0, 0]",1,355.0722719000187,357.07230739993975,,,,,,,,,,,,,,,,,,,7,f,2,20,r,LH,49,49,2022_Aug_06_1033,2020.2.10,distractmap2,60.00740495618469,"['Right Face', 'Left Face', 'Right Face', 'Left Face']",
5,"[0, 0]",1,0,8,8,8,,,None,None,"[0, 0, 0]",357.08895800006576,359.0889852999244,357.08895800006576,358.0889775999822,358.0722962000873,359.0723059999291,"[0, 0, 0]",1,357.08895800006576,359.0889852999244,,,,,,,,,,,,,,,,,,,7,f,2,20,r,LH,49,49,2022_Aug_06_1033,2020.2.10,distractmap2,60.00740495618469,"['Right Face', 'Left Face', 'Right Face', 'Left Face']",
7,"[-0.2, -0.2]",1,0,9,9,9,,,None,None,"[0, 0, 0]",359.1056286999956,361.1056502000429,359.1056286999956,360.1060683000833,360.08903979999013,361.0890077999793,"[0, 0, 0]",1,359.1056286999956,361.1056502000429,,,,,,,,,,,,,,,,,,,7,f,2,20,r,LH,49,49,2022_Aug_06_1033,2020.2.10,distractmap2,60.00740495618469,"['Right Face', 'Left Face', 'Right Face', 'Left Face']",
,,,,,,,,,,,,,,,,,,,,,,361.13901269994676,None,,,,,,,,,,,,,,,,,7,f,2,20,r,LH,49,49,2022_Aug_06_1033,2020.2.10,distractmap2,60.00740495618469,"['Right Face', 'Left Face', 'Right Face', 'Left Face']",
6,"[0.2, 0]",None,0,0,0,0,369.155710299965,None,None,None,"[0, 0, 0]",376.1556889999192,378.1557924998924,376.1556889999192,377.1557938999031,377.1557938999031,378.1557924998924,"[0, 0, 0]",1,376.1556889999192,378.1557924998924,,,,,,,,,,,,,,,,,,,7,f,2,20,r,LH,49,49,2022_Aug_06_1033,2020.2.10,distractmap2,60.00740495618469,"['Right Face', 'Left Face', 'Right Face', 'Left Face']",
1,"[-0.2, 0.2]",None,0,1,1,1,,,None,None,"[0, 0, 0]",378.172464299947,380.1724992999807,378.172464299947,379.17248749989085,379.15581879997626,380.1558052999899,"[0, 0, 0]",1,378.172464299947,380.1724992999807,,,,,,,,,,,,,,,,,,,7,f,2,20,r,LH,49,49,2022_Aug_06_1033,2020.2.10,distractmap2,60.00740495618469,"['Right Face', 'Left Face', 'Right Face', 'Left Face']",
6,"[0.2, 0]",1,0,2,2,2,,,None,None,"[0, 0, 0]",380.1891622999683,382.1891870999243,380.1891622999683,381.18918289989233,381.1724904999137,382.1725111999549,"[0, 0, 0]",1,380.1891622999683,382.1891870999243,,,,,,,,,,,,,,,,,,,7,f,2,20,r,LH,49,49,2022_Aug_06_1033,2020.2.10,distractmap2,60.00740495618469,"['Right Face', 'Left Face', 'Right Face', 'Left Face']",
4,"[-0.2, 0]",0,0,3,3,3,,,None,None,"[0, 0, 0]",382.2059245998971,384.2058480998967,382.2059245998971,383.2058520000428,383.1891624000855,384.18919089995325,"[0, 0, 0]",1,382.2059245998971,384.2058480998967,,,,,,,,,,,,,,,,,,,7,f,2,20,r,LH,49,49,2022_Aug_06_1033,2020.2.10,distractmap2,60.00740495618469,"['Right Face', 'Left Face', 'Right Face', 'Left Face']",
1,"[-0.2, 0.2]",0,0,4,4,4,,,None,None,"[0, 0, 0]",384.22252959990874,386.2225428998936,384.22252959990874,385.22254440002143,385.20593210007064,386.2058820000384,"[0, 0, 0]",1,384.22252959990874,386.2225428998936,,,,,,,,,,,,,,,,,,,7,f,2,20,r,LH,49,49,2022_Aug_06_1033,2020.2.10,distractmap2,60.00740495618469,"['Right Face', 'Left Face', 'Right Face', 'Left Face']",
8,"[0, -0.2]",0,0,5,5,5,,,None,None,"[0, 0, 0]",386.2391886000987,388.2392370000016,386.2391886000987,387.2392164999619,387.2225573998876,388.22258309996687,"[0, 0, 0]",1,386.2391886000987,388.2392370000016,,,,,,,,,,,,,,,,,,,7,f,2,20,r,LH,49,49,2022_Aug_06_1033,2020.2.10,distractmap2,60.00740495618469,"['Right Face', 'Left Face', 'Right Face', 'Left Face']",
1,"[-0.2, 0.2]",1,0,6,6,6,,,None,None,"[0, 0, 0]",388.25589890009724,390.255906800041,388.25589890009724,389.2558875998948,389.23925040010363,390.23924609995447,"[0, 0, 0]",1,388.25589890009724,390.255906800041,,,,,,,,,,,,,,,,,,,7,f,2,20,r,LH,49,49,2022_Aug_06_1033,2020.2.10,distractmap2,60.00740495618469,"['Right Face', 'Left Face', 'Right Face', 'Left Face']",
8,"[0, -0.2]",1,0,7,7,7,,,None,None,"[0, 0, 0]",390.27256079996005,392.27260169992223,390.27256079996005,391.2726117998827,391.2559410999529,392.25591930001974,"[0, 0, 0]",1,390.27256079996005,392.27260169992223,,,,,,,,,,,,,,,,,,,7,f,2,20,r,LH,49,49,2022_Aug_06_1033,2020.2.10,distractmap2,60.00740495618469,"['Right Face', 'Left Face', 'Right Face', 'Left Face']",
1,"[-0.2, 0.2]",1,0,8,8,8,,,None,None,"[0, 0, 0]",392.2892483000178,394.28930220007896,392.2892483000178,393.28928070003167,393.2726054000668,394.2726026000455,"[0, 0, 0]",1,392.2892483000178,394.28930220007896,,,,,,,,,,,,,,,,,,,7,f,2,20,r,LH,49,49,2022_Aug_06_1033,2020.2.10,distractmap2,60.00740495618469,"['Right Face', 'Left Face', 'Right Face', 'Left Face']",
6,"[0.2, 0]",0,0,9,9,9,,,None,None,"[0, 0, 0]",394.3059678999707,396.3059487999417,394.3059678999707,395.30595559999347,395.2892879000865,396.2893010999542,"[0, 0, 0]",1,394.3059678999707,396.3059487999417,,,,,,,,,,,,,,,,,,,7,f,2,20,r,LH,49,49,2022_Aug_06_1033,2020.2.10,distractmap2,60.00740495618469,"['Right Face', 'Left Face', 'Right Face', 'Left Face']",
,,,,,,,,,,,,,,,,,,,,,,396.3226298999507,None,,,,,,,,,,,,,,,,,7,f,2,20,r,LH,49,49,2022_Aug_06_1033,2020.2.10,distractmap2,60.00740495618469,"['Right Face', 'Left Face', 'Right Face', 'Left Face']",
7,"[-0.2, -0.2]",None,0,0,0,0,406.33938960009255,None,None,None,"[0, 0, 0]",411.33951089996845,413.33944180002436,411.33951089996845,412.3394363000989,412.3394363000989,413.33944180002436,"[0, 0, 0]",1,411.33951089996845,413.33944180002436,,,,,,,,,,,,,,,,,,,7,f,2,20,r,LH,49,49,2022_Aug_06_1033,2020.2.10,distractmap2,60.00740495618469,"['Right Face', 'Left Face', 'Right Face', 'Left Face']",
7,"[-0.2, -0.2]",None,0,1,1,1,,,None,None,"[0, 0, 0]",413.35611669998616,415.35614309995435,413.35611669998616,414.35611209995113,414.3394418999087,415.3394581999164,"[0, 0, 0]",1,413.35611669998616,415.35614309995435,,,,,,,,,,,,,,,,,,,7,f,2,20,r,LH,49,49,2022_Aug_06_1033,2020.2.10,distractmap2,60.00740495618469,"['Right Face', 'Left Face', 'Right Face', 'Left Face']",
7,"[-0.2, -0.2]",1,0,2,2,2,,,None,None,"[0, 0, 0]",415.3727929000743,417.372794700088,415.3727929000743,416.3727979999967,416.35613119998015,417.3561470999848,"[0, 0, 0]",1,415.3727929000743,417.372794700088,,,,,,,,,,,,,,,,,,,7,f,2,20,r,LH,49,49,2022_Aug_06_1033,2020.2.10,distractmap2,60.00740495618469,"['Right Face', 'Left Face', 'Right Face', 'Left Face']",
5,"[0, 0]",0,0,3,3,3,,,None,None,"[0, 0, 0]",417.3894726000726,419.3894944000058,417.3894726000726,418.3895028999541,418.3728461000137,419.37281550001353,"[0, 0, 0]",1,417.3894726000726,419.3894944000058,,,,,,,,,,,,,,,,,,,7,f,2,20,r,LH,49,49,2022_Aug_06_1033,2020.2.10,distractmap2,60.00740495618469,"['Right Face', 'Left Face', 'Right Face', 'Left Face']",
1,"[-0.2, 0.2]",0,0,4,4,4,,,None,None,"[0, 0, 0]",419.40616320003755,421.4061837999616,419.40616320003755,420.40618719998747,420.38950089993887,421.38950120005757,"[0, 0, 0]",1,419.40616320003755,421.4061837999616,,,,,,,,,,,,,,,,,,,7,f,2,20,r,LH,49,49,2022_Aug_06_1033,2020.2.10,distractmap2,60.00740495618469,"['Right Face', 'Left Face', 'Right Face', 'Left Face']",
6,"[0.2, 0]",0,0,5,5,5,,,None,None,"[0, 0, 0]",421.4228618000634,423.42286040005274,421.4228618000634,422.42285030009225,422.40617899992503,423.4061940999236,"[0, 0, 0]",1,421.4228618000634,423.42286040005274,,,,,,,,,,,,,,,,,,,7,f,2,20,r,LH,49,49,2022_Aug_06_1033,2020.2.10,distractmap2,60.00740495618469,"['Right Face', 'Left Face', 'Right Face', 'Left Face']",
1,"[-0.2, 0.2]",1,0,6,6,6,,,None,None,"[0, 0, 0]",423.43953009997495,425.43955240002833,423.43953009997495,424.4395451999735,424.42288010008633,425.4228805999737,"[0, 0, 0]",1,423.43953009997495,425.43955240002833,,,,,,,,,,,,,,,,,,,7,f,2,20,r,LH,49,49,2022_Aug_06_1033,2020.2.10,distractmap2,60.00740495618469,"['Right Face', 'Left Face', 'Right Face', 'Left Face']",
7,"[-0.2, -0.2]",0,0,7,7,7,,,None,None,"[0, 0, 0]",425.4562222000677,427.4562262999825,425.4562222000677,426.4562297000084,426.4395502000116,427.4395534999203,"[0, 0, 0]",1,425.4562222000677,427.4562262999825,,,,,,,,,,,,,,,,,,,7,f,2,20,r,LH,49,49,2022_Aug_06_1033,2020.2.10,distractmap2,60.00740495618469,"['Right Face', 'Left Face', 'Right Face', 'Left Face']",
6,"[0.2, 0]",0,0,8,8,8,,,None,None,"[0, 0, 0]",427.4728993999306,429.4729104998987,427.4728993999306,428.4728957999032,428.4562375000678,429.45625990000553,"[0, 0, 0]",1,427.4728993999306,429.4729104998987,,,,,,,,,,,,,,,,,,,7,f,2,20,r,LH,49,49,2022_Aug_06_1033,2020.2.10,distractmap2,60.00740495618469,"['Right Face', 'Left Face', 'Right Face', 'Left Face']",
7,"[-0.2, -0.2]",1,0,9,9,9,,,None,None,"[0, 0, 0]",429.48957270011306,431.48959750006907,429.48957270011306,430.48958839988336,430.4729226999916,431.47291900007986,"[0, 0, 0]",1,429.48957270011306,431.48959750006907,,,,,,,,,,,,,,,,,,,7,f,2,20,r,LH,49,49,2022_Aug_06_1033,2020.2.10,distractmap2,60.00740495618469,"['Right Face', 'Left Face', 'Right Face', 'Left Face']",
,,,,,,,,,,,,,,,,,,,,,,431.50614689989015,None,,,,,,,,,,,,,,,,,7,f,2,20,r,LH,49,49,2022_Aug_06_1033,2020.2.10,distractmap2,60.00740495618469,"['Right Face', 'Left Face', 'Right Face', 'Left Face']",
4,"[-0.2, 0]",None,0,0,0,0,442.00641839997843,None,None,None,"[0, 0, 0]",446.52306629996747,448.5231240000576,446.52306629996747,447.52309280005284,447.52309280005284,448.5231240000576,"[0, 0, 0]",1,446.52306629996747,448.5231240000576,,,,,,,,,,,,,,,,,,,7,f,2,20,r,LH,49,49,2022_Aug_06_1033,2020.2.10,distractmap2,60.00740495618469,"['Right Face', 'Left Face', 'Right Face', 'Left Face']",
5,"[0, 0]",None,0,1,1,1,,,None,None,"[0, 0, 0]",448.5397272000555,450.5397584999446,448.5397272000555,449.5397640999872,449.5231316999998,450.52313519991003,"[0, 0, 0]",1,448.5397272000555,450.5397584999446,,,,,,,,,,,,,,,,,,,7,f,2,20,r,LH,49,49,2022_Aug_06_1033,2020.2.10,distractmap2,60.00740495618469,"['Right Face', 'Left Face', 'Right Face', 'Left Face']",
6,"[0.2, 0]",0,0,2,2,2,,,None,None,"[0, 0, 0]",450.5564339000266,452.5564298001118,450.5564339000266,451.5563167000655,451.53976249997504,452.53979839989915,"[0, 0, 0]",1,450.5564339000266,452.5564298001118,,,,,,,,,,,,,,,,,,,7,f,2,20,r,LH,49,49,2022_Aug_06_1033,2020.2.10,distractmap2,60.00740495618469,"['Right Face', 'Left Face', 'Right Face', 'Left Face']",
1,"[-0.2, 0.2]",0,0,3,3,3,,,None,None,"[0, 0, 0]",452.57314340001903,454.5731295000296,452.57314340001903,453.5731412000023,453.55645729997195,454.5564661999233,"[0, 0, 0]",1,452.57314340001903,454.5731295000296,,,,,,,,,,,,,,,,,,,7,f,2,20,r,LH,49,49,2022_Aug_06_1033,2020.2.10,distractmap2,60.00740495618469,"['Right Face', 'Left Face', 'Right Face', 'Left Face']",
6,"[0.2, 0]",1,0,4,4,4,,,None,None,"[0, 0, 0]",454.62316059996374,None,454.62316059996374,455.62315910006873,455.60647280002013,None,"[0, 0, 0]",1,454.62316059996374,None,,,,,,,,,,,,,,,,,,,7,f,2,20,r,LH,49,49,2022_Aug_06_1033,2020.2.10,distractmap2,60.00740495618469,"['Right Face', 'Left Face', 'Right Face', 'Left Face']",
1,"[-0.2, 0.2]",1,0,5,5,5,,,None,None,"[0, 0, 0]",456.60646179993637,458.6065012998879,456.60646179993637,457.6064903999213,457.58983410010114,458.58984100003727,"[0, 0, 0]",1,456.60646179993637,458.6065012998879,,,,,,,,,,,,,,,,,,,7,f,2,20,r,LH,49,49,2022_Aug_06_1033,2020.2.10,distractmap2,60.00740495618469,"['Right Face', 'Left Face', 'Right Face', 'Left Face']",
2,"[0, 0.2]",0,0,6,6,6,,,None,None,"[0, 0, 0]",458.6231732000597,460.623176000081,458.6231732000597,459.62317789997905,459.60651149996556,460.60652259993367,"[0, 0, 0]",1,458.6231732000597,460.623176000081,,,,,,,,,,,,,,,,,,,7,f,2,20,r,LH,49,49,2022_Aug_06_1033,2020.2.10,distractmap2,60.00740495618469,"['Right Face', 'Left Face', 'Right Face', 'Left Face']",
3,"[0.2, 0.2]",0,0,7,7,7,,,None,None,"[0, 0, 0]",460.63985879998654,462.63987169996835,460.63985879998654,461.6398583999835,461.62319430010393,462.6231893999502,"[0, 0, 0]",1,460.63985879998654,462.63987169996835,,,,,,,,,,,,,,,,,,,7,f,2,20,r,LH,49,49,2022_Aug_06_1033,2020.2.10,distractmap2,60.00740495618469,"['Right Face', 'Left Face', 'Right Face', 'Left Face']",
6,"[0.2, 0]",0,0,8,8,8,,,None,None,"[0, 0, 0]",462.65652609989047,464.65655019995756,462.65652609989047,463.6565445999149,463.6398849999532,464.6398823999334,"[0, 0, 0]",1,462.65652609989047,464.65655019995756,,,,,,,,,,,,,,,,,,,7,f,2,20,r,LH,49,49,2022_Aug_06_1033,2020.2.10,distractmap2,60.00740495618469,"['Right Face', 'Left Face', 'Right Face', 'Left Face']",
3,"[0.2, 0.2]",1,0,9,9,9,,,None,None,"[0, 0, 0]",464.673211599933,466.67323779989965,464.673211599933,465.6732336001005,465.65656040003523,466.6565558000002,"[0, 0, 0]",1,464.673211599933,466.67323779989965,,,,,,,,,,,,,,,,,,,7,f,2,20,r,LH,49,49,2022_Aug_06_1033,2020.2.10,distractmap2,60.00740495618469,"['Right Face', 'Left Face', 'Right Face', 'Left Face']",
,,,,,,,,,,,,,,,,,,,,,,466.6898070999887,None,,,,,,,,,,,,,,,,,7,f,2,20,r,LH,49,49,2022_Aug_06_1033,2020.2.10,distractmap2,60.00740495618469,"['Right Face', 'Left Face', 'Right Face', 'Left Face']",
,,,,,,,,,,,,,,,,,,,,,,,,,,,,,,,,,,35.80246913580247,449.62892146990635,,,,,7,f,2,20,r,LH,49,49,2022_Aug_06_1033,2020.2.10,distractmap2,60.00740495618469,"['Right Face', 'Left Face', 'Right Face', 'Left Face']",
2,"[0, 0.2]",None,0,0,0,0,484.67338400008157,None,None,None,"[0, 0, 0]",486.70670429989696,488.7067543999292,486.70670429989696,487.7067533999216,487.7067533999216,488.7067543999292,"[0, 0, 0]",1,486.70670429989696,488.7067543999292,,,,,,,,,,,,,,,0.013290130067616701,5.009417130146176,,,7,f,2,20,r,LH,49,49,2022_Aug_06_1033,2020.2.10,distractmap2,60.00740495618469,"['Right Face', 'Left Face', 'Right Face', 'Left Face']",
5,"[0, 0]",None,0,1,1,1,,,None,None,"[0, 0, 0]",488.7234612999018,490.72346249991097,488.7234612999018,489.7234382999595,489.706761599984,490.7067825999111,"[0, 0, 0]",1,488.7234612999018,490.72346249991097,,,,,,,,,,,,,,,,,,,7,f,2,20,r,LH,49,49,2022_Aug_06_1033,2020.2.10,distractmap2,60.00740495618469,"['Right Face', 'Left Face', 'Right Face', 'Left Face']",
6,"[0.2, 0]",0,0,2,2,2,,,None,None,"[0, 0, 0]",490.74011779995635,492.740136400098,490.74011779995635,491.7401276999153,491.72346569993533,492.72345319995657,"[0, 0, 0]",1,490.74011779995635,492.740136400098,,,,,,,,,,,,,,,,,,,7,f,2,20,r,LH,49,49,2022_Aug_06_1033,2020.2.10,distractmap2,60.00740495618469,"['Right Face', 'Left Face', 'Right Face', 'Left Face']",
1,"[-0.2, 0.2]",0,0,3,3,3,,,None,None,"[0, 0, 0]",492.75679429993033,494.7567992999684,492.75679429993033,493.7567849000916,493.7401399000082,494.74015150009654,"[0, 0, 0]",1,492.75679429993033,494.7567992999684,,,,,,,,,,,,,,,,,,,7,f,2,20,r,LH,49,49,2022_Aug_06_1033,2020.2.10,distractmap2,60.00740495618469,"['Right Face', 'Left Face', 'Right Face', 'Left Face']",
6,"[0.2, 0]",1,0,4,4,4,,,None,None,"[0, 0, 0]",494.80676309997216,None,494.80676309997216,495.8068228000775,495.7901544000488,None,"[0, 0, 0]",1,494.80676309997216,None,,,,,,,,,,,,,,,,,,,7,f,2,20,r,LH,49,49,2022_Aug_06_1033,2020.2.10,distractmap2,60.00740495618469,"['Right Face', 'Left Face', 'Right Face', 'Left Face']",
6,"[0.2, 0]",0,0,5,5,5,,,None,None,"[0, 0, 0]",496.7901683000382,498.79017730010673,496.7901683000382,497.790190000087,497.7735005998984,498.77351860003546,"[0, 0, 0]",1,496.7901683000382,498.79017730010673,,,,,,,,,,,,,,,,,,,7,f,2,20,r,LH,49,49,2022_Aug_06_1033,2020.2.10,distractmap2,60.00740495618469,"['Right Face', 'Left Face', 'Right Face', 'Left Face']",
9,"[0.2, -0.2]",0,0,6,6,6,,,None,None,"[0, 0, 0]",498.8068472999148,500.8068647000473,498.8068472999148,499.8069500999991,499.7906643000897,500.7902100998908,"[0, 0, 0]",1,498.8068472999148,500.8068647000473,,,,,,,,,,,,,,,,,,,7,f,2,20,r,LH,49,49,2022_Aug_06_1033,2020.2.10,distractmap2,60.00740495618469,"['Right Face', 'Left Face', 'Right Face', 'Left Face']",
6,"[0.2, 0]",1,0,7,7,7,,,None,None,"[0, 0, 0]",500.82351949997246,502.8235768000595,500.82351949997246,501.8235426999163,501.80687199998647,502.80687110009603,"[0, 0, 0]",1,500.82351949997246,502.8235768000595,,,,,,,,,,,,,,,,,,,7,f,2,20,r,LH,49,49,2022_Aug_06_1033,2020.2.10,distractmap2,60.00740495618469,"['Right Face', 'Left Face', 'Right Face', 'Left Face']",
3,"[0.2, 0.2]",0,0,8,8,8,,,None,None,"[0, 0, 0]",502.84022630006075,504.84024180006236,502.84022630006075,503.8402261000592,503.8235615999438,504.82357440004125,"[0, 0, 0]",1,502.84022630006075,504.84024180006236,,,,,,,,,,,,,,,,,,,7,f,2,20,r,LH,49,49,2022_Aug_06_1033,2020.2.10,distractmap2,60.00740495618469,"['Right Face', 'Left Face', 'Right Face', 'Left Face']",
9,"[0.2, -0.2]",0,0,9,9,9,,,None,None,"[0, 0, 0]",504.8568905000575,506.856902099913,504.8568905000575,505.85691209998913,505.84024700010195,506.8402642000001,"[0, 0, 0]",1,504.8568905000575,506.856902099913,,,,,,,,,,,,,,,,,,,7,f,2,20,r,LH,49,49,2022_Aug_06_1033,2020.2.10,distractmap2,60.00740495618469,"['Right Face', 'Left Face', 'Right Face', 'Left Face']",
,,,,,,,,,,,,,,,,,,,,,,506.8735736000817,None,,,,,,,,,,,,,,,,,7,f,2,20,r,LH,49,49,2022_Aug_06_1033,2020.2.10,distractmap2,60.00740495618469,"['Right Face', 'Left Face', 'Right Face', 'Left Face']",
,,,,,,,,,,,,,,,,,,,,,,,,,,,,,,,,,,40.67901234567901,487.6788453699555,,,,,7,f,2,20,r,LH,49,49,2022_Aug_06_1033,2020.2.10,distractmap2,60.00740495618469,"['Right Face', 'Left Face', 'Right Face', 'Left Face']",
3,"[0.2, 0.2]",None,0,0,0,0,522.9403027000371,None,None,None,"[0, 0, 0]",526.9070977999363,528.9071210999973,526.9070977999363,527.9070957999211,527.8904240000993,528.8904224000871,"[0, 0, 0]",1,526.9070977999363,528.9071210999973,,,,,,,,,,,,,,,0.013688130071386695,5.010249329963699,,,7,f,2,20,r,LH,49,49,2022_Aug_06_1033,2020.2.10,distractmap2,60.00740495618469,"['Right Face', 'Left Face', 'Right Face', 'Left Face']",
9,"[0.2, -0.2]",None,0,1,1,1,,,None,None,"[0, 0, 0]",528.9237792999484,530.9237919000443,528.9237792999484,529.923838299932,529.9071249999106,530.9071386000142,"[0, 0, 0]",1,528.9237792999484,530.9237919000443,,,,,,,,,,,,,,,,,,,7,f,2,20,r,LH,49,49,2022_Aug_06_1033,2020.2.10,distractmap2,60.00740495618469,"['Right Face', 'Left Face', 'Right Face', 'Left Face']",
3,"[0.2, 0.2]",1,0,2,2,2,,,None,None,"[0, 0, 0]",530.9404500999954,532.94039039989,530.9404500999954,531.9404774999712,531.9238011999987,532.9238034998998,"[0, 0, 0]",1,530.9404500999954,532.94039039989,,,,,,,,,,,,,,,,,,,7,f,2,20,r,LH,49,49,2022_Aug_06_1033,2020.2.10,distractmap2,60.00740495618469,"['Right Face', 'Left Face', 'Right Face', 'Left Face']",
7,"[-0.2, -0.2]",0,0,3,3,3,,,None,None,"[0, 0, 0]",532.9571539000608,534.9571567000821,532.9571539000608,533.9575604000129,533.9405372999609,534.9404980998952,"[0, 0, 0]",1,532.9571539000608,534.9571567000821,,,,,,,,,,,,,,,,,,,7,f,2,20,r,LH,49,49,2022_Aug_06_1033,2020.2.10,distractmap2,60.00740495618469,"['Right Face', 'Left Face', 'Right Face', 'Left Face']",
8,"[0, -0.2]",0,0,4,4,4,,,None,None,"[0, 0, 0]",535.0066788000986,None,535.0066788000986,536.0071650999598,536.0071650999598,None,"[0, 0, 0]",1,535.0066788000986,None,,,,,,,,,,,,,,,,,,,7,f,2,20,r,LH,49,49,2022_Aug_06_1033,2020.2.10,distractmap2,60.00740495618469,"['Right Face', 'Left Face', 'Right Face', 'Left Face']",
4,"[-0.2, 0]",0,0,5,5,5,,,None,None,"[0, 0, 0]",536.9905083999038,538.9905381000135,536.9905083999038,537.9905330999754,537.9738805999514,538.9738668000791,"[0, 0, 0]",1,536.9905083999038,538.9905381000135,,,,,,,,,,,,,,,,,,,7,f,2,20,r,LH,49,49,2022_Aug_06_1033,2020.2.10,distractmap2,60.00740495618469,"['Right Face', 'Left Face', 'Right Face', 'Left Face']",
4,"[-0.2, 0]",0,0,6,6,6,,,None,None,"[0, 0, 0]",539.0071966000833,541.0072168998886,539.0071966000833,540.0072161999997,539.9905395999085,540.9905453999527,"[0, 0, 0]",1,539.0071966000833,541.0072168998886,,,,,,,,,,,,,,,,,,,7,f,2,20,r,LH,49,49,2022_Aug_06_1033,2020.2.10,distractmap2,60.00740495618469,"['Right Face', 'Left Face', 'Right Face', 'Left Face']",
1,"[-0.2, 0.2]",0,0,7,7,7,,,None,None,"[0, 0, 0]",541.0238737000618,543.023900500033,541.0238737000618,542.0238930000924,542.0072244999465,543.0072494000196,"[0, 0, 0]",1,541.0238737000618,543.023900500033,,,,,,,,,,,,,,,,,,,7,f,2,20,r,LH,49,49,2022_Aug_06_1033,2020.2.10,distractmap2,60.00740495618469,"['Right Face', 'Left Face', 'Right Face', 'Left Face']",
4,"[-0.2, 0]",1,0,8,8,8,,,None,None,"[0, 0, 0]",543.0405405000784,545.0404992999975,543.0405405000784,544.0405790999066,544.0239079000894,545.0238576000556,"[0, 0, 0]",1,543.0405405000784,545.0404992999975,,,,,,,,,,,,,,,,,,,7,f,2,20,r,LH,49,49,2022_Aug_06_1033,2020.2.10,distractmap2,60.00740495618469,"['Right Face', 'Left Face', 'Right Face', 'Left Face']",
8,"[0, -0.2]",0,0,9,9,9,,,None,None,"[0, 0, 0]",545.0572550001089,547.0572689000983,545.0572550001089,546.0572617999278,546.0405890999828,547.0406049001031,"[0, 0, 0]",1,545.0572550001089,547.0572689000983,,,,,,,,,,,,,,,,,,,7,f,2,20,r,LH,49,49,2022_Aug_06_1033,2020.2.10,distractmap2,60.00740495618469,"['Right Face', 'Left Face', 'Right Face', 'Left Face']",
,,,,,,,,,,,,,,,,,,,,,,547.0739263000432,None,,,,,,,,,,,,,,,,,7,f,2,20,r,LH,49,49,2022_Aug_06_1033,2020.2.10,distractmap2,60.00740495618469,"['Right Face', 'Left Face', 'Right Face', 'Left Face']",
,,,,,,,,,,,,,,,,,,,,,,,,,,,,,,,,,,40.80246913580247,530.1797214699909,,,,,7,f,2,20,r,LH,49,49,2022_Aug_06_1033,2020.2.10,distractmap2,60.00740495618469,"['Right Face', 'Left Face', 'Right Face', 'Left Face']",
,,,,,,,672.0916887999047,None,,,,,,,,,,,,,,,,,,,,,,,,,,38.95061728395062,650.5288979699835,0.013209630036726594,5.00927232997492,652.0915218999144,None,7,f,2,20,r,LH,49,49,2022_Aug_06_1033,2020.2.10,distractmap2,60.00740495618469,"['Right Face', 'Left Face', 'Right Face', 'Left Face']",
,,,,,,,707.1086587000173,None,,,,,,,,,,,,,,,,,,,,,,,,,,46.91358024691358,685.678993270034,0.015038130106404424,5.012916030129418,687.1084741000086,None,7,f,2,20,r,LH,49,49,2022_Aug_06_1033,2020.2.10,distractmap2,60.00740495618469,"['Right Face', 'Left Face', 'Right Face', 'Left Face']",
,,,,,,,742.1256488999352,None,,,,,,,,,,,,,,,,,,,,,,,,,,46.91358024691358,722.7798600699753,0.015257230028510094,5.013354229973629,722.1254730001092,None,7,f,2,20,r,LH,49,49,2022_Aug_06_1033,2020.2.10,distractmap2,60.00740495618469,"['Right Face', 'Left Face', 'Right Face', 'Left Face']",
2,"[0, 0.2]",None,0,0,0,0,757.3424770000856,None,None,None,"[0, 0, 0]",762.1424839999527,764.1425187999848,762.1424839999527,763.1423682000022,763.1423682000022,764.1425187999848,"[0, 0, 0]",1,762.1424839999527,764.1425187999848,,,,,,,,,,,,,,,0.014720630133524537,5.012327030068263,,,7,f,2,20,r,LH,49,49,2022_Aug_06_1033,2020.2.10,distractmap2,60.00740495618469,"['Right Face', 'Left Face', 'Right Face', 'Left Face']",
5,"[0, 0]",None,0,1,1,1,,,None,None,"[0, 0, 0]",764.1591308000498,766.1591906999238,764.1591308000498,765.1591811000835,765.1425141000655,766.1425429000519,"[0, 0, 0]",1,764.1591308000498,766.1591906999238,,,,,,,,,,,,,,,,,,,7,f,2,20,r,LH,49,49,2022_Aug_06_1033,2020.2.10,distractmap2,60.00740495618469,"['Right Face', 'Left Face', 'Right Face', 'Left Face']",
3,"[0.2, 0.2]",0,0,2,2,2,,,None,None,"[0, 0, 0]",766.1758506998885,768.1758731000591,766.1758506998885,767.1758580999449,767.1592488000169,768.1592021998949,"[0, 0, 0]",1,766.1758506998885,768.1758731000591,,,,,,,,,,,,,,,,,,,7,f,2,20,r,LH,49,49,2022_Aug_06_1033,2020.2.10,distractmap2,60.00740495618469,"['Right Face', 'Left Face', 'Right Face', 'Left Face']",
5,"[0, 0]",1,0,3,3,3,,,None,None,"[0, 0, 0]",768.192545699887,770.1925437999889,768.192545699887,769.1925484999083,769.1758759000804,770.1758886000607,"[0, 0, 0]",1,768.192545699887,770.1925437999889,,,,,,,,,,,,,,,,,,,7,f,2,20,r,LH,49,49,2022_Aug_06_1033,2020.2.10,distractmap2,60.00740495618469,"['Right Face', 'Left Face', 'Right Face', 'Left Face']",
2,"[0, 0.2]",0,0,4,4,4,,,None,None,"[0, 0, 0]",770.2425911000464,None,770.2425911000464,771.2425651000813,771.2258963999338,None,"[0, 0, 0]",1,770.2425911000464,None,,,,,,,,,,,,,,,,,,,7,f,2,20,r,LH,49,49,2022_Aug_06_1033,2020.2.10,distractmap2,60.00740495618469,"['Right Face', 'Left Face', 'Right Face', 'Left Face']",
8,"[0, -0.2]",0,0,5,5,5,,,None,None,"[0, 0, 0]",772.225900700083,774.2258164999075,772.225900700083,773.2259086000267,773.2092500000726,774.2092389001045,"[0, 0, 0]",1,772.225900700083,774.2258164999075,,,,,,,,,,,,,,,,,,,7,f,2,20,r,LH,49,49,2022_Aug_06_1033,2020.2.10,distractmap2,60.00740495618469,"['Right Face', 'Left Face', 'Right Face', 'Left Face']",
4,"[-0.2, 0]",0,0,6,6,6,,,None,None,"[0, 0, 0]",774.2425031999592,776.2425526999868,774.2425031999592,775.2426028000191,775.225933900103,776.2259201998822,"[0, 0, 0]",1,774.2425031999592,776.2425526999868,,,,,,,,,,,,,,,,,,,7,f,2,20,r,LH,49,49,2022_Aug_06_1033,2020.2.10,distractmap2,60.00740495618469,"['Right Face', 'Left Face', 'Right Face', 'Left Face']",
8,"[0, -0.2]",1,0,7,7,7,,,None,None,"[0, 0, 0]",776.2592704000417,778.2592817000113,776.2592704000417,777.2592893000692,777.2426163000055,778.2426233999431,"[0, 0, 0]",1,776.2592704000417,778.2592817000113,,,,,,,,,,,,,,,,,,,7,f,2,20,r,LH,49,49,2022_Aug_06_1033,2020.2.10,distractmap2,60.00740495618469,"['Right Face', 'Left Face', 'Right Face', 'Left Face']",
7,"[-0.2, -0.2]",0,0,8,8,8,,,None,None,"[0, 0, 0]",778.2759620000143,780.2759748001117,778.2759620000143,779.2759638999123,779.259297200013,780.2593183999415,"[0, 0, 0]",1,778.2759620000143,780.2759748001117,,,,,,,,,,,,,,,,,,,7,f,2,20,r,LH,49,49,2022_Aug_06_1033,2020.2.10,distractmap2,60.00740495618469,"['Right Face', 'Left Face', 'Right Face', 'Left Face']",
8,"[0, -0.2]",1,0,9,9,9,,,None,None,"[0, 0, 0]",780.292635000078,782.2926622000523,780.292635000078,781.29264530004,781.2759861999657,782.2759918000083,"[0, 0, 0]",1,780.292635000078,782.2926622000523,,,,,,,,,,,,,,,,,,,7,f,2,20,r,LH,49,49,2022_Aug_06_1033,2020.2.10,distractmap2,60.00740495618469,"['Right Face', 'Left Face', 'Right Face', 'Left Face']",
,,,,,,,,,,,,,,,,,,,,,,782.3093163000885,None,,,,,,,,,,,,,,,,,7,f,2,20,r,LH,49,49,2022_Aug_06_1033,2020.2.10,distractmap2,60.00740495618469,"['Right Face', 'Left Face', 'Right Face', 'Left Face']",
,,,,,,,,,,,,,,,,,,,,,,,,,,,,,,,,,,44.1358024691358,761.0652014701627,,,,,7,f,2,20,r,LH,49,49,2022_Aug_06_1033,2020.2.10,distractmap2,60.00740495618469,"['Right Face', 'Left Face', 'Right Face', 'Left Face']",
2,"[0, 0.2]",None,0,0,0,0,795.5426864000037,None,None,None,"[0, 0, 0]",802.3261901000515,804.3261283000465,802.3261901000515,803.3262078999542,803.3262078999542,804.3261283000465,"[0, 0, 0]",1,802.3261901000515,804.3261283000465,,,,,,,,,,,,,,,0.013049729866907,5.008952029980719,,,7,f,2,20,r,LH,49,49,2022_Aug_06_1033,2020.2.10,distractmap2,60.00740495618469,"['Right Face', 'Left Face', 'Right Face', 'Left Face']",
2,"[0, 0.2]",None,0,1,1,1,,,None,None,"[0, 0, 0]",804.3428563000634,806.3428487000056,804.3428563000634,805.3428690999281,805.3262068999466,806.3262143998872,"[0, 0, 0]",1,804.3428563000634,806.3428487000056,,,,,,,,,,,,,,,,,,,7,f,2,20,r,LH,49,49,2022_Aug_06_1033,2020.2.10,distractmap2,60.00740495618469,"['Right Face', 'Left Face', 'Right Face', 'Left Face']",
2,"[0, 0.2]",1,0,2,2,2,,,None,None,"[0, 0, 0]",806.3595424999949,808.3595350000542,806.3595424999949,807.3595948000439,807.3428853999358,808.3428776001092,"[0, 0, 0]",1,806.3595424999949,808.3595350000542,,,,,,,,,,,,,,,,,,,7,f,2,20,r,LH,49,49,2022_Aug_06_1033,2020.2.10,distractmap2,60.00740495618469,"['Right Face', 'Left Face', 'Right Face', 'Left Face']",
8,"[0, -0.2]",0,0,3,3,3,,,None,None,"[0, 0, 0]",808.3762872000225,810.3762387998868,808.3762872000225,809.3762340999674,809.3595473000314,810.3595735998824,"[0, 0, 0]",1,808.3762872000225,810.3762387998868,,,,,,,,,,,,,,,,,,,7,f,2,20,r,LH,49,49,2022_Aug_06_1033,2020.2.10,distractmap2,60.00740495618469,"['Right Face', 'Left Face', 'Right Face', 'Left Face']",
2,"[0, 0.2]",1,0,4,4,4,,,None,None,"[0, 0, 0]",810.4429697000887,None,810.4429697000887,811.4429327000398,811.4262930001132,None,"[0, 0, 0]",1,810.4429697000887,None,,,,,,,,,,,,,,,,,,,7,f,2,20,r,LH,49,49,2022_Aug_06_1033,2020.2.10,distractmap2,60.00740495618469,"['Right Face', 'Left Face', 'Right Face', 'Left Face']",
5,"[0, 0]",0,0,5,5,5,,,None,None,"[0, 0, 0]",812.4095757000614,814.4096035999246,812.4095757000614,813.4095850000158,813.3929316999856,814.3929274000693,"[0, 0, 0]",1,812.4095757000614,814.4096035999246,,,,,,,,,,,,,,,,,,,7,f,2,20,r,LH,49,49,2022_Aug_06_1033,2020.2.10,distractmap2,60.00740495618469,"['Right Face', 'Left Face', 'Right Face', 'Left Face']",
1,"[-0.2, 0.2]",0,0,6,6,6,,,None,None,"[0, 0, 0]",814.4263206000905,816.4262755999807,814.4263206000905,815.4262999000493,815.4095960000996,816.409621299943,"[0, 0, 0]",1,814.4263206000905,816.4262755999807,,,,,,,,,,,,,,,,,,,7,f,2,20,r,LH,49,49,2022_Aug_06_1033,2020.2.10,distractmap2,60.00740495618469,"['Right Face', 'Left Face', 'Right Face', 'Left Face']",
1,"[-0.2, 0.2]",0,0,7,7,7,,,None,None,"[0, 0, 0]",816.4429552999791,818.4429878001101,816.4429552999791,817.442972100107,817.4263146999292,818.4261841000989,"[0, 0, 0]",1,816.4429552999791,818.4429878001101,,,,,,,,,,,,,,,,,,,7,f,2,20,r,LH,49,49,2022_Aug_06_1033,2020.2.10,distractmap2,60.00740495618469,"['Right Face', 'Left Face', 'Right Face', 'Left Face']",
6,"[0.2, 0]",0,0,8,8,8,,,None,None,"[0, 0, 0]",818.4596384000033,820.4596581000369,818.4596384000033,819.4596444999333,819.4429941000417,820.4429955000523,"[0, 0, 0]",1,818.4596384000033,820.4596581000369,,,,,,,,,,,,,,,,,,,7,f,2,20,r,LH,49,49,2022_Aug_06_1033,2020.2.10,distractmap2,60.00740495618469,"['Right Face', 'Left Face', 'Right Face', 'Left Face']",
1,"[-0.2, 0.2]",1,0,9,9,9,,,None,None,"[0, 0, 0]",820.4763376999181,822.4763420000672,820.4763376999181,821.4763299000915,821.4596679001115,822.4596667001024,"[0, 0, 0]",1,820.4763376999181,822.4763420000672,,,,,,,,,,,,,,,,,,,7,f,2,20,r,LH,49,49,2022_Aug_06_1033,2020.2.10,distractmap2,60.00740495618469,"['Right Face', 'Left Face', 'Right Face', 'Left Face']",
,,,,,,,,,,,,,,,,,,,,,,822.4929959999863,None,,,,,,,,,,,,,,,,,7,f,2,20,r,LH,49,49,2022_Aug_06_1033,2020.2.10,distractmap2,60.00740495618469,"['Right Face', 'Left Face', 'Right Face', 'Left Face']",
,,,,,,,,,,,,,,,,,,,,,,,,,,,,,,,,,,40.864197530864196,801.0325200702064,,,,,7,f,2,20,r,LH,49,49,2022_Aug_06_1033,2020.2.10,distractmap2,60.00740495618469,"['Right Face', 'Left Face', 'Right Face', 'Left Face']",
3,"[0.2, 0.2]",None,0,0,0,0,835.7265906000976,None,None,None,"[0, 0, 0]",842.5098584000953,844.5098506000359,842.5098584000953,843.509853699943,843.4932087000925,844.4932037000544,"[0, 0, 0]",1,842.5098584000953,844.5098506000359,,,,,,,,,,,,,,,0.012739229947328568,5.00834992993623,,,7,f,2,20,r,LH,49,49,2022_Aug_06_1033,2020.2.10,distractmap2,60.00740495618469,"['Right Face', 'Left Face', 'Right Face', 'Left Face']",
3,"[0.2, 0.2]",None,0,1,1,1,,,None,None,"[0, 0, 0]",844.5265651000664,846.5265468000434,844.5265651000664,845.5265635999385,845.5098741999827,846.5098862999585,"[0, 0, 0]",1,844.5265651000664,846.5265468000434,,,,,,,,,,,,,,,,,,,7,f,2,20,r,LH,49,49,2022_Aug_06_1033,2020.2.10,distractmap2,60.00740495618469,"['Right Face', 'Left Face', 'Right Face', 'Left Face']",
5,"[0, 0]",0,0,2,2,2,,,None,None,"[0, 0, 0]",846.5432200001087,848.5432492000982,846.5432200001087,847.5432406999171,847.5265675000846,848.5265711999964,"[0, 0, 0]",1,846.5432200001087,848.5432492000982,,,,,,,,,,,,,,,,,,,7,f,2,20,r,LH,49,49,2022_Aug_06_1033,2020.2.10,distractmap2,60.00740495618469,"['Right Face', 'Left Face', 'Right Face', 'Left Face']",
1,"[-0.2, 0.2]",0,0,3,3,3,,,None,None,"[0, 0, 0]",848.559906499926,850.559919900028,848.559906499926,849.5598993999884,849.543236099882,850.5432688000146,"[0, 0, 0]",1,848.559906499926,850.559919900028,,,,,,,,,,,,,,,,,,,7,f,2,20,r,LH,49,49,2022_Aug_06_1033,2020.2.10,distractmap2,60.00740495618469,"['Right Face', 'Left Face', 'Right Face', 'Left Face']",
5,"[0, 0]",1,0,4,4,4,,,None,None,"[0, 0, 0]",850.6266346001066,None,850.6266346001066,851.6265946999192,851.6098434999585,None,"[0, 0, 0]",1,850.6266346001066,None,,,,,,,,,,,,,,,,,,,7,f,2,20,r,LH,49,49,2022_Aug_06_1033,2020.2.10,distractmap2,60.00740495618469,"['Right Face', 'Left Face', 'Right Face', 'Left Face']",
8,"[0, -0.2]",0,0,5,5,5,,,None,None,"[0, 0, 0]",852.5932912998833,854.5933040999807,852.5932912998833,853.5933105000295,853.5765553999227,854.5766282998957,"[0, 0, 0]",1,852.5932912998833,854.5933040999807,,,,,,,,,,,,,,,,,,,7,f,2,20,r,LH,49,49,2022_Aug_06_1033,2020.2.10,distractmap2,60.00740495618469,"['Right Face', 'Left Face', 'Right Face', 'Left Face']",
5,"[0, 0]",1,0,6,6,6,,,None,None,"[0, 0, 0]",854.6099479999393,856.6099779999349,854.6099479999393,855.6099574000109,855.5933065998834,856.5933266000357,"[0, 0, 0]",1,854.6099479999393,856.6099779999349,,,,,,,,,,,,,,,,,,,7,f,2,20,r,LH,49,49,2022_Aug_06_1033,2020.2.10,distractmap2,60.00740495618469,"['Right Face', 'Left Face', 'Right Face', 'Left Face']",
7,"[-0.2, -0.2]",0,0,7,7,7,,,None,None,"[0, 0, 0]",856.626648500096,858.6266737999395,856.626648500096,857.6266689999029,857.6099789000582,858.6099874000065,"[0, 0, 0]",1,856.626648500096,858.6266737999395,,,,,,,,,,,,,,,,,,,7,f,2,20,r,LH,49,49,2022_Aug_06_1033,2020.2.10,distractmap2,60.00740495618469,"['Right Face', 'Left Face', 'Right Face', 'Left Face']",
5,"[0, 0]",1,0,8,8,8,,,None,None,"[0, 0, 0]",858.643334900029,860.6433631998952,858.643334900029,859.6433470000047,859.6266751000658,860.6266896999441,"[0, 0, 0]",1,858.643334900029,860.6433631998952,,,,,,,,,,,,,,,,,,,7,f,2,20,r,LH,49,49,2022_Aug_06_1033,2020.2.10,distractmap2,60.00740495618469,"['Right Face', 'Left Face', 'Right Face', 'Left Face']",
7,"[-0.2, -0.2]",1,0,9,9,9,,,None,None,"[0, 0, 0]",860.660016000038,862.6600116998889,860.660016000038,861.6600214000791,861.6433641000185,862.6433824999258,"[0, 0, 0]",1,860.660016000038,862.6600116998889,,,,,,,,,,,,,,,,,,,7,f,2,20,r,LH,49,49,2022_Aug_06_1033,2020.2.10,distractmap2,60.00740495618469,"['Right Face', 'Left Face', 'Right Face', 'Left Face']",
,,,,,,,,,,,,,,,,,,,,,,862.6766955000348,None,,,,,,,,,,,,,,,,,7,f,2,20,r,LH,49,49,2022_Aug_06_1033,2020.2.10,distractmap2,60.00740495618469,"['Right Face', 'Left Face', 'Right Face', 'Left Face']",
,,,,,,,,,,,,,,,,,,,,,,,,,,,,,,,,,,42.03703703703703,845.5989717699122,,,,,7,f,2,20,r,LH,49,49,2022_Aug_06_1033,2020.2.10,distractmap2,60.00740495618469,"['Right Face', 'Left Face', 'Right Face', 'Left Face']",
,,,,,,,897.693672799971,None,,,,,,,,,,,,,,,,,,,,,,,,,,39.25925925925926,877.5472588699777,0.013366730185225606,5.009579730220139,877.6935103998985,None,7,f,2,20,r,LH,49,49,2022_Aug_06_1033,2020.2.10,distractmap2,60.00740495618469,"['Right Face', 'Left Face', 'Right Face', 'Left Face']",
,,,,,,,932.7106965999119,None,,,,,,,,,,,,,,,,,,,,,,,,,,44.50617283950618,910.0976573701482,0.015356430085375905,5.013557130005211,912.7104871999472,None,7,f,2,20,r,LH,49,49,2022_Aug_06_1033,2020.2.10,distractmap2,60.00740495618469,"['Right Face', 'Left Face', 'Right Face', 'Left Face']",
,,,,,,,967.7276439999696,None,,,,,,,,,,,,,,,,,,,,,,,,,,44.25925925925926,947.9487771699205,0.015240629902109504,5.013355929870158,947.7274515000172,None,7,f,2,20,r,LH,49,49,2022_Aug_06_1033,2020.2.10,distractmap2,60.00740495618469,"['Right Face', 'Left Face', 'Right Face', 'Left Face']",
,,,,,,,,,,,,,,,,,,,,,,,,,,,,,,,,,,,,0.014455530093982816,5.01180132990703,,,,,,,,,,,,,,,,
