	SID	biopac_channel	body_site	condition	correct	date	duration	handedness	mouseclick	onset	rt	scanner	score	session	sex	skin_site	temperature	value
0	2568	51	Chest	Expectancy		2024_Feb_19_1725	5.015917600889225	R		3.9601608000230044	3.433667199977208	MS SS		3	F	2		26.543209876543212
1	2568	44	Chest	0-back Instruction		2024_Feb_19_1725	5.0185941500240006	R		9.367108099977486		MS SS		3	F	2		
2	2568	7	Chest	Pre-Trial Jitter		2024_Feb_19_1725	9.00758480001241	R		14.397694599989336		MS SS		3	F	2		
3	2568	44.0	Chest	pretrialfixation		2024_Feb_19_1725	0.9982169999857433	R		23.71909450000385		MS SS		3	F	2		
4	2568		Chest	0-back	1.0	2024_Feb_19_1725	1.9906175999785773	R	0.0	24.73126680002315	1.1459824000485241	MS SS	12.5	3	F	2	48.5	
5	2568		Chest	0-back	1.0	2024_Feb_19_1725	1.977502749999985	R	0.0	26.737829499994405	1.1337626000167802	MS SS	25.0	3	F	2	48.5	
6	2568		Chest	0-back	1.0	2024_Feb_19_1725	1.979098050040193	R	0.0	28.737059800012503	1.2295476999715902	MS SS	37.5	3	F	2	48.5	
7	2568		Chest	0-back	1.0	2024_Feb_19_1725	1.9798056500731036	R	0.0	30.736708000011276	0.8960747999954037	MS SS	50.0	3	F	2	48.5	
8	2568		Chest	0-back	1.0	2024_Feb_19_1725	1.979791550023947	R	0.0	32.736731600016356	0.9461932000122033	MS SS	62.5	3	F	2	48.5	
9	2568		Chest	0-back	1.0	2024_Feb_19_1725	1.9795990499551408	R	0.0	34.736845100007486	0.812767099996563	MS SS	75.0	3	F	2	48.5	
10	2568		Chest	0-back	1.0	2024_Feb_19_1725	1.9790274500264786	R	0.0	36.7371562999906	1.0127702999743633	MS SS	87.5	3	F	2	48.5	
11	2568		Chest	0-back	1.0	2024_Feb_19_1725	1.9794859499670565	R	0.0	38.736969899968244	1.2961691000382416	MS SS	100.0	3	F	2	48.5	
12	2568	48.0	Chest	ScoreReport		2024_Feb_19_1725	4.997170299931895	R		40.753172700002324		MS SS		3	F	2		
13	2568	8	Chest	Post-Trial Jitter		2024_Feb_19_1725	5.000254250015132	R		45.818313999974634		MS SS		3	F	2		
14	2568	20	Chest	PainBinary		2024_Feb_19_1725	5.000528199947439	R		50.843243599985726	1.450419700006023	MS SS		3	F	2		1.0
15	2568	21	Chest	IntensityRating		2024_Feb_19_1725	5.004115450021345	R		55.88317079999251	2.5341695999959484	MS SS		3	F	2		28.024691358024693
16	2568	23	Chest	DistractBinary		2024_Feb_19_1725	5.015938349999487	R		60.91064570000162	1.4004071000381373	MS SS		3	F	2		1.0
17	2568	9	Chest	Post-Q-Jitter		2024_Feb_19_1725	5.014474599971436	R		65.92810399999144		MS SS		3	F	2		
18	2568	51	Chest	Expectancy		2024_Feb_19_1725	5.0017768000252545	R		71.52618069999153	2.7670925999991596	MS SS		3	F	2		29.444444444444446
19	2568	44	Chest	0-back Instruction		2024_Feb_19_1725	5.000388649990782	R		76.94360479997704		MS SS		3	F	2		
20	2568	7	Chest	Pre-Trial Jitter		2024_Feb_19_1725	9.000082299986389	R		81.96881689998554		MS SS		3	F	2		
21	2568	44.0	Chest	pretrialfixation		2024_Feb_19_1725	1.0086252500186674	R		91.2729353000177		MS SS		3	F	2		
22	2568		Chest	0-back	0.0	2024_Feb_19_1725	1.985369100002572	R		92.30127160000848		MS SS	0.0	3	F	2	48.5	
23	2568		Chest	0-back	1.0	2024_Feb_19_1725	1.9700952500570565	R	0	94.30892759998096	1.1128972999867983	MS SS	12.5	3	F	2	48.5	
24	2568		Chest	0-back	1.0	2024_Feb_19_1725	1.9701936499914154	R	0	96.3088459999999	1.2462044999701902	MS SS	25.0	3	F	2	48.5	
25	2568		Chest	0-back	1.0	2024_Feb_19_1725	1.973408850026317	R	0	98.3073013999965	1.5008569000056013	MS SS	37.5	3	F	2	48.5	
26	2568		Chest	0-back	1.0	2024_Feb_19_1725	1.9710046500549652	R	0	100.30853609996848	1.5839077000273392	MS SS	50.0	3	F	2	48.5	
27	2568		Chest	0-back	1.0	2024_Feb_19_1725	1.973602749989368	R	0	102.307243200019	1.3288828000077046	MS SS	62.5	3	F	2	48.5	
28	2568		Chest	0-back	1.0	2024_Feb_19_1725	1.972207450075075	R	0	104.30797839997103	1.1458211000426672	MS SS	75.0	3	F	2	48.5	
29	2568		Chest	0-back	1.0	2024_Feb_19_1725	1.9706818500417285	R	0	106.30875710002147	1.217630699975416	MS SS	87.5	3	F	2	48.5	
30	2568	48.0	Chest	ScoreReport		2024_Feb_19_1725	5.0112272500409745	R		108.33848550001858		MS SS		3	F	2		
31	2568	8	Chest	Post-Trial Jitter		2024_Feb_19_1725	7.00444695004262	R		113.4252836999949		MS SS		3	F	2		
32	2568	20	Chest	PainBinary		2024_Feb_19_1725	5.002820249996148	R		120.46784769999795	1.2172438999987207	MS SS		3	F	2		1.0
33	2568	21	Chest	IntensityRating		2024_Feb_19_1725	5.015763600007631	R		125.51142870000331	2.6838137000449933	MS SS		3	F	2		25.308641975308642
34	2568	23	Chest	DistractBinary		2024_Feb_19_1725	4.998141449992545	R		130.5536332000047	3.5838029000442475	MS SS		3	F	2		1.0
35	2568	9	Chest	Post-Q-Jitter		2024_Feb_19_1725	7.001850499946158	R		135.56850599998143		MS SS		3	F	2		
36	2568	43	Chest	2-back Instruction		2024_Feb_19_1725	5.007378350012004	R		142.60747480002465		MS SS		3	F	2		
37	2568	7	Chest	Pre-trial Jitter		2024_Feb_19_1725	7.010224999976344	R		147.6394309999887		MS SS		3	F	2		
38	2568	44.0	Chest	pretrialfixation		2024_Feb_19_1725	1.0023943500127643	R		154.9267375000054		MS SS		3	F	2		
39	2568		Chest	2-back	1.0	2024_Feb_19_1725	1.9860594000201672	R		155.95159959996818		MS SS	12.5	3	F	2	32.0	
40	2568		Chest	2-back	1.0	2024_Feb_19_1725	1.9707472500158474	R		157.95927120000124		MS SS	25.0	3	F	2	32.0	
41	2568		Chest	2-back	1.0	2024_Feb_19_1725	1.9746296500088647	R	2	159.95735219999915	1.2125396999763325	MS SS	37.5	3	F	2	32.0	
42	2568		Chest	2-back	1.0	2024_Feb_19_1725	1.9737893500714563	R	2	161.9577901000157	1.2179674999788404	MS SS	50.0	3	F	2	32.0	
43	2568		Chest	2-back	1.0	2024_Feb_19_1725	1.9754104500170797	R	0	163.95699460001197	1.3506636999663897	MS SS	62.5	3	F	2	32.0	
44	2568		Chest	2-back	1.0	2024_Feb_19_1725	1.976078050036449	R	0	165.95669339998858	1.267504999996163	MS SS	75.0	3	F	2	32.0	
45	2568		Chest	2-back	1.0	2024_Feb_19_1725	1.9756721499725245	R	2	167.95693280000705	1.1294134999625385	MS SS	87.5	3	F	2	32.0	
46	2568		Chest	2-back	1.0	2024_Feb_19_1725	1.9767348500317894	R	2	169.95640289998846	1.1330044000060298	MS SS	100.0	3	F	2	32.0	
47	2568	48.0	Chest	ScoreReport		2024_Feb_19_1725	5.004349099996034	R		171.97596219996922		MS SS		3	F	2		
48	2568	8	Chest	Post-trial Jitter		2024_Feb_19_1725	7.002613150049001	R		177.0519180999836		MS SS		3	F	2		
49	2568	43	Chest	2-back Instruction		2024_Feb_19_1725	5.000004849978723	R		184.08663899998646		MS SS		3	F	2		
50	2568	7	Chest	Pre-trial Jitter		2024_Feb_19_1725	7.000296999991406	R		189.10321560001466		MS SS		3	F	2		
51	2568	44.0	Chest	pretrialfixation		2024_Feb_19_1725	0.9967643500422128	R		196.37167089997092		MS SS		3	F	2		
52	2568		Chest	2-back	1.0	2024_Feb_19_1725	1.9901341999648139	R		197.38333310000598		MS SS	12.5	3	F	2	32.0	
53	2568		Chest	2-back	1.0	2024_Feb_19_1725	1.9745128499926068	R		199.39112839999143		MS SS	25.0	3	F	2	32.0	
54	2568		Chest	2-back	1.0	2024_Feb_19_1725	1.9771771500236355	R	2	201.38985470001353	1.2128580000135116	MS SS	37.5	3	F	2	32.0	
55	2568		Chest	2-back	1.0	2024_Feb_19_1725	1.9764121500193141	R	2	203.39025240001502	1.184107100008987	MS SS	50.0	3	F	2	32.0	
56	2568		Chest	2-back	1.0	2024_Feb_19_1725	1.9763733500731178	R	0	205.3903085999773	1.1010198000003584	MS SS	62.5	3	F	2	32.0	
57	2568		Chest	2-back	1.0	2024_Feb_19_1725	1.975874949945137	R	2	207.3905722000054	0.9796736999996938	MS SS	75.0	3	F	2	32.0	
58	2568		Chest	2-back	1.0	2024_Feb_19_1725	1.976266950077843	R	0	209.3903989000246	1.179599400027655	MS SS	87.5	3	F	2	32.0	
59	2568		Chest	2-back	1.0	2024_Feb_19_1725	1.9762661500135437	R	2	211.39044250000734	1.2509259000071324	MS SS	100.0	3	F	2	32.0	
60	2568	48.0	Chest	ScoreReport		2024_Feb_19_1725	5.007706799951848	R		213.40806980000343		MS SS		3	F	2		
61	2568	8	Chest	Post-trial Jitter		2024_Feb_19_1725	8.999548650055658	R		218.4872395999846		MS SS		3	F	2		
62	2568	51	Chest	Expectancy		2024_Feb_19_1725	5.001204150146805	R		228.79482790001202	3.167067800008226	MS SS		3	F	2		29.629629629629626
63	2568	45	Chest	2-back Instruction		2024_Feb_19_1725	5.006395550095476	R		234.2089765999699		MS SS		3	F	2		
64	2568	7	Chest	Pre-trial Jitter		2024_Feb_19_1725	5.000748599995859	R		239.2368416999816		MS SS		3	F	2		
65	2568	44.0	Chest	pretrialfixation		2024_Feb_19_1725	1.0059406000073068	R		244.5592685000156		MS SS		3	F	2		
66	2568		Chest	2-back	1.0	2024_Feb_19_1725	1.9906661999993958	R		245.5836019999697		MS SS	12.5	3	F	2	48.5	
67	2568		Chest	2-back	1.0	2024_Feb_19_1725	1.974686749977991	R		247.59158710000338		MS SS	25.0	3	F	2	48.5	
68	2568		Chest	2-back	1.0	2024_Feb_19_1725	1.977349650056567	R	0	249.59027619997505	1.0130916999769397	MS SS	37.5	3	F	2	48.5	
69	2568		Chest	2-back	1.0	2024_Feb_19_1725	1.9765511499717832	R	2	251.59070080000674	1.1175229999935254	MS SS	50.0	3	F	2	48.5	
70	2568		Chest	2-back	1.0	2024_Feb_19_1725	1.9757518500555307	R	2	253.59107000002405	1.3462186999968253	MS SS	62.5	3	F	2	48.5	
71	2568		Chest	2-back	1.0	2024_Feb_19_1725	1.9765933500602841	R	2	255.5907247000141	1.1959280000301078	MS SS	75.0	3	F	2	48.5	
72	2568		Chest	2-back	1.0	2024_Feb_19_1725	1.9766374499886297	R	2	257.59072999999626	1.0626346999779344	MS SS	87.5	3	F	2	48.5	
73	2568		Chest	2-back	1.0	2024_Feb_19_1725	1.9766794500174	R	2	259.5907267999719	1.2845862000249326	MS SS	100.0	3	F	2	48.5	
74	2568	48.0	Chest	ScoreReport		2024_Feb_19_1725	5.008496100024786	R		261.60818520002067		MS SS		3	F	2		
75	2568	8	Chest	Post-trial Jitter		2024_Feb_19_1725	5.002813450002577	R		266.694418900006		MS SS		3	F	2		
76	2568	20	Chest	PainBinary		2024_Feb_19_1725	5.008547050005291	R		271.73327500000596	1.5171086000045761	MS SS		3	F	2		1.0
77	2568	21	Chest	IntensityRating		2024_Feb_19_1725	5.0128454500227235	R		276.772854299983	2.3361001000157557	MS SS		3	F	2		26.172839506172842
78	2568	23	Chest	DistractBinary		2024_Feb_19_1725	5.008826049976051	R		281.8165832000086	2.0870286999852397	MS SS		3	F	2		1.0
79	2568	9	Chest	Post-Q-Jitter		2024_Feb_19_1725	5.0084319999441504	R		286.8334843000048		MS SS		3	F	2		
80	2568	51	Chest	Expectancy		2024_Feb_19_1725	5.007729300064966	R		293.092256599979	3.3338212000089698	MS SS		3	F	2		28.76543209876543
81	2568	45	Chest	2-back Instruction		2024_Feb_19_1725	5.008095700002741	R		298.517116300005		MS SS		3	F	2		
82	2568	7	Chest	Pre-trial Jitter		2024_Feb_19_1725	9.000883600034285	R		303.53748619998805		MS SS		3	F	2		
83	2568	44.0	Chest	pretrialfixation		2024_Feb_19_1725	1.0084461499936879	R		312.8337546000257		MS SS		3	F	2		
84	2568		Chest	2-back	1.0	2024_Feb_19_1725	1.989030199998524	R		313.8517922000028		MS SS	12.5	3	F	2	48.5	
85	2568		Chest	2-back	1.0	2024_Feb_19_1725	1.975540750019718	R		315.8585855999845		MS SS	25.0	3	F	2	48.5	
86	2568		Chest	2-back	1.0	2024_Feb_19_1725	1.9777823500335217	R	2	317.85746289999224	1.4505705999908969	MS SS	37.5	3	F	2	48.5	
87	2568		Chest	2-back	0.0	2024_Feb_19_1725	1.9771263499860652	R	2	319.857852199988	1.3294897000305355	MS SS	37.5	3	F	2	48.5	
88	2568		Chest	2-back	1.0	2024_Feb_19_1725	1.9750960500678048	R	2	321.85886620002566	1.450606299971696	MS SS	50.0	3	F	2	48.5	
89	2568		Chest	2-back	1.0	2024_Feb_19_1725	1.9755642500240356	R	2	323.85863309999695	1.1628629000042565	MS SS	62.5	3	F	2	48.5	
90	2568		Chest	2-back	1.0	2024_Feb_19_1725	1.9750297500286251	R	2	325.858943899977	1.1128376999986358	MS SS	75.0	3	F	2	48.5	
91	2568		Chest	2-back	1.0	2024_Feb_19_1725	1.9765946500119753	R	0	327.8581948999781	1.3125575999729335	MS SS	87.5	3	F	2	48.5	
92	2568	48.0	Chest	ScoreReport		2024_Feb_19_1725	5.011196749983355	R		329.88257409998914		MS SS		3	F	2		
93	2568	8	Chest	Post-trial Jitter		2024_Feb_19_1725	4.9963193500298075	R		334.95673819998046		MS SS		3	F	2		
94	2568	20	Chest	PainBinary		2024_Feb_19_1725	5.009395950066391	R		339.9835895000142	0.8505296999937855	MS SS		3	F	2		1.0
95	2568	21	Chest	IntensityRating		2024_Feb_19_1725	5.013784650014713	R		345.0230984999798	1.7835019000340253	MS SS		3	F	2		20.185185185185183
96	2568	23	Chest	DistractBinary		2024_Feb_19_1725	5.010402249987237	R		350.06651139998576	1.5504243000177667	MS SS		3	F	2		1.0
97	2568	9	Chest	Post-Q-Jitter		2024_Feb_19_1725	5.006958300014958	R		355.08495779999066		MS SS		3	F	2		
98	2568	51	Chest	Expectancy		2024_Feb_19_1725	5.015228650067002	R		361.3892306999769	2.500464499986265	MS SS		3	F	2		21.85185185185185
99	2568	44	Chest	0-back Instruction		2024_Feb_19_1725	5.010002450027969	R		366.80856390000554		MS SS		3	F	2		
100	2568	7	Chest	Pre-Trial Jitter		2024_Feb_19_1725	9.001335599925369	R		371.83795590000227		MS SS		3	F	2		
101	2568	44.0	Chest	pretrialfixation		2024_Feb_19_1725	1.0081521000247449	R		381.1179423999856		MS SS		3	F	2		
102	2568		Chest	0-back	1.0	2024_Feb_19_1725	1.9884345999453217	R	0.0	382.13616160000674	1.7961804999504238	MS SS	12.5	3	F	2	48.5	
103	2568		Chest	0-back	1.0	2024_Feb_19_1725	1.9780518499901518	R	0.0	384.1413799999864	1.1962344000348821	MS SS	25.0	3	F	2	48.5	
104	2568		Chest	0-back	1.0	2024_Feb_19_1725	1.9798035499989055	R	0.0	386.1405176999979	1.050942700006999	MS SS	37.5	3	F	2	48.5	
105	2568		Chest	0-back	1.0	2024_Feb_19_1725	1.9799878500052728	R	0.0	388.1404022999923	1.1629108000197448	MS SS	50.0	3	F	2	48.5	
106	2568		Chest	0-back	1.0	2024_Feb_19_1725	1.9796493499889039	R	0.0	390.14064040000085	1.296358399966266	MS SS	62.5	3	F	2	48.5	
107	2568		Chest	0-back	1.0	2024_Feb_19_1725	1.9791012500645593	R	0.0	392.140926699969	1.3628294999944046	MS SS	75.0	3	F	2	48.5	
108	2568		Chest	0-back	1.0	2024_Feb_19_1725	1.9793251500232145	R	0.0	394.14085329999216	1.212992499989923	MS SS	87.5	3	F	2	48.5	
109	2568		Chest	0-back	1.0	2024_Feb_19_1725	1.9796893500024453	R	0.0	396.1406692999881	1.3011363999685273	MS SS	100.0	3	F	2	48.5	
110	2568	48.0	Chest	ScoreReport		2024_Feb_19_1725	4.997671899967827	R		398.15672359999735		MS SS		3	F	2		
111	2568	8	Chest	Post-Trial Jitter		2024_Feb_19_1725	9.000747149984818	R		403.22194590000436		MS SS		3	F	2		
112	2568	20	Chest	PainBinary		2024_Feb_19_1725	5.010586749995127	R		412.25043820001883	1.2535073999897577	MS SS		3	F	2		1.0
113	2568	21	Chest	IntensityRating		2024_Feb_19_1725	5.015774849976879	R		417.2895571999834	3.833513399993535	MS SS		3	F	2		13.456790123456788
114	2568	23	Chest	DistractBinary		2024_Feb_19_1725	5.010238949966151	R		422.334037899971	0.9668410999584012	MS SS		3	F	2		1.0
115	2568	9	Chest	Post-Q-Jitter		2024_Feb_19_1725	9.00744889996713	R		427.3521660999977		MS SS		3	F	2		
116	2568	51	Chest	Expectancy		2024_Feb_19_1725	5.007998100016266	R		437.643668100005	3.533754400035832	MS SS		3	F	2		19.50617283950617
117	2568	44	Chest	0-back Instruction		2024_Feb_19_1725	5.015523699985351	R		443.06494589999784		MS SS		3	F	2		
118	2568	7	Chest	Pre-Trial Jitter		2024_Feb_19_1725	4.996129600040149	R		448.09136730001774		MS SS		3	F	2		
119	2568	44.0	Chest	pretrialfixation		2024_Feb_19_1725	0.9999575499678031	R		453.38949480000883		MS SS		3	F	2		
120	2568		Chest	0-back	1.0	2024_Feb_19_1725	1.9908744999556802	R	0.0	454.4023884999915	1.5127000999636948	MS SS	12.5	3	F	2	48.5	
121	2568		Chest	0-back	1.0	2024_Feb_19_1725	1.977731049992144	R	0.0	456.40895740000997	1.2629075000295416	MS SS	25.0	3	F	2	48.5	
122	2568		Chest	0-back	1.0	2024_Feb_19_1725	1.9790329500683583	R	0.0	458.4083628000226	1.1179423999856226	MS SS	37.5	3	F	2	48.5	
123	2568		Chest	0-back	1.0	2024_Feb_19_1725	1.9800546500482596	R	0.0	460.407857800019	1.2296143000130542	MS SS	50.0	3	F	2	48.5	
124	2568		Chest	0-back	1.0	2024_Feb_19_1725	1.9795580500504002	R	0.0	462.4081338000251	1.346175700018648	MS SS	62.5	3	F	2	48.5	
125	2568		Chest	0-back	1.0	2024_Feb_19_1725	1.9798962499480695	R	0.0	464.40797870000824	1.2295079000177793	MS SS	75.0	3	F	2	48.5	
126	2568		Chest	0-back	1.0	2024_Feb_19_1725	1.9794130499940366	R	0.0	466.4082546000136	1.1837965000304393	MS SS	87.5	3	F	2	48.5	
127	2568		Chest	0-back	1.0	2024_Feb_19_1725	1.9796772500267252	R	0.0	468.4081362999859	1.379552699974738	MS SS	100.0	3	F	2	48.5	
128	2568	48.0	Chest	ScoreReport		2024_Feb_19_1725	4.997594799962826	R		470.42421039997134		MS SS		3	F	2		
129	2568	8	Chest	Post-Trial Jitter		2024_Feb_19_1725	5.005158250045497	R		475.48716760001844		MS SS		3	F	2		
130	2568	20	Chest	PainBinary		2024_Feb_19_1725	5.01040244998876	R		480.5179194000084	1.483782799972687	MS SS		3	F	2		1.0
131	2568	21	Chest	IntensityRating		2024_Feb_19_1725	5.0149261499755085	R		485.5573833999806	3.583535799989477	MS SS		3	F	2		15.370370370370367
132	2568	23	Chest	DistractBinary		2024_Feb_19_1725	5.009163050039206	R		490.601985300018	0.9837652000132948	MS SS		3	F	2		1.0
133	2568	9	Chest	Post-Q-Jitter		2024_Feb_19_1725	5.008441399957519	R		495.6190593999927		MS SS		3	F	2		
134	2568	42	Chest	0-back Instruction		2024_Feb_19_1725	4.99822835001396	R		500.6575562999933		MS SS		3	F	2		
135	2568	7	Chest	Pre-Trial Jitter		2024_Feb_19_1725	8.999474600015674	R		505.6736699999892		MS SS		3	F	2		
136	2568	44.0	Chest	pretrialfixation		2024_Feb_19_1725	1.0012527499930002	R		514.9395059000235		MS SS		3	F	2		
137	2568		Chest	0-back	1.0	2024_Feb_19_1725	1.9891705000190996	R	0.0	515.9539087999729	1.446132100012619	MS SS	12.5	3	F	2	32.0	
138	2568		Chest	0-back	1.0	2024_Feb_19_1725	1.9772008500876836	R	0.0	517.9598998000147	1.1795617999741808	MS SS	25.0	3	F	2	32.0	
139	2568		Chest	0-back	1.0	2024_Feb_19_1725	1.9797549500362948	R	0.0	519.9586539000156	1.0627846999559551	MS SS	37.5	3	F	2	32.0	
140	2568		Chest	0-back	1.0	2024_Feb_19_1725	1.9793150500045158	R	0.0	521.9589029999916	1.1296444999752566	MS SS	50.0	3	F	2	32.0	
141	2568		Chest	0-back	1.0	2024_Feb_19_1725	1.9795009500230663	R	0.0	523.9588108999887	1.1794806999969296	MS SS	62.5	3	F	2	32.0	
142	2568		Chest	0-back	1.0	2024_Feb_19_1725	1.9790127499727532	R	0.0	525.9590796999983	1.1627504999632947	MS SS	75.0	3	F	2	32.0	
143	2568		Chest	0-back	1.0	2024_Feb_19_1725	1.9798935500439256	R	0.0	527.9586483999738	1.2333081000251696	MS SS	87.5	3	F	2	32.0	
144	2568		Chest	0-back	1.0	2024_Feb_19_1725	1.9792283499846235	R	0.0	529.9590049000108	1.229607900022529	MS SS	100.0	3	F	2	32.0	
145	2568	48.0	Chest	ScoreReport		2024_Feb_19_1725	4.998228599957656	R		531.9745648999815		MS SS		3	F	2		
146	2568	8	Chest	Post-Trial Jitter		2024_Feb_19_1725	8.99551034992328	R		537.0426517999731		MS SS		3	F	2		
147	2568	42	Chest	0-back Instruction		2024_Feb_19_1725	5.00071965000825	R		546.0734605999896		MS SS		3	F	2		
148	2568	7	Chest	Pre-Trial Jitter		2024_Feb_19_1725	4.999774899915792	R		551.0906534999958		MS SS		3	F	2		
149	2568	44.0	Chest	pretrialfixation		2024_Feb_19_1725	1.0037185500259511	R		556.355378200009		MS SS		3	F	2		
150	2568		Chest	0-back	1.0	2024_Feb_19_1725	1.9907431000028737	R	0.0	557.3702562000253	1.2626681999536231	MS SS	12.5	3	F	2	32.0	
151	2568		Chest	0-back	1.0	2024_Feb_19_1725	1.9773738500080071	R	0.0	559.376936900022	1.0962034000549465	MS SS	25.0	3	F	2	32.0	
152	2568		Chest	0-back	1.0	2024_Feb_19_1725	1.9795017499709502	R	0.0	561.3758933999925	0.9842640999704599	MS SS	37.5	3	F	2	32.0	
153	2568		Chest	0-back	1.0	2024_Feb_19_1725	1.979820650012698	R	0.0	563.3757656000089	1.0463251000037417	MS SS	50.0	3	F	2	32.0	
154	2568		Chest	0-back	1.0	2024_Feb_19_1725	1.9793618500116281	R	0.0	565.3759933999972	1.20115330000408	MS SS	62.5	3	F	2	32.0	
155	2568		Chest	0-back	1.0	2024_Feb_19_1725	1.9793357500457205	R	0.0	567.3760335000115	1.0791675000218675	MS SS	75.0	3	F	2	32.0	
156	2568		Chest	0-back	1.0	2024_Feb_19_1725	1.979623050079681	R	0.0	569.3759051000234	1.179532999987714	MS SS	87.5	3	F	2	32.0	
157	2568		Chest	0-back	1.0	2024_Feb_19_1725	1.979258750041481	R	0.0	571.376110000012	1.0294066999922507	MS SS	100.0	3	F	2	32.0	
158	2568	48.0	Chest	ScoreReport		2024_Feb_19_1725	4.997919000044931	R		573.3917873000028		MS SS		3	F	2		
159	2568	8	Chest	Post-Trial Jitter		2024_Feb_19_1725	9.00144324998837	R		578.456784799986		MS SS		3	F	2		
160	2568	51	Chest	Expectancy		2024_Feb_19_1725	5.016574050066993	R		588.3910210999893	2.7838909000274725	MS SS		3	F	2		20.246913580246915
161	2568	45	Chest	2-back Instruction		2024_Feb_19_1725	5.012361150060315	R		593.8098222999834		MS SS		3	F	2		
162	2568	7	Chest	Pre-trial Jitter		2024_Feb_19_1725	4.999256399984006	R		598.8414207000169		MS SS		3	F	2		
163	2568	44.0	Chest	pretrialfixation		2024_Feb_19_1725	1.0039258999750018	R		604.1641194999684		MS SS		3	F	2		
164	2568		Chest	2-back	1.0	2024_Feb_19_1725	1.9891697999555618	R		605.1881858999841		MS SS	12.5	3	F	2	48.5	
165	2568		Chest	2-back	1.0	2024_Feb_19_1725	1.9746210500597954	R		607.1954827000154		MS SS	25.0	3	F	2	48.5	
166	2568		Chest	2-back	1.0	2024_Feb_19_1725	1.977347850042861	R	0	609.1941464999691	1.1956007999833673	MS SS	37.5	3	F	2	48.5	
167	2568		Chest	2-back	1.0	2024_Feb_19_1725	1.9768639499670826	R	2	611.1943887000089	1.1294767000363208	MS SS	50.0	3	F	2	48.5	
168	2568		Chest	2-back	1.0	2024_Feb_19_1725	1.9767108499654569	R	0	613.1945028000046	1.1627165999962017	MS SS	62.5	3	F	2	48.5	
169	2568		Chest	2-back	1.0	2024_Feb_19_1725	1.9765904499799944	R	2	615.1945800000103	1.0291299999807961	MS SS	75.0	3	F	2	48.5	
170	2568		Chest	2-back	1.0	2024_Feb_19_1725	1.9761287500732578	R	2	617.1948254000163	1.0296855999622494	MS SS	87.5	3	F	2	48.5	
171	2568		Chest	2-back	1.0	2024_Feb_19_1725	1.9761818499537185	R	2	619.1948242000071	1.1795183999929577	MS SS	100.0	3	F	2	48.5	
172	2568	48.0	Chest	ScoreReport		2024_Feb_19_1725	5.008237999980338	R		621.2121703000157		MS SS		3	F	2		
173	2568	8	Chest	Post-trial Jitter		2024_Feb_19_1725	9.011297550052404	R		626.2940433999756		MS SS		3	F	2		
174	2568	20	Chest	PainBinary		2024_Feb_19_1725	5.009719550027512	R		635.3365745000192	1.7170974999899045	MS SS		3	F	2		1.0
175	2568	21	Chest	IntensityRating		2024_Feb_19_1725	5.010110150033142	R		640.3781137000187	2.166719800035935	MS SS		3	F	2		13.82716049382716
176	2568	23	Chest	DistractBinary		2024_Feb_19_1725	5.006731349974871	R		645.4215282999794	1.4837896999670193	MS SS		3	F	2		1.0
177	2568	9	Chest	Post-Q-Jitter		2024_Feb_19_1725	9.009376299916767	R		650.4369415999972		MS SS		3	F	2		
178	2568	51	Chest	Expectancy		2024_Feb_19_1725	5.001382299989928	R		660.7993589999969	4.550458299985621	MS SS		3	F	2		16.296296296296298
179	2568	45	Chest	2-back Instruction		2024_Feb_19_1725	5.008251450082753	R		666.2126449000207		MS SS		3	F	2		
180	2568	7	Chest	Pre-trial Jitter		2024_Feb_19_1725	4.999016599962488	R		671.2423132000258		MS SS		3	F	2		
181	2568	44.0	Chest	pretrialfixation		2024_Feb_19_1725	1.0040791000355966	R		676.5648140999838		MS SS		3	F	2		
182	2568		Chest	2-back	1.0	2024_Feb_19_1725	1.989356299978681	R		677.5888811000041		MS SS	12.5	3	F	2	48.5	
183	2568		Chest	2-back	1.0	2024_Feb_19_1725	1.9751750500290655	R		679.5959735999932		MS SS	25.0	3	F	2	48.5	
184	2568		Chest	2-back	1.0	2024_Feb_19_1725	1.9770011500222608	R	2	681.5950804000022	1.1667781999567524	MS SS	37.5	3	F	2	48.5	
185	2568		Chest	2-back	1.0	2024_Feb_19_1725	1.9766557500115596	R	0	683.5952756999759	1.078864999988582	MS SS	50.0	3	F	2	48.5	
186	2568		Chest	2-back	1.0	2024_Feb_19_1725	1.9753086499986239	R	2	685.5959818999982	1.0295971000450663	MS SS	62.5	3	F	2	48.5	
187	2568		Chest	2-back	1.0	2024_Feb_19_1725	1.9759280500584282	R	2	687.5956885999767	1.112853600003291	MS SS	75.0	3	F	2	48.5	
188	2568		Chest	2-back	1.0	2024_Feb_19_1725	1.9759968500584364	R	2	689.5956789000193	0.9795083999633789	MS SS	87.5	3	F	2	48.5	
189	2568		Chest	2-back	1.0	2024_Feb_19_1725	1.9756858500186354	R	0	691.5958523000008	1.0335256999824196	MS SS	100.0	3	F	2	48.5	
190	2568	48.0	Chest	ScoreReport		2024_Feb_19_1725	5.007594799972139	R		693.6132268999936		MS SS		3	F	2		
191	2568	8	Chest	Post-trial Jitter		2024_Feb_19_1725	6.99721085006604	R		698.6934843999916		MS SS		3	F	2		
192	2568	20	Chest	PainBinary		2024_Feb_19_1725	5.0082224500365555	R		705.7214183000033	0.900441600009799	MS SS		3	F	2		1.0
193	2568	21	Chest	IntensityRating		2024_Feb_19_1725	5.01289925002493	R		710.7608015000005	2.2375466999947093	MS SS		3	F	2		14.444444444444446
194	2568	23	Chest	DistractBinary		2024_Feb_19_1725	5.0097506499732845	R		715.8041044999845	1.3671955000027083	MS SS		3	F	2		1.0
195	2568	9	Chest	Post-Q-Jitter		2024_Feb_19_1725	7.008102799940389	R		720.821649999998		MS SS		3	F	2		
196	2568	26	Chest	ComfortRating		2024_Feb_19_1725	1.9267626499640755	R		727.8624463999877	1.8862099999678321	MS SS		3	F	2		36.296296296296305
197	2568	24	Chest	ValenceRating		2024_Feb_19_1725	3.3886301500024274	R		729.8315498000011	3.36676720000105	MS SS		3	F	2		19.50617283950617
198	2568	26	Chest	IntensityRating		2024_Feb_19_1725	3.396033350029029	R		733.2612232000101	3.3668604000122286	MS SS		3	F	2		14.629629629629628
199	2568	27	Chest	AvoidanceRating		2024_Feb_19_1725	2.6388743499992415	R		736.6981825000257	2.6171460999757983	MS SS		3	F	2		20.0
200	2568	28	Chest	RelaxationRating		2024_Feb_19_1725	1.7035628499579616	R		739.3741833000095	1.6837579000275582	MS SS		3	F	2		59.44444444444444
201	2568	29	Chest	AttentionRating		2024_Feb_19_1725	3.136419649992604	R		741.1161030000076	3.117110099992715	MS SS		3	F	2		25.679012345679013
202	2568	30	Chest	BoredomRating		2024_Feb_19_1725	3.265860350045841	R		744.2930849000113	3.2334152000257745	MS SS		3	F	2		71.29629629629629
203	2568	31	Chest	AlertnessRating		2024_Feb_19_1725	2.297731049999129	R		747.5938451000256	2.2667785999947228	MS SS		3	F	2		-99.75308641975309
204	2568	32	Chest	PosThxRating		2024_Feb_19_1725	2.2607226500404067	R		749.9290402000188	2.233408399973996	MS SS		3	F	2		42.59259259259258
205	2568	33	Chest	NegThxRating		2024_Feb_19_1725	1.9080110499635339	R		752.2304240000085	1.8834096999489702	MS SS		3	F	2		-42.839506172839506
206	2568	34	Chest	SelfRating		2024_Feb_19_1725	2.2888838500366546	R		754.1816774000181	2.266804399958346	MS SS		3	F	2		-40.0
207	2568	35	Chest	OtherRating		2024_Feb_19_1725	1.8728682499495335	R		756.514708200004	1.8500856999889947	MS SS		3	F	2		-48.76543209876544
208	2568	32	Chest	ImageryRating		2024_Feb_19_1725	3.2784573000390083	R		758.4369379999698	3.236720699991565	MS SS		3	F	2		-65.67901234567901
209	2568	37	Chest	PresentRating		2024_Feb_19_1725	2.8768519000150263	R		761.7544440000202	2.850476699997671	MS SS		3	F	2		-51.23456790123457
