RestT1,TaskT1,square,location,corrAns,counterbalancer.thisRepN,counterbalancer.thisTrialN,counterbalancer.thisN,counterbalancer.thisIndex,RestT1Loop.thisRepN,RestT1Loop.thisTrialN,RestT1Loop.thisN,RestT1Loop.thisIndex,TaskT1Loop.thisRepN,TaskT1Loop.thisTrialN,TaskT1Loop.thisN,TaskT1Loop.thisIndex,trials_2.thisRepN,trials_2.thisTrialN,trials_2.thisN,trials_2.thisIndex,fixation_1.started,fixation_1.stopped,NbackInstructions.started,NbackInstructions.stopped,NbackStart.keys,NbackStart.rt,NbackStart.started,NbackStart.stopped,fixation_2.started,fixation_2.stopped,response_2.x,response_2.y,response_2.leftButton,grid_lines_2.started,grid_lines_2.stopped,target_square_2.started,target_square_2.stopped,fixation_3.started,fixation_3.stopped,response_2.click,response_2.corr,response_2.started,response_2.stopped,subject number,gender,session,handedness,scanner,date,expName,psychopyVersion,frameRate,
1,0,,,,0,0,0,0,0,0,0,0,,,,,,,,,48.87728770007379,None,,,,,,,,,,,,,,,,,,,,,,1,m,30,r,MCK,2022_Jan_05_1433,WASABI Nback,2020.2.10,59.98616715435745,
0,1,,,,0,1,1,1,,,,,0,0,0,0,,,,,,,320.1795037998818,None,space,34.600265900138766,320.1795037998818,None,,,,,,,,,,,,,,,,1,m,30,r,MCK,2022_Jan_05_1433,WASABI Nback,2020.2.10,59.98616715435745,
0,1,5,"[0, 0]",None,0,1,1,1,,,,,0,0,0,0,0,0,0,0,,,,,,,,,None,None,None,None,0,356.3798559999559,None,356.3798559999559,357.37992940004915,357.37992940004915,None,0,1,356.3798559999559,None,1,m,30,r,MCK,2022_Jan_05_1433,WASABI Nback,2020.2.10,59.98616715435745,
0,1,2,"[0, 0.2]",None,0,1,1,1,,,,,0,0,0,0,0,1,1,1,,,,,,,,,,,None,None,0,357.82993680005893,None,357.82993680005893,358.82995399995707,358.813281300012,359.81329669989645,0,1,357.82993680005893,None,1,m,30,r,MCK,2022_Jan_05_1433,WASABI Nback,2020.2.10,59.98616715435745,
0,1,6,"[0.2, 0]",None,0,1,1,1,,,,,0,0,0,0,0,2,2,2,,,,,,,,,,,None,None,0,359.8299479999114,None,359.8299479999114,360.82995379995555,360.8132879000623,361.813304600073,0,1,359.8299479999114,None,1,m,30,r,MCK,2022_Jan_05_1433,WASABI Nback,2020.2.10,59.98616715435745,
0,1,9,"[0.2, -0.2]",None,0,1,1,1,,,,,0,0,0,0,0,3,3,3,,,,,,,,,,,None,None,0,361.82997990003787,None,361.82997990003787,362.8299712999724,362.8133209000807,363.8133276998997,0,1,361.82997990003787,None,1,m,30,r,MCK,2022_Jan_05_1433,WASABI Nback,2020.2.10,59.98616715435745,
0,1,3,"[0.2, 0.2]",None,0,1,1,1,,,,,0,0,0,0,0,4,4,4,,,,,,,,,,,None,None,0,363.82999409991316,None,363.82999409991316,364.83000400010496,364.8133332999423,365.81333460006863,0,1,363.82999409991316,None,1,m,30,r,MCK,2022_Jan_05_1433,WASABI Nback,2020.2.10,59.98616715435745,
0,1,9,"[0.2, -0.2]",1,0,1,1,1,,,,,0,0,0,0,0,5,5,5,,,,,,,,,,,None,None,0,365.8299968999345,None,365.8299968999345,366.83004379994236,366.8134006001055,367.8133557999972,0,1,365.8299968999345,None,1,m,30,r,MCK,2022_Jan_05_1433,WASABI Nback,2020.2.10,59.98616715435745,
0,1,7,"[-0.2, -0.2]",None,0,1,1,1,,,,,0,0,0,0,0,6,6,6,,,,,,,,,,,None,None,0,367.830028800061,None,367.830028800061,368.83002409990877,368.81336009991355,369.8133644000627,0,1,367.830028800061,None,1,m,30,r,MCK,2022_Jan_05_1433,WASABI Nback,2020.2.10,59.98616715435745,
0,1,1,"[-0.2, 0.2]",None,0,1,1,1,,,,,0,0,0,0,0,7,7,7,,,,,,,,,,,None,None,0,369.83003509999253,None,369.83003509999253,370.8300270999316,370.8133455000352,371.81337459990755,0,1,369.83003509999253,None,1,m,30,r,MCK,2022_Jan_05_1433,WASABI Nback,2020.2.10,59.98616715435745,
0,1,5,"[0, 0]",None,0,1,1,1,,,,,0,0,0,0,0,8,8,8,,,,,,,,,,,None,None,0,371.8300435000565,None,371.8300435000565,372.8300578999333,372.81339269992895,373.81339869997464,0,1,371.8300435000565,None,1,m,30,r,MCK,2022_Jan_05_1433,WASABI Nback,2020.2.10,59.98616715435745,
0,1,7,"[-0.2, -0.2]",None,0,1,1,1,,,,,0,0,0,0,0,9,9,9,,,,,,,,,,,None,None,0,373.8300729000475,None,373.8300729000475,374.8300767999608,374.81341090006754,375.8134111999534,0,1,373.8300729000475,None,1,m,30,r,MCK,2022_Jan_05_1433,WASABI Nback,2020.2.10,59.98616715435745,
0,1,5,"[0, 0]",1,0,1,1,1,,,,,0,0,0,0,0,10,10,10,,,,,,,,,,,None,None,0,375.8300733999349,None,375.8300733999349,376.83009300008416,376.8134300999809,377.81343229999766,0,1,375.8300733999349,None,1,m,30,r,MCK,2022_Jan_05_1433,WASABI Nback,2020.2.10,59.98616715435745,
0,1,6,"[0.2, 0]",None,0,1,1,1,,,,,0,0,0,0,0,11,11,11,,,,,,,,,,,None,None,0,377.830084499903,None,377.830084499903,378.830092899967,378.81343819992617,379.81346279988065,0,1,377.830084499903,None,1,m,30,r,MCK,2022_Jan_05_1433,WASABI Nback,2020.2.10,59.98616715435745,
0,1,3,"[0.2, 0.2]",None,0,1,1,1,,,,,0,0,0,0,0,12,12,12,,,,,,,,,,,None,None,0,379.83012169995345,None,379.83012169995345,380.83011239999905,380.813472900074,381.81346539990045,0,1,379.83012169995345,None,1,m,30,r,MCK,2022_Jan_05_1433,WASABI Nback,2020.2.10,59.98616715435745,
0,1,6,"[0.2, 0]",1,0,1,1,1,,,,,0,0,0,0,0,13,13,13,,,,,,,,,,,None,None,0,381.83013799996115,None,381.83013799996115,382.8301832000725,382.8134759000968,383.8135325999465,0,1,381.83013799996115,None,1,m,30,r,MCK,2022_Jan_05_1433,WASABI Nback,2020.2.10,59.98616715435745,
0,1,8,"[0, -0.2]",None,0,1,1,1,,,,,0,0,0,0,0,14,14,14,,,,,,,,,,,None,None,0,383.83013639994897,None,383.83013639994897,384.8301593998913,384.8134983999189,385.8135061999783,0,1,383.83013639994897,None,1,m,30,r,MCK,2022_Jan_05_1433,WASABI Nback,2020.2.10,59.98616715435745,
0,1,9,"[0.2, -0.2]",None,0,1,1,1,,,,,0,0,0,0,0,15,15,15,,,,,,,,,,,None,None,0,385.83016930008307,None,385.83016930008307,386.8301625000313,386.81352959992364,387.8135253000073,0,1,385.83016930008307,None,1,m,30,r,MCK,2022_Jan_05_1433,WASABI Nback,2020.2.10,59.98616715435745,
0,1,9,"[0.2, -0.2]",None,0,1,1,1,,,,,0,0,0,0,0,16,16,16,,,,,,,,,,,None,None,0,387.8301792999264,None,387.8301792999264,388.83017840003595,388.8135293999221,389.8135460000485,0,1,387.8301792999264,None,1,m,30,r,MCK,2022_Jan_05_1433,WASABI Nback,2020.2.10,59.98616715435745,
0,1,1,"[-0.2, 0.2]",None,0,1,1,1,,,,,0,0,0,0,0,17,17,17,,,,,,,,,,,None,None,0,389.83018640009686,None,389.83018640009686,390.83011860004626,390.8135518000927,391.81356219993904,0,1,389.83018640009686,None,1,m,30,r,MCK,2022_Jan_05_1433,WASABI Nback,2020.2.10,59.98616715435745,
0,1,3,"[0.2, 0.2]",None,0,1,1,1,,,,,0,0,0,0,0,18,18,18,,,,,,,,,,,None,None,0,391.8302009999752,None,391.8302009999752,392.8302233000286,392.8135565998964,393.8135848999955,0,1,391.8302009999752,None,1,m,30,r,MCK,2022_Jan_05_1433,WASABI Nback,2020.2.10,59.98616715435745,
0,1,5,"[0, 0]",None,0,1,1,1,,,,,0,0,0,0,0,19,19,19,,,,,,,,,,,None,None,0,393.8302323000971,None,393.8302323000971,394.83024140005,394.8135945000686,395.81359090004116,0,1,393.8302323000971,None,1,m,30,r,MCK,2022_Jan_05_1433,WASABI Nback,2020.2.10,59.98616715435745,
0,1,3,"[0.2, 0.2]",1,0,1,1,1,,,,,0,0,0,0,0,20,20,20,,,,,,,,,,,None,None,0,395.8302531000227,None,395.8302531000227,396.83025110000744,396.81360980006866,397.81360540003516,0,1,395.8302531000227,None,1,m,30,r,MCK,2022_Jan_05_1433,WASABI Nback,2020.2.10,59.98616715435745,
0,1,4,"[-0.2, 0]",None,0,1,1,1,,,,,0,0,0,0,0,21,21,21,,,,,,,,,,,None,None,0,397.83019099989906,None,397.83019099989906,398.8302748000715,398.81361939990893,399.81362479995005,0,1,397.83019099989906,None,1,m,30,r,MCK,2022_Jan_05_1433,WASABI Nback,2020.2.10,59.98616715435745,
0,1,7,"[-0.2, -0.2]",None,0,1,1,1,,,,,0,0,0,0,0,22,22,22,,,,,,,,,,,None,None,0,399.83027360006236,None,399.83027360006236,400.8302338998765,400.8136350000277,401.8136422999669,0,1,399.83027360006236,None,1,m,30,r,MCK,2022_Jan_05_1433,WASABI Nback,2020.2.10,59.98616715435745,
0,1,4,"[-0.2, 0]",1,0,1,1,1,,,,,0,0,0,0,0,23,23,23,,,,,,,,,,,None,None,0,401.8303044999484,None,401.8303044999484,402.8303024000488,402.81364959990606,403.8136499999091,0,1,401.8303044999484,None,1,m,30,r,MCK,2022_Jan_05_1433,WASABI Nback,2020.2.10,59.98616715435745,
0,1,4,"[-0.2, 0]",None,0,1,1,1,,,,,0,0,0,0,0,24,24,24,,,,,,,,,,,None,None,0,403.8302956998814,None,403.8302956998814,404.8303103998769,404.8136668999214,405.8136718000751,0,1,403.8302956998814,None,1,m,30,r,MCK,2022_Jan_05_1433,WASABI Nback,2020.2.10,59.98616715435745,
0,1,5,"[0, 0]",None,0,1,1,1,,,,,0,0,0,0,0,25,25,25,,,,,,,,,,,None,None,0,405.8303362999577,None,405.8303362999577,406.8303499999456,406.81368510005996,407.8136905001011,0,1,405.8303362999577,None,1,m,30,r,MCK,2022_Jan_05_1433,WASABI Nback,2020.2.10,59.98616715435745,
0,1,2,"[0, 0.2]",None,0,1,1,1,,,,,0,0,0,0,0,26,26,26,,,,,,,,,,,None,None,0,407.8304296999704,None,407.8304296999704,408.8303537000902,408.8136978999246,409.8137294999324,0,1,407.8304296999704,None,1,m,30,r,MCK,2022_Jan_05_1433,WASABI Nback,2020.2.10,59.98616715435745,
0,1,6,"[0.2, 0]",None,0,1,1,1,,,,,0,0,0,0,0,27,27,27,,,,,,,,,,,None,None,0,409.83037370000966,None,409.83037370000966,410.8303771999199,410.8137195999734,411.81372600002214,0,1,409.83037370000966,None,1,m,30,r,MCK,2022_Jan_05_1433,WASABI Nback,2020.2.10,59.98616715435745,
0,1,7,"[-0.2, -0.2]",None,0,1,1,1,,,,,0,0,0,0,0,28,28,28,,,,,,,,,,,None,None,0,411.8303777000401,None,411.8303777000401,412.83040319988504,412.81373349996284,413.8137213999871,0,1,411.8303777000401,None,1,m,30,r,MCK,2022_Jan_05_1433,WASABI Nback,2020.2.10,59.98616715435745,
0,1,6,"[0.2, 0]",1,0,1,1,1,,,,,0,0,0,0,0,29,29,29,,,,,,,,,,,None,None,0,413.83042940008454,None,413.83042940008454,414.83039440005086,414.81373400008306,415.8137358999811,0,1,413.83042940008454,None,1,m,30,r,MCK,2022_Jan_05_1433,WASABI Nback,2020.2.10,59.98616715435745,
0,1,6,"[0.2, 0]",None,0,1,1,1,,,,,0,0,0,0,0,30,30,30,,,,,,,,,,,None,None,0,415.83041789988056,None,415.83041789988056,416.8304276999552,416.8137570999097,417.81377379992045,0,1,415.83041789988056,None,1,m,30,r,MCK,2022_Jan_05_1433,WASABI Nback,2020.2.10,59.98616715435745,
0,1,7,"[-0.2, -0.2]",None,0,1,1,1,,,,,0,0,0,0,0,31,31,31,,,,,,,,,,,None,None,0,417.8304188998882,None,417.8304188998882,418.83047230006196,418.8137767999433,419.81377739994787,0,1,417.8304188998882,None,1,m,30,r,MCK,2022_Jan_05_1433,WASABI Nback,2020.2.10,59.98616715435745,
0,1,6,"[0.2, 0]",1,0,1,1,1,,,,,0,0,0,0,0,32,32,32,,,,,,,,,,,None,None,0,419.83045549993403,None,419.83045549993403,420.83045760006644,420.8137888000347,421.813803399913,0,1,419.83045549993403,None,1,m,30,r,MCK,2022_Jan_05_1433,WASABI Nback,2020.2.10,59.98616715435745,
0,1,2,"[0, 0.2]",None,0,1,1,1,,,,,0,0,0,0,0,33,33,33,,,,,,,,,,,None,None,0,421.83045600005426,None,421.83045600005426,422.8304792998824,422.8138009000104,423.8138236999512,0,1,421.83045600005426,None,1,m,30,r,MCK,2022_Jan_05_1433,WASABI Nback,2020.2.10,59.98616715435745,
0,1,5,"[0, 0]",None,0,1,1,1,,,,,0,0,0,0,0,34,34,34,,,,,,,,,,,None,None,0,423.8304675000254,None,423.8304675000254,424.8304985000286,424.8138317000121,425.8138496999163,0,1,423.8304675000254,None,1,m,30,r,MCK,2022_Jan_05_1433,WASABI Nback,2020.2.10,59.98616715435745,
0,1,4,"[-0.2, 0]",None,0,1,1,1,,,,,0,0,0,0,0,35,35,35,,,,,,,,,,,None,None,0,425.8305039999541,None,425.8305039999541,426.83052249997854,426.8138534000609,427.81385920010507,0,1,425.8305039999541,None,1,m,30,r,MCK,2022_Jan_05_1433,WASABI Nback,2020.2.10,59.98616715435745,
0,1,4,"[-0.2, 0]",None,0,1,1,1,,,,,0,0,0,0,0,36,36,36,,,,,,,,,,,None,None,0,427.8305232001003,None,427.8305232001003,428.83051909995265,428.81387159996666,429.81388200004585,0,1,427.8305232001003,None,1,m,30,r,MCK,2022_Jan_05_1433,WASABI Nback,2020.2.10,59.98616715435745,
0,1,7,"[-0.2, -0.2]",None,0,1,1,1,,,,,0,0,0,0,0,37,37,37,,,,,,,,,,,None,None,0,429.8305460999254,None,429.8305460999254,430.8305404998828,430.813883200055,431.8138747001067,0,1,429.8305460999254,None,1,m,30,r,MCK,2022_Jan_05_1433,WASABI Nback,2020.2.10,59.98616715435745,
0,1,4,"[-0.2, 0]",1,0,1,1,1,,,,,0,0,0,0,0,38,38,38,,,,,,,,,,,None,None,0,431.83055180008523,None,431.83055180008523,432.83056050003506,432.8139104000293,433.813909499906,0,1,431.83055180008523,None,1,m,30,r,MCK,2022_Jan_05_1433,WASABI Nback,2020.2.10,59.98616715435745,
0,1,3,"[0.2, 0.2]",None,0,1,1,1,,,,,0,0,0,0,0,39,39,39,,,,,,,,,,,None,None,0,433.8305514000822,None,433.8305514000822,434.8305758999195,434.8139190999791,435.81392290000804,0,1,433.8305514000822,None,1,m,30,r,MCK,2022_Jan_05_1433,WASABI Nback,2020.2.10,59.98616715435745,
0,1,5,"[0, 0]",None,0,1,1,1,,,,,0,0,0,0,0,40,40,40,,,,,,,,,,,None,None,0,435.8305786999408,None,435.8305786999408,436.8305965999607,436.81392799993046,437.8139382000081,0,1,435.8305786999408,None,1,m,30,r,MCK,2022_Jan_05_1433,WASABI Nback,2020.2.10,59.98616715435745,
0,1,3,"[0.2, 0.2]",1,0,1,1,1,,,,,0,0,0,0,0,41,41,41,,,,,,,,,,,None,None,0,437.83059490006417,None,437.83059490006417,438.8306034000125,438.8139480999671,439.8139506999869,0,1,437.83059490006417,None,1,m,30,r,MCK,2022_Jan_05_1433,WASABI Nback,2020.2.10,59.98616715435745,
0,1,1,"[-0.2, 0.2]",None,0,1,1,1,,,,,0,0,0,0,0,42,42,42,,,,,,,,,,,None,None,0,439.83061100007035,None,439.83061100007035,440.8306171998847,440.8139671999961,441.8139742000494,0,1,439.83061100007035,None,1,m,30,r,MCK,2022_Jan_05_1433,WASABI Nback,2020.2.10,59.98616715435745,
0,1,9,"[0.2, -0.2]",None,0,1,1,1,,,,,0,0,0,0,0,43,43,43,,,,,,,,,,,None,None,0,441.83064049994573,None,441.83064049994573,442.83065010001883,442.8139774000738,443.81398080009967,0,1,441.83064049994573,None,1,m,30,r,MCK,2022_Jan_05_1433,WASABI Nback,2020.2.10,59.98616715435745,
0,1,9,"[0.2, -0.2]",None,0,1,1,1,,,,,0,0,0,0,0,44,44,44,,,,,,,,,,,None,None,0,443.8306589999702,None,443.8306589999702,444.83067409996875,444.81400360004045,445.814004200045,0,1,443.8306589999702,None,1,m,30,r,MCK,2022_Jan_05_1433,WASABI Nback,2020.2.10,59.98616715435745,
0,1,8,"[0, -0.2]",None,0,1,1,1,,,,,0,0,0,0,0,45,45,45,,,,,,,,,,,None,None,0,445.830660100095,None,445.830660100095,446.83068130002357,446.8140171999112,447.81401730002835,0,1,445.830660100095,None,1,m,30,r,MCK,2022_Jan_05_1433,WASABI Nback,2020.2.10,59.98616715435745,
0,1,6,"[0.2, 0]",None,0,1,1,1,,,,,0,0,0,0,0,46,46,46,,,,,,,,,,,None,None,0,447.83066789992154,None,447.83066789992154,448.83068779995665,448.8140284998808,449.8140416999813,0,1,447.83066789992154,None,1,m,30,r,MCK,2022_Jan_05_1433,WASABI Nback,2020.2.10,59.98616715435745,
0,1,3,"[0.2, 0.2]",None,0,1,1,1,,,,,0,0,0,0,0,47,47,47,,,,,,,,,,,None,None,0,449.83070129994303,None,449.83070129994303,450.8307052999735,450.81404730002396,451.8140557000879,0,1,449.83070129994303,None,1,m,30,r,MCK,2022_Jan_05_1433,WASABI Nback,2020.2.10,59.98616715435745,
0,1,6,"[0.2, 0]",1,0,1,1,1,,,,,0,0,0,0,0,48,48,48,,,,,,,,,,,None,None,0,451.83070229995064,None,451.83070229995064,452.8307233999949,452.814057599986,453.81407060008496,0,1,451.83070229995064,None,1,m,30,r,MCK,2022_Jan_05_1433,WASABI Nback,2020.2.10,59.98616715435745,
0,1,5,"[0, 0]",None,0,1,1,1,,,,,0,0,0,0,0,49,49,49,,,,,,,,,,,None,None,0,453.8307356000878,None,453.8307356000878,454.83072399999946,454.81407189997844,455.81408690009266,0,1,453.8307356000878,None,1,m,30,r,MCK,2022_Jan_05_1433,WASABI Nback,2020.2.10,59.98616715435745,
0,1,7,"[-0.2, -0.2]",None,0,1,1,1,,,,,0,0,0,0,0,50,50,50,,,,,,,,,,,None,None,0,455.8307491000742,None,455.8307491000742,456.8307427999098,456.81409669993445,457.81412569992244,0,1,455.8307491000742,None,1,m,30,r,MCK,2022_Jan_05_1433,WASABI Nback,2020.2.10,59.98616715435745,
0,1,5,"[0, 0]",1,0,1,1,1,,,,,0,0,0,0,0,51,51,51,,,,,,,,,,,None,None,0,457.83076669997536,None,457.83076669997536,458.83077170001343,458.81410699989647,459.8141183000989,0,1,457.83076669997536,None,1,m,30,r,MCK,2022_Jan_05_1433,WASABI Nback,2020.2.10,59.98616715435745,
0,1,1,"[-0.2, 0.2]",None,0,1,1,1,,,,,0,0,0,0,0,52,52,52,,,,,,,,,,,None,None,0,459.8307719998993,None,459.8307719998993,460.8307848998811,460.81413939991035,461.8141282000579,0,1,459.8307719998993,None,1,m,30,r,MCK,2022_Jan_05_1433,WASABI Nback,2020.2.10,59.98616715435745,
0,1,7,"[-0.2, -0.2]",None,0,1,1,1,,,,,0,0,0,0,0,53,53,53,,,,,,,,,,,None,None,0,461.83079940010794,None,461.83079940010794,462.83080450003035,462.8141465000808,463.8141497001052,0,1,461.83079940010794,None,1,m,30,r,MCK,2022_Jan_05_1433,WASABI Nback,2020.2.10,59.98616715435745,
0,1,9,"[0.2, -0.2]",None,0,1,1,1,,,,,0,0,0,0,0,54,54,54,,,,,,,,,,,None,None,0,463.8308210000396,None,463.8308210000396,464.8308252999559,464.8141576999333,465.8141652001068,0,1,463.8308210000396,None,1,m,30,r,MCK,2022_Jan_05_1433,WASABI Nback,2020.2.10,59.98616715435745,
0,1,3,"[0.2, 0.2]",None,0,1,1,1,,,,,0,0,0,0,0,55,55,55,,,,,,,,,,,None,None,0,465.8308212000411,None,465.8308212000411,466.83084789989516,466.81418010010384,467.81418880005367,0,1,465.8308212000411,None,1,m,30,r,MCK,2022_Jan_05_1433,WASABI Nback,2020.2.10,59.98616715435745,
0,1,9,"[0.2, -0.2]",1,0,1,1,1,,,,,0,0,0,0,0,56,56,56,,,,,,,,,,,None,None,0,467.83084459998645,None,467.83084459998645,468.8308564000763,468.81419810000807,469.8141997999046,0,1,467.83084459998645,None,1,m,30,r,MCK,2022_Jan_05_1433,WASABI Nback,2020.2.10,59.98616715435745,
0,1,6,"[0.2, 0]",None,0,1,1,1,,,,,0,0,0,0,0,57,57,57,,,,,,,,,,,None,None,0,469.83087390009314,None,469.83087390009314,470.83088340004906,470.8142015999183,471.8142063000705,0,1,469.83087390009314,None,1,m,30,r,MCK,2022_Jan_05_1433,WASABI Nback,2020.2.10,59.98616715435745,
0,1,2,"[0, 0.2]",None,0,1,1,1,,,,,0,0,0,0,0,58,58,58,,,,,,,,,,,None,None,0,471.83088129991665,None,471.83088129991665,472.8308963999152,472.8142208000645,473.8142395000905,0,1,471.83088129991665,None,1,m,30,r,MCK,2022_Jan_05_1433,WASABI Nback,2020.2.10,59.98616715435745,
0,1,5,"[0, 0]",None,0,1,1,1,,,,,0,0,0,0,0,59,59,59,,,,,,,,,,,None,None,0,473.83089330000803,None,473.83089330000803,474.8309229000006,474.81424600002356,475.8142637000419,0,1,473.83089330000803,None,1,m,30,r,MCK,2022_Jan_05_1433,WASABI Nback,2020.2.10,59.98616715435745,
0,1,5,"[0, 0]",None,0,1,1,1,,,,,0,0,0,0,0,60,60,60,,,,,,,,,,,None,None,0,475.8309239000082,None,475.8309239000082,476.830921899993,476.81425429997034,477.81427389988676,0,1,475.8309239000082,None,1,m,30,r,MCK,2022_Jan_05_1433,WASABI Nback,2020.2.10,59.98616715435745,
0,1,2,"[0, 0.2]",None,0,1,1,1,,,,,0,0,0,0,0,61,61,61,,,,,,,,,,,None,None,0,477.83094860007986,None,477.83094860007986,478.8307509999722,478.814283200074,479.8142925000284,0,0,477.83094860007986,None,1,m,30,r,MCK,2022_Jan_05_1433,WASABI Nback,2020.2.10,59.98616715435745,
0,1,6,"[0.2, 0]",None,0,1,1,1,,,,,0,0,0,0,0,62,62,62,,,,,,,,,,,None,None,0,479.830923399888,None,479.830923399888,480.8309708000161,480.81428950000554,481.8143358998932,0,1,479.830923399888,None,1,m,30,r,MCK,2022_Jan_05_1433,WASABI Nback,2020.2.10,59.98616715435745,
0,1,9,"[0.2, -0.2]",None,0,1,1,1,,,,,0,0,0,0,0,63,63,63,,,,,,,,,,,None,None,0,481.83096779999323,None,481.83096779999323,482.8309766999446,482.81432079989463,483.8143219000194,0,1,481.83096779999323,None,1,m,30,r,MCK,2022_Jan_05_1433,WASABI Nback,2020.2.10,59.98616715435745,
0,1,3,"[0.2, 0.2]",None,0,1,1,1,,,,,0,0,0,0,0,64,64,64,,,,,,,,,,,None,None,0,483.83099439996295,None,483.83099439996295,484.83100060001016,484.81432810006663,485.8143432000652,0,1,483.83099439996295,None,1,m,30,r,MCK,2022_Jan_05_1433,WASABI Nback,2020.2.10,59.98616715435745,
0,1,9,"[0.2, -0.2]",1,0,1,1,1,,,,,0,0,0,0,0,65,65,65,,,,,,,,,,,None,None,0,485.83100500004366,None,485.83100500004366,486.8310364000499,486.814374800073,487.81434329994954,0,1,485.83100500004366,None,1,m,30,r,MCK,2022_Jan_05_1433,WASABI Nback,2020.2.10,59.98616715435745,
0,1,7,"[-0.2, -0.2]",None,0,1,1,1,,,,,0,0,0,0,0,66,66,66,,,,,,,,,,,None,None,0,487.83101280010305,None,487.83101280010305,488.8310203999281,488.8143696000334,489.8143696000334,0,1,487.83101280010305,None,1,m,30,r,MCK,2022_Jan_05_1433,WASABI Nback,2020.2.10,59.98616715435745,
0,1,1,"[-0.2, 0.2]",None,0,1,1,1,,,,,0,0,0,0,0,67,67,67,,,,,,,,,,,None,None,0,489.8310304998886,None,489.8310304998886,490.83104739990085,490.8143923000898,491.8143941001035,0,1,489.8310304998886,None,1,m,30,r,MCK,2022_Jan_05_1433,WASABI Nback,2020.2.10,59.98616715435745,
0,1,5,"[0, 0]",None,0,1,1,1,,,,,0,0,0,0,0,68,68,68,,,,,,,,,,,None,None,0,491.83104429999366,None,491.83104429999366,492.8310726999771,492.8143970000092,493.8144072999712,0,1,491.83104429999366,None,1,m,30,r,MCK,2022_Jan_05_1433,WASABI Nback,2020.2.10,59.98616715435745,
0,1,7,"[-0.2, -0.2]",None,0,1,1,1,,,,,0,0,0,0,0,69,69,69,,,,,,,,,,,None,None,0,493.8310690000653,None,493.8310690000653,494.8309653000906,494.81439629988745,495.8144082999788,0,1,493.8310690000653,None,1,m,30,r,MCK,2022_Jan_05_1433,WASABI Nback,2020.2.10,59.98616715435745,
0,1,5,"[0, 0]",1,0,1,1,1,,,,,0,0,0,0,0,70,70,70,,,,,,,,,,,None,None,0,495.83108130004257,None,495.83108130004257,496.83108679996803,496.8144253999926,497.8144382999744,0,0,495.83108130004257,None,1,m,30,r,MCK,2022_Jan_05_1433,WASABI Nback,2020.2.10,59.98616715435745,
0,1,6,"[0.2, 0]",None,0,1,1,1,,,,,0,0,0,0,0,71,71,71,,,,,,,,,,,None,None,0,497.8311103999149,None,497.8311103999149,498.83111519995145,498.8144479000475,499.81446569995023,0,1,497.8311103999149,None,1,m,30,r,MCK,2022_Jan_05_1433,WASABI Nback,2020.2.10,59.98616715435745,
0,1,3,"[0.2, 0.2]",None,0,1,1,1,,,,,0,0,0,0,0,72,72,72,,,,,,,,,,,None,None,0,499.83111779997125,None,499.83111779997125,500.8311306000687,500.8144682000857,501.8144733000081,0,1,499.83111779997125,None,1,m,30,r,MCK,2022_Jan_05_1433,WASABI Nback,2020.2.10,59.98616715435745,
0,1,6,"[0.2, 0]",1,0,1,1,1,,,,,0,0,0,0,0,73,73,73,,,,,,,,,,,None,None,0,501.8311268000398,None,501.8311268000398,502.831139100017,502.8144859999884,503.8144749000203,0,1,501.8311268000398,None,1,m,30,r,MCK,2022_Jan_05_1433,WASABI Nback,2020.2.10,59.98616715435745,
0,1,8,"[0, -0.2]",None,0,1,1,1,,,,,0,0,0,0,0,74,74,74,,,,,,,,,,,None,None,0,503.83115189988166,None,503.83115189988166,504.83115820004605,504.81449409993365,505.814505700022,0,1,503.83115189988166,None,1,m,30,r,MCK,2022_Jan_05_1433,WASABI Nback,2020.2.10,59.98616715435745,
0,1,9,"[0.2, -0.2]",None,0,1,1,1,,,,,0,0,0,0,0,75,75,75,,,,,,,,,,,None,None,0,505.8311622000765,None,505.8311622000765,506.8311822998803,506.8145133999642,507.81452649994753,0,1,505.8311622000765,None,1,m,30,r,MCK,2022_Jan_05_1433,WASABI Nback,2020.2.10,59.98616715435745,
0,1,9,"[0.2, -0.2]",None,0,1,1,1,,,,,0,0,0,0,0,76,76,76,,,,,,,,,,,None,None,0,507.8311693998985,None,507.8311693998985,508.83118150010705,508.8145349000115,509.814415599918,0,1,507.8311693998985,None,1,m,30,r,MCK,2022_Jan_05_1433,WASABI Nback,2020.2.10,59.98616715435745,
0,1,1,"[-0.2, 0.2]",None,0,1,1,1,,,,,0,0,0,0,0,77,77,77,,,,,,,,,,,None,None,0,509.8311958000995,None,509.8311958000995,510.831115399953,510.8145484998822,511.8145717999432,0,1,509.8311958000995,None,1,m,30,r,MCK,2022_Jan_05_1433,WASABI Nback,2020.2.10,59.98616715435745,
0,1,3,"[0.2, 0.2]",None,0,1,1,1,,,,,0,0,0,0,0,78,78,78,,,,,,,,,,,None,None,0,511.8312107999809,None,511.8312107999809,512.831209700089,512.8145701000467,513.8145741999615,0,1,511.8312107999809,None,1,m,30,r,MCK,2022_Jan_05_1433,WASABI Nback,2020.2.10,59.98616715435745,
0,1,5,"[0, 0]",None,0,1,1,1,,,,,0,0,0,0,0,79,79,79,,,,,,,,,,,None,None,0,513.8312274001073,None,513.8312274001073,514.8312291000038,514.8145860999357,515.8145775999874,0,1,513.8312274001073,None,1,m,30,r,MCK,2022_Jan_05_1433,WASABI Nback,2020.2.10,59.98616715435745,
0,1,3,"[0.2, 0.2]",1,0,1,1,1,,,,,0,0,0,0,0,80,80,80,,,,,,,,,,,None,None,0,515.8312468999065,None,515.8312468999065,516.8312442998867,516.8145997999236,517.8146208000835,0,1,515.8312468999065,None,1,m,30,r,MCK,2022_Jan_05_1433,WASABI Nback,2020.2.10,59.98616715435745,
0,1,4,"[-0.2, 0]",None,0,1,1,1,,,,,0,0,0,0,0,81,81,81,,,,,,,,,,,None,None,0,517.8312705000862,None,517.8312705000862,518.8312744998839,518.8146085001063,519.8146381000988,0,1,517.8312705000862,None,1,m,30,r,MCK,2022_Jan_05_1433,WASABI Nback,2020.2.10,59.98616715435745,
0,1,7,"[-0.2, -0.2]",None,0,1,1,1,,,,,0,0,0,0,0,82,82,82,,,,,,,,,,,None,None,0,519.8312756000087,None,519.8312756000087,520.8312999000773,520.8146343000699,521.8146329000592,0,1,519.8312756000087,None,1,m,30,r,MCK,2022_Jan_05_1433,WASABI Nback,2020.2.10,59.98616715435745,
0,1,4,"[-0.2, 0]",1,0,1,1,1,,,,,0,0,0,0,0,83,83,83,,,,,,,,,,,None,None,0,521.8313033999875,None,521.8313033999875,522.8312395999674,522.8146522000898,523.8146665000822,0,1,521.8313033999875,None,1,m,30,r,MCK,2022_Jan_05_1433,WASABI Nback,2020.2.10,59.98616715435745,
0,1,4,"[-0.2, 0]",None,0,1,1,1,,,,,0,0,0,0,0,84,84,84,,,,,,,,,,,None,None,0,523.8313239000272,None,523.8313239000272,524.8313297999557,524.8146724998951,525.8146768000443,0,1,523.8313239000272,None,1,m,30,r,MCK,2022_Jan_05_1433,WASABI Nback,2020.2.10,59.98616715435745,
0,1,5,"[0, 0]",None,0,1,1,1,,,,,0,0,0,0,0,85,85,85,,,,,,,,,,,None,None,0,525.8313335999846,None,525.8313335999846,526.8312486999203,526.8146742000245,527.8146786999423,0,1,525.8313335999846,None,1,m,30,r,MCK,2022_Jan_05_1433,WASABI Nback,2020.2.10,59.98616715435745,
0,1,2,"[0, 0.2]",None,0,1,1,1,,,,,0,0,0,0,0,86,86,86,,,,,,,,,,,None,None,0,527.8313496001065,None,527.8313496001065,528.8313593000639,528.8147016000003,529.8147056999151,0,1,527.8313496001065,None,1,m,30,r,MCK,2022_Jan_05_1433,WASABI Nback,2020.2.10,59.98616715435745,
0,1,6,"[0.2, 0]",None,0,1,1,1,,,,,0,0,0,0,0,87,87,87,,,,,,,,,,,None,None,0,529.8313525998965,None,529.8313525998965,530.8313768999651,530.8147175998893,531.8147221999243,0,1,529.8313525998965,None,1,m,30,r,MCK,2022_Jan_05_1433,WASABI Nback,2020.2.10,59.98616715435745,
0,1,7,"[-0.2, -0.2]",None,0,1,1,1,,,,,0,0,0,0,0,88,88,88,,,,,,,,,,,None,None,0,531.831385999918,None,531.831385999918,532.8313815000001,532.8147235000506,533.8147356999107,0,1,531.831385999918,None,1,m,30,r,MCK,2022_Jan_05_1433,WASABI Nback,2020.2.10,59.98616715435745,
0,1,6,"[0.2, 0]",1,0,1,1,1,,,,,0,0,0,0,0,89,89,89,,,,,,,,,,,None,None,0,533.8313919999637,None,533.8313919999637,534.8314024999272,534.8147440999746,535.8147479000036,0,1,533.8313919999637,None,1,m,30,r,MCK,2022_Jan_05_1433,WASABI Nback,2020.2.10,59.98616715435745,
0,1,6,"[0.2, 0]",None,0,1,1,1,,,,,0,0,0,0,0,90,90,90,,,,,,,,,,,None,None,0,535.831494800048,None,535.831494800048,536.8314147999045,536.8147652999032,537.8147623999976,0,1,535.831494800048,None,1,m,30,r,MCK,2022_Jan_05_1433,WASABI Nback,2020.2.10,59.98616715435745,
0,1,7,"[-0.2, -0.2]",None,0,1,1,1,,,,,0,0,0,0,0,91,91,91,,,,,,,,,,,None,None,0,537.8314308000263,None,537.8314308000263,538.8314477999229,538.8147940998897,539.814776299987,0,1,537.8314308000263,None,1,m,30,r,MCK,2022_Jan_05_1433,WASABI Nback,2020.2.10,59.98616715435745,
0,1,6,"[0.2, 0]",1,0,1,1,1,,,,,0,0,0,0,0,92,92,92,,,,,,,,,,,None,None,0,539.8314453000203,None,539.8314453000203,540.8314735000022,540.8148012000602,541.8148070001043,0,1,539.8314453000203,None,1,m,30,r,MCK,2022_Jan_05_1433,WASABI Nback,2020.2.10,59.98616715435745,
0,1,2,"[0, 0.2]",None,0,1,1,1,,,,,0,0,0,0,0,93,93,93,,,,,,,,,,,None,None,0,541.8314692999702,None,541.8314692999702,542.8315685999114,542.8148165999446,543.8148064000998,0,1,541.8314692999702,None,1,m,30,r,MCK,2022_Jan_05_1433,WASABI Nback,2020.2.10,59.98616715435745,
0,1,5,"[0, 0]",None,0,1,1,1,,,,,0,0,0,0,0,94,94,94,,,,,,,,,,,None,None,0,543.8314902000129,None,543.8314902000129,544.8314676000737,544.8148334000725,545.8148421000224,0,1,543.8314902000129,None,1,m,30,r,MCK,2022_Jan_05_1433,WASABI Nback,2020.2.10,59.98616715435745,
0,1,4,"[-0.2, 0]",None,0,1,1,1,,,,,0,0,0,0,0,95,95,95,,,,,,,,,,,None,None,0,545.8314990000799,None,545.8314990000799,546.8315262000542,546.8148789000697,547.8148435999174,0,1,545.8314990000799,None,1,m,30,r,MCK,2022_Jan_05_1433,WASABI Nback,2020.2.10,59.98616715435745,
0,1,4,"[-0.2, 0]",None,0,1,1,1,,,,,0,0,0,0,0,96,96,96,,,,,,,,,,,None,None,0,547.8315161000937,None,547.8315161000937,548.8315320999827,548.8148533001076,549.8148598999251,0,1,547.8315161000937,None,1,m,30,r,MCK,2022_Jan_05_1433,WASABI Nback,2020.2.10,59.98616715435745,
0,1,7,"[-0.2, -0.2]",None,0,1,1,1,,,,,0,0,0,0,0,97,97,97,,,,,,,,,,,None,None,0,549.8315296000801,None,549.8315296000801,550.8315389999188,550.814869799884,551.8148904999252,0,1,549.8315296000801,None,1,m,30,r,MCK,2022_Jan_05_1433,WASABI Nback,2020.2.10,59.98616715435745,
0,1,4,"[-0.2, 0]",1,0,1,1,1,,,,,0,0,0,0,0,98,98,98,,,,,,,,,,,None,None,0,551.8315554999281,None,551.8315554999281,552.8315715000499,552.8148984001018,553.8148942999542,0,1,551.8315554999281,None,1,m,30,r,MCK,2022_Jan_05_1433,WASABI Nback,2020.2.10,59.98616715435745,
0,1,3,"[0.2, 0.2]",None,0,1,1,1,,,,,0,0,0,0,0,99,99,99,,,,,,,,,,,None,None,0,553.8315763000865,None,553.8315763000865,554.8315765999723,554.8149160998873,555.8149103999604,0,1,553.8315763000865,None,1,m,30,r,MCK,2022_Jan_05_1433,WASABI Nback,2020.2.10,59.98616715435745,
0,1,5,"[0, 0]",None,0,1,1,1,,,,,0,0,0,0,0,100,100,100,,,,,,,,,,,None,None,0,555.8315826999024,None,555.8315826999024,556.8315888000652,556.8149260000791,557.8149383999407,0,1,555.8315826999024,None,1,m,30,r,MCK,2022_Jan_05_1433,WASABI Nback,2020.2.10,59.98616715435745,
0,1,3,"[0.2, 0.2]",1,0,1,1,1,,,,,0,0,0,0,0,101,101,101,,,,,,,,,,,None,None,0,557.831605900079,None,557.831605900079,558.831607399974,558.8149387999438,559.8149574999698,0,1,557.831605900079,None,1,m,30,r,MCK,2022_Jan_05_1433,WASABI Nback,2020.2.10,59.98616715435745,
0,1,1,"[-0.2, 0.2]",None,0,1,1,1,,,,,0,0,0,0,0,102,102,102,,,,,,,,,,,None,None,0,559.8316277000122,None,559.8316277000122,560.8316442999057,560.8149488000199,561.8149798999075,0,1,559.8316277000122,None,1,m,30,r,MCK,2022_Jan_05_1433,WASABI Nback,2020.2.10,59.98616715435745,
0,1,9,"[0.2, -0.2]",None,0,1,1,1,,,,,0,0,0,0,0,103,103,103,,,,,,,,,,,None,None,0,561.8316486999393,None,561.8316486999393,562.8316550001036,562.8149997999426,563.8149955000263,0,1,561.8316486999393,None,1,m,30,r,MCK,2022_Jan_05_1433,WASABI Nback,2020.2.10,59.98616715435745,
0,1,9,"[0.2, -0.2]",None,0,1,1,1,,,,,0,0,0,0,0,104,104,104,,,,,,,,,,,None,None,0,563.8316504000686,None,563.8316504000686,564.8316532000899,564.8150037000887,565.8150041000918,0,1,563.8316504000686,None,1,m,30,r,MCK,2022_Jan_05_1433,WASABI Nback,2020.2.10,59.98616715435745,
0,1,8,"[0, -0.2]",None,0,1,1,1,,,,,0,0,0,0,0,105,105,105,,,,,,,,,,,None,None,0,565.8316780000459,None,565.8316780000459,566.8316762000322,566.8150150000583,567.8150295999367,0,1,565.8316780000459,None,1,m,30,r,MCK,2022_Jan_05_1433,WASABI Nback,2020.2.10,59.98616715435745,
0,1,6,"[0.2, 0]",None,0,1,1,1,,,,,0,0,0,0,0,106,106,106,,,,,,,,,,,None,None,0,567.8317013999913,None,567.8317013999913,568.8316893998999,568.815038499888,569.8150404000189,0,1,567.8317013999913,None,1,m,30,r,MCK,2022_Jan_05_1433,WASABI Nback,2020.2.10,59.98616715435745,
0,1,3,"[0.2, 0.2]",None,0,1,1,1,,,,,0,0,0,0,0,107,107,107,,,,,,,,,,,None,None,0,569.8317068000324,None,569.8317068000324,570.8317118000705,570.8150521998759,571.8150627999566,0,1,569.8317068000324,None,1,m,30,r,MCK,2022_Jan_05_1433,WASABI Nback,2020.2.10,59.98616715435745,
0,1,6,"[0.2, 0]",1,0,1,1,1,,,,,0,0,0,0,0,108,108,108,,,,,,,,,,,None,None,0,571.8317285000812,None,571.8317285000812,572.8317247999366,572.8150343000889,573.8151440999936,0,0,571.8317285000812,None,1,m,30,r,MCK,2022_Jan_05_1433,WASABI Nback,2020.2.10,59.98616715435745,
0,1,5,"[0, 0]",None,0,1,1,1,,,,,0,0,0,0,0,109,109,109,,,,,,,,,,,None,None,0,573.8317315999884,None,573.8317315999884,574.8317454000935,574.8150768000633,575.8150804000907,0,1,573.8317315999884,None,1,m,30,r,MCK,2022_Jan_05_1433,WASABI Nback,2020.2.10,59.98616715435745,
0,1,7,"[-0.2, -0.2]",None,0,1,1,1,,,,,0,0,0,0,0,110,110,110,,,,,,,,,,,None,None,0,575.831748199882,None,575.831748199882,576.8317527000327,576.815105299931,577.8151153000072,0,1,575.831748199882,None,1,m,30,r,MCK,2022_Jan_05_1433,WASABI Nback,2020.2.10,59.98616715435745,
0,1,5,"[0, 0]",1,0,1,1,1,,,,,0,0,0,0,0,111,111,111,,,,,,,,,,,None,None,0,577.8317545999307,None,577.8317545999307,578.8317720000632,578.8151038999204,579.8151277999859,0,1,577.8317545999307,None,1,m,30,r,MCK,2022_Jan_05_1433,WASABI Nback,2020.2.10,59.98616715435745,
0,1,1,"[-0.2, 0.2]",None,0,1,1,1,,,,,0,0,0,0,0,112,112,112,,,,,,,,,,,None,None,0,579.8317857999355,None,579.8317857999355,580.8317831000313,580.8151312000118,581.8151463998947,0,1,579.8317857999355,None,1,m,30,r,MCK,2022_Jan_05_1433,WASABI Nback,2020.2.10,59.98616715435745,
0,1,7,"[-0.2, -0.2]",None,0,1,1,1,,,,,0,0,0,0,0,113,113,113,,,,,,,,,,,None,None,0,581.8317883999553,None,581.8317883999553,582.8318068000954,582.8151459000073,583.8151583001018,0,1,581.8317883999553,None,1,m,30,r,MCK,2022_Jan_05_1433,WASABI Nback,2020.2.10,59.98616715435745,
0,1,9,"[0.2, -0.2]",None,0,1,1,1,,,,,0,0,0,0,0,114,114,114,,,,,,,,,,,None,None,0,583.8318217000924,None,583.8318217000924,584.8318109000102,584.8151696000714,585.8151740001049,0,1,583.8318217000924,None,1,m,30,r,MCK,2022_Jan_05_1433,WASABI Nback,2020.2.10,59.98616715435745,
0,1,3,"[0.2, 0.2]",None,0,1,1,1,,,,,0,0,0,0,0,115,115,115,,,,,,,,,,,None,None,0,585.8318221000955,None,585.8318221000955,586.83185279998,586.8151775000151,587.8151994999498,0,1,585.8318221000955,None,1,m,30,r,MCK,2022_Jan_05_1433,WASABI Nback,2020.2.10,59.98616715435745,
0,1,9,"[0.2, -0.2]",1,0,1,1,1,,,,,0,0,0,0,0,116,116,116,,,,,,,,,,,None,None,0,587.8318570998963,None,587.8318570998963,588.8318636999466,588.8152050999925,589.815218700096,0,1,587.8318570998963,None,1,m,30,r,MCK,2022_Jan_05_1433,WASABI Nback,2020.2.10,59.98616715435745,
0,1,6,"[0.2, 0]",None,0,1,1,1,,,,,0,0,0,0,0,117,117,117,,,,,,,,,,,None,None,0,589.8318616999313,None,589.8318616999313,590.8318781999405,590.8152173999697,591.8152230998967,0,1,589.8318616999313,None,1,m,30,r,MCK,2022_Jan_05_1433,WASABI Nback,2020.2.10,59.98616715435745,
0,1,2,"[0, 0.2]",None,0,1,1,1,,,,,0,0,0,0,0,118,118,118,,,,,,,,,,,None,None,0,591.8319206000306,None,591.8319206000306,592.8318797999527,592.8152578000445,593.8152433999348,0,1,591.8319206000306,None,1,m,30,r,MCK,2022_Jan_05_1433,WASABI Nback,2020.2.10,59.98616715435745,
0,1,5,"[0, 0]",None,0,1,1,1,,,,,0,0,0,0,0,119,119,119,,,,,,,,,,,None,None,0,593.8318896000274,None,593.8318896000274,594.8319061999209,594.8152600999456,595.8152928000782,0,1,593.8318896000274,None,1,m,30,r,MCK,2022_Jan_05_1433,WASABI Nback,2020.2.10,59.98616715435745,
