square,location,corrAns,runSeq,TaskT1Loop.thisRepN,TaskT1Loop.thisTrialN,TaskT1Loop.thisN,TaskT1Loop.thisIndex,trials.thisRepN,trials.thisTrialN,trials.thisN,trials.thisIndex,trials_2.thisRepN,trials_2.thisTrialN,trials_2.thisN,trials_2.thisIndex,runLoop.thisRepN,runLoop.thisTrialN,runLoop.thisN,runLoop.thisIndex,fixation_1.started,fixation_1.stopped,grid_lines.started,grid_lines.stopped,target_square.started,target_square.stopped,fixation_2.started,fixation_2.stopped,response.corr,response.x,response.y,response.leftButton,response.click_left,response.click_right,response.started,response.stopped,ScoreReportText.started,ScoreReportText.stopped,ScoreReportResponse.keys,ScoreReportResponse.started,ScoreReportResponse.stopped,response_2.x,response_2.y,response_2.leftButton,grid_lines_2.started,grid_lines_2.stopped,target_square_2.started,target_square_2.stopped,fixation_3.started,fixation_3.stopped,response_2.click,response_2.corr,response_2.started,response_2.stopped,BodySiteInstructionText.started,BodySiteImg.started,BodySiteImg.stopped,BodySiteInstructionRead.keys,BodySiteInstructionRead.rt,BodySiteInstructionRead.started,BodySiteInstructionRead.stopped,response.click,IntensityRating.response,IntensityRating.rt,IntensityRating.started,IntensityRating.stopped,subject number,gender,session,handedness,scanner,date,expName,psychopyVersion,frameRate,body_site_order,
6,"[0.2, 0]",None,,0,0,0,0,0,0,0,0,,,,,,,,,114.04707880038768,None,115.06293050013483,None,115.06293050013483,116.06375099997967,116.06375099997967,None,1,0.17314814814814813,-0.07777777777777778,"[0, 0, 0]",0,0,115.06293050013483,None,,,,,,,,,,,,,,,,,,,,,,,,,,,,,,,99,M,1,r,CIB,2021_Aug_10_1547,WASABI distractmap,2020.2.10,60.002292091040594,"['Right Arm', 'Left Leg', 'Right Face', 'Left Arm', 'Left Arm', 'Right Leg', 'Chest', 'Abdomen', 'Chest', 'Right Leg', 'Right Arm', 'Left Face', 'Abdomen', 'Left Face', 'Left Leg', 'Right Face']",
6,"[0.2, 0]",1,,0,0,0,0,0,1,1,1,,,,,,,,,,,117.06377240037546,None,117.06377240037546,118.06381330033764,118.04711570031941,119.04710510000587,0,0.17314814814814813,-0.07777777777777778,"[0, 0, 0]",0,0,117.06377240037546,None,,,,,,,,,,,,,,,,,,,,,,,,,,,,,,,99,M,1,r,CIB,2021_Aug_10_1547,WASABI distractmap,2020.2.10,60.002292091040594,"['Right Arm', 'Left Leg', 'Right Face', 'Left Arm', 'Left Arm', 'Right Leg', 'Chest', 'Abdomen', 'Chest', 'Right Leg', 'Right Arm', 'Left Face', 'Abdomen', 'Left Face', 'Left Leg', 'Right Face']",
2,"[0, 0.2]",0,,0,0,0,0,0,2,2,2,,,,,,,,,,,119.06377530004829,None,119.06377530004829,120.0636736000888,120.04712310014293,121.04711190005764,0,0.17314814814814813,-0.07777777777777778,"[0, 0, 0]",0,0,119.06377530004829,None,,,,,,,,,,,,,,,,,,,,,,,,,,,,,,,99,M,1,r,CIB,2021_Aug_10_1547,WASABI distractmap,2020.2.10,60.002292091040594,"['Right Arm', 'Left Leg', 'Right Face', 'Left Arm', 'Left Arm', 'Right Leg', 'Chest', 'Abdomen', 'Chest', 'Right Leg', 'Right Arm', 'Left Face', 'Abdomen', 'Left Face', 'Left Leg', 'Right Face']",
9,"[0.2, -0.2]",0,,0,0,0,0,0,3,3,3,,,,,,,,,,,121.06378810014576,None,121.06378810014576,122.0638121003285,122.04713100008667,123.04714220017195,0,0.17314814814814813,-0.07777777777777778,"[0, 0, 0]",0,0,121.06378810014576,None,,,,,,,,,,,,,,,,,,,,,,,,,,,,,,,99,M,1,r,CIB,2021_Aug_10_1547,WASABI distractmap,2020.2.10,60.002292091040594,"['Right Arm', 'Left Leg', 'Right Face', 'Left Arm', 'Left Arm', 'Right Leg', 'Chest', 'Abdomen', 'Chest', 'Right Leg', 'Right Arm', 'Left Face', 'Abdomen', 'Left Face', 'Left Leg', 'Right Face']",
9,"[0.2, -0.2]",1,,0,0,0,0,0,4,4,4,,,,,,,,,,,123.06382540008053,None,123.06382540008053,124.06381219998002,124.04714970011264,125.04714820021763,0,0.17314814814814813,-0.07777777777777778,"[0, 0, 0]",0,0,123.06382540008053,None,,,,,,,,,,,,,,,,,,,,,,,,,,,,,,,99,M,1,r,CIB,2021_Aug_10_1547,WASABI distractmap,2020.2.10,60.002292091040594,"['Right Arm', 'Left Leg', 'Right Face', 'Left Arm', 'Left Arm', 'Right Leg', 'Chest', 'Abdomen', 'Chest', 'Right Leg', 'Right Arm', 'Left Face', 'Abdomen', 'Left Face', 'Left Leg', 'Right Face']",
6,"[0.2, 0]",0,,0,0,0,0,0,5,5,5,,,,,,,,,,,125.06382290041074,None,125.06382290041074,126.06383730005473,126.04716810025275,127.0471671000123,0,0.17314814814814813,-0.07777777777777778,"[0, 0, 0]",0,0,125.06382290041074,None,,,,,,,,,,,,,,,,,,,,,,,,,,,,,,,99,M,1,r,CIB,2021_Aug_10_1547,WASABI distractmap,2020.2.10,60.002292091040594,"['Right Arm', 'Left Leg', 'Right Face', 'Left Arm', 'Left Arm', 'Right Leg', 'Chest', 'Abdomen', 'Chest', 'Right Leg', 'Right Arm', 'Left Face', 'Abdomen', 'Left Face', 'Left Leg', 'Right Face']",
4,"[-0.2, 0]",0,,0,0,0,0,0,6,6,6,,,,,,,,,,,127.0638307002373,None,127.0638307002373,128.06384300021455,128.0471708001569,129.04719470022246,0,0.17314814814814813,-0.07777777777777778,"[0, 0, 0]",0,0,127.0638307002373,None,,,,,,,,,,,,,,,,,,,,,,,,,,,,,,,99,M,1,r,CIB,2021_Aug_10_1547,WASABI distractmap,2020.2.10,60.002292091040594,"['Right Arm', 'Left Leg', 'Right Face', 'Left Arm', 'Left Arm', 'Right Leg', 'Chest', 'Abdomen', 'Chest', 'Right Leg', 'Right Arm', 'Left Face', 'Abdomen', 'Left Face', 'Left Leg', 'Right Face']",
3,"[0.2, 0.2]",0,,0,0,0,0,0,7,7,7,,,,,,,,,,,129.0638576000929,None,129.0638576000929,130.06386240012944,130.0471863001585,131.04718900006264,0,0.17314814814814813,-0.07777777777777778,"[0, 0, 0]",0,0,129.0638576000929,None,,,,,,,,,,,,,,,,,,,,,,,,,,,,,,,99,M,1,r,CIB,2021_Aug_10_1547,WASABI distractmap,2020.2.10,60.002292091040594,"['Right Arm', 'Left Leg', 'Right Face', 'Left Arm', 'Left Arm', 'Right Leg', 'Chest', 'Abdomen', 'Chest', 'Right Leg', 'Right Arm', 'Left Face', 'Abdomen', 'Left Face', 'Left Leg', 'Right Face']",
3,"[0.2, 0.2]",1,,0,0,0,0,0,8,8,8,,,,,,,,,,,131.06386340036988,None,131.06386340036988,132.0638812002726,132.04721360001713,133.04722230043262,0,0.17314814814814813,-0.07777777777777778,"[0, 0, 0]",0,0,131.06386340036988,None,,,,,,,,,,,,,,,,,,,,,,,,,,,,,,,99,M,1,r,CIB,2021_Aug_10_1547,WASABI distractmap,2020.2.10,60.002292091040594,"['Right Arm', 'Left Leg', 'Right Face', 'Left Arm', 'Left Arm', 'Right Leg', 'Chest', 'Abdomen', 'Chest', 'Right Leg', 'Right Arm', 'Left Face', 'Abdomen', 'Left Face', 'Left Leg', 'Right Face']",
8,"[0, -0.2]",0,,0,0,0,0,0,9,9,9,,,,,,,,,,,133.06387820001692,None,133.06387820001692,134.06376500008628,134.04722530022264,135.04722360009328,0,0.17314814814814813,-0.07777777777777778,"[0, 0, 0]",0,0,133.06387820001692,None,,,,,,,,,,,,,,,,,,,,,,,,,,,,,,,99,M,1,r,CIB,2021_Aug_10_1547,WASABI distractmap,2020.2.10,60.002292091040594,"['Right Arm', 'Left Leg', 'Right Face', 'Left Arm', 'Left Arm', 'Right Leg', 'Chest', 'Abdomen', 'Chest', 'Right Leg', 'Right Arm', 'Left Face', 'Abdomen', 'Left Face', 'Left Leg', 'Right Face']",
1,"[-0.2, 0.2]",0,,0,0,0,0,0,10,10,10,,,,,,,,,,,135.0639070002362,None,135.0639070002362,136.06389770004898,136.0472442000173,137.0472441003658,0,0.17314814814814813,-0.07777777777777778,"[0, 0, 0]",0,0,135.0639070002362,None,,,,,,,,,,,,,,,,,,,,,,,,,,,,,,,99,M,1,r,CIB,2021_Aug_10_1547,WASABI distractmap,2020.2.10,60.002292091040594,"['Right Arm', 'Left Leg', 'Right Face', 'Left Arm', 'Left Arm', 'Right Leg', 'Chest', 'Abdomen', 'Chest', 'Right Leg', 'Right Arm', 'Left Face', 'Abdomen', 'Left Face', 'Left Leg', 'Right Face']",
2,"[0, 0.2]",0,,0,0,0,0,0,11,11,11,,,,,,,,,,,137.06392670003697,None,137.06392670003697,138.06393770035356,138.04725780012086,139.0472627002746,0,0.17314814814814813,-0.07777777777777778,"[0, 0, 0]",0,0,137.06392670003697,None,,,,,,,,,,,,,,,,,,,,,,,,,,,,,,,99,M,1,r,CIB,2021_Aug_10_1547,WASABI distractmap,2020.2.10,60.002292091040594,"['Right Arm', 'Left Leg', 'Right Face', 'Left Arm', 'Left Arm', 'Right Leg', 'Chest', 'Abdomen', 'Chest', 'Right Leg', 'Right Arm', 'Left Face', 'Abdomen', 'Left Face', 'Left Leg', 'Right Face']",
4,"[-0.2, 0]",0,,0,0,0,0,0,12,12,12,,,,,,,,,,,139.06392660038546,None,139.06392660038546,140.06394540006295,140.047266300302,141.0472657000646,0,0.17314814814814813,-0.07777777777777778,"[0, 0, 0]",0,0,139.06392660038546,None,,,,,,,,,,,,,,,,,,,,,,,,,,,,,,,99,M,1,r,CIB,2021_Aug_10_1547,WASABI distractmap,2020.2.10,60.002292091040594,"['Right Arm', 'Left Leg', 'Right Face', 'Left Arm', 'Left Arm', 'Right Leg', 'Chest', 'Abdomen', 'Chest', 'Right Leg', 'Right Arm', 'Left Face', 'Abdomen', 'Left Face', 'Left Leg', 'Right Face']",
4,"[-0.2, 0]",1,,0,0,0,0,0,13,13,13,,,,,,,,,,,141.0639477004297,None,141.0639477004297,142.06394780008122,142.04729150002822,143.0472738002427,0,0.17314814814814813,-0.07777777777777778,"[0, 0, 0]",0,0,141.0639477004297,None,,,,,,,,,,,,,,,,,,,,,,,,,,,,,,,99,M,1,r,CIB,2021_Aug_10_1547,WASABI distractmap,2020.2.10,60.002292091040594,"['Right Arm', 'Left Leg', 'Right Face', 'Left Arm', 'Left Arm', 'Right Leg', 'Chest', 'Abdomen', 'Chest', 'Right Leg', 'Right Arm', 'Left Face', 'Abdomen', 'Left Face', 'Left Leg', 'Right Face']",
8,"[0, -0.2]",0,,0,0,0,0,0,14,14,14,,,,,,,,,,,143.06397120002657,None,143.06397120002657,144.0639270003885,144.04728540033102,145.0473221000284,0,0.17314814814814813,-0.07777777777777778,"[0, 0, 0]",0,0,143.06397120002657,None,,,,,,,,,,,,,,,,,,,,,,,,,,,,,,,99,M,1,r,CIB,2021_Aug_10_1547,WASABI distractmap,2020.2.10,60.002292091040594,"['Right Arm', 'Left Leg', 'Right Face', 'Left Arm', 'Left Arm', 'Right Leg', 'Chest', 'Abdomen', 'Chest', 'Right Leg', 'Right Arm', 'Left Face', 'Abdomen', 'Left Face', 'Left Leg', 'Right Face']",
5,"[0, 0]",0,,0,0,0,0,0,15,15,15,,,,,,,,,,,145.0639805002138,None,145.0639805002138,146.06397870043293,146.0473131001927,147.047307100147,0,0.17314814814814813,-0.07777777777777778,"[0, 0, 0]",0,0,145.0639805002138,None,,,,,,,,,,,,,,,,,,,,,,,,,,,,,,,99,M,1,r,CIB,2021_Aug_10_1547,WASABI distractmap,2020.2.10,60.002292091040594,"['Right Arm', 'Left Leg', 'Right Face', 'Left Arm', 'Left Arm', 'Right Leg', 'Chest', 'Abdomen', 'Chest', 'Right Leg', 'Right Arm', 'Left Face', 'Abdomen', 'Left Face', 'Left Leg', 'Right Face']",
5,"[0, 0]",1,,0,0,0,0,0,16,16,16,,,,,,,,,,,147.06399480020627,None,147.06399480020627,148.06398990005255,148.04733480000868,149.04733350034803,0,0.17314814814814813,-0.07777777777777778,"[0, 0, 0]",0,0,147.06399480020627,None,,,,,,,,,,,,,,,,,,,,,,,,,,,,,,,99,M,1,r,CIB,2021_Aug_10_1547,WASABI distractmap,2020.2.10,60.002292091040594,"['Right Arm', 'Left Leg', 'Right Face', 'Left Arm', 'Left Arm', 'Right Leg', 'Chest', 'Abdomen', 'Chest', 'Right Leg', 'Right Arm', 'Left Face', 'Abdomen', 'Left Face', 'Left Leg', 'Right Face']",
1,"[-0.2, 0.2]",0,,0,0,0,0,0,17,17,17,,,,,,,,,,,149.0640064002946,None,149.0640064002946,150.0640198001638,150.04734690021724,151.04734020028263,0,0.17314814814814813,-0.07777777777777778,"[0, 0, 0]",0,0,149.0640064002946,None,,,,,,,,,,,,,,,,,,,,,,,,,,,,,,,99,M,1,r,CIB,2021_Aug_10_1547,WASABI distractmap,2020.2.10,60.002292091040594,"['Right Arm', 'Left Leg', 'Right Face', 'Left Arm', 'Left Arm', 'Right Leg', 'Chest', 'Abdomen', 'Chest', 'Right Leg', 'Right Arm', 'Left Face', 'Abdomen', 'Left Face', 'Left Leg', 'Right Face']",
3,"[0.2, 0.2]",0,,0,0,0,0,0,18,18,18,,,,,,,,,,,151.06402320042253,None,151.06402320042253,152.06406080024317,152.04735120013356,153.047352200374,0,0.17314814814814813,-0.07777777777777778,"[0, 0, 0]",0,0,151.06402320042253,None,,,,,,,,,,,,,,,,,,,,,,,,,,,,,,,99,M,1,r,CIB,2021_Aug_10_1547,WASABI distractmap,2020.2.10,60.002292091040594,"['Right Arm', 'Left Leg', 'Right Face', 'Left Arm', 'Left Arm', 'Right Leg', 'Chest', 'Abdomen', 'Chest', 'Right Leg', 'Right Arm', 'Left Face', 'Abdomen', 'Left Face', 'Left Leg', 'Right Face']",
6,"[0.2, 0]",0,,0,0,0,0,0,19,19,19,,,,,,,,,,,153.0640414999798,None,153.0640414999798,154.06404690025374,154.04736710013822,155.0473775002174,0,0.17314814814814813,-0.07777777777777778,"[0, 0, 0]",0,0,153.0640414999798,None,,,,,,,,,,,,,,,,,,,,,,,,,,,,,,,99,M,1,r,CIB,2021_Aug_10_1547,WASABI distractmap,2020.2.10,60.002292091040594,"['Right Arm', 'Left Leg', 'Right Face', 'Left Arm', 'Left Arm', 'Right Leg', 'Chest', 'Abdomen', 'Chest', 'Right Leg', 'Right Arm', 'Left Face', 'Abdomen', 'Left Face', 'Left Leg', 'Right Face']",
1,"[-0.2, 0.2]",0,,0,0,0,0,0,20,20,20,,,,,,,,,,,155.06403880007565,None,155.06403880007565,156.0640879003331,156.04738850006834,157.04745300021023,0,0.17314814814814813,-0.07777777777777778,"[0, 0, 0]",0,0,155.06403880007565,None,,,,,,,,,,,,,,,,,,,,,,,,,,,,,,,99,M,1,r,CIB,2021_Aug_10_1547,WASABI distractmap,2020.2.10,60.002292091040594,"['Right Arm', 'Left Leg', 'Right Face', 'Left Arm', 'Left Arm', 'Right Leg', 'Chest', 'Abdomen', 'Chest', 'Right Leg', 'Right Arm', 'Left Face', 'Abdomen', 'Left Face', 'Left Leg', 'Right Face']",
1,"[-0.2, 0.2]",1,,0,0,0,0,0,21,21,21,,,,,,,,,,,157.0640576002188,None,157.0640576002188,158.06407289998606,158.04737660009414,159.04741190001369,0,0.17314814814814813,-0.07777777777777778,"[0, 0, 0]",0,0,157.0640576002188,None,,,,,,,,,,,,,,,,,,,,,,,,,,,,,,,99,M,1,r,CIB,2021_Aug_10_1547,WASABI distractmap,2020.2.10,60.002292091040594,"['Right Arm', 'Left Leg', 'Right Face', 'Left Arm', 'Left Arm', 'Right Leg', 'Chest', 'Abdomen', 'Chest', 'Right Leg', 'Right Arm', 'Left Face', 'Abdomen', 'Left Face', 'Left Leg', 'Right Face']",
1,"[-0.2, 0.2]",1,,0,0,0,0,0,22,22,22,,,,,,,,,,,159.0640827002935,None,159.0640827002935,160.0640829000622,160.04741770029068,161.04742320021614,0,0.17314814814814813,-0.07777777777777778,"[0, 0, 0]",0,0,159.0640827002935,None,,,,,,,,,,,,,,,,,,,,,,,,,,,,,,,99,M,1,r,CIB,2021_Aug_10_1547,WASABI distractmap,2020.2.10,60.002292091040594,"['Right Arm', 'Left Leg', 'Right Face', 'Left Arm', 'Left Arm', 'Right Leg', 'Chest', 'Abdomen', 'Chest', 'Right Leg', 'Right Arm', 'Left Face', 'Abdomen', 'Left Face', 'Left Leg', 'Right Face']",
3,"[0.2, 0.2]",0,,0,0,0,0,0,23,23,23,,,,,,,,,,,161.06408630032092,None,161.06408630032092,162.06408700020984,162.04742330033332,163.04744110023603,0,0.17314814814814813,-0.07777777777777778,"[0, 0, 0]",0,0,161.06408630032092,None,,,,,,,,,,,,,,,,,,,,,,,,,,,,,,,99,M,1,r,CIB,2021_Aug_10_1547,WASABI distractmap,2020.2.10,60.002292091040594,"['Right Arm', 'Left Leg', 'Right Face', 'Left Arm', 'Left Arm', 'Right Leg', 'Chest', 'Abdomen', 'Chest', 'Right Leg', 'Right Arm', 'Left Face', 'Abdomen', 'Left Face', 'Left Leg', 'Right Face']",
2,"[0, 0.2]",0,,0,0,0,0,0,24,24,24,,,,,,,,,,,163.06408980023116,None,163.06408980023116,164.06410320010036,164.04744860017672,165.04747270001099,0,0.17314814814814813,-0.07777777777777778,"[0, 0, 0]",0,0,163.06408980023116,None,,,,,,,,,,,,,,,,,,,,,,,,,,,,,,,99,M,1,r,CIB,2021_Aug_10_1547,WASABI distractmap,2020.2.10,60.002292091040594,"['Right Arm', 'Left Leg', 'Right Face', 'Left Arm', 'Left Arm', 'Right Leg', 'Chest', 'Abdomen', 'Chest', 'Right Leg', 'Right Arm', 'Left Face', 'Abdomen', 'Left Face', 'Left Leg', 'Right Face']",
1,"[-0.2, 0.2]",0,,0,0,0,0,0,25,25,25,,,,,,,,,,,165.06411720020697,None,165.06411720020697,166.06411700043827,166.04744850005955,167.04746460029855,0,0.17314814814814813,-0.07777777777777778,"[0, 0, 0]",0,0,165.06411720020697,None,,,,,,,,,,,,,,,,,,,,,,,,,,,,,,,99,M,1,r,CIB,2021_Aug_10_1547,WASABI distractmap,2020.2.10,60.002292091040594,"['Right Arm', 'Left Leg', 'Right Face', 'Left Arm', 'Left Arm', 'Right Leg', 'Chest', 'Abdomen', 'Chest', 'Right Leg', 'Right Arm', 'Left Face', 'Abdomen', 'Left Face', 'Left Leg', 'Right Face']",
7,"[-0.2, -0.2]",0,,0,0,0,0,0,26,26,26,,,,,,,,,,,167.06413880037144,None,167.06413880037144,168.0641391002573,168.04746680008247,169.04748630011454,0,0.17314814814814813,-0.07777777777777778,"[0, 0, 0]",0,0,167.06413880037144,None,,,,,,,,,,,,,,,,,,,,,,,,,,,,,,,99,M,1,r,CIB,2021_Aug_10_1547,WASABI distractmap,2020.2.10,60.002292091040594,"['Right Arm', 'Left Leg', 'Right Face', 'Left Arm', 'Left Arm', 'Right Leg', 'Chest', 'Abdomen', 'Chest', 'Right Leg', 'Right Arm', 'Left Face', 'Abdomen', 'Left Face', 'Left Leg', 'Right Face']",
7,"[-0.2, -0.2]",1,,0,0,0,0,0,27,27,27,,,,,,,,,,,169.064136300236,None,169.064136300236,170.0641598002985,170.04750760039315,171.0474890000187,0,0.17314814814814813,-0.07777777777777778,"[0, 0, 0]",0,0,169.064136300236,None,,,,,,,,,,,,,,,,,,,,,,,,,,,,,,,99,M,1,r,CIB,2021_Aug_10_1547,WASABI distractmap,2020.2.10,60.002292091040594,"['Right Arm', 'Left Leg', 'Right Face', 'Left Arm', 'Left Arm', 'Right Leg', 'Chest', 'Abdomen', 'Chest', 'Right Leg', 'Right Arm', 'Left Face', 'Abdomen', 'Left Face', 'Left Leg', 'Right Face']",
2,"[0, 0.2]",0,,0,0,0,0,0,28,28,28,,,,,,,,,,,171.06415740028024,None,171.06415740028024,172.06415870040655,172.04752010013908,173.04750820016488,0,0.17314814814814813,-0.07777777777777778,"[0, 0, 0]",0,0,171.06415740028024,None,,,,,,,,,,,,,,,,,,,,,,,,,,,,,,,99,M,1,r,CIB,2021_Aug_10_1547,WASABI distractmap,2020.2.10,60.002292091040594,"['Right Arm', 'Left Leg', 'Right Face', 'Left Arm', 'Left Arm', 'Right Leg', 'Chest', 'Abdomen', 'Chest', 'Right Leg', 'Right Arm', 'Left Face', 'Abdomen', 'Left Face', 'Left Leg', 'Right Face']",
6,"[0.2, 0]",0,,0,0,0,0,0,29,29,29,,,,,,,,,,,173.0641823001206,None,173.0641823001206,174.06417740043253,174.04751519998536,175.04752130014822,0,0.17314814814814813,-0.07777777777777778,"[0, 0, 0]",0,0,173.0641823001206,None,,,,,,,,,,,,,,,,,,,,,,,,,,,,,,,99,M,1,r,CIB,2021_Aug_10_1547,WASABI distractmap,2020.2.10,60.002292091040594,"['Right Arm', 'Left Leg', 'Right Face', 'Left Arm', 'Left Arm', 'Right Leg', 'Chest', 'Abdomen', 'Chest', 'Right Leg', 'Right Arm', 'Left Face', 'Abdomen', 'Left Face', 'Left Leg', 'Right Face']",
,,,,0,0,0,0,,,,,,,,,,,,,,,,,,,,,,,,,,,,,175.08086900040507,None,space,175.08086900040507,None,,,,,,,,,,,,,,,,,,,,,,,,,,99,M,1,r,CIB,2021_Aug_10_1547,WASABI distractmap,2020.2.10,60.002292091040594,"['Right Arm', 'Left Leg', 'Right Face', 'Left Arm', 'Left Arm', 'Right Leg', 'Chest', 'Abdomen', 'Chest', 'Right Leg', 'Right Arm', 'Left Face', 'Abdomen', 'Left Face', 'Left Leg', 'Right Face']",
6,"[0.2, 0]",None,,0,0,0,0,0,0,0,0,,,,,,,,,180.44755610032007,None,181.46420310018584,None,181.46420310018584,182.46415570005774,182.44758070027456,183.4475826001726,0,0.17314814814814813,-0.07777777777777778,"[0, 0, 0]",0,0,181.46420310018584,None,,,,,,,,,,,,,,,,,,,,,,,,,,,,,,,99,M,1,r,CIB,2021_Aug_10_1547,WASABI distractmap,2020.2.10,60.002292091040594,"['Right Arm', 'Left Leg', 'Right Face', 'Left Arm', 'Left Arm', 'Right Leg', 'Chest', 'Abdomen', 'Chest', 'Right Leg', 'Right Arm', 'Left Face', 'Abdomen', 'Left Face', 'Left Leg', 'Right Face']",
6,"[0.2, 0]",1,,0,0,0,0,0,1,1,1,,,,,,,,,,,183.46425440022722,None,183.46425440022722,184.46425320021808,184.44759190035984,185.44760100031272,1,0.17314814814814813,-0.07777777777777778,"[0, 0, 0]",0,0,183.46425440022722,None,,,,,,,,,,,,,,,,,,,,,,,,,,,,,,,99,M,1,r,CIB,2021_Aug_10_1547,WASABI distractmap,2020.2.10,60.002292091040594,"['Right Arm', 'Left Leg', 'Right Face', 'Left Arm', 'Left Arm', 'Right Leg', 'Chest', 'Abdomen', 'Chest', 'Right Leg', 'Right Arm', 'Left Face', 'Abdomen', 'Left Face', 'Left Leg', 'Right Face']",
2,"[0, 0.2]",0,,0,0,0,0,0,2,2,2,,,,,,,,,,,185.46426660008729,None,185.46426660008729,186.46427620016038,186.44760130019858,187.4476205999963,0,0.17314814814814813,-0.07777777777777778,"[0, 0, 0]",0,0,185.46426660008729,None,,,,,,,,,,,,,,,,,,,,,,,,,,,,,,,99,M,1,r,CIB,2021_Aug_10_1547,WASABI distractmap,2020.2.10,60.002292091040594,"['Right Arm', 'Left Leg', 'Right Face', 'Left Arm', 'Left Arm', 'Right Leg', 'Chest', 'Abdomen', 'Chest', 'Right Leg', 'Right Arm', 'Left Face', 'Abdomen', 'Left Face', 'Left Leg', 'Right Face']",
9,"[0.2, -0.2]",0,,0,0,0,0,0,3,3,3,,,,,,,,,,,187.4642731002532,None,187.4642731002532,188.46428530011326,188.44762610038742,189.4476241003722,0,0.17314814814814813,-0.07777777777777778,"[0, 0, 0]",0,0,187.4642731002532,None,,,,,,,,,,,,,,,,,,,,,,,,,,,,,,,99,M,1,r,CIB,2021_Aug_10_1547,WASABI distractmap,2020.2.10,60.002292091040594,"['Right Arm', 'Left Leg', 'Right Face', 'Left Arm', 'Left Arm', 'Right Leg', 'Chest', 'Abdomen', 'Chest', 'Right Leg', 'Right Arm', 'Left Face', 'Abdomen', 'Left Face', 'Left Leg', 'Right Face']",
9,"[0.2, -0.2]",1,,0,0,0,0,0,4,4,4,,,,,,,,,,,189.46430600015447,None,189.46430600015447,190.4642984000966,190.4476924003102,191.4476421000436,1,0.17314814814814813,-0.07777777777777778,"[0, 0, 0]",0,0,189.46430600015447,None,,,,,,,,,,,,,,,,,,,,,,,,,,,,,,,99,M,1,r,CIB,2021_Aug_10_1547,WASABI distractmap,2020.2.10,60.002292091040594,"['Right Arm', 'Left Leg', 'Right Face', 'Left Arm', 'Left Arm', 'Right Leg', 'Chest', 'Abdomen', 'Chest', 'Right Leg', 'Right Arm', 'Left Face', 'Abdomen', 'Left Face', 'Left Leg', 'Right Face']",
6,"[0.2, 0]",0,,0,0,0,0,0,5,5,5,,,,,,,,,,,191.46431410033256,None,191.46431410033256,192.46430990006775,192.44764460017905,193.44765390036628,1,0.17314814814814813,-0.07777777777777778,"[0, 0, 0]",0,0,191.46431410033256,None,,,,,,,,,,,,,,,,,,,,,,,,,,,,,,,99,M,1,r,CIB,2021_Aug_10_1547,WASABI distractmap,2020.2.10,60.002292091040594,"['Right Arm', 'Left Leg', 'Right Face', 'Left Arm', 'Left Arm', 'Right Leg', 'Chest', 'Abdomen', 'Chest', 'Right Leg', 'Right Arm', 'Left Face', 'Abdomen', 'Left Face', 'Left Leg', 'Right Face']",
4,"[-0.2, 0]",0,,0,0,0,0,0,6,6,6,,,,,,,,,,,193.46431490033865,None,193.46431490033865,194.4643323002383,194.44766500033438,195.44766910001636,1,0.17314814814814813,-0.07777777777777778,"[0, 0, 0]",0,0,193.46431490033865,None,,,,,,,,,,,,,,,,,,,,,,,,,,,,,,,99,M,1,r,CIB,2021_Aug_10_1547,WASABI distractmap,2020.2.10,60.002292091040594,"['Right Arm', 'Left Leg', 'Right Face', 'Left Arm', 'Left Arm', 'Right Leg', 'Chest', 'Abdomen', 'Chest', 'Right Leg', 'Right Arm', 'Left Face', 'Abdomen', 'Left Face', 'Left Leg', 'Right Face']",
3,"[0.2, 0.2]",0,,0,0,0,0,0,7,7,7,,,,,,,,,,,195.46432990022004,None,195.46432990022004,196.46434100018814,196.4476731000468,197.4476849003695,1,0.17314814814814813,-0.07777777777777778,"[0, 0, 0]",0,0,195.46432990022004,None,,,,,,,,,,,,,,,,,,,,,,,,,,,,,,,99,M,1,r,CIB,2021_Aug_10_1547,WASABI distractmap,2020.2.10,60.002292091040594,"['Right Arm', 'Left Leg', 'Right Face', 'Left Arm', 'Left Arm', 'Right Leg', 'Chest', 'Abdomen', 'Chest', 'Right Leg', 'Right Arm', 'Left Face', 'Abdomen', 'Left Face', 'Left Leg', 'Right Face']",
3,"[0.2, 0.2]",1,,0,0,0,0,0,8,8,8,,,,,,,,,,,197.46435580030084,None,197.46435580030084,198.4643659000285,198.44774460000917,199.4477013000287,0,0.17314814814814813,-0.07777777777777778,"[0, 0, 0]",0,0,197.46435580030084,None,,,,,,,,,,,,,,,,,,,,,,,,,,,,,,,99,M,1,r,CIB,2021_Aug_10_1547,WASABI distractmap,2020.2.10,60.002292091040594,"['Right Arm', 'Left Leg', 'Right Face', 'Left Arm', 'Left Arm', 'Right Leg', 'Chest', 'Abdomen', 'Chest', 'Right Leg', 'Right Arm', 'Left Face', 'Abdomen', 'Left Face', 'Left Leg', 'Right Face']",
8,"[0, -0.2]",0,,0,0,0,0,0,9,9,9,,,,,,,,,,,199.46435050014406,None,199.46435050014406,200.4643910001032,200.44769930001348,201.44770960044116,1,0.17314814814814813,-0.07777777777777778,"[0, 0, 0]",0,0,199.46435050014406,None,,,,,,,,,,,,,,,,,,,,,,,,,,,,,,,99,M,1,r,CIB,2021_Aug_10_1547,WASABI distractmap,2020.2.10,60.002292091040594,"['Right Arm', 'Left Leg', 'Right Face', 'Left Arm', 'Left Arm', 'Right Leg', 'Chest', 'Abdomen', 'Chest', 'Right Leg', 'Right Arm', 'Left Face', 'Abdomen', 'Left Face', 'Left Leg', 'Right Face']",
1,"[-0.2, 0.2]",0,,0,0,0,0,0,10,10,10,,,,,,,,,,,201.46438970044255,None,201.46438970044255,202.46440360043198,202.44772840011865,203.44772610021755,1,0.17314814814814813,-0.07777777777777778,"[0, 0, 0]",0,0,201.46438970044255,None,,,,,,,,,,,,,,,,,,,,,,,,,,,,,,,99,M,1,r,CIB,2021_Aug_10_1547,WASABI distractmap,2020.2.10,60.002292091040594,"['Right Arm', 'Left Leg', 'Right Face', 'Left Arm', 'Left Arm', 'Right Leg', 'Chest', 'Abdomen', 'Chest', 'Right Leg', 'Right Arm', 'Left Face', 'Abdomen', 'Left Face', 'Left Leg', 'Right Face']",
2,"[0, 0.2]",0,,0,0,0,0,0,11,11,11,,,,,,,,,,,203.4643910001032,None,203.4643910001032,204.46436830004677,204.44773340038955,205.44774290034547,1,0.17314814814814813,-0.07777777777777778,"[0, 0, 0]",0,0,203.4643910001032,None,,,,,,,,,,,,,,,,,,,,,,,,,,,,,,,99,M,1,r,CIB,2021_Aug_10_1547,WASABI distractmap,2020.2.10,60.002292091040594,"['Right Arm', 'Left Leg', 'Right Face', 'Left Arm', 'Left Arm', 'Right Leg', 'Chest', 'Abdomen', 'Chest', 'Right Leg', 'Right Arm', 'Left Face', 'Abdomen', 'Left Face', 'Left Leg', 'Right Face']",
4,"[-0.2, 0]",0,,0,0,0,0,0,12,12,12,,,,,,,,,,,205.46442250022665,None,205.46442250022665,206.46447060024366,206.44764320040122,207.44776980020106,1,0.17314814814814813,-0.07777777777777778,"[0, 0, 0]",0,0,205.46442250022665,None,,,,,,,,,,,,,,,,,,,,,,,,,,,,,,,99,M,1,r,CIB,2021_Aug_10_1547,WASABI distractmap,2020.2.10,60.002292091040594,"['Right Arm', 'Left Leg', 'Right Face', 'Left Arm', 'Left Arm', 'Right Leg', 'Chest', 'Abdomen', 'Chest', 'Right Leg', 'Right Arm', 'Left Face', 'Abdomen', 'Left Face', 'Left Leg', 'Right Face']",
4,"[-0.2, 0]",1,,0,0,0,0,0,13,13,13,,,,,,,,,,,207.46442280011252,None,207.46442280011252,208.46442850027233,208.44776800042018,209.4477628003806,0,0.17314814814814813,-0.07777777777777778,"[0, 0, 0]",0,0,207.46442280011252,None,,,,,,,,,,,,,,,,,,,,,,,,,,,,,,,99,M,1,r,CIB,2021_Aug_10_1547,WASABI distractmap,2020.2.10,60.002292091040594,"['Right Arm', 'Left Leg', 'Right Face', 'Left Arm', 'Left Arm', 'Right Leg', 'Chest', 'Abdomen', 'Chest', 'Right Leg', 'Right Arm', 'Left Face', 'Abdomen', 'Left Face', 'Left Leg', 'Right Face']",
8,"[0, -0.2]",0,,0,0,0,0,0,14,14,14,,,,,,,,,,,209.46443930035457,None,209.46443930035457,210.4644630001858,210.4477963000536,211.44778100028634,1,0.17314814814814813,-0.07777777777777778,"[0, 0, 0]",0,0,209.46443930035457,None,,,,,,,,,,,,,,,,,,,,,,,,,,,,,,,99,M,1,r,CIB,2021_Aug_10_1547,WASABI distractmap,2020.2.10,60.002292091040594,"['Right Arm', 'Left Leg', 'Right Face', 'Left Arm', 'Left Arm', 'Right Leg', 'Chest', 'Abdomen', 'Chest', 'Right Leg', 'Right Arm', 'Left Face', 'Abdomen', 'Left Face', 'Left Leg', 'Right Face']",
5,"[0, 0]",0,,0,0,0,0,0,15,15,15,,,,,,,,,,,211.46444760030136,None,211.46444760030136,212.46446490008384,212.44783870037645,213.44781210040674,1,0.17314814814814813,-0.07777777777777778,"[0, 0, 0]",0,0,211.46444760030136,None,,,,,,,,,,,,,,,,,,,,,,,,,,,,,,,99,M,1,r,CIB,2021_Aug_10_1547,WASABI distractmap,2020.2.10,60.002292091040594,"['Right Arm', 'Left Leg', 'Right Face', 'Left Arm', 'Left Arm', 'Right Leg', 'Chest', 'Abdomen', 'Chest', 'Right Leg', 'Right Arm', 'Left Face', 'Abdomen', 'Left Face', 'Left Leg', 'Right Face']",
5,"[0, 0]",1,,0,0,0,0,0,16,16,16,,,,,,,,,,,213.46447350038216,None,213.46447350038216,214.46447170013562,214.44781330041587,215.44780760025606,1,0.17314814814814813,-0.07777777777777778,"[0, 0, 0]",0,0,213.46447350038216,None,,,,,,,,,,,,,,,,,,,,,,,,,,,,,,,99,M,1,r,CIB,2021_Aug_10_1547,WASABI distractmap,2020.2.10,60.002292091040594,"['Right Arm', 'Left Leg', 'Right Face', 'Left Arm', 'Left Arm', 'Right Leg', 'Chest', 'Abdomen', 'Chest', 'Right Leg', 'Right Arm', 'Left Face', 'Abdomen', 'Left Face', 'Left Leg', 'Right Face']",
1,"[-0.2, 0.2]",0,,0,0,0,0,0,17,17,17,,,,,,,,,,,215.46448700036854,None,215.46448700036854,216.46449570031837,216.44782100012526,217.4478253000416,1,0.17314814814814813,-0.07777777777777778,"[0, 0, 0]",0,0,215.46448700036854,None,,,,,,,,,,,,,,,,,,,,,,,,,,,,,,,99,M,1,r,CIB,2021_Aug_10_1547,WASABI distractmap,2020.2.10,60.002292091040594,"['Right Arm', 'Left Leg', 'Right Face', 'Left Arm', 'Left Arm', 'Right Leg', 'Chest', 'Abdomen', 'Chest', 'Right Leg', 'Right Arm', 'Left Face', 'Abdomen', 'Left Face', 'Left Leg', 'Right Face']",
3,"[0.2, 0.2]",0,,0,0,0,0,0,18,18,18,,,,,,,,,,,217.4645007001236,None,217.4645007001236,218.4645119002089,218.44784070039168,219.44786260044202,1,0.17314814814814813,-0.07777777777777778,"[0, 0, 0]",0,0,217.4645007001236,None,,,,,,,,,,,,,,,,,,,,,,,,,,,,,,,99,M,1,r,CIB,2021_Aug_10_1547,WASABI distractmap,2020.2.10,60.002292091040594,"['Right Arm', 'Left Leg', 'Right Face', 'Left Arm', 'Left Arm', 'Right Leg', 'Chest', 'Abdomen', 'Chest', 'Right Leg', 'Right Arm', 'Left Face', 'Abdomen', 'Left Face', 'Left Leg', 'Right Face']",
6,"[0.2, 0]",0,,0,0,0,0,0,19,19,19,,,,,,,,,,,219.46451080031693,None,219.46451080031693,220.46452340018004,220.44784550042823,221.44786470010877,1,0.17314814814814813,-0.07777777777777778,"[0, 0, 0]",0,0,219.46451080031693,None,,,,,,,,,,,,,,,,,,,,,,,,,,,,,,,99,M,1,r,CIB,2021_Aug_10_1547,WASABI distractmap,2020.2.10,60.002292091040594,"['Right Arm', 'Left Leg', 'Right Face', 'Left Arm', 'Left Arm', 'Right Leg', 'Chest', 'Abdomen', 'Chest', 'Right Leg', 'Right Arm', 'Left Face', 'Abdomen', 'Left Face', 'Left Leg', 'Right Face']",
1,"[-0.2, 0.2]",0,,0,0,0,0,0,20,20,20,,,,,,,,,,,221.4645326002501,None,221.4645326002501,222.46452520042658,222.44787390017882,223.4479542002082,0,0.17314814814814813,-0.07777777777777778,"[0, 0, 0]",0,0,221.4645326002501,None,,,,,,,,,,,,,,,,,,,,,,,,,,,,,,,99,M,1,r,CIB,2021_Aug_10_1547,WASABI distractmap,2020.2.10,60.002292091040594,"['Right Arm', 'Left Leg', 'Right Face', 'Left Arm', 'Left Arm', 'Right Leg', 'Chest', 'Abdomen', 'Chest', 'Right Leg', 'Right Arm', 'Left Face', 'Abdomen', 'Left Face', 'Left Leg', 'Right Face']",
1,"[-0.2, 0.2]",1,,0,0,0,0,0,21,21,21,,,,,,,,,,,223.46455200016499,None,223.46455200016499,224.46455910010263,224.44788410002366,225.44789970014244,1,0.17314814814814813,-0.07777777777777778,"[0, 0, 0]",0,0,223.46455200016499,None,,,,,,,,,,,,,,,,,,,,,,,,,,,,,,,99,M,1,r,CIB,2021_Aug_10_1547,WASABI distractmap,2020.2.10,60.002292091040594,"['Right Arm', 'Left Leg', 'Right Face', 'Left Arm', 'Left Arm', 'Right Leg', 'Chest', 'Abdomen', 'Chest', 'Right Leg', 'Right Arm', 'Left Face', 'Abdomen', 'Left Face', 'Left Leg', 'Right Face']",
1,"[-0.2, 0.2]",1,,0,0,0,0,0,22,22,22,,,,,,,,,,,225.4645497002639,None,225.4645497002639,226.46456690039486,226.44788730004802,227.4479079004377,1,0.17314814814814813,-0.07777777777777778,"[0, 0, 0]",0,0,225.4645497002639,None,,,,,,,,,,,,,,,,,,,,,,,,,,,,,,,99,M,1,r,CIB,2021_Aug_10_1547,WASABI distractmap,2020.2.10,60.002292091040594,"['Right Arm', 'Left Leg', 'Right Face', 'Left Arm', 'Left Arm', 'Right Leg', 'Chest', 'Abdomen', 'Chest', 'Right Leg', 'Right Arm', 'Left Face', 'Abdomen', 'Left Face', 'Left Leg', 'Right Face']",
3,"[0.2, 0.2]",0,,0,0,0,0,0,23,23,23,,,,,,,,,,,227.46457750024274,None,227.46457750024274,228.4645732003264,228.44738430017605,229.44792430009693,0,0.17314814814814813,-0.07777777777777778,"[0, 0, 0]",0,0,227.46457750024274,None,,,,,,,,,,,,,,,,,,,,,,,,,,,,,,,99,M,1,r,CIB,2021_Aug_10_1547,WASABI distractmap,2020.2.10,60.002292091040594,"['Right Arm', 'Left Leg', 'Right Face', 'Left Arm', 'Left Arm', 'Right Leg', 'Chest', 'Abdomen', 'Chest', 'Right Leg', 'Right Arm', 'Left Face', 'Abdomen', 'Left Face', 'Left Leg', 'Right Face']",
2,"[0, 0.2]",0,,0,0,0,0,0,24,24,24,,,,,,,,,,,229.4645845000632,None,229.4645845000632,230.4645970002748,230.44796190038323,231.44796710042283,0,0.17314814814814813,-0.07777777777777778,"[0, 0, 0]",0,0,229.4645845000632,None,,,,,,,,,,,,,,,,,,,,,,,,,,,,,,,99,M,1,r,CIB,2021_Aug_10_1547,WASABI distractmap,2020.2.10,60.002292091040594,"['Right Arm', 'Left Leg', 'Right Face', 'Left Arm', 'Left Arm', 'Right Leg', 'Chest', 'Abdomen', 'Chest', 'Right Leg', 'Right Arm', 'Left Face', 'Abdomen', 'Left Face', 'Left Leg', 'Right Face']",
1,"[-0.2, 0.2]",0,,0,0,0,0,0,25,25,25,,,,,,,,,,,231.46458200039342,None,231.46458200039342,232.46461390005425,232.44794020010158,233.44794990029186,0,0.17314814814814813,-0.07777777777777778,"[0, 0, 0]",0,0,231.46458200039342,None,,,,,,,,,,,,,,,,,,,,,,,,,,,,,,,99,M,1,r,CIB,2021_Aug_10_1547,WASABI distractmap,2020.2.10,60.002292091040594,"['Right Arm', 'Left Leg', 'Right Face', 'Left Arm', 'Left Arm', 'Right Leg', 'Chest', 'Abdomen', 'Chest', 'Right Leg', 'Right Arm', 'Left Face', 'Abdomen', 'Left Face', 'Left Leg', 'Right Face']",
7,"[-0.2, -0.2]",0,,0,0,0,0,0,26,26,26,,,,,,,,,,,233.4646195000969,None,233.4646195000969,234.46462030010298,234.44797170022503,235.4479697002098,0,0.17314814814814813,-0.07777777777777778,"[0, 0, 0]",0,0,233.4646195000969,None,,,,,,,,,,,,,,,,,,,,,,,,,,,,,,,99,M,1,r,CIB,2021_Aug_10_1547,WASABI distractmap,2020.2.10,60.002292091040594,"['Right Arm', 'Left Leg', 'Right Face', 'Left Arm', 'Left Arm', 'Right Leg', 'Chest', 'Abdomen', 'Chest', 'Right Leg', 'Right Arm', 'Left Face', 'Abdomen', 'Left Face', 'Left Leg', 'Right Face']",
7,"[-0.2, -0.2]",1,,0,0,0,0,0,27,27,27,,,,,,,,,,,235.46464910032228,None,235.46464910032228,236.46465910039842,236.44797470001504,237.44799300003797,0,0.17314814814814813,-0.07777777777777778,"[0, 0, 0]",0,0,235.46464910032228,None,,,,,,,,,,,,,,,,,,,,,,,,,,,,,,,99,M,1,r,CIB,2021_Aug_10_1547,WASABI distractmap,2020.2.10,60.002292091040594,"['Right Arm', 'Left Leg', 'Right Face', 'Left Arm', 'Left Arm', 'Right Leg', 'Chest', 'Abdomen', 'Chest', 'Right Leg', 'Right Arm', 'Left Face', 'Abdomen', 'Left Face', 'Left Leg', 'Right Face']",
2,"[0, 0.2]",0,,0,0,0,0,0,28,28,28,,,,,,,,,,,237.46464160038158,None,237.46464160038158,238.46466709999368,238.4479891001247,239.44799020001665,1,0.17314814814814813,-0.07777777777777778,"[0, 0, 0]",0,0,237.46464160038158,None,,,,,,,,,,,,,,,,,,,,,,,,,,,,,,,99,M,1,r,CIB,2021_Aug_10_1547,WASABI distractmap,2020.2.10,60.002292091040594,"['Right Arm', 'Left Leg', 'Right Face', 'Left Arm', 'Left Arm', 'Right Leg', 'Chest', 'Abdomen', 'Chest', 'Right Leg', 'Right Arm', 'Left Face', 'Abdomen', 'Left Face', 'Left Leg', 'Right Face']",
6,"[0.2, 0]",0,,0,0,0,0,0,29,29,29,,,,,,,,,,,239.46466490020975,None,239.46466490020975,240.4646616000682,240.44801090005785,241.4480179999955,1,0.17314814814814813,-0.07777777777777778,"[0, 0, 0]",0,0,239.46466490020975,None,,,,,,,,,,,,,,,,,,,,,,,,,,,,,,,99,M,1,r,CIB,2021_Aug_10_1547,WASABI distractmap,2020.2.10,60.002292091040594,"['Right Arm', 'Left Leg', 'Right Face', 'Left Arm', 'Left Arm', 'Right Leg', 'Chest', 'Abdomen', 'Chest', 'Right Leg', 'Right Arm', 'Left Face', 'Abdomen', 'Left Face', 'Left Leg', 'Right Face']",
,,,,0,0,0,0,,,,,,,,,,,,,,,,,,,,,,,,,,,,,241.46468740003183,None,space,241.46468740003183,None,,,,,,,,,,,,,,,,,,,,,,,,,,99,M,1,r,CIB,2021_Aug_10_1547,WASABI distractmap,2020.2.10,60.002292091040594,"['Right Arm', 'Left Leg', 'Right Face', 'Left Arm', 'Left Arm', 'Right Leg', 'Chest', 'Abdomen', 'Chest', 'Right Leg', 'Right Arm', 'Left Face', 'Abdomen', 'Left Face', 'Left Leg', 'Right Face']",
6,"[0.2, 0]",None,,0,0,0,0,0,0,0,0,,,,,,,,,245.5480390000157,None,246.56472160015255,None,246.56472160015255,247.56460640020669,247.5480688000098,248.5480715003796,1,0.17314814814814813,-0.07777777777777778,"[0, 0, 0]",0,0,246.56472160015255,None,,,,,,,,,,,,,,,,,,,,,,,,,,,,,,,99,M,1,r,CIB,2021_Aug_10_1547,WASABI distractmap,2020.2.10,60.002292091040594,"['Right Arm', 'Left Leg', 'Right Face', 'Left Arm', 'Left Arm', 'Right Leg', 'Chest', 'Abdomen', 'Chest', 'Right Leg', 'Right Arm', 'Left Face', 'Abdomen', 'Left Face', 'Left Leg', 'Right Face']",
6,"[0.2, 0]",1,,0,0,0,0,0,1,1,1,,,,,,,,,,,248.56471710000187,None,248.56471710000187,249.56473200023174,249.54808590002358,250.54808500036597,0,0.17314814814814813,-0.07777777777777778,"[0, 0, 0]",0,0,248.56471710000187,None,,,,,,,,,,,,,,,,,,,,,,,,,,,,,,,99,M,1,r,CIB,2021_Aug_10_1547,WASABI distractmap,2020.2.10,60.002292091040594,"['Right Arm', 'Left Leg', 'Right Face', 'Left Arm', 'Left Arm', 'Right Leg', 'Chest', 'Abdomen', 'Chest', 'Right Leg', 'Right Arm', 'Left Face', 'Abdomen', 'Left Face', 'Left Leg', 'Right Face']",
2,"[0, 0.2]",0,,0,0,0,0,0,2,2,2,,,,,,,,,,,250.5647464999929,None,250.5647464999929,251.56473930040374,251.54812080040574,252.54807690018788,0,0.17314814814814813,-0.07777777777777778,"[0, 0, 0]",0,0,250.5647464999929,None,,,,,,,,,,,,,,,,,,,,,,,,,,,,,,,99,M,1,r,CIB,2021_Aug_10_1547,WASABI distractmap,2020.2.10,60.002292091040594,"['Right Arm', 'Left Leg', 'Right Face', 'Left Arm', 'Left Arm', 'Right Leg', 'Chest', 'Abdomen', 'Chest', 'Right Leg', 'Right Arm', 'Left Face', 'Abdomen', 'Left Face', 'Left Leg', 'Right Face']",
9,"[0.2, -0.2]",0,,0,0,0,0,0,3,3,3,,,,,,,,,,,252.56475700018927,None,252.56475700018927,253.56476640002802,253.54811040032655,254.54809510009363,1,0.17314814814814813,-0.07777777777777778,"[0, 0, 0]",0,0,252.56475700018927,None,,,,,,,,,,,,,,,,,,,,,,,,,,,,,,,99,M,1,r,CIB,2021_Aug_10_1547,WASABI distractmap,2020.2.10,60.002292091040594,"['Right Arm', 'Left Leg', 'Right Face', 'Left Arm', 'Left Arm', 'Right Leg', 'Chest', 'Abdomen', 'Chest', 'Right Leg', 'Right Arm', 'Left Face', 'Abdomen', 'Left Face', 'Left Leg', 'Right Face']",
9,"[0.2, -0.2]",1,,0,0,0,0,0,4,4,4,,,,,,,,,,,254.5647717001848,None,254.5647717001848,255.56484560016543,255.54810960032046,256.54811400035396,0,0.17314814814814813,-0.07777777777777778,"[0, 0, 0]",0,0,254.5647717001848,None,,,,,,,,,,,,,,,,,,,,,,,,,,,,,,,99,M,1,r,CIB,2021_Aug_10_1547,WASABI distractmap,2020.2.10,60.002292091040594,"['Right Arm', 'Left Leg', 'Right Face', 'Left Arm', 'Left Arm', 'Right Leg', 'Chest', 'Abdomen', 'Chest', 'Right Leg', 'Right Arm', 'Left Face', 'Abdomen', 'Left Face', 'Left Leg', 'Right Face']",
6,"[0.2, 0]",0,,0,0,0,0,0,5,5,5,,,,,,,,,,,256.56479040021077,None,256.56479040021077,257.56478600017726,257.548125800211,258.5481374002993,1,0.17314814814814813,-0.07777777777777778,"[0, 0, 0]",0,0,256.56479040021077,None,,,,,,,,,,,,,,,,,,,,,,,,,,,,,,,99,M,1,r,CIB,2021_Aug_10_1547,WASABI distractmap,2020.2.10,60.002292091040594,"['Right Arm', 'Left Leg', 'Right Face', 'Left Arm', 'Left Arm', 'Right Leg', 'Chest', 'Abdomen', 'Chest', 'Right Leg', 'Right Arm', 'Left Face', 'Abdomen', 'Left Face', 'Left Leg', 'Right Face']",
4,"[-0.2, 0]",0,,0,0,0,0,0,6,6,6,,,,,,,,,,,258.5648072003387,None,258.5648072003387,259.5648213000968,259.5481338002719,260.54814400011674,1,0.17314814814814813,-0.07777777777777778,"[0, 0, 0]",0,0,258.5648072003387,None,,,,,,,,,,,,,,,,,,,,,,,,,,,,,,,99,M,1,r,CIB,2021_Aug_10_1547,WASABI distractmap,2020.2.10,60.002292091040594,"['Right Arm', 'Left Leg', 'Right Face', 'Left Arm', 'Left Arm', 'Right Leg', 'Chest', 'Abdomen', 'Chest', 'Right Leg', 'Right Arm', 'Left Face', 'Abdomen', 'Left Face', 'Left Leg', 'Right Face']",
3,"[0.2, 0.2]",0,,0,0,0,0,0,7,7,7,,,,,,,,,,,260.56480470020324,None,260.56480470020324,261.56482670037076,261.5481597003527,262.5481531000696,1,0.17314814814814813,-0.07777777777777778,"[0, 0, 0]",0,0,260.56480470020324,None,,,,,,,,,,,,,,,,,,,,,,,,,,,,,,,99,M,1,r,CIB,2021_Aug_10_1547,WASABI distractmap,2020.2.10,60.002292091040594,"['Right Arm', 'Left Leg', 'Right Face', 'Left Arm', 'Left Arm', 'Right Leg', 'Chest', 'Abdomen', 'Chest', 'Right Leg', 'Right Arm', 'Left Face', 'Abdomen', 'Left Face', 'Left Leg', 'Right Face']",
3,"[0.2, 0.2]",1,,0,0,0,0,0,8,8,8,,,,,,,,,,,262.5648315004073,None,262.5648315004073,263.56482390034944,263.54816680029035,264.5481793000363,1,0.17314814814814813,-0.07777777777777778,"[0, 0, 0]",0,0,262.5648315004073,None,,,,,,,,,,,,,,,,,,,,,,,,,,,,,,,99,M,1,r,CIB,2021_Aug_10_1547,WASABI distractmap,2020.2.10,60.002292091040594,"['Right Arm', 'Left Leg', 'Right Face', 'Left Arm', 'Left Arm', 'Right Leg', 'Chest', 'Abdomen', 'Chest', 'Right Leg', 'Right Arm', 'Left Face', 'Abdomen', 'Left Face', 'Left Leg', 'Right Face']",
8,"[0, -0.2]",0,,0,0,0,0,0,9,9,9,,,,,,,,,,,264.5648690001108,None,264.5648690001108,265.5648485003039,265.5481723002158,266.5481901001185,1,0.17314814814814813,-0.07777777777777778,"[0, 0, 0]",0,0,264.5648690001108,None,,,,,,,,,,,,,,,,,,,,,,,,,,,,,,,99,M,1,r,CIB,2021_Aug_10_1547,WASABI distractmap,2020.2.10,60.002292091040594,"['Right Arm', 'Left Leg', 'Right Face', 'Left Arm', 'Left Arm', 'Right Leg', 'Chest', 'Abdomen', 'Chest', 'Right Leg', 'Right Arm', 'Left Face', 'Abdomen', 'Left Face', 'Left Leg', 'Right Face']",
1,"[-0.2, 0.2]",0,,0,0,0,0,0,10,10,10,,,,,,,,,,,266.56485350010917,None,266.56485350010917,267.56486910022795,267.54820320010185,268.54820820037276,1,0.17314814814814813,-0.07777777777777778,"[0, 0, 0]",0,0,266.56485350010917,None,,,,,,,,,,,,,,,,,,,,,,,,,,,,,,,99,M,1,r,CIB,2021_Aug_10_1547,WASABI distractmap,2020.2.10,60.002292091040594,"['Right Arm', 'Left Leg', 'Right Face', 'Left Arm', 'Left Arm', 'Right Leg', 'Chest', 'Abdomen', 'Chest', 'Right Leg', 'Right Arm', 'Left Face', 'Abdomen', 'Left Face', 'Left Leg', 'Right Face']",
2,"[0, 0.2]",0,,0,0,0,0,0,11,11,11,,,,,,,,,,,268.5648703002371,None,268.5648703002371,269.5648755002767,269.5482311001979,270.5482244002633,1,0.17314814814814813,-0.07777777777777778,"[0, 0, 0]",0,0,268.5648703002371,None,,,,,,,,,,,,,,,,,,,,,,,,,,,,,,,99,M,1,r,CIB,2021_Aug_10_1547,WASABI distractmap,2020.2.10,60.002292091040594,"['Right Arm', 'Left Leg', 'Right Face', 'Left Arm', 'Left Arm', 'Right Leg', 'Chest', 'Abdomen', 'Chest', 'Right Leg', 'Right Arm', 'Left Face', 'Abdomen', 'Left Face', 'Left Leg', 'Right Face']",
4,"[-0.2, 0]",0,,0,0,0,0,0,12,12,12,,,,,,,,,,,270.564897000324,None,270.564897000324,271.5648956000805,271.54821960022673,272.54824080038816,1,0.17314814814814813,-0.07777777777777778,"[0, 0, 0]",0,0,270.564897000324,None,,,,,,,,,,,,,,,,,,,,,,,,,,,,,,,99,M,1,r,CIB,2021_Aug_10_1547,WASABI distractmap,2020.2.10,60.002292091040594,"['Right Arm', 'Left Leg', 'Right Face', 'Left Arm', 'Left Arm', 'Right Leg', 'Chest', 'Abdomen', 'Chest', 'Right Leg', 'Right Arm', 'Left Face', 'Abdomen', 'Left Face', 'Left Leg', 'Right Face']",
4,"[-0.2, 0]",1,,0,0,0,0,0,13,13,13,,,,,,,,,,,272.5648907003924,None,272.5648907003924,273.5649162000045,273.54824680043384,274.54825440002605,0,0.17314814814814813,-0.07777777777777778,"[0, 0, 0]",0,0,272.5648907003924,None,,,,,,,,,,,,,,,,,,,,,,,,,,,,,,,99,M,1,r,CIB,2021_Aug_10_1547,WASABI distractmap,2020.2.10,60.002292091040594,"['Right Arm', 'Left Leg', 'Right Face', 'Left Arm', 'Left Arm', 'Right Leg', 'Chest', 'Abdomen', 'Chest', 'Right Leg', 'Right Arm', 'Left Face', 'Abdomen', 'Left Face', 'Left Leg', 'Right Face']",
8,"[0, -0.2]",0,,0,0,0,0,0,14,14,14,,,,,,,,,,,274.5649194000289,None,274.5649194000289,275.5649246000685,275.5482526002452,276.54826710000634,1,0.17314814814814813,-0.07777777777777778,"[0, 0, 0]",0,0,274.5649194000289,None,,,,,,,,,,,,,,,,,,,,,,,,,,,,,,,99,M,1,r,CIB,2021_Aug_10_1547,WASABI distractmap,2020.2.10,60.002292091040594,"['Right Arm', 'Left Leg', 'Right Face', 'Left Arm', 'Left Arm', 'Right Leg', 'Chest', 'Abdomen', 'Chest', 'Right Leg', 'Right Arm', 'Left Face', 'Abdomen', 'Left Face', 'Left Leg', 'Right Face']",
5,"[0, 0]",0,,0,0,0,0,0,15,15,15,,,,,,,,,,,276.5649465001188,None,276.5649465001188,277.56493740016595,277.5482678003609,278.5482857003808,1,0.17314814814814813,-0.07777777777777778,"[0, 0, 0]",0,0,276.5649465001188,None,,,,,,,,,,,,,,,,,,,,,,,,,,,,,,,99,M,1,r,CIB,2021_Aug_10_1547,WASABI distractmap,2020.2.10,60.002292091040594,"['Right Arm', 'Left Leg', 'Right Face', 'Left Arm', 'Left Arm', 'Right Leg', 'Chest', 'Abdomen', 'Chest', 'Right Leg', 'Right Arm', 'Left Face', 'Abdomen', 'Left Face', 'Left Leg', 'Right Face']",
5,"[0, 0]",1,,0,0,0,0,0,16,16,16,,,,,,,,,,,278.5649606999941,None,278.5649606999941,279.5649830000475,279.548272700049,280.5482934000902,1,0.17314814814814813,-0.07777777777777778,"[0, 0, 0]",0,0,278.5649606999941,None,,,,,,,,,,,,,,,,,,,,,,,,,,,,,,,99,M,1,r,CIB,2021_Aug_10_1547,WASABI distractmap,2020.2.10,60.002292091040594,"['Right Arm', 'Left Leg', 'Right Face', 'Left Arm', 'Left Arm', 'Right Leg', 'Chest', 'Abdomen', 'Chest', 'Right Leg', 'Right Arm', 'Left Face', 'Abdomen', 'Left Face', 'Left Leg', 'Right Face']",
1,"[-0.2, 0.2]",0,,0,0,0,0,0,17,17,17,,,,,,,,,,,280.56496320012957,None,280.56496320012957,281.56497750012204,281.548311999999,282.54830760043114,1,0.17314814814814813,-0.07777777777777778,"[0, 0, 0]",0,0,280.56496320012957,None,,,,,,,,,,,,,,,,,,,,,,,,,,,,,,,99,M,1,r,CIB,2021_Aug_10_1547,WASABI distractmap,2020.2.10,60.002292091040594,"['Right Arm', 'Left Leg', 'Right Face', 'Left Arm', 'Left Arm', 'Right Leg', 'Chest', 'Abdomen', 'Chest', 'Right Leg', 'Right Arm', 'Left Face', 'Abdomen', 'Left Face', 'Left Leg', 'Right Face']",
3,"[0.2, 0.2]",0,,0,0,0,0,0,18,18,18,,,,,,,,,,,282.5649882000871,None,282.5649882000871,283.5649864003062,283.548310500104,284.5483275000006,1,0.17314814814814813,-0.07777777777777778,"[0, 0, 0]",0,0,282.5649882000871,None,,,,,,,,,,,,,,,,,,,,,,,,,,,,,,,99,M,1,r,CIB,2021_Aug_10_1547,WASABI distractmap,2020.2.10,60.002292091040594,"['Right Arm', 'Left Leg', 'Right Face', 'Left Arm', 'Left Arm', 'Right Leg', 'Chest', 'Abdomen', 'Chest', 'Right Leg', 'Right Arm', 'Left Face', 'Abdomen', 'Left Face', 'Left Leg', 'Right Face']",
6,"[0.2, 0]",0,,0,0,0,0,0,19,19,19,,,,,,,,,,,284.56503520021215,None,284.56503520021215,285.56500910036266,285.5482620000839,286.5483291000128,1,0.17314814814814813,-0.07777777777777778,"[0, 0, 0]",0,0,284.56503520021215,None,,,,,,,,,,,,,,,,,,,,,,,,,,,,,,,99,M,1,r,CIB,2021_Aug_10_1547,WASABI distractmap,2020.2.10,60.002292091040594,"['Right Arm', 'Left Leg', 'Right Face', 'Left Arm', 'Left Arm', 'Right Leg', 'Chest', 'Abdomen', 'Chest', 'Right Leg', 'Right Arm', 'Left Face', 'Abdomen', 'Left Face', 'Left Leg', 'Right Face']",
1,"[-0.2, 0.2]",0,,0,0,0,0,0,20,20,20,,,,,,,,,,,286.56501090014353,None,286.56501090014353,287.5650194003247,287.54838770022616,288.5483537004329,1,0.17314814814814813,-0.07777777777777778,"[0, 0, 0]",0,0,286.56501090014353,None,,,,,,,,,,,,,,,,,,,,,,,,,,,,,,,99,M,1,r,CIB,2021_Aug_10_1547,WASABI distractmap,2020.2.10,60.002292091040594,"['Right Arm', 'Left Leg', 'Right Face', 'Left Arm', 'Left Arm', 'Right Leg', 'Chest', 'Abdomen', 'Chest', 'Right Leg', 'Right Arm', 'Left Face', 'Abdomen', 'Left Face', 'Left Leg', 'Right Face']",
1,"[-0.2, 0.2]",1,,0,0,0,0,0,21,21,21,,,,,,,,,,,288.5650146002881,None,288.5650146002881,289.5650244001299,289.5483643002808,290.5483713001013,1,0.17314814814814813,-0.07777777777777778,"[0, 0, 0]",0,0,288.5650146002881,None,,,,,,,,,,,,,,,,,,,,,,,,,,,,,,,99,M,1,r,CIB,2021_Aug_10_1547,WASABI distractmap,2020.2.10,60.002292091040594,"['Right Arm', 'Left Leg', 'Right Face', 'Left Arm', 'Left Arm', 'Right Leg', 'Chest', 'Abdomen', 'Chest', 'Right Leg', 'Right Arm', 'Left Face', 'Abdomen', 'Left Face', 'Left Leg', 'Right Face']",
1,"[-0.2, 0.2]",1,,0,0,0,0,0,22,22,22,,,,,,,,,,,290.56503810035065,None,290.56503810035065,291.56504500005394,291.54837070032954,292.5483742002398,0,0.17314814814814813,-0.07777777777777778,"[0, 0, 0]",0,0,290.56503810035065,None,,,,,,,,,,,,,,,,,,,,,,,,,,,,,,,99,M,1,r,CIB,2021_Aug_10_1547,WASABI distractmap,2020.2.10,60.002292091040594,"['Right Arm', 'Left Leg', 'Right Face', 'Left Arm', 'Left Arm', 'Right Leg', 'Chest', 'Abdomen', 'Chest', 'Right Leg', 'Right Arm', 'Left Face', 'Abdomen', 'Left Face', 'Left Leg', 'Right Face']",
3,"[0.2, 0.2]",0,,0,0,0,0,0,23,23,23,,,,,,,,,,,292.56503800023347,None,292.56503800023347,293.56508349999785,293.5484427004121,294.5483955000527,1,0.17314814814814813,-0.07777777777777778,"[0, 0, 0]",0,0,292.56503800023347,None,,,,,,,,,,,,,,,,,,,,,,,,,,,,,,,99,M,1,r,CIB,2021_Aug_10_1547,WASABI distractmap,2020.2.10,60.002292091040594,"['Right Arm', 'Left Leg', 'Right Face', 'Left Arm', 'Left Arm', 'Right Leg', 'Chest', 'Abdomen', 'Chest', 'Right Leg', 'Right Arm', 'Left Face', 'Abdomen', 'Left Face', 'Left Leg', 'Right Face']",
2,"[0, 0.2]",0,,0,0,0,0,0,24,24,24,,,,,,,,,,,294.565080200322,None,294.565080200322,295.56507300026715,295.5484031001106,296.5484066000208,1,0.17314814814814813,-0.07777777777777778,"[0, 0, 0]",0,0,294.565080200322,None,,,,,,,,,,,,,,,,,,,,,,,,,,,,,,,99,M,1,r,CIB,2021_Aug_10_1547,WASABI distractmap,2020.2.10,60.002292091040594,"['Right Arm', 'Left Leg', 'Right Face', 'Left Arm', 'Left Arm', 'Right Leg', 'Chest', 'Abdomen', 'Chest', 'Right Leg', 'Right Arm', 'Left Face', 'Abdomen', 'Left Face', 'Left Leg', 'Right Face']",
1,"[-0.2, 0.2]",0,,0,0,0,0,0,25,25,25,,,,,,,,,,,296.5650867000222,None,296.5650867000222,297.56510220002383,297.54841769998893,298.5484208003618,1,0.17314814814814813,-0.07777777777777778,"[0, 0, 0]",0,0,296.5650867000222,None,,,,,,,,,,,,,,,,,,,,,,,,,,,,,,,99,M,1,r,CIB,2021_Aug_10_1547,WASABI distractmap,2020.2.10,60.002292091040594,"['Right Arm', 'Left Leg', 'Right Face', 'Left Arm', 'Left Arm', 'Right Leg', 'Chest', 'Abdomen', 'Chest', 'Right Leg', 'Right Arm', 'Left Face', 'Abdomen', 'Left Face', 'Left Leg', 'Right Face']",
7,"[-0.2, -0.2]",0,,0,0,0,0,0,26,26,26,,,,,,,,,,,298.56510330038145,None,298.56510330038145,299.56510850042105,299.5484283003025,300.5484551000409,1,0.17314814814814813,-0.07777777777777778,"[0, 0, 0]",0,0,298.56510330038145,None,,,,,,,,,,,,,,,,,,,,,,,,,,,,,,,99,M,1,r,CIB,2021_Aug_10_1547,WASABI distractmap,2020.2.10,60.002292091040594,"['Right Arm', 'Left Leg', 'Right Face', 'Left Arm', 'Left Arm', 'Right Leg', 'Chest', 'Abdomen', 'Chest', 'Right Leg', 'Right Arm', 'Left Face', 'Abdomen', 'Left Face', 'Left Leg', 'Right Face']",
7,"[-0.2, -0.2]",1,,0,0,0,0,0,27,27,27,,,,,,,,,,,300.565103800036,None,300.565103800036,301.5651149000041,301.5483282003552,302.5484496001154,0,0.17314814814814813,-0.07777777777777778,"[0, 0, 0]",0,0,300.565103800036,None,,,,,,,,,,,,,,,,,,,,,,,,,,,,,,,99,M,1,r,CIB,2021_Aug_10_1547,WASABI distractmap,2020.2.10,60.002292091040594,"['Right Arm', 'Left Leg', 'Right Face', 'Left Arm', 'Left Arm', 'Right Leg', 'Chest', 'Abdomen', 'Chest', 'Right Leg', 'Right Arm', 'Left Face', 'Abdomen', 'Left Face', 'Left Leg', 'Right Face']",
2,"[0, 0.2]",0,,0,0,0,0,0,28,28,28,,,,,,,,,,,302.5651173000224,None,302.5651173000224,303.565119900275,303.54845380038023,304.5484740003012,1,0.17314814814814813,-0.07777777777777778,"[0, 0, 0]",0,0,302.5651173000224,None,,,,,,,,,,,,,,,,,,,,,,,,,,,,,,,99,M,1,r,CIB,2021_Aug_10_1547,WASABI distractmap,2020.2.10,60.002292091040594,"['Right Arm', 'Left Leg', 'Right Face', 'Left Arm', 'Left Arm', 'Right Leg', 'Chest', 'Abdomen', 'Chest', 'Right Leg', 'Right Arm', 'Left Face', 'Abdomen', 'Left Face', 'Left Leg', 'Right Face']",
6,"[0.2, 0]",0,,0,0,0,0,0,29,29,29,,,,,,,,,,,304.56514420034364,None,304.56514420034364,305.5651217000559,305.54847520031035,306.5484994002618,1,0.17314814814814813,-0.07777777777777778,"[0, 0, 0]",0,0,304.56514420034364,None,,,,,,,,,,,,,,,,,,,,,,,,,,,,,,,99,M,1,r,CIB,2021_Aug_10_1547,WASABI distractmap,2020.2.10,60.002292091040594,"['Right Arm', 'Left Leg', 'Right Face', 'Left Arm', 'Left Arm', 'Right Leg', 'Chest', 'Abdomen', 'Chest', 'Right Leg', 'Right Arm', 'Left Face', 'Abdomen', 'Left Face', 'Left Leg', 'Right Face']",
,,,,0,0,0,0,,,,,,,,,,,,,,,,,,,,,,,,,,,,,306.5818129000254,None,space,306.5818129000254,None,,,,,,,,,,,,,,,,,,,,,,,,,,99,M,1,r,CIB,2021_Aug_10_1547,WASABI distractmap,2020.2.10,60.002292091040594,"['Right Arm', 'Left Leg', 'Right Face', 'Left Arm', 'Left Arm', 'Right Leg', 'Chest', 'Abdomen', 'Chest', 'Right Leg', 'Right Arm', 'Left Face', 'Abdomen', 'Left Face', 'Left Leg', 'Right Face']",
6,"[0.2, 0]",None,,,,,,,,,,0,0,0,0,,,,,326.3818550002761,None,,,,,,,,,,,,,,,,,,,,None,None,"[0, 0, 0]",327.39863930037245,None,327.39863930037245,328.3986850003712,328.38198980037123,329.38198370020837,"[0, 0, 0]",1,327.39863930037245,None,,,,,,,,,,,,,99,M,1,r,CIB,2021_Aug_10_1547,WASABI distractmap,2020.2.10,60.002292091040594,"['Right Arm', 'Left Leg', 'Right Face', 'Left Arm', 'Left Arm', 'Right Leg', 'Chest', 'Abdomen', 'Chest', 'Right Leg', 'Right Arm', 'Left Face', 'Abdomen', 'Left Face', 'Left Leg', 'Right Face']",
7,"[-0.2, -0.2]",None,,,,,,,,,,0,1,1,1,,,,,,,,,,,,,,,,,,,,,,,,,,None,None,"[0, 0, 0]",329.3986508999951,331.3986680000089,329.3986508999951,330.3986759004183,330.3820020002313,331.38200970040634,"[0, 0, 0]",1,329.3986508999951,331.3986680000089,,,,,,,,,,,,,99,M,1,r,CIB,2021_Aug_10_1547,WASABI distractmap,2020.2.10,60.002292091040594,"['Right Arm', 'Left Leg', 'Right Face', 'Left Arm', 'Left Arm', 'Right Leg', 'Chest', 'Abdomen', 'Chest', 'Right Leg', 'Right Arm', 'Left Face', 'Abdomen', 'Left Face', 'Left Leg', 'Right Face']",
6,"[0.2, 0]",1,,,,,,,,,,0,2,2,2,,,,,,,,,,,,,,,,,,,,,,,,,,None,None,"[0, 0, 0]",331.4153370000422,333.41534460010007,331.4153370000422,332.41533430013806,332.39866730012,333.3986722002737,"[0, 0, 0]",0,331.4153370000422,333.41534460010007,,,,,,,,,,,,,99,M,1,r,CIB,2021_Aug_10_1547,WASABI distractmap,2020.2.10,60.002292091040594,"['Right Arm', 'Left Leg', 'Right Face', 'Left Arm', 'Left Arm', 'Right Leg', 'Chest', 'Abdomen', 'Chest', 'Right Leg', 'Right Arm', 'Left Face', 'Abdomen', 'Left Face', 'Left Leg', 'Right Face']",
2,"[0, 0.2]",0,,,,,,,,,,0,3,3,3,,,,,,,,,,,,,,,,,,,,,,,,,,None,None,"[0, 0, 0]",333.4320237999782,335.43209950020537,333.4320237999782,334.4320472003892,334.4153695004061,335.4153665001504,"[0, 0, 0]",0,333.4320237999782,335.43209950020537,,,,,,,,,,,,,99,M,1,r,CIB,2021_Aug_10_1547,WASABI distractmap,2020.2.10,60.002292091040594,"['Right Arm', 'Left Leg', 'Right Face', 'Left Arm', 'Left Arm', 'Right Leg', 'Chest', 'Abdomen', 'Chest', 'Right Leg', 'Right Arm', 'Left Face', 'Abdomen', 'Left Face', 'Left Leg', 'Right Face']",
5,"[0, 0]",0,,,,,,,,,,0,4,4,4,,,,,,,,,,,,,,,,,,,,,,,,,,None,None,"[0, 0, 0]",335.4487303001806,337.4487280002795,335.4487303001806,336.448733500205,336.432083400432,337.4320590002462,"[0, 0, 0]",0,335.4487303001806,337.4487280002795,,,,,,,,,,,,,99,M,1,r,CIB,2021_Aug_10_1547,WASABI distractmap,2020.2.10,60.002292091040594,"['Right Arm', 'Left Leg', 'Right Face', 'Left Arm', 'Left Arm', 'Right Leg', 'Chest', 'Abdomen', 'Chest', 'Right Leg', 'Right Arm', 'Left Face', 'Abdomen', 'Left Face', 'Left Leg', 'Right Face']",
4,"[-0.2, 0]",0,,,,,,,,,,0,5,5,5,,,,,,,,,,,,,,,,,,,,,,,,,,None,None,"[0, 0, 0]",337.46540950005874,339.4654172002338,337.46540950005874,338.46536410041153,338.4486879003234,339.44876100029796,"[0, 0, 0]",0,337.46540950005874,339.4654172002338,,,,,,,,,,,,,99,M,1,r,CIB,2021_Aug_10_1547,WASABI distractmap,2020.2.10,60.002292091040594,"['Right Arm', 'Left Leg', 'Right Face', 'Left Arm', 'Left Arm', 'Right Leg', 'Chest', 'Abdomen', 'Chest', 'Right Leg', 'Right Arm', 'Left Face', 'Abdomen', 'Left Face', 'Left Leg', 'Right Face']",
4,"[-0.2, 0]",0,,,,,,,,,,0,6,6,6,,,,,,,,,,,,,,,,,,,,,,,,,,None,None,"[0, 0, 0]",339.48208210011944,341.4820993002504,339.48208210011944,340.4820699002594,340.4654091000557,341.4653931003995,"[0, 0, 0]",0,339.48208210011944,341.4820993002504,,,,,,,,,,,,,99,M,1,r,CIB,2021_Aug_10_1547,WASABI distractmap,2020.2.10,60.002292091040594,"['Right Arm', 'Left Leg', 'Right Face', 'Left Arm', 'Left Arm', 'Right Leg', 'Chest', 'Abdomen', 'Chest', 'Right Leg', 'Right Arm', 'Left Face', 'Abdomen', 'Left Face', 'Left Leg', 'Right Face']",
7,"[-0.2, -0.2]",0,,,,,,,,,,0,7,7,7,,,,,,,,,,,,,,,,,,,,,,,,,,None,None,"[0, 0, 0]",341.4987445003353,343.49875020002946,341.4987445003353,342.4999916004017,342.4821245004423,343.48208940029144,"[0, 0, 0]",0,341.4987445003353,343.49875020002946,,,,,,,,,,,,,99,M,1,r,CIB,2021_Aug_10_1547,WASABI distractmap,2020.2.10,60.002292091040594,"['Right Arm', 'Left Leg', 'Right Face', 'Left Arm', 'Left Arm', 'Right Leg', 'Chest', 'Abdomen', 'Chest', 'Right Leg', 'Right Arm', 'Left Face', 'Abdomen', 'Left Face', 'Left Leg', 'Right Face']",
4,"[-0.2, 0]",1,,,,,,,,,,0,8,8,8,,,,,,,,,,,,,,,,,,,,,,,,,,None,None,"[0, 0, 0]",343.51542660035193,345.5154375000857,343.51542660035193,344.51543400017545,344.49875960033387,345.49876040033996,"[0, 0, 0]",0,343.51542660035193,345.5154375000857,,,,,,,,,,,,,99,M,1,r,CIB,2021_Aug_10_1547,WASABI distractmap,2020.2.10,60.002292091040594,"['Right Arm', 'Left Leg', 'Right Face', 'Left Arm', 'Left Arm', 'Right Leg', 'Chest', 'Abdomen', 'Chest', 'Right Leg', 'Right Arm', 'Left Face', 'Abdomen', 'Left Face', 'Left Leg', 'Right Face']",
3,"[0.2, 0.2]",0,,,,,,,,,,0,9,9,9,,,,,,,,,,,,,,,,,,,,,,,,,,None,None,"[0, 0, 0]",345.53210150031373,347.53217030037194,345.53210150031373,346.53210140019655,346.5154349002987,347.51546650007367,"[0, 0, 0]",0,345.53210150031373,347.53217030037194,,,,,,,,,,,,,99,M,1,r,CIB,2021_Aug_10_1547,WASABI distractmap,2020.2.10,60.002292091040594,"['Right Arm', 'Left Leg', 'Right Face', 'Left Arm', 'Left Arm', 'Right Leg', 'Chest', 'Abdomen', 'Chest', 'Right Leg', 'Right Arm', 'Left Face', 'Abdomen', 'Left Face', 'Left Leg', 'Right Face']",
5,"[0, 0]",0,,,,,,,,,,0,10,10,10,,,,,,,,,,,,,,,,,,,,,,,,,,None,None,"[0, 0, 0]",347.54880520002916,349.5487879002467,347.54880520002916,348.5487944004126,348.5321301002987,349.53213579999283,"[0, 0, 0]",0,347.54880520002916,349.5487879002467,,,,,,,,,,,,,99,M,1,r,CIB,2021_Aug_10_1547,WASABI distractmap,2020.2.10,60.002292091040594,"['Right Arm', 'Left Leg', 'Right Face', 'Left Arm', 'Left Arm', 'Right Leg', 'Chest', 'Abdomen', 'Chest', 'Right Leg', 'Right Arm', 'Left Face', 'Abdomen', 'Left Face', 'Left Leg', 'Right Face']",
3,"[0.2, 0.2]",1,,,,,,,,,,0,11,11,11,,,,,,,,,,,,,,,,,,,,,,,,,,None,None,"[0, 0, 0]",349.5654656002298,351.5654722000472,349.5654656002298,350.56546620000154,350.5488072000444,351.5488154999912,"[0, 0, 0]",0,349.5654656002298,351.5654722000472,,,,,,,,,,,,,99,M,1,r,CIB,2021_Aug_10_1547,WASABI distractmap,2020.2.10,60.002292091040594,"['Right Arm', 'Left Leg', 'Right Face', 'Left Arm', 'Left Arm', 'Right Leg', 'Chest', 'Abdomen', 'Chest', 'Right Leg', 'Right Arm', 'Left Face', 'Abdomen', 'Left Face', 'Left Leg', 'Right Face']",
1,"[-0.2, 0.2]",0,,,,,,,,,,0,12,12,12,,,,,,,,,,,,,,,,,,,,,,,,,,None,None,"[0, 0, 0]",351.58214230043814,353.58215510006994,351.58214230043814,352.5821686000563,352.5654864003882,353.56549350032583,"[0, 0, 0]",0,351.58214230043814,353.58215510006994,,,,,,,,,,,,,99,M,1,r,CIB,2021_Aug_10_1547,WASABI distractmap,2020.2.10,60.002292091040594,"['Right Arm', 'Left Leg', 'Right Face', 'Left Arm', 'Left Arm', 'Right Leg', 'Chest', 'Abdomen', 'Chest', 'Right Leg', 'Right Arm', 'Left Face', 'Abdomen', 'Left Face', 'Left Leg', 'Right Face']",
9,"[0.2, -0.2]",0,,,,,,,,,,0,13,13,13,,,,,,,,,,,,,,,,,,,,,,,,,,None,None,"[0, 0, 0]",353.5988242002204,355.59884690027684,353.5988242002204,354.59882830036804,354.5821659001522,355.5821791002527,"[0, 0, 0]",0,353.5988242002204,355.59884690027684,,,,,,,,,,,,,99,M,1,r,CIB,2021_Aug_10_1547,WASABI distractmap,2020.2.10,60.002292091040594,"['Right Arm', 'Left Leg', 'Right Face', 'Left Arm', 'Left Arm', 'Right Leg', 'Chest', 'Abdomen', 'Chest', 'Right Leg', 'Right Arm', 'Left Face', 'Abdomen', 'Left Face', 'Left Leg', 'Right Face']",
9,"[0.2, -0.2]",0,,,,,,,,,,0,14,14,14,,,,,,,,,,,,,,,,,,,,,,,,,,None,None,"[0, 0, 0]",355.6155183999799,357.6155155003071,355.6155183999799,356.61552460025996,356.59883880009875,357.5988694000989,"[0, 0, 0]",0,355.6155183999799,357.6155155003071,,,,,,,,,,,,,99,M,1,r,CIB,2021_Aug_10_1547,WASABI distractmap,2020.2.10,60.002292091040594,"['Right Arm', 'Left Leg', 'Right Face', 'Left Arm', 'Left Arm', 'Right Leg', 'Chest', 'Abdomen', 'Chest', 'Right Leg', 'Right Arm', 'Left Face', 'Abdomen', 'Left Face', 'Left Leg', 'Right Face']",
8,"[0, -0.2]",0,,,,,,,,,,0,15,15,15,,,,,,,,,,,,,,,,,,,,,,,,,,None,None,"[0, 0, 0]",357.63218330033123,359.63220180012286,357.63218330033123,358.6321932002902,358.6155392001383,359.6155415000394,"[0, 0, 0]",0,357.63218330033123,359.63220180012286,,,,,,,,,,,,,99,M,1,r,CIB,2021_Aug_10_1547,WASABI distractmap,2020.2.10,60.002292091040594,"['Right Arm', 'Left Leg', 'Right Face', 'Left Arm', 'Left Arm', 'Right Leg', 'Chest', 'Abdomen', 'Chest', 'Right Leg', 'Right Arm', 'Left Face', 'Abdomen', 'Left Face', 'Left Leg', 'Right Face']",
6,"[0.2, 0]",0,,,,,,,,,,0,16,16,16,,,,,,,,,,,,,,,,,,,,,,,,,,None,None,"[0, 0, 0]",359.64887370029464,361.6488935002126,359.64887370029464,360.64888270013034,360.632208800409,361.63221870036796,"[0, 0, 0]",0,359.64887370029464,361.6488935002126,,,,,,,,,,,,,99,M,1,r,CIB,2021_Aug_10_1547,WASABI distractmap,2020.2.10,60.002292091040594,"['Right Arm', 'Left Leg', 'Right Face', 'Left Arm', 'Left Arm', 'Right Leg', 'Chest', 'Abdomen', 'Chest', 'Right Leg', 'Right Arm', 'Left Face', 'Abdomen', 'Left Face', 'Left Leg', 'Right Face']",
3,"[0.2, 0.2]",0,,,,,,,,,,0,17,17,17,,,,,,,,,,,,,,,,,,,,,,,,,,None,None,"[0, 0, 0]",361.66554630035535,363.66556710004807,361.66554630035535,362.66557030007243,362.64888270013034,363.6489505004138,"[0, 0, 0]",0,361.66554630035535,363.66556710004807,,,,,,,,,,,,,99,M,1,r,CIB,2021_Aug_10_1547,WASABI distractmap,2020.2.10,60.002292091040594,"['Right Arm', 'Left Leg', 'Right Face', 'Left Arm', 'Left Arm', 'Right Leg', 'Chest', 'Abdomen', 'Chest', 'Right Leg', 'Right Arm', 'Left Face', 'Abdomen', 'Left Face', 'Left Leg', 'Right Face']",
6,"[0.2, 0]",1,,,,,,,,,,0,18,18,18,,,,,,,,,,,,,,,,,,,,,,,,,,None,None,"[0, 0, 0]",363.6822875002399,365.68224780028686,363.6822875002399,364.6822489001788,364.6655779001303,365.6654710001312,"[0, 0, 0]",0,363.6822875002399,365.68224780028686,,,,,,,,,,,,,99,M,1,r,CIB,2021_Aug_10_1547,WASABI distractmap,2020.2.10,60.002292091040594,"['Right Arm', 'Left Leg', 'Right Face', 'Left Arm', 'Left Arm', 'Right Leg', 'Chest', 'Abdomen', 'Chest', 'Right Leg', 'Right Arm', 'Left Face', 'Abdomen', 'Left Face', 'Left Leg', 'Right Face']",
5,"[0, 0]",0,,,,,,,,,,0,19,19,19,,,,,,,,,,,,,,,,,,,,,,,,,,None,None,"[0, 0, 0]",365.6989321000874,367.6989868003875,365.6989321000874,366.6989304004237,366.68226560018957,367.6823194003664,"[0, 0, 0]",0,365.6989321000874,367.6989868003875,,,,,,,,,,,,,99,M,1,r,CIB,2021_Aug_10_1547,WASABI distractmap,2020.2.10,60.002292091040594,"['Right Arm', 'Left Leg', 'Right Face', 'Left Arm', 'Left Arm', 'Right Leg', 'Chest', 'Abdomen', 'Chest', 'Right Leg', 'Right Arm', 'Left Face', 'Abdomen', 'Left Face', 'Left Leg', 'Right Face']",
7,"[-0.2, -0.2]",0,,,,,,,,,,0,20,20,20,,,,,,,,,,,,,,,,,,,,,,,,,,None,None,"[0, 0, 0]",367.71560070011765,369.71558750001714,367.71560070011765,368.7155394000001,368.6988379000686,369.69894350040704,"[0, 0, 0]",0,367.71560070011765,369.71558750001714,,,,,,,,,,,,,99,M,1,r,CIB,2021_Aug_10_1547,WASABI distractmap,2020.2.10,60.002292091040594,"['Right Arm', 'Left Leg', 'Right Face', 'Left Arm', 'Left Arm', 'Right Leg', 'Chest', 'Abdomen', 'Chest', 'Right Leg', 'Right Arm', 'Left Face', 'Abdomen', 'Left Face', 'Left Leg', 'Right Face']",
5,"[0, 0]",1,,,,,,,,,,0,21,21,21,,,,,,,,,,,,,,,,,,,,,,,,,,None,None,"[0, 0, 0]",369.7322737001814,371.7323024002835,369.7322737001814,370.73229610035196,370.71561980014667,371.7156307999976,"[0, 0, 0]",0,369.7322737001814,371.7323024002835,,,,,,,,,,,,,99,M,1,r,CIB,2021_Aug_10_1547,WASABI distractmap,2020.2.10,60.002292091040594,"['Right Arm', 'Left Leg', 'Right Face', 'Left Arm', 'Left Arm', 'Right Leg', 'Chest', 'Abdomen', 'Chest', 'Right Leg', 'Right Arm', 'Left Face', 'Abdomen', 'Left Face', 'Left Leg', 'Right Face']",
1,"[-0.2, 0.2]",0,,,,,,,,,,0,22,22,22,,,,,,,,,,,,,,,,,,,,,,,,,,None,None,"[0, 0, 0]",371.7489810003899,373.7489738003351,371.7489810003899,372.7490327004343,372.73228810029104,373.73233780032024,"[0, 0, 0]",0,371.7489810003899,373.7489738003351,,,,,,,,,,,,,99,M,1,r,CIB,2021_Aug_10_1547,WASABI distractmap,2020.2.10,60.002292091040594,"['Right Arm', 'Left Leg', 'Right Face', 'Left Arm', 'Left Arm', 'Right Leg', 'Chest', 'Abdomen', 'Chest', 'Right Leg', 'Right Arm', 'Left Face', 'Abdomen', 'Left Face', 'Left Leg', 'Right Face']",
7,"[-0.2, -0.2]",0,,,,,,,,,,0,23,23,23,,,,,,,,,,,,,,,,,,,,,,,,,,None,None,"[0, 0, 0]",373.765652500093,375.7656626002863,373.765652500093,374.76564820017666,374.74900150019675,375.74899420002475,"[0, 0, 0]",0,373.765652500093,375.7656626002863,,,,,,,,,,,,,99,M,1,r,CIB,2021_Aug_10_1547,WASABI distractmap,2020.2.10,60.002292091040594,"['Right Arm', 'Left Leg', 'Right Face', 'Left Arm', 'Left Arm', 'Right Leg', 'Chest', 'Abdomen', 'Chest', 'Right Leg', 'Right Arm', 'Left Face', 'Abdomen', 'Left Face', 'Left Leg', 'Right Face']",
9,"[0.2, -0.2]",0,,,,,,,,,,0,24,24,24,,,,,,,,,,,,,,,,,,,,,,,,,,None,None,"[0, 0, 0]",375.78233120031655,377.7823375002481,375.78233120031655,376.7823331002146,376.76566610019654,377.7656750003807,"[0, 0, 0]",0,375.78233120031655,377.7823375002481,,,,,,,,,,,,,99,M,1,r,CIB,2021_Aug_10_1547,WASABI distractmap,2020.2.10,60.002292091040594,"['Right Arm', 'Left Leg', 'Right Face', 'Left Arm', 'Left Arm', 'Right Leg', 'Chest', 'Abdomen', 'Chest', 'Right Leg', 'Right Arm', 'Left Face', 'Abdomen', 'Left Face', 'Left Leg', 'Right Face']",
3,"[0.2, 0.2]",0,,,,,,,,,,0,25,25,25,,,,,,,,,,,,,,,,,,,,,,,,,,None,None,"[0, 0, 0]",377.7990035000257,379.7990641002543,377.7990035000257,378.79900480015203,378.7823522002436,379.7823525001295,"[0, 0, 0]",0,377.7990035000257,379.7990641002543,,,,,,,,,,,,,99,M,1,r,CIB,2021_Aug_10_1547,WASABI distractmap,2020.2.10,60.002292091040594,"['Right Arm', 'Left Leg', 'Right Face', 'Left Arm', 'Left Arm', 'Right Leg', 'Chest', 'Abdomen', 'Chest', 'Right Leg', 'Right Arm', 'Left Face', 'Abdomen', 'Left Face', 'Left Leg', 'Right Face']",
9,"[0.2, -0.2]",1,,,,,,,,,,0,26,26,26,,,,,,,,,,,,,,,,,,,,,,,,,,None,None,"[0, 0, 0]",379.81569000007585,381.8157045003027,379.81569000007585,380.8156968001276,380.7990333000198,381.799042200204,"[0, 0, 0]",0,379.81569000007585,381.8157045003027,,,,,,,,,,,,,99,M,1,r,CIB,2021_Aug_10_1547,WASABI distractmap,2020.2.10,60.002292091040594,"['Right Arm', 'Left Leg', 'Right Face', 'Left Arm', 'Left Arm', 'Right Leg', 'Chest', 'Abdomen', 'Chest', 'Right Leg', 'Right Arm', 'Left Face', 'Abdomen', 'Left Face', 'Left Leg', 'Right Face']",
6,"[0.2, 0]",0,,,,,,,,,,0,27,27,27,,,,,,,,,,,,,,,,,,,,,,,,,,None,None,"[0, 0, 0]",381.8323656003922,383.83237950038165,381.8323656003922,382.83236990030855,382.8157135001384,383.815740799997,"[0, 0, 0]",0,381.8323656003922,383.83237950038165,,,,,,,,,,,,,99,M,1,r,CIB,2021_Aug_10_1547,WASABI distractmap,2020.2.10,60.002292091040594,"['Right Arm', 'Left Leg', 'Right Face', 'Left Arm', 'Left Arm', 'Right Leg', 'Chest', 'Abdomen', 'Chest', 'Right Leg', 'Right Arm', 'Left Face', 'Abdomen', 'Left Face', 'Left Leg', 'Right Face']",
2,"[0, 0.2]",0,,,,,,,,,,0,28,28,28,,,,,,,,,,,,,,,,,,,,,,,,,,None,None,"[0, 0, 0]",383.8490638001822,385.84906110027805,383.8490638001822,384.84907160000876,384.8324037999846,385.83240990014747,"[0, 0, 0]",0,383.8490638001822,385.84906110027805,,,,,,,,,,,,,99,M,1,r,CIB,2021_Aug_10_1547,WASABI distractmap,2020.2.10,60.002292091040594,"['Right Arm', 'Left Leg', 'Right Face', 'Left Arm', 'Left Arm', 'Right Leg', 'Chest', 'Abdomen', 'Chest', 'Right Leg', 'Right Arm', 'Left Face', 'Abdomen', 'Left Face', 'Left Leg', 'Right Face']",
5,"[0, 0]",0,,,,,,,,,,0,29,29,29,,,,,,,,,,,,,,,,,,,,,,,,,,None,None,"[0, 0, 0]",385.8657247000374,387.86575600039214,385.8657247000374,386.8657401003875,386.8490888001397,387.8491128003225,"[0, 0, 0]",0,385.8657247000374,387.86575600039214,,,,,,,,,,,,,99,M,1,r,CIB,2021_Aug_10_1547,WASABI distractmap,2020.2.10,60.002292091040594,"['Right Arm', 'Left Leg', 'Right Face', 'Left Arm', 'Left Arm', 'Right Leg', 'Chest', 'Abdomen', 'Chest', 'Right Leg', 'Right Arm', 'Left Face', 'Abdomen', 'Left Face', 'Left Leg', 'Right Face']",
,,,,,,,,,,,,,,,,,,,,,,,,,,,,,,,,,,,,387.8990993001498,None,space,387.8990993001498,None,,,,,,,,,,,,,,,,,,,,,,,,,,99,M,1,r,CIB,2021_Aug_10_1547,WASABI distractmap,2020.2.10,60.002292091040594,"['Right Arm', 'Left Leg', 'Right Face', 'Left Arm', 'Left Arm', 'Right Leg', 'Chest', 'Abdomen', 'Chest', 'Right Leg', 'Right Arm', 'Left Face', 'Abdomen', 'Left Face', 'Left Leg', 'Right Face']",
4,"[-0.2, 0]",None,stimuli/orders/stimOrder3.xlsx,,,,,0,0,0,0,,,,,0,0,0,1,476.39993400033563,None,493.5002314001322,None,493.5002314001322,494.4998658001423,494.4832115001045,None,1,None,None,"[0, 0, 0]",,,493.5002314001322,None,,,,,,,,,,,,,,,,,,,456.5665365001187,456.5665365001187,None,space,1.7937968000769615,456.5665365001187,None,"[0, 0, 0]",,,,,99,M,1,r,CIB,2021_Aug_10_1547,WASABI distractmap,2020.2.10,60.002292091040594,"['Right Arm', 'Left Leg', 'Right Face', 'Left Arm', 'Left Arm', 'Right Leg', 'Chest', 'Abdomen', 'Chest', 'Right Leg', 'Right Arm', 'Left Face', 'Abdomen', 'Left Face', 'Left Leg', 'Right Face']",
7,"[-0.2, -0.2]",0,stimuli/orders/stimOrder3.xlsx,,,,,0,1,1,1,,,,,0,0,0,1,,,495.483196800109,None,495.483196800109,496.4831886002794,496.4665486002341,497.4665587004274,0,None,None,"[0, 0, 0]",,,495.483196800109,None,,,,,,,,,,,,,,,,,,,,,,,,,,"[0, 0, 0]",,,,,99,M,1,r,CIB,2021_Aug_10_1547,WASABI distractmap,2020.2.10,60.002292091040594,"['Right Arm', 'Left Leg', 'Right Face', 'Left Arm', 'Left Arm', 'Right Leg', 'Chest', 'Abdomen', 'Chest', 'Right Leg', 'Right Arm', 'Left Face', 'Abdomen', 'Left Face', 'Left Leg', 'Right Face']",
7,"[-0.2, -0.2]",1,stimuli/orders/stimOrder3.xlsx,,,,,0,2,2,2,,,,,0,0,0,1,,,497.4832124002278,497.4832124002278,497.4832124002278,498.4832395003177,498.4665502002463,499.46657190006226,0,None,None,"[0, 0, 0]",,,497.4832124002278,497.4832124002278,,,,,,,,,,,,,,,,,,,,,,,,,,"[0, 0, 0]",,,,,99,M,1,r,CIB,2021_Aug_10_1547,WASABI distractmap,2020.2.10,60.002292091040594,"['Right Arm', 'Left Leg', 'Right Face', 'Left Arm', 'Left Arm', 'Right Leg', 'Chest', 'Abdomen', 'Chest', 'Right Leg', 'Right Arm', 'Left Face', 'Abdomen', 'Left Face', 'Left Leg', 'Right Face']",
4,"[-0.2, 0]",0,stimuli/orders/stimOrder3.xlsx,,,,,0,3,3,3,,,,,0,0,0,1,,,499.48324740026146,499.48324740026146,499.48324740026146,500.48325330019,500.4665636001155,501.4665713002905,0,None,None,"[0, 0, 0]",,,499.48324740026146,499.48324740026146,,,,,,,,,,,,,,,,,,,,,,,,,,"[0, 0, 0]",,,,,99,M,1,r,CIB,2021_Aug_10_1547,WASABI distractmap,2020.2.10,60.002292091040594,"['Right Arm', 'Left Leg', 'Right Face', 'Left Arm', 'Left Arm', 'Right Leg', 'Chest', 'Abdomen', 'Chest', 'Right Leg', 'Right Arm', 'Left Face', 'Abdomen', 'Left Face', 'Left Leg', 'Right Face']",
8,"[0, -0.2]",0,stimuli/orders/stimOrder3.xlsx,,,,,0,4,4,4,,,,,0,0,0,1,,,501.4832421001047,501.4832421001047,501.4832421001047,502.48324750037864,502.46659560035914,503.4665945000015,0,None,None,"[0, 0, 0]",,,501.4832421001047,501.4832421001047,,,,,,,,,,,,,,,,,,,,,,,,,,"[0, 0, 0]",,,,,99,M,1,r,CIB,2021_Aug_10_1547,WASABI distractmap,2020.2.10,60.002292091040594,"['Right Arm', 'Left Leg', 'Right Face', 'Left Arm', 'Left Arm', 'Right Leg', 'Chest', 'Abdomen', 'Chest', 'Right Leg', 'Right Arm', 'Left Face', 'Abdomen', 'Left Face', 'Left Leg', 'Right Face']",
4,"[-0.2, 0]",0,stimuli/orders/stimOrder3.xlsx,,,,,0,5,5,5,,,,,0,0,0,1,,,503.4832729003392,503.4832729003392,503.4832729003392,504.4832688001916,504.4665996003896,505.4666139003821,0,None,None,"[0, 0, 0]",,,503.4832729003392,503.4832729003392,,,,,,,,,,,,,,,,,,,,,,,,,,"[0, 0, 0]",,,,,99,M,1,r,CIB,2021_Aug_10_1547,WASABI distractmap,2020.2.10,60.002292091040594,"['Right Arm', 'Left Leg', 'Right Face', 'Left Arm', 'Left Arm', 'Right Leg', 'Chest', 'Abdomen', 'Chest', 'Right Leg', 'Right Arm', 'Left Face', 'Abdomen', 'Left Face', 'Left Leg', 'Right Face']",
7,"[-0.2, -0.2]",0,stimuli/orders/stimOrder3.xlsx,,,,,0,6,6,6,,,,,0,0,0,1,,,505.4832762000151,505.4832762000151,505.4832762000151,506.4832951002754,506.4666538001038,507.4666262003593,0,None,None,"[0, 0, 0]",,,505.4832762000151,505.4832762000151,,,,,,,,,,,,,,,,,,,,,,,,,,"[0, 0, 0]",,,,,99,M,1,r,CIB,2021_Aug_10_1547,WASABI distractmap,2020.2.10,60.002292091040594,"['Right Arm', 'Left Leg', 'Right Face', 'Left Arm', 'Left Arm', 'Right Leg', 'Chest', 'Abdomen', 'Chest', 'Right Leg', 'Right Arm', 'Left Face', 'Abdomen', 'Left Face', 'Left Leg', 'Right Face']",
,,,stimuli/orders/stimOrder3.xlsx,,,,,,,,,,,,,0,0,0,1,,,,,,,,,,,,,,,,,,,,,,,,,,,,,,,,,,,,,,,,,,,50.0,497.1178328599781,,,99,M,1,r,CIB,2021_Aug_10_1547,WASABI distractmap,2020.2.10,60.002292091040594,"['Right Arm', 'Left Leg', 'Right Face', 'Left Arm', 'Left Arm', 'Right Leg', 'Chest', 'Abdomen', 'Chest', 'Right Leg', 'Right Arm', 'Left Face', 'Abdomen', 'Left Face', 'Left Leg', 'Right Face']",
4,"[-0.2, 0]",None,stimuli/orders/stimOrder3.xlsx,,,,,0,0,0,0,,,,,0,0,0,1,512.4835157003254,None,530.5170098003,None,530.5170098003,531.5167992003262,531.5001383000053,None,1,None,None,"[0, 0, 0]",,,530.5170098003,None,,,,,,,,,,,,,,,,,,,,,,,,,,"[0, 0, 0]",,,0.013096040114760399,5.009382740128785,99,M,1,r,CIB,2021_Aug_10_1547,WASABI distractmap,2020.2.10,60.002292091040594,"['Right Arm', 'Left Leg', 'Right Face', 'Left Arm', 'Left Arm', 'Right Leg', 'Chest', 'Abdomen', 'Chest', 'Right Leg', 'Right Arm', 'Left Face', 'Abdomen', 'Left Face', 'Left Leg', 'Right Face']",
7,"[-0.2, -0.2]",0,stimuli/orders/stimOrder3.xlsx,,,,,0,1,1,1,,,,,0,0,0,1,,,532.5001430003904,None,532.5001430003904,533.5001378003508,533.4834730001166,534.4834932000376,0,None,None,"[0, 0, 0]",,,532.5001430003904,None,,,,,,,,,,,,,,,,,,,,,,,,,,"[0, 0, 0]",,,,,99,M,1,r,CIB,2021_Aug_10_1547,WASABI distractmap,2020.2.10,60.002292091040594,"['Right Arm', 'Left Leg', 'Right Face', 'Left Arm', 'Left Arm', 'Right Leg', 'Chest', 'Abdomen', 'Chest', 'Right Leg', 'Right Arm', 'Left Face', 'Abdomen', 'Left Face', 'Left Leg', 'Right Face']",
7,"[-0.2, -0.2]",1,stimuli/orders/stimOrder3.xlsx,,,,,0,2,2,2,,,,,0,0,0,1,,,534.5001499000937,534.5001499000937,534.5001499000937,535.5001587001607,535.4834794001654,536.4834926002659,0,None,None,"[0, 0, 0]",,,534.5001499000937,534.5001499000937,,,,,,,,,,,,,,,,,,,,,,,,,,"[0, 0, 0]",,,,,99,M,1,r,CIB,2021_Aug_10_1547,WASABI distractmap,2020.2.10,60.002292091040594,"['Right Arm', 'Left Leg', 'Right Face', 'Left Arm', 'Left Arm', 'Right Leg', 'Chest', 'Abdomen', 'Chest', 'Right Leg', 'Right Arm', 'Left Face', 'Abdomen', 'Left Face', 'Left Leg', 'Right Face']",
4,"[-0.2, 0]",0,stimuli/orders/stimOrder3.xlsx,,,,,0,3,3,3,,,,,0,0,0,1,,,536.500162600074,536.500162600074,536.500162600074,537.5001698001288,537.4835147000849,538.4835137003101,0,None,None,"[0, 0, 0]",,,536.500162600074,536.500162600074,,,,,,,,,,,,,,,,,,,,,,,,,,"[0, 0, 0]",,,,,99,M,1,r,CIB,2021_Aug_10_1547,WASABI distractmap,2020.2.10,60.002292091040594,"['Right Arm', 'Left Leg', 'Right Face', 'Left Arm', 'Left Arm', 'Right Leg', 'Chest', 'Abdomen', 'Chest', 'Right Leg', 'Right Arm', 'Left Face', 'Abdomen', 'Left Face', 'Left Leg', 'Right Face']",
8,"[0, -0.2]",0,stimuli/orders/stimOrder3.xlsx,,,,,0,4,4,4,,,,,0,0,0,1,,,538.5001732003875,538.5001732003875,538.5001732003875,539.5001859003678,539.4835340003483,540.4835339002311,0,None,None,"[0, 0, 0]",,,538.5001732003875,538.5001732003875,,,,,,,,,,,,,,,,,,,,,,,,,,"[0, 0, 0]",,,,,99,M,1,r,CIB,2021_Aug_10_1547,WASABI distractmap,2020.2.10,60.002292091040594,"['Right Arm', 'Left Leg', 'Right Face', 'Left Arm', 'Left Arm', 'Right Leg', 'Chest', 'Abdomen', 'Chest', 'Right Leg', 'Right Arm', 'Left Face', 'Abdomen', 'Left Face', 'Left Leg', 'Right Face']",
4,"[-0.2, 0]",0,stimuli/orders/stimOrder3.xlsx,,,,,0,5,5,5,,,,,0,0,0,1,,,540.5001881001517,540.5001881001517,540.5001881001517,541.5001929001883,541.4834063001908,542.4835546002723,0,None,None,"[0, 0, 0]",,,540.5001881001517,540.5001881001517,,,,,,,,,,,,,,,,,,,,,,,,,,"[0, 0, 0]",,,,,99,M,1,r,CIB,2021_Aug_10_1547,WASABI distractmap,2020.2.10,60.002292091040594,"['Right Arm', 'Left Leg', 'Right Face', 'Left Arm', 'Left Arm', 'Right Leg', 'Chest', 'Abdomen', 'Chest', 'Right Leg', 'Right Arm', 'Left Face', 'Abdomen', 'Left Face', 'Left Leg', 'Right Face']",
7,"[-0.2, -0.2]",0,stimuli/orders/stimOrder3.xlsx,,,,,0,6,6,6,,,,,0,0,0,1,,,542.500206200406,542.500206200406,542.500206200406,543.5002137999982,543.483552900143,544.4835396003909,0,None,None,"[0, 0, 0]",,,542.500206200406,542.500206200406,,,,,,,,,,,,,,,,,,,,,,,,,,"[0, 0, 0]",,,,,99,M,1,r,CIB,2021_Aug_10_1547,WASABI distractmap,2020.2.10,60.002292091040594,"['Right Arm', 'Left Leg', 'Right Face', 'Left Arm', 'Left Arm', 'Right Leg', 'Chest', 'Abdomen', 'Chest', 'Right Leg', 'Right Arm', 'Left Face', 'Abdomen', 'Left Face', 'Left Leg', 'Right Face']",
,,,stimuli/orders/stimOrder3.xlsx,,,,,,,,,,,,,0,0,0,1,,,,,,,,,,,,,,,,,,,,,,,,,,,,,,,,,,,,,,,,,,,50.0,534.1348606594838,,,99,M,1,r,CIB,2021_Aug_10_1547,WASABI distractmap,2020.2.10,60.002292091040594,"['Right Arm', 'Left Leg', 'Right Face', 'Left Arm', 'Left Arm', 'Right Leg', 'Chest', 'Abdomen', 'Chest', 'Right Leg', 'Right Arm', 'Left Face', 'Abdomen', 'Left Face', 'Left Leg', 'Right Face']",
4,"[-0.2, 0]",None,stimuli/orders/stimOrder3.xlsx,,,,,0,0,0,0,,,,,0,0,0,1,549.500602400396,None,567.5340379001573,None,567.5340379001573,568.5337441000156,568.5171221001074,None,1,None,None,"[0, 0, 0]",,,567.5340379001573,None,,,,,,,,,,,,,,,,,,,,,,,,,,"[0, 0, 0]",,,0.013025140389800072,5.0093854404985905,99,M,1,r,CIB,2021_Aug_10_1547,WASABI distractmap,2020.2.10,60.002292091040594,"['Right Arm', 'Left Leg', 'Right Face', 'Left Arm', 'Left Arm', 'Right Leg', 'Chest', 'Abdomen', 'Chest', 'Right Leg', 'Right Arm', 'Left Face', 'Abdomen', 'Left Face', 'Left Leg', 'Right Face']",
7,"[-0.2, -0.2]",0,stimuli/orders/stimOrder3.xlsx,,,,,0,1,1,1,,,,,0,0,0,1,,,569.5170782003552,None,569.5170782003552,570.5170822003856,570.500404600054,571.500430200249,0,None,None,"[0, 0, 0]",,,569.5170782003552,None,,,,,,,,,,,,,,,,,,,,,,,,,,"[0, 0, 0]",,,,,99,M,1,r,CIB,2021_Aug_10_1547,WASABI distractmap,2020.2.10,60.002292091040594,"['Right Arm', 'Left Leg', 'Right Face', 'Left Arm', 'Left Arm', 'Right Leg', 'Chest', 'Abdomen', 'Chest', 'Right Leg', 'Right Arm', 'Left Face', 'Abdomen', 'Left Face', 'Left Leg', 'Right Face']",
7,"[-0.2, -0.2]",1,stimuli/orders/stimOrder3.xlsx,,,,,0,2,2,2,,,,,0,0,0,1,,,571.5171305001713,571.5171305001713,571.5171305001713,572.5171460001729,572.5004250002094,573.5004275999963,0,None,None,"[0, 0, 0]",,,571.5171305001713,571.5171305001713,,,,,,,,,,,,,,,,,,,,,,,,,,"[0, 0, 0]",,,,,99,M,1,r,CIB,2021_Aug_10_1547,WASABI distractmap,2020.2.10,60.002292091040594,"['Right Arm', 'Left Leg', 'Right Face', 'Left Arm', 'Left Arm', 'Right Leg', 'Chest', 'Abdomen', 'Chest', 'Right Leg', 'Right Arm', 'Left Face', 'Abdomen', 'Left Face', 'Left Leg', 'Right Face']",
4,"[-0.2, 0]",0,stimuli/orders/stimOrder3.xlsx,,,,,0,3,3,3,,,,,0,0,0,1,,,573.5171039002016,573.5171039002016,573.5171039002016,574.5171103002504,574.5004416001029,575.5003395001404,0,None,None,"[0, 0, 0]",,,573.5171039002016,573.5171039002016,,,,,,,,,,,,,,,,,,,,,,,,,,"[0, 0, 0]",,,,,99,M,1,r,CIB,2021_Aug_10_1547,WASABI distractmap,2020.2.10,60.002292091040594,"['Right Arm', 'Left Leg', 'Right Face', 'Left Arm', 'Left Arm', 'Right Leg', 'Chest', 'Abdomen', 'Chest', 'Right Leg', 'Right Arm', 'Left Face', 'Abdomen', 'Left Face', 'Left Leg', 'Right Face']",
8,"[0, -0.2]",0,stimuli/orders/stimOrder3.xlsx,,,,,0,4,4,4,,,,,0,0,0,1,,,575.5171000002883,575.5171000002883,575.5171000002883,576.5171330003068,576.500463000033,577.500472499989,0,None,None,"[0, 0, 0]",,,575.5171000002883,575.5171000002883,,,,,,,,,,,,,,,,,,,,,,,,,,"[0, 0, 0]",,,,,99,M,1,r,CIB,2021_Aug_10_1547,WASABI distractmap,2020.2.10,60.002292091040594,"['Right Arm', 'Left Leg', 'Right Face', 'Left Arm', 'Left Arm', 'Right Leg', 'Chest', 'Abdomen', 'Chest', 'Right Leg', 'Right Arm', 'Left Face', 'Abdomen', 'Left Face', 'Left Leg', 'Right Face']",
4,"[-0.2, 0]",0,stimuli/orders/stimOrder3.xlsx,,,,,0,5,5,5,,,,,0,0,0,1,,,577.5171329001896,577.5171329001896,577.5171329001896,578.5171356000938,578.5004705004394,579.5004827002995,0,None,None,"[0, 0, 0]",,,577.5171329001896,577.5171329001896,,,,,,,,,,,,,,,,,,,,,,,,,,"[0, 0, 0]",,,,,99,M,1,r,CIB,2021_Aug_10_1547,WASABI distractmap,2020.2.10,60.002292091040594,"['Right Arm', 'Left Leg', 'Right Face', 'Left Arm', 'Left Arm', 'Right Leg', 'Chest', 'Abdomen', 'Chest', 'Right Leg', 'Right Arm', 'Left Face', 'Abdomen', 'Left Face', 'Left Leg', 'Right Face']",
7,"[-0.2, -0.2]",0,stimuli/orders/stimOrder3.xlsx,,,,,0,6,6,6,,,,,0,0,0,1,,,579.5171444001608,579.5171444001608,579.5171444001608,580.5171529003419,580.5004837000743,581.5004846001975,0,None,None,"[0, 0, 0]",,,579.5171444001608,579.5171444001608,,,,,,,,,,,,,,,,,,,,,,,,,,"[0, 0, 0]",,,,,99,M,1,r,CIB,2021_Aug_10_1547,WASABI distractmap,2020.2.10,60.002292091040594,"['Right Arm', 'Left Leg', 'Right Face', 'Left Arm', 'Left Arm', 'Right Leg', 'Chest', 'Abdomen', 'Chest', 'Right Leg', 'Right Arm', 'Left Face', 'Abdomen', 'Left Face', 'Left Leg', 'Right Face']",
,,,stimuli/orders/stimOrder3.xlsx,,,,,,,,,,,,,0,0,0,1,,,,,,,,,,,,,,,,,,,,,,,,,,,,,,,,,,,,,,,,,,,50.0,571.1518021603115,,,99,M,1,r,CIB,2021_Aug_10_1547,WASABI distractmap,2020.2.10,60.002292091040594,"['Right Arm', 'Left Leg', 'Right Face', 'Left Arm', 'Left Arm', 'Right Leg', 'Chest', 'Abdomen', 'Chest', 'Right Leg', 'Right Arm', 'Left Face', 'Abdomen', 'Left Face', 'Left Leg', 'Right Face']",
4,"[-0.2, 0]",None,stimuli/orders/stimOrder3.xlsx,,,,,0,0,0,0,,,,,0,0,0,1,586.5175414001569,None,604.551037600264,None,604.551037600264,605.5506733004004,605.534026300069,None,1,None,None,"[0, 0, 0]",,,604.551037600264,None,,,,,,,,,,,,,,,,,,,,,,,,,,"[0, 0, 0]",,,0.013029039837419987,5.009393339976668,99,M,1,r,CIB,2021_Aug_10_1547,WASABI distractmap,2020.2.10,60.002292091040594,"['Right Arm', 'Left Leg', 'Right Face', 'Left Arm', 'Left Arm', 'Right Leg', 'Chest', 'Abdomen', 'Chest', 'Right Leg', 'Right Arm', 'Left Face', 'Abdomen', 'Left Face', 'Left Leg', 'Right Face']",
7,"[-0.2, -0.2]",0,stimuli/orders/stimOrder3.xlsx,,,,,0,1,1,1,,,,,0,0,0,1,,,606.5340368002653,None,606.5340368002653,607.5340297999792,607.5173713001423,608.5174064002931,0,None,None,"[0, 0, 0]",,,606.5340368002653,None,,,,,,,,,,,,,,,,,,,,,,,,,,"[0, 0, 0]",,,,,99,M,1,r,CIB,2021_Aug_10_1547,WASABI distractmap,2020.2.10,60.002292091040594,"['Right Arm', 'Left Leg', 'Right Face', 'Left Arm', 'Left Arm', 'Right Leg', 'Chest', 'Abdomen', 'Chest', 'Right Leg', 'Right Arm', 'Left Face', 'Abdomen', 'Left Face', 'Left Leg', 'Right Face']",
7,"[-0.2, -0.2]",1,stimuli/orders/stimOrder3.xlsx,,,,,0,2,2,2,,,,,0,0,0,1,,,608.5340377003886,608.5340377003886,608.5340377003886,609.5340591003187,609.5173679003492,610.5173649000935,0,None,None,"[0, 0, 0]",,,608.5340377003886,608.5340377003886,,,,,,,,,,,,,,,,,,,,,,,,,,"[0, 0, 0]",,,,,99,M,1,r,CIB,2021_Aug_10_1547,WASABI distractmap,2020.2.10,60.002292091040594,"['Right Arm', 'Left Leg', 'Right Face', 'Left Arm', 'Left Arm', 'Right Leg', 'Chest', 'Abdomen', 'Chest', 'Right Leg', 'Right Arm', 'Left Face', 'Abdomen', 'Left Face', 'Left Leg', 'Right Face']",
4,"[-0.2, 0]",0,stimuli/orders/stimOrder3.xlsx,,,,,0,3,3,3,,,,,0,0,0,1,,,610.5340549000539,610.5340549000539,610.5340549000539,611.5340678002685,611.5173726002686,612.5173926004209,0,None,None,"[0, 0, 0]",,,610.5340549000539,610.5340549000539,,,,,,,,,,,,,,,,,,,,,,,,,,"[0, 0, 0]",,,,,99,M,1,r,CIB,2021_Aug_10_1547,WASABI distractmap,2020.2.10,60.002292091040594,"['Right Arm', 'Left Leg', 'Right Face', 'Left Arm', 'Left Arm', 'Right Leg', 'Chest', 'Abdomen', 'Chest', 'Right Leg', 'Right Arm', 'Left Face', 'Abdomen', 'Left Face', 'Left Leg', 'Right Face']",
8,"[0, -0.2]",0,stimuli/orders/stimOrder3.xlsx,,,,,0,4,4,4,,,,,0,0,0,1,,,612.5340603003278,612.5340603003278,612.5340603003278,613.5340859000571,613.5174060002901,614.5174001003616,0,None,None,"[0, 0, 0]",,,612.5340603003278,612.5340603003278,,,,,,,,,,,,,,,,,,,,,,,,,,"[0, 0, 0]",,,,,99,M,1,r,CIB,2021_Aug_10_1547,WASABI distractmap,2020.2.10,60.002292091040594,"['Right Arm', 'Left Leg', 'Right Face', 'Left Arm', 'Left Arm', 'Right Leg', 'Chest', 'Abdomen', 'Chest', 'Right Leg', 'Right Arm', 'Left Face', 'Abdomen', 'Left Face', 'Left Leg', 'Right Face']",
4,"[-0.2, 0]",0,stimuli/orders/stimOrder3.xlsx,,,,,0,5,5,5,,,,,0,0,0,1,,,614.5340676000342,614.5340676000342,614.5340676000342,615.5341019001789,615.5174118001014,616.5174198001623,0,None,None,"[0, 0, 0]",,,614.5340676000342,614.5340676000342,,,,,,,,,,,,,,,,,,,,,,,,,,"[0, 0, 0]",,,,,99,M,1,r,CIB,2021_Aug_10_1547,WASABI distractmap,2020.2.10,60.002292091040594,"['Right Arm', 'Left Leg', 'Right Face', 'Left Arm', 'Left Arm', 'Right Leg', 'Chest', 'Abdomen', 'Chest', 'Right Leg', 'Right Arm', 'Left Face', 'Abdomen', 'Left Face', 'Left Leg', 'Right Face']",
7,"[-0.2, -0.2]",0,stimuli/orders/stimOrder3.xlsx,,,,,0,6,6,6,,,,,0,0,0,1,,,616.5341019001789,616.5341019001789,616.5341019001789,617.5340946000069,617.5174229000695,618.5174344000407,0,None,None,"[0, 0, 0]",,,616.5341019001789,616.5341019001789,,,,,,,,,,,,,,,,,,,,,,,,,,"[0, 0, 0]",,,,,99,M,1,r,CIB,2021_Aug_10_1547,WASABI distractmap,2020.2.10,60.002292091040594,"['Right Arm', 'Left Leg', 'Right Face', 'Left Arm', 'Left Arm', 'Right Leg', 'Chest', 'Abdomen', 'Chest', 'Right Leg', 'Right Arm', 'Left Face', 'Abdomen', 'Left Face', 'Left Leg', 'Right Face']",
,,,stimuli/orders/stimOrder3.xlsx,,,,,,,,,,,,,0,0,0,1,,,,,,,,,,,,,,,,,,,,,,,,,,,,,,,,,,,,,,,,,,,50.0,608.1687705605291,,,99,M,1,r,CIB,2021_Aug_10_1547,WASABI distractmap,2020.2.10,60.002292091040594,"['Right Arm', 'Left Leg', 'Right Face', 'Left Arm', 'Left Arm', 'Right Leg', 'Chest', 'Abdomen', 'Chest', 'Right Leg', 'Right Arm', 'Left Face', 'Abdomen', 'Left Face', 'Left Leg', 'Right Face']",
2,"[0, 0.2]",None,stimuli/orders/stimOrder3.xlsx,,,,,,,,,0,0,0,0,0,0,0,1,633.7511106003076,None,,,,,,,,,,,,,,,,,,,,None,None,"[0, 0, 0]",651.5843426003121,None,651.5843426003121,652.5843446999788,652.5676816999912,653.5676917000674,"[0, 0, 0]",1,651.5843426003121,None,,,,,,,,,,,0.012998639605939388,5.009319539647549,99,M,1,r,CIB,2021_Aug_10_1547,WASABI distractmap,2020.2.10,60.002292091040594,"['Right Arm', 'Left Leg', 'Right Face', 'Left Arm', 'Left Arm', 'Right Leg', 'Chest', 'Abdomen', 'Chest', 'Right Leg', 'Right Arm', 'Left Face', 'Abdomen', 'Left Face', 'Left Leg', 'Right Face']",
2,"[0, 0.2]",None,stimuli/orders/stimOrder3.xlsx,,,,,,,,,0,1,1,1,0,0,0,1,,,,,,,,,,,,,,,,,,,,,,None,None,"[0, 0, 0]",653.5843613999896,655.5843760999851,653.5843613999896,654.5843787002377,654.5676901000552,655.5677141002379,"[0, 0, 0]",1,653.5843613999896,655.5843760999851,,,,,,,,,,,,,99,M,1,r,CIB,2021_Aug_10_1547,WASABI distractmap,2020.2.10,60.002292091040594,"['Right Arm', 'Left Leg', 'Right Face', 'Left Arm', 'Left Arm', 'Right Leg', 'Chest', 'Abdomen', 'Chest', 'Right Leg', 'Right Arm', 'Left Face', 'Abdomen', 'Left Face', 'Left Leg', 'Right Face']",
2,"[0, 0.2]",1,stimuli/orders/stimOrder3.xlsx,,,,,,,,,0,2,2,2,0,0,0,1,,,,,,,,,,,,,,,,,,,,,,None,None,"[0, 0, 0]",655.6010356000625,657.6010692003183,655.6010356000625,656.6010094000958,656.5843949001282,657.5843851002865,"[0, 0, 0]",0,655.6010356000625,657.6010692003183,,,,,,,,,,,,,99,M,1,r,CIB,2021_Aug_10_1547,WASABI distractmap,2020.2.10,60.002292091040594,"['Right Arm', 'Left Leg', 'Right Face', 'Left Arm', 'Left Arm', 'Right Leg', 'Chest', 'Abdomen', 'Chest', 'Right Leg', 'Right Arm', 'Left Face', 'Abdomen', 'Left Face', 'Left Leg', 'Right Face']",
8,"[0, -0.2]",0,stimuli/orders/stimOrder3.xlsx,,,,,,,,,0,3,3,3,0,0,0,1,,,,,,,,,,,,,,,,,,,,,,None,None,"[0, 0, 0]",657.6176168001257,659.6177304000594,657.6176168001257,658.6177182001993,658.6010622000322,659.601071299985,"[0, 0, 0]",0,657.6176168001257,659.6177304000594,,,,,,,,,,,,,99,M,1,r,CIB,2021_Aug_10_1547,WASABI distractmap,2020.2.10,60.002292091040594,"['Right Arm', 'Left Leg', 'Right Face', 'Left Arm', 'Left Arm', 'Right Leg', 'Chest', 'Abdomen', 'Chest', 'Right Leg', 'Right Arm', 'Left Face', 'Abdomen', 'Left Face', 'Left Leg', 'Right Face']",
2,"[0, 0.2]",1,stimuli/orders/stimOrder3.xlsx,,,,,,,,,0,4,4,4,0,0,0,1,,,,,,,,,,,,,,,,,,,,,,None,None,"[0, 0, 0]",659.6343955001794,661.6344070001505,659.6343955001794,660.6344119003043,660.6177580002695,661.6177461002953,"[0, 0, 0]",0,659.6343955001794,661.6344070001505,,,,,,,,,,,,,99,M,1,r,CIB,2021_Aug_10_1547,WASABI distractmap,2020.2.10,60.002292091040594,"['Right Arm', 'Left Leg', 'Right Face', 'Left Arm', 'Left Arm', 'Right Leg', 'Chest', 'Abdomen', 'Chest', 'Right Leg', 'Right Arm', 'Left Face', 'Abdomen', 'Left Face', 'Left Leg', 'Right Face']",
5,"[0, 0]",0,stimuli/orders/stimOrder3.xlsx,,,,,,,,,0,5,5,5,0,0,0,1,,,,,,,,,,,,,,,,,,,,,,None,None,"[0, 0, 0]",661.6511107999831,663.6510902000591,661.6511107999831,662.6510839001276,662.634431600105,663.63442710042,"[0, 0, 0]",0,661.6511107999831,663.6510902000591,,,,,,,,,,,,,99,M,1,r,CIB,2021_Aug_10_1547,WASABI distractmap,2020.2.10,60.002292091040594,"['Right Arm', 'Left Leg', 'Right Face', 'Left Arm', 'Left Arm', 'Right Leg', 'Chest', 'Abdomen', 'Chest', 'Right Leg', 'Right Arm', 'Left Face', 'Abdomen', 'Left Face', 'Left Leg', 'Right Face']",
1,"[-0.2, 0.2]",0,stimuli/orders/stimOrder3.xlsx,,,,,,,,,0,6,6,6,0,0,0,1,,,,,,,,,,,,,,,,,,,,,,None,None,"[0, 0, 0]",663.6677730004303,665.6677695000544,663.6677730004303,664.6677789003588,664.6511019002646,665.6511088004336,"[0, 0, 0]",0,663.6677730004303,665.6677695000544,,,,,,,,,,,,,99,M,1,r,CIB,2021_Aug_10_1547,WASABI distractmap,2020.2.10,60.002292091040594,"['Right Arm', 'Left Leg', 'Right Face', 'Left Arm', 'Left Arm', 'Right Leg', 'Chest', 'Abdomen', 'Chest', 'Right Leg', 'Right Arm', 'Left Face', 'Abdomen', 'Left Face', 'Left Leg', 'Right Face']",
,,,stimuli/orders/stimOrder3.xlsx,,,,,,,,,,,,,0,0,0,1,,,,,,,,,,,,,,,,,,,,,,,,,,,,,,,,,,,,,,,,,,,50.0,655.3176699597389,,,99,M,1,r,CIB,2021_Aug_10_1547,WASABI distractmap,2020.2.10,60.002292091040594,"['Right Arm', 'Left Leg', 'Right Face', 'Left Arm', 'Left Arm', 'Right Leg', 'Chest', 'Abdomen', 'Chest', 'Right Leg', 'Right Arm', 'Left Face', 'Abdomen', 'Left Face', 'Left Leg', 'Right Face']",
2,"[0, 0.2]",None,stimuli/orders/stimOrder3.xlsx,,,,,,,,,0,0,0,0,0,0,0,1,670.6848362004384,None,,,,,,,,,,,,,,,,,,,,None,None,"[0, 0, 0]",688.7013312000781,None,688.7013312000781,689.7012881999835,689.6846212004311,690.6845218003727,"[0, 0, 0]",1,688.7013312000781,None,,,,,,,,,,,0.014426240231841803,5.012133540119976,99,M,1,r,CIB,2021_Aug_10_1547,WASABI distractmap,2020.2.10,60.002292091040594,"['Right Arm', 'Left Leg', 'Right Face', 'Left Arm', 'Left Arm', 'Right Leg', 'Chest', 'Abdomen', 'Chest', 'Right Leg', 'Right Arm', 'Left Face', 'Abdomen', 'Left Face', 'Left Leg', 'Right Face']",
2,"[0, 0.2]",None,stimuli/orders/stimOrder3.xlsx,,,,,,,,,0,1,1,1,0,0,0,1,,,,,,,,,,,,,,,,,,,,,,None,None,"[0, 0, 0]",690.70127780037,692.7013025004417,690.70127780037,691.7013004003093,691.684629900381,692.6846384000964,"[0, 0, 0]",1,690.70127780037,692.7013025004417,,,,,,,,,,,,,99,M,1,r,CIB,2021_Aug_10_1547,WASABI distractmap,2020.2.10,60.002292091040594,"['Right Arm', 'Left Leg', 'Right Face', 'Left Arm', 'Left Arm', 'Right Leg', 'Chest', 'Abdomen', 'Chest', 'Right Leg', 'Right Arm', 'Left Face', 'Abdomen', 'Left Face', 'Left Leg', 'Right Face']",
2,"[0, 0.2]",1,stimuli/orders/stimOrder3.xlsx,,,,,,,,,0,2,2,2,0,0,0,1,,,,,,,,,,,,,,,,,,,,,,None,None,"[0, 0, 0]",692.7179766003974,694.7179930000566,692.7179766003974,693.7179958000779,693.7013012003154,694.7013248000294,"[0, 0, 0]",0,692.7179766003974,694.7179930000566,,,,,,,,,,,,,99,M,1,r,CIB,2021_Aug_10_1547,WASABI distractmap,2020.2.10,60.002292091040594,"['Right Arm', 'Left Leg', 'Right Face', 'Left Arm', 'Left Arm', 'Right Leg', 'Chest', 'Abdomen', 'Chest', 'Right Leg', 'Right Arm', 'Left Face', 'Abdomen', 'Left Face', 'Left Leg', 'Right Face']",
8,"[0, -0.2]",0,stimuli/orders/stimOrder3.xlsx,,,,,,,,,0,3,3,3,0,0,0,1,,,,,,,,,,,,,,,,,,,,,,None,None,"[0, 0, 0]",694.7346547003835,696.7346668001264,694.7346547003835,695.7346660001203,695.717994000297,696.7180195003748,"[0, 0, 0]",0,694.7346547003835,696.7346668001264,,,,,,,,,,,,,99,M,1,r,CIB,2021_Aug_10_1547,WASABI distractmap,2020.2.10,60.002292091040594,"['Right Arm', 'Left Leg', 'Right Face', 'Left Arm', 'Left Arm', 'Right Leg', 'Chest', 'Abdomen', 'Chest', 'Right Leg', 'Right Arm', 'Left Face', 'Abdomen', 'Left Face', 'Left Leg', 'Right Face']",
2,"[0, 0.2]",1,stimuli/orders/stimOrder3.xlsx,,,,,,,,,0,4,4,4,0,0,0,1,,,,,,,,,,,,,,,,,,,,,,None,None,"[0, 0, 0]",696.7513421000913,698.7513567004353,696.7513421000913,697.7513486002572,697.7346732001752,698.7346912003122,"[0, 0, 0]",0,696.7513421000913,698.7513567004353,,,,,,,,,,,,,99,M,1,r,CIB,2021_Aug_10_1547,WASABI distractmap,2020.2.10,60.002292091040594,"['Right Arm', 'Left Leg', 'Right Face', 'Left Arm', 'Left Arm', 'Right Leg', 'Chest', 'Abdomen', 'Chest', 'Right Leg', 'Right Arm', 'Left Face', 'Abdomen', 'Left Face', 'Left Leg', 'Right Face']",
5,"[0, 0]",0,stimuli/orders/stimOrder3.xlsx,,,,,,,,,0,5,5,5,0,0,0,1,,,,,,,,,,,,,,,,,,,,,,None,None,"[0, 0, 0]",698.7680150000378,700.7680589002557,698.7680150000378,699.7680409001186,699.7513592001051,700.7513737003319,"[0, 0, 0]",0,698.7680150000378,700.7680589002557,,,,,,,,,,,,,99,M,1,r,CIB,2021_Aug_10_1547,WASABI distractmap,2020.2.10,60.002292091040594,"['Right Arm', 'Left Leg', 'Right Face', 'Left Arm', 'Left Arm', 'Right Leg', 'Chest', 'Abdomen', 'Chest', 'Right Leg', 'Right Arm', 'Left Face', 'Abdomen', 'Left Face', 'Left Leg', 'Right Face']",
1,"[-0.2, 0.2]",0,stimuli/orders/stimOrder3.xlsx,,,,,,,,,0,6,6,6,0,0,0,1,,,,,,,,,,,,,,,,,,,,,,None,None,"[0, 0, 0]",700.7847355999984,702.7847315003164,700.7847355999984,701.7847057003528,701.7680479004048,702.7680490002967,"[0, 0, 0]",0,700.7847355999984,702.7847315003164,,,,,,,,,,,,,99,M,1,r,CIB,2021_Aug_10_1547,WASABI distractmap,2020.2.10,60.002292091040594,"['Right Arm', 'Left Leg', 'Right Face', 'Left Arm', 'Left Arm', 'Right Leg', 'Chest', 'Abdomen', 'Chest', 'Right Leg', 'Right Arm', 'Left Face', 'Abdomen', 'Left Face', 'Left Leg', 'Right Face']",
,,,stimuli/orders/stimOrder3.xlsx,,,,,,,,,,,,,0,0,0,1,,,,,,,,,,,,,,,,,,,,,,,,,,,,,,,,,,,,,,,,,,,50.0,692.4344650600106,,,99,M,1,r,CIB,2021_Aug_10_1547,WASABI distractmap,2020.2.10,60.002292091040594,"['Right Arm', 'Left Leg', 'Right Face', 'Left Arm', 'Left Arm', 'Right Leg', 'Chest', 'Abdomen', 'Chest', 'Right Leg', 'Right Arm', 'Left Face', 'Abdomen', 'Left Face', 'Left Leg', 'Right Face']",
2,"[0, 0.2]",None,stimuli/orders/stimOrder3.xlsx,,,,,,,,,0,0,0,0,0,0,0,1,707.801716200076,None,,,,,,,,,,,,,,,,,,,,None,None,"[0, 0, 0]",725.8182004000992,None,725.8182004000992,726.8182169003412,726.801559000276,727.8015644000843,"[0, 0, 0]",1,725.8182004000992,None,,,,,,,,,,,0.014576539862900972,5.012438639998436,99,M,1,r,CIB,2021_Aug_10_1547,WASABI distractmap,2020.2.10,60.002292091040594,"['Right Arm', 'Left Leg', 'Right Face', 'Left Arm', 'Left Arm', 'Right Leg', 'Chest', 'Abdomen', 'Chest', 'Right Leg', 'Right Arm', 'Left Face', 'Abdomen', 'Left Face', 'Left Leg', 'Right Face']",
2,"[0, 0.2]",None,stimuli/orders/stimOrder3.xlsx,,,,,,,,,0,1,1,1,0,0,0,1,,,,,,,,,,,,,,,,,,,,,,None,None,"[0, 0, 0]",727.8182270000689,729.8182461000979,727.8182270000689,728.8182356003672,728.8015560000204,729.8015825003386,"[0, 0, 0]",1,727.8182270000689,729.8182461000979,,,,,,,,,,,,,99,M,1,r,CIB,2021_Aug_10_1547,WASABI distractmap,2020.2.10,60.002292091040594,"['Right Arm', 'Left Leg', 'Right Face', 'Left Arm', 'Left Arm', 'Right Leg', 'Chest', 'Abdomen', 'Chest', 'Right Leg', 'Right Arm', 'Left Face', 'Abdomen', 'Left Face', 'Left Leg', 'Right Face']",
2,"[0, 0.2]",1,stimuli/orders/stimOrder3.xlsx,,,,,,,,,0,2,2,2,0,0,0,1,,,,,,,,,,,,,,,,,,,,,,None,None,"[0, 0, 0]",729.8349343002774,731.8349503003992,729.8349343002774,730.8349320003763,730.8182494002394,731.8182532000355,"[0, 0, 0]",0,729.8349343002774,731.8349503003992,,,,,,,,,,,,,99,M,1,r,CIB,2021_Aug_10_1547,WASABI distractmap,2020.2.10,60.002292091040594,"['Right Arm', 'Left Leg', 'Right Face', 'Left Arm', 'Left Arm', 'Right Leg', 'Chest', 'Abdomen', 'Chest', 'Right Leg', 'Right Arm', 'Left Face', 'Abdomen', 'Left Face', 'Left Leg', 'Right Face']",
8,"[0, -0.2]",0,stimuli/orders/stimOrder3.xlsx,,,,,,,,,0,3,3,3,0,0,0,1,,,,,,,,,,,,,,,,,,,,,,None,None,"[0, 0, 0]",731.8515879004262,733.8516067001037,731.8515879004262,732.8515985002741,732.8349559004419,733.8349486002699,"[0, 0, 0]",0,731.8515879004262,733.8516067001037,,,,,,,,,,,,,99,M,1,r,CIB,2021_Aug_10_1547,WASABI distractmap,2020.2.10,60.002292091040594,"['Right Arm', 'Left Leg', 'Right Face', 'Left Arm', 'Left Arm', 'Right Leg', 'Chest', 'Abdomen', 'Chest', 'Right Leg', 'Right Arm', 'Left Face', 'Abdomen', 'Left Face', 'Left Leg', 'Right Face']",
2,"[0, 0.2]",1,stimuli/orders/stimOrder3.xlsx,,,,,,,,,0,4,4,4,0,0,0,1,,,,,,,,,,,,,,,,,,,,,,None,None,"[0, 0, 0]",733.868285600096,735.8683035001159,733.868285600096,734.8682801001705,734.8516120002605,735.8516203002073,"[0, 0, 0]",0,733.868285600096,735.8683035001159,,,,,,,,,,,,,99,M,1,r,CIB,2021_Aug_10_1547,WASABI distractmap,2020.2.10,60.002292091040594,"['Right Arm', 'Left Leg', 'Right Face', 'Left Arm', 'Left Arm', 'Right Leg', 'Chest', 'Abdomen', 'Chest', 'Right Leg', 'Right Arm', 'Left Face', 'Abdomen', 'Left Face', 'Left Leg', 'Right Face']",
5,"[0, 0]",0,stimuli/orders/stimOrder3.xlsx,,,,,,,,,0,5,5,5,0,0,0,1,,,,,,,,,,,,,,,,,,,,,,None,None,"[0, 0, 0]",735.8849836001173,737.884976700414,735.8849836001173,736.8849862003699,736.8683061003685,737.8683017999865,"[0, 0, 0]",0,735.8849836001173,737.884976700414,,,,,,,,,,,,,99,M,1,r,CIB,2021_Aug_10_1547,WASABI distractmap,2020.2.10,60.002292091040594,"['Right Arm', 'Left Leg', 'Right Face', 'Left Arm', 'Left Arm', 'Right Leg', 'Chest', 'Abdomen', 'Chest', 'Right Leg', 'Right Arm', 'Left Face', 'Abdomen', 'Left Face', 'Left Leg', 'Right Face']",
1,"[-0.2, 0.2]",0,stimuli/orders/stimOrder3.xlsx,,,,,,,,,0,6,6,6,0,0,0,1,,,,,,,,,,,,,,,,,,,,,,None,None,"[0, 0, 0]",737.9016385003924,739.9016899000853,737.9016385003924,738.9016450000927,738.8850141000003,739.8849961003289,"[0, 0, 0]",0,737.9016385003924,739.9016899000853,,,,,,,,,,,,,99,M,1,r,CIB,2021_Aug_10_1547,WASABI distractmap,2020.2.10,60.002292091040594,"['Right Arm', 'Left Leg', 'Right Face', 'Left Arm', 'Left Arm', 'Right Leg', 'Chest', 'Abdomen', 'Chest', 'Right Leg', 'Right Arm', 'Left Face', 'Abdomen', 'Left Face', 'Left Leg', 'Right Face']",
,,,stimuli/orders/stimOrder3.xlsx,,,,,,,,,,,,,0,0,0,1,,,,,,,,,,,,,,,,,,,,,,,,,,,,,,,,,,,,,,,,,,,50.0,729.5513808601536,,,99,M,1,r,CIB,2021_Aug_10_1547,WASABI distractmap,2020.2.10,60.002292091040594,"['Right Arm', 'Left Leg', 'Right Face', 'Left Arm', 'Left Arm', 'Right Leg', 'Chest', 'Abdomen', 'Chest', 'Right Leg', 'Right Arm', 'Left Face', 'Abdomen', 'Left Face', 'Left Leg', 'Right Face']",
2,"[0, 0.2]",None,stimuli/orders/stimOrder3.xlsx,,,,,,,,,0,0,0,0,0,0,0,1,744.9186951001175,None,,,,,,,,,,,,,,,,,,,,None,None,"[0, 0, 0]",762.9351620003581,None,762.9351620003581,763.9351743003353,763.9185041002929,764.9185059000738,"[0, 0, 0]",1,762.9351620003581,None,,,,,,,,,,,0.014594139996916056,5.01245064008981,99,M,1,r,CIB,2021_Aug_10_1547,WASABI distractmap,2020.2.10,60.002292091040594,"['Right Arm', 'Left Leg', 'Right Face', 'Left Arm', 'Left Arm', 'Right Leg', 'Chest', 'Abdomen', 'Chest', 'Right Leg', 'Right Arm', 'Left Face', 'Abdomen', 'Left Face', 'Left Leg', 'Right Face']",
2,"[0, 0.2]",None,stimuli/orders/stimOrder3.xlsx,,,,,,,,,0,1,1,1,0,0,0,1,,,,,,,,,,,,,,,,,,,,,,None,None,"[0, 0, 0]",764.9351788000204,766.9352396000177,764.9351788000204,765.9351879004389,765.9185144002549,766.9185153003782,"[0, 0, 0]",1,764.9351788000204,766.9352396000177,,,,,,,,,,,,,99,M,1,r,CIB,2021_Aug_10_1547,WASABI distractmap,2020.2.10,60.002292091040594,"['Right Arm', 'Left Leg', 'Right Face', 'Left Arm', 'Left Arm', 'Right Leg', 'Chest', 'Abdomen', 'Chest', 'Right Leg', 'Right Arm', 'Left Face', 'Abdomen', 'Left Face', 'Left Leg', 'Right Face']",
2,"[0, 0.2]",1,stimuli/orders/stimOrder3.xlsx,,,,,,,,,0,2,2,2,0,0,0,1,,,,,,,,,,,,,,,,,,,,,,None,None,"[0, 0, 0]",766.9518487001769,768.9519124003127,766.9518487001769,767.9518638001755,767.9351875004359,768.935248200316,"[0, 0, 0]",0,766.9518487001769,768.9519124003127,,,,,,,,,,,,,99,M,1,r,CIB,2021_Aug_10_1547,WASABI distractmap,2020.2.10,60.002292091040594,"['Right Arm', 'Left Leg', 'Right Face', 'Left Arm', 'Left Arm', 'Right Leg', 'Chest', 'Abdomen', 'Chest', 'Right Leg', 'Right Arm', 'Left Face', 'Abdomen', 'Left Face', 'Left Leg', 'Right Face']",
8,"[0, -0.2]",0,stimuli/orders/stimOrder3.xlsx,,,,,,,,,0,3,3,3,0,0,0,1,,,,,,,,,,,,,,,,,,,,,,None,None,"[0, 0, 0]",768.968532900326,770.9685463001952,768.968532900326,769.9685423001647,769.9518673000857,770.951886200346,"[0, 0, 0]",0,768.968532900326,770.9685463001952,,,,,,,,,,,,,99,M,1,r,CIB,2021_Aug_10_1547,WASABI distractmap,2020.2.10,60.002292091040594,"['Right Arm', 'Left Leg', 'Right Face', 'Left Arm', 'Left Arm', 'Right Leg', 'Chest', 'Abdomen', 'Chest', 'Right Leg', 'Right Arm', 'Left Face', 'Abdomen', 'Left Face', 'Left Leg', 'Right Face']",
2,"[0, 0.2]",1,stimuli/orders/stimOrder3.xlsx,,,,,,,,,0,4,4,4,0,0,0,1,,,,,,,,,,,,,,,,,,,,,,None,None,"[0, 0, 0]",770.9852221002802,772.9852376002818,770.9852221002802,771.9852204001509,771.9685517000034,772.9685615003109,"[0, 0, 0]",0,770.9852221002802,772.9852376002818,,,,,,,,,,,,,99,M,1,r,CIB,2021_Aug_10_1547,WASABI distractmap,2020.2.10,60.002292091040594,"['Right Arm', 'Left Leg', 'Right Face', 'Left Arm', 'Left Arm', 'Right Leg', 'Chest', 'Abdomen', 'Chest', 'Right Leg', 'Right Arm', 'Left Face', 'Abdomen', 'Left Face', 'Left Leg', 'Right Face']",
