	order	onset	duration	rt	correct
0	2	68.6403937000432	1.527916940045543		1
1	2	70.17373020004015	1.9912495299940929		1
2	2	72.17282959999284	1.9949803299969062		1
3	2	74.17356540000765	1.9945151300053112		1
4	2	76.1737945000059	1.9938719299971126		1
5	2	78.17381320003187	1.994087630067952	0.7002246000338346	1
6	2	80.17383070004871	1.9942805300233886		1
7	2	82.1738394999993	1.9941314299940132		1
8	2	84.17386909999186	1.9942365299793892		1
9	2	86.1738835000433	1.9939922299818136		1
10	2	88.17391850001877	1.9940953300101683	0.5502568999654613	1
11	2	90.17393280001124	1.9941773299942724		1
12	2	92.17393779999111	1.9942693299381062		1
13	2	94.17402530001709	1.994319930090569	0.8334665999864228	1
14	2	96.17397930001607	1.9943588299793191		1
15	2	98.17399949999526	1.99415142997168		1
16	2	100.17401780001819	1.9933397300192155		1
17	2	102.17402800003765	1.9942776300013065		1
18	2	104.17405150004197	1.9940876300097443		1
19	2	106.17406740004662	1.9941405300050974		1
20	2	108.17408160003833	1.9929367300355807	0.7502036000369117	1
21	2	110.17409960000077	1.9942300299881026		1
22	2	112.17412470001727	1.9942557300673798		1
23	2	114.1741342000314	1.9942285300348885	0.7335346000036225	1
24	2	116.17415470001288	1.9941736300243065		1
25	2	118.17416660004528	1.9932306300033815		1
26	2	120.17418480000924	1.9940346299554221		1
27	2	122.17419690004317	1.9944201299804263		1
28	2	124.17421690002084	1.9937284300103784		1
29	2	126.17424100002972	1.9935232300194912	0.5335136000066996	1
30	2	128.17425800004276	1.9941077299881727		1
31	2	130.17426920001162	1.9943271299707703		1
32	2	132.17429910000646	1.9941920299897902	0.6502157999784686	1
33	2	134.17430260003312	1.9941533300443552		1
34	2	136.17432760004885	1.9943578300299123		1
35	2	138.17435640003532	1.9940487300045788		1
36	2	140.17435859999387	1.9942347300238907		1
37	2	142.17437730001984	1.994305029977113		1
38	2	144.1744090000284	1.9944242300116457	1.0002020000247285	1
39	2	146.1744117999915	1.9942997300531715		1
40	2	148.1744302000152	1.993424629967194		1
41	2	150.17444140004227	1.9944213300477713	0.6837082999991253	1
42	2	152.17447790002916	1.994386830017902		1
43	2	154.1744888999965	1.9943629300105385		1
44	2	156.1744910000125	1.9944416300277226		1
45	2	158.17453449999448	1.9940337300067768		1
46	2	160.17447840003297	1.9943006300600246		1
47	2	162.1745590000064	1.9942943300120533		1
48	2	164.1745764000225	1.9942502300255	0.8169277999550104	1
49	2	166.1746012000367	1.9944424299756065		1
50	2	168.17462170001818	1.994143729971256		1
51	2	170.17462930001784	1.9944169300142676	0.8501765999826603	1
52	2	172.17465360002825	1.9943131300387904		1
53	2	174.17465699999593	1.9941262300126255		1
54	2	176.174699300027	1.9943162300623953		1
55	2	178.1747143000248	1.9940534299821593		1
56	2	180.17471280001337	1.9942457300494425	0.8502017999999225	1
57	2	182.17474470002344	1.9943077299976721		1
58	2	184.1747748000198	1.9936371300718747		1
59	2	186.1747914000298	1.994470130011905		1
60	2	188.17479610000737	1.99424693005858		1
61	2	190.1748426000122	1.9942078299936838		1
62	2	192.17475460004061	1.993900629982818		1
63	2	194.17487099999562	1.994294429954607		1
64	2	196.17488390003564	1.994332830014173		1
65	2	198.17490250000264	1.9941037299577147	0.6502226999728009	1
66	2	200.17490149999503	1.994361330056563		1
67	2	202.17492640001	1.99349932995392		1
68	2	204.17495469999267	1.994040830002632		1
69	2	206.17498210002668	1.994286330009345		1
70	2	208.17498170002364	1.9941434300271794		0
71	2	210.17501060001086	1.9943812299752608		1
72	2	212.17503520002356	1.994474729988724		1
73	2	214.17503889999352	1.99426233000122	0.45022709999466315	1
74	2	216.175061499991	1.9936771300272085		1
75	2	218.175088900025	1.9939864299958572		1
76	2	220.17507250001654	1.9943246300099418		1
77	2	222.1751227999921	1.9942607300472446		1
78	2	224.1751251000096	1.9941220300388522		1
79	2	226.17515419999836	1.9944183300249279		1
80	2	228.17517030000454	1.993789930071216	0.7669019000022672	1
81	2	230.17518510000082	1.9941494300146587		1
82	2	232.17520960001275	1.9941819299710914		1
83	2	234.17522350000218	1.9938659300096333	0.5335706999758258	1
84	2	236.17525140004	1.994217130006291		1
85	2	238.17526180000277	1.9940362299676053		1
86	2	240.1752770000021	1.994284129992593		1
87	2	242.1752969000372	1.994245329988189		1
88	2	244.17531980003696	1.9942385300528258		1
89	2	246.17531240003882	1.9937036300543696	0.8835678999894299	1
90	2	248.17533850000473	1.9940720300073735		1
91	2	250.17536880000262	1.9942430299706757		1
92	2	252.1753934000153	1.9937220300198533		0
93	2	254.1753947000252	1.9936410300433636		1
94	2	256.1754268000368	1.994251029973384		1
95	2	258.1754451000015	1.993336929997895		1
96	2	260.1754467000137	1.9937875299947336		1
97	2	262.1754848000128	1.9936313300277106		1
98	2	264.1754976999946	1.9942161300568841	0.5835557000245899	1
99	2	266.1754990000045	1.9940721299499273		1
100	2	268.17551980004646	1.9941873300122097		1
101	2	270.17554720002227	1.99429272999987	0.7002309000235982	1
102	2	272.1755564000341	1.99424332997296		1
103	2	274.1755745999981	1.9942978299804963		1
104	2	276.17560880002566	1.994387730024755		1
105	2	278.17562560003716	1.993991730036214		1
106	2	280.17562739999266	1.9942822299781255		1
107	2	282.17564450000646	1.9942302300478332		1
108	2	284.1756821000017	1.9942912299884483	0.7335495000006631	1
109	2	286.17569470003946	1.9942525300430134		1
110	2	288.17571850004606	1.9941035300143994		1
111	2	290.17573410004843	1.9943453299929388	1.3502326000016183	1
112	2	292.1757565000444	1.994344330043532		1
113	2	294.17577700002585	1.9944091300130822		1
114	2	296.1757825000095	1.9942588299745694		1
115	2	298.1758133000112	1.9939501300104894		1
116	2	300.175813400012	1.9943265300244093	0.9502416999894194	1
117	2	302.1758552000392	1.994066329963971		1
118	2	304.1758666000096	1.994035130017437		1
119	2	306.17586550000124	1.994264330016449		1
