	SID	date	sex	session	handedness	scanner	onset	duration	repetition	rating	body_site	keys	temperature	conditionrt	mouseclick	biopac_channel	condition	rt	value
0	2467	2024_Jul_11_1357	f	1	r	SS MRS	2.7745289000013145	5.004366049717646								19	Instructions		
1	2467	2024_Jul_11_1357	f	1	r	SS MRS	8.569518899996183	2.0136716499982867								6	Cue		
2	2467	2024_Jul_11_1357	f	1	r	SS MRS	10.578617799998028	5.9955735499970615								7	Pre-Jitter		
3	2467	2024_Jul_11_1357	f	1	r	SS MRS	16.62909529999888	15.011553500007722			Right Leg		48.0			16	Heat-Stimulation		
4	2467	2024_Jul_11_1357	f	1	r	SS MRS	31.719971099999384	7.013374699978158								8	Mid-Jitter		
5	2467	2024_Jul_11_1357	f	1	r	SS MRS	38.74578529999417	4.995196900010342								20	PainBinary	1.8841241999907652	1.0
6	2467	2024_Jul_11_1357	f	1	r	SS MRS	43.76270150000346	5.011505299989949								21	IntensityRating	4.033641500005615	66.60493827160494
7	2467	2024_Jul_11_1357	f	1	r	SS MRS	48.79431409999961	4.998402299999725								22	ToleranceRating	1.4003147000039462	-1.0
8	2467	2024_Jul_11_1357	f	1	r	SS MRS	53.79831309999281	7.007204649999039								9	Post-Q-Jitter		
9	2467	2024_Jul_11_1357	f	1	r	SS MRS	61.60483959999692	2.010992849987815								6	Cue		
10	2467	2024_Jul_11_1357	f	1	r	SS MRS	63.61175349999394	5.997185749991331								7	Pre-Jitter		
11	2467	2024_Jul_11_1357	f	1	r	SS MRS	69.65296110000054	15.014985700006946			Right Leg		47.5			16	Heat-Stimulation		
12	2467	2024_Jul_11_1357	f	1	r	SS MRS	84.73530430000392	7.00058494998666								8	Mid-Jitter		
13	2467	2024_Jul_11_1357	f	1	r	SS MRS	91.76443690000451	5.009134499996435								20	PainBinary	1.6335973000095692	1.0
14	2467	2024_Jul_11_1357	f	1	r	SS MRS	96.79684799999814	5.011128800004371								21	IntensityRating	3.033551999993506	50.55555555555556
15	2467	2024_Jul_11_1357	f	1	r	SS MRS	101.82770989999699	4.999617800000124								22	ToleranceRating		-1.0
16	2467	2024_Jul_11_1357	f	1	r	SS MRS	106.83233130000008	7.0070449500053655								9	Post-Q-Jitter		
17	2467	2024_Jul_11_1357	f	1	r	SS MRS	115.14893260000099	2.0073902499862015								6	Cue		
18	2467	2024_Jul_11_1357	f	1	r	SS MRS	117.16269959999772	5.996560250001494								7	Pre-Jitter		
19	2467	2024_Jul_11_1357	f	1	r	SS MRS	123.22986140000285	14.995816849987023			Right Leg		47.0			16	Heat-Stimulation		
20	2467	2024_Jul_11_1357	f	1	r	SS MRS	138.30439869999827	9.013688799983356								8	Mid-Jitter		
21	2467	2024_Jul_11_1357	f	1	r	SS MRS	147.3295128000027	4.996958100004122								20	PainBinary	1.4171003999945242	1.0
22	2467	2024_Jul_11_1357	f	1	r	SS MRS	152.34714019999956	5.011799300002167								21	IntensityRating	2.5836691000004066	46.48148148148148
23	2467	2024_Jul_11_1357	f	1	r	SS MRS	157.37853099999484	4.99912450001284								22	ToleranceRating	2.4003260000026785	-1.0
24	2467	2024_Jul_11_1357	f	1	r	SS MRS	162.38230129999283	9.008403949992498								9	Post-Q-Jitter		
25	2467	2024_Jul_11_1357	f	1	r	SS MRS	172.19150539999828	2.0068778499990003								6	Cue		
26	2467	2024_Jul_11_1357	f	1	r	SS MRS	174.19598030000634	3.9977818499755813								7	Pre-Jitter		
27	2467	2024_Jul_11_1357	f	1	r	SS MRS	178.24039550000452	15.009198300016578			Right Leg		46.5			16	Heat-Stimulation		
28	2467	2024_Jul_11_1357	f	1	r	SS MRS	193.32162770000286	7.013820099993609								8	Mid-Jitter		
29	2467	2024_Jul_11_1357	f	1	r	SS MRS	200.34883410000475	5.0090812999987975								20	PainBinary	1.6674617000098806	1.0
30	2467	2024_Jul_11_1357	f	1	r	SS MRS	205.38091500000155	5.011718199995812								21	IntensityRating	2.6668353999993997	44.19753086419753
31	2467	2024_Jul_11_1357	f	1	r	SS MRS	210.41209670000535	4.999950900004478								22	ToleranceRating	2.0170280000020284	1.0
32	2467	2024_Jul_11_1357	f	1	r	SS MRS	215.41781670000637	7.005282649988658								9	Post-Q-Jitter		
33	2467	2024_Jul_11_1357	f	1	r	SS MRS	223.00419340000371	2.0159613999858266								6	Cue		
34	2467	2024_Jul_11_1357	f	1	r	SS MRS	225.01435690000653	7.9957141499908175								7	Pre-Jitter		
35	2467	2024_Jul_11_1357	f	1	r	SS MRS	233.04730720000225	14.996828449991881			Right Leg		46.5			16	Heat-Stimulation		
36	2467	2024_Jul_11_1357	f	1	r	SS MRS	248.1201904000045	7.001286050013732								8	Mid-Jitter		
37	2467	2024_Jul_11_1357	f	1	r	SS MRS	255.14875490000122	4.9942934999999125								20	PainBinary	1.2678371000074549	1.0
38	2467	2024_Jul_11_1357	f	1	r	SS MRS	260.16521760000614	5.011526800008141								21	IntensityRating	2.8169607000018004	39.38271604938272
39	2467	2024_Jul_11_1357	f	1	r	SS MRS	265.1952031999972	5.00164250000671								22	ToleranceRating	1.4356012000062037	1.0
40	2467	2024_Jul_11_1357	f	1	r	SS MRS	270.2006887000025	7.007479549982236								9	Post-Q-Jitter		
41	2467	2024_Jul_11_1357	f	1	r	SS MRS	278.7126483000029	2.000471249964903								6	Cue		
42	2467	2024_Jul_11_1357	f	1	r	SS MRS	280.7144471999927	3.996846750000259								7	Pre-Jitter		
43	2467	2024_Jul_11_1357	f	1	r	SS MRS	284.76194060000125	15.002074999996694			Right Leg		46.5			16	Heat-Stimulation		
44	2467	2024_Jul_11_1357	f	1	r	SS MRS	299.8371316999983	5.001921749993926								8	Mid-Jitter		
45	2467	2024_Jul_11_1357	f	1	r	SS MRS	304.86509659999865	4.996109500003513								20	PainBinary	1.200122399997781	1.0
46	2467	2024_Jul_11_1357	f	1	r	SS MRS	309.88215079999645	5.012144000007538								21	IntensityRating	2.900438299999223	39.567901234567906
47	2467	2024_Jul_11_1357	f	1	r	SS MRS	314.91342219999933	4.9996874000062235								22	ToleranceRating	1.0003436999977566	1.0
48	2467	2024_Jul_11_1357	f	1	r	SS MRS	319.91794250000385	5.007420849986374								9	Post-Q-Jitter		
49	2467	2024_Jul_11_1357	f	1	r	SS MRS	325.543462600006	2.006507599988254								6	Cue		
50	2467	2024_Jul_11_1357	f	1	r	SS MRS	327.54844749999756	7.996641749996343								7	Pre-Jitter		
51	2467	2024_Jul_11_1357	f	1	r	SS MRS	335.5906740999926	15.012479599987273			Right Leg		46.5			16	Heat-Stimulation		
52	2467	2024_Jul_11_1357	f	1	r	SS MRS	350.6759205999988	9.008883899994544								8	Mid-Jitter		
53	2467	2024_Jul_11_1357	f	1	r	SS MRS	359.70069460000377	5.009505700014415								20	PainBinary	1.383571700003813	1.0
54	2467	2024_Jul_11_1357	f	1	r	SS MRS	364.73198189999675	4.997088699994492								21	IntensityRating	4.2702890999935335	40.18518518518518
55	2467	2024_Jul_11_1357	f	1	r	SS MRS	369.74768620000395	4.9991272000042954								22	ToleranceRating	1.900438299999223	-1.0
56	2467	2024_Jul_11_1357	f	1	r	SS MRS	374.75213860000076	9.007048949977616								9	Post-Q-Jitter		
57	2467	2024_Jul_11_1357	f	1	r	SS MRS	383.79242189999786	5.543460749991937								26	ComfortRating	5.517074999996112	-26.172839506172835
58	2467	2024_Jul_11_1357	f	1	r	SS MRS	389.3554795999953	3.250771699997131								24	ValenceRating	3.233719599986216	99.69135802469134
59	2467	2024_Jul_11_1357	f	1	r	SS MRS	392.6314469999925	2.3822149999905378								26	IntensityRating	2.3675577999965753	100.0
60	2467	2024_Jul_11_1357	f	1	r	SS MRS	395.0326791999978	3.8798700000043027								27	AvoidanceRating	3.8503297999995993	68.5185185185185
61	2467	2024_Jul_11_1357	f	1	r	SS MRS	398.9293142999959	3.7699735000060173								28	RelaxationRating	3.7503673000028357	45.49382716049382
62	2467	2024_Jul_11_1357	f	1	r	SS MRS	402.7162584000034	3.8628223999985494								29	AttentionRating	3.8336049000063213	68.88888888888887
63	2467	2024_Jul_11_1357	f	1	r	SS MRS	406.5970174999966	2.201352100004442								30	BoredomRating	2.1836031999991974	37.592592592592595
64	2467	2024_Jul_11_1357	f	1	r	SS MRS	408.81432190000487	2.5334613000013633								31	AlertnessRating	2.516989299998386	28.02469135802471
65	2467	2024_Jul_11_1357	f	1	r	SS MRS	411.3653071000008	2.3149082000018097								32	PosThxRating	2.3003269000037108	-23.95061728395062
66	2467	2024_Jul_11_1357	f	1	r	SS MRS	413.6992351999943	3.1137992000149097								33	NegThxRating	3.1004660000035074	61.481481481481495
67	2467	2024_Jul_11_1357	f	1	r	SS MRS	416.8312399999995	2.8165219000075012								34	SelfRating	2.8002340999955777	60.8641975308642
68	2467	2024_Jul_11_1357	f	1	r	SS MRS	419.6644763999939	1.7001138999912655								35	OtherRating	1.6837225000053877	-46.172839506172835
69	2467	2024_Jul_11_1357	f	1	r	SS MRS	421.38178539999353	2.9988692000042647								32	ImageryRating	2.983774499996798	-52.345679012345684
70	2467	2024_Jul_11_1357	f	1	r	SS MRS	424.40041519999795	3.861679699999513								37	PresentRating	3.833552600000985	67.40740740740739
