RestT1,TaskT1,square,location,corrAns,counterbalancer.thisRepN,counterbalancer.thisTrialN,counterbalancer.thisN,counterbalancer.thisIndex,RestT1Loop.thisRepN,RestT1Loop.thisTrialN,RestT1Loop.thisN,RestT1Loop.thisIndex,TaskT1Loop.thisRepN,TaskT1Loop.thisTrialN,TaskT1Loop.thisN,TaskT1Loop.thisIndex,trials_2.thisRepN,trials_2.thisTrialN,trials_2.thisN,trials_2.thisIndex,fixation_1.started,fixation_1.stopped,NbackInstructions.started,NbackInstructions.stopped,NbackStart.keys,NbackStart.rt,NbackStart.started,NbackStart.stopped,fixation_2.started,fixation_2.stopped,response_2.x,response_2.y,response_2.leftButton,grid_lines_2.started,grid_lines_2.stopped,target_square_2.started,target_square_2.stopped,fixation_3.started,fixation_3.stopped,response_2.click,response_2.corr,response_2.started,response_2.stopped,subject number,gender,session,handedness,scanner,date,expName,psychopyVersion,frameRate,
1,0,,,,0,0,0,0,0,0,0,0,,,,,,,,,31.83475409995299,None,,,,,,,,,,,,,,,,,,,,,,1,M,14,R,KB,2021_Jun_15_1359,WASABI Nback,2020.2.10,59.992105048699464,
0,1,,,,0,1,1,1,,,,,0,0,0,0,,,,,,,328.7703665999579,None,space,48.97771269996883,328.7703665999579,None,,,,,,,,,,,,,,,,1,M,14,R,KB,2021_Jun_15_1359,WASABI Nback,2020.2.10,59.992105048699464,
0,1,5,"[0, 0]",None,0,1,1,1,,,,,0,0,0,0,0,0,0,0,,,,,,,,,None,None,None,None,0,379.53743859997485,None,379.53743859997485,380.53743859997485,380.52076419995865,None,0,1,379.53743859997485,None,1,M,14,R,KB,2021_Jun_15_1359,WASABI Nback,2020.2.10,59.992105048699464,
0,1,2,"[0, 0.2]",None,0,1,1,1,,,,,0,0,0,0,0,1,1,1,,,,,,,,,,,None,None,0,380.787460499967,None,380.787460499967,381.78745770000387,381.7707810999709,382.7707878999645,0,1,380.787460499967,None,1,M,14,R,KB,2021_Jun_15_1359,WASABI Nback,2020.2.10,59.992105048699464,
0,1,6,"[0.2, 0]",None,0,1,1,1,,,,,0,0,0,0,0,2,2,2,,,,,,,,,,,None,None,0,382.7874746999587,None,382.7874746999587,383.787466699956,383.77078019996407,384.7708057999844,0,1,382.7874746999587,None,1,M,14,R,KB,2021_Jun_15_1359,WASABI Nback,2020.2.10,59.992105048699464,
0,1,9,"[0.2, -0.2]",None,0,1,1,1,,,,,0,0,0,0,0,3,3,3,,,,,,,,,,,None,None,0,384.78748800000176,None,384.78748800000176,385.7874710999895,385.7708258999628,386.7708661999786,0,1,384.78748800000176,None,1,M,14,R,KB,2021_Jun_15_1359,WASABI Nback,2020.2.10,59.992105048699464,
0,1,3,"[0.2, 0.2]",None,0,1,1,1,,,,,0,0,0,0,0,4,4,4,,,,,,,,,,,None,None,0,386.7875087999855,None,386.7875087999855,387.78751749999356,387.7708279999788,388.77083299995866,0,1,386.7875087999855,None,1,M,14,R,KB,2021_Jun_15_1359,WASABI Nback,2020.2.10,59.992105048699464,
0,1,9,"[0.2, -0.2]",1,0,1,1,1,,,,,0,0,0,0,0,5,5,5,,,,,,,,,,,None,None,0,388.78757990000304,None,388.78757990000304,389.78750279999804,389.7708519999869,390.7708520999877,0,1,388.78757990000304,None,1,M,14,R,KB,2021_Jun_15_1359,WASABI Nback,2020.2.10,59.992105048699464,
0,1,7,"[-0.2, -0.2]",None,0,1,1,1,,,,,0,0,0,0,0,6,6,6,,,,,,,,,,,None,None,0,390.7875357999583,None,390.7875357999583,391.7875264000031,391.770856899966,392.7708675999893,0,1,390.7875357999583,None,1,M,14,R,KB,2021_Jun_15_1359,WASABI Nback,2020.2.10,59.992105048699464,
0,1,1,"[-0.2, 0.2]",None,0,1,1,1,,,,,0,0,0,0,0,7,7,7,,,,,,,,,,,None,None,0,392.78752399998484,None,392.78752399998484,393.78742750000674,393.77087879995815,394.7708918999997,0,1,392.78752399998484,None,1,M,14,R,KB,2021_Jun_15_1359,WASABI Nback,2020.2.10,59.992105048699464,
0,1,5,"[0, 0]",None,0,1,1,1,,,,,0,0,0,0,0,8,8,8,,,,,,,,,,,None,None,0,394.7875490000006,None,394.7875490000006,395.7875765999779,395.77089539996814,396.7708990999963,0,1,394.7875490000006,None,1,M,14,R,KB,2021_Jun_15_1359,WASABI Nback,2020.2.10,59.992105048699464,
0,1,7,"[-0.2, -0.2]",None,0,1,1,1,,,,,0,0,0,0,0,9,9,9,,,,,,,,,,,None,None,0,396.7875636999961,None,396.7875636999961,397.7875677999691,397.77091530000325,398.7709198999801,0,1,396.7875636999961,None,1,M,14,R,KB,2021_Jun_15_1359,WASABI Nback,2020.2.10,59.992105048699464,
0,1,5,"[0, 0]",1,0,1,1,1,,,,,0,0,0,0,0,10,10,10,,,,,,,,,,,None,None,0,398.7876050999621,None,398.7876050999621,399.78758109995397,399.7709227000014,400.7709296999965,0,0,398.7876050999621,None,1,M,14,R,KB,2021_Jun_15_1359,WASABI Nback,2020.2.10,59.992105048699464,
0,1,6,"[0.2, 0]",None,0,1,1,1,,,,,0,0,0,0,0,11,11,11,,,,,,,,,,,None,None,0,400.7875995999784,None,400.7875995999784,401.7876205999637,401.7709399999585,402.7709420999745,0,1,400.7875995999784,None,1,M,14,R,KB,2021_Jun_15_1359,WASABI Nback,2020.2.10,59.992105048699464,
0,1,3,"[0.2, 0.2]",None,0,1,1,1,,,,,0,0,0,0,0,12,12,12,,,,,,,,,,,None,None,0,402.78762799996184,None,402.78762799996184,403.7876345999539,403.7709603999974,404.7709583999822,0,1,402.78762799996184,None,1,M,14,R,KB,2021_Jun_15_1359,WASABI Nback,2020.2.10,59.992105048699464,
0,1,6,"[0.2, 0]",1,0,1,1,1,,,,,0,0,0,0,0,13,13,13,,,,,,,,,,,None,None,0,404.7876266000094,None,404.7876266000094,405.7876280999626,405.7709652999765,406.7709909999976,0,1,404.7876266000094,None,1,M,14,R,KB,2021_Jun_15_1359,WASABI Nback,2020.2.10,59.992105048699464,
0,1,8,"[0, -0.2]",None,0,1,1,1,,,,,0,0,0,0,0,14,14,14,,,,,,,,,,,None,None,0,406.78765899996506,None,406.78765899996506,407.787671099999,407.77099140000064,408.77099319995614,0,1,406.78765899996506,None,1,M,14,R,KB,2021_Jun_15_1359,WASABI Nback,2020.2.10,59.992105048699464,
0,1,9,"[0.2, -0.2]",None,0,1,1,1,,,,,0,0,0,0,0,15,15,15,,,,,,,,,,,None,None,0,408.78766009997344,None,408.78766009997344,409.78765519999433,409.77101099997526,410.771011099976,0,1,408.78766009997344,None,1,M,14,R,KB,2021_Jun_15_1359,WASABI Nback,2020.2.10,59.992105048699464,
0,1,9,"[0.2, -0.2]",None,0,1,1,1,,,,,0,0,0,0,0,16,16,16,,,,,,,,,,,None,None,0,410.7876965999603,None,410.7876965999603,411.7876971999649,411.7710181999719,412.7710320999613,0,1,410.7876965999603,None,1,M,14,R,KB,2021_Jun_15_1359,WASABI Nback,2020.2.10,59.992105048699464,
0,1,1,"[-0.2, 0.2]",None,0,1,1,1,,,,,0,0,0,0,0,17,17,17,,,,,,,,,,,None,None,0,412.7877046999638,None,412.7877046999638,413.7876881999546,413.7710356999887,414.77104099997086,0,1,412.7877046999638,None,1,M,14,R,KB,2021_Jun_15_1359,WASABI Nback,2020.2.10,59.992105048699464,
0,1,3,"[0.2, 0.2]",None,0,1,1,1,,,,,0,0,0,0,0,18,18,18,,,,,,,,,,,None,None,0,414.7877040999592,None,414.7877040999592,415.7877075999859,415.7710584999877,416.77106249995995,0,1,414.7877040999592,None,1,M,14,R,KB,2021_Jun_15_1359,WASABI Nback,2020.2.10,59.992105048699464,
0,1,5,"[0, 0]",None,0,1,1,1,,,,,0,0,0,0,0,19,19,19,,,,,,,,,,,None,None,0,416.78771519998554,None,416.78771519998554,417.7877297999803,417.7710775999585,418.7710721999756,0,1,416.78771519998554,None,1,M,14,R,KB,2021_Jun_15_1359,WASABI Nback,2020.2.10,59.992105048699464,
0,1,3,"[0.2, 0.2]",1,0,1,1,1,,,,,0,0,0,0,0,20,20,20,,,,,,,,,,,None,None,0,418.78772009996464,None,418.78772009996464,419.7877594999736,419.77107389998855,420.771088199981,0,1,418.78772009996464,None,1,M,14,R,KB,2021_Jun_15_1359,WASABI Nback,2020.2.10,59.992105048699464,
0,1,4,"[-0.2, 0]",None,0,1,1,1,,,,,0,0,0,0,0,21,21,21,,,,,,,,,,,None,None,0,420.7877548999968,None,420.7877548999968,421.7877632000018,421.7711080999579,422.7711075999541,0,1,420.7877548999968,None,1,M,14,R,KB,2021_Jun_15_1359,WASABI Nback,2020.2.10,59.992105048699464,
0,1,7,"[-0.2, -0.2]",None,0,1,1,1,,,,,0,0,0,0,0,22,22,22,,,,,,,,,,,None,None,0,422.78778660000535,None,422.78778660000535,423.7877747999737,423.77110829995945,424.771117199969,0,1,422.78778660000535,None,1,M,14,R,KB,2021_Jun_15_1359,WASABI Nback,2020.2.10,59.992105048699464,
0,1,4,"[-0.2, 0]",1,0,1,1,1,,,,,0,0,0,0,0,23,23,23,,,,,,,,,,,None,None,0,424.78779460000806,None,424.78779460000806,425.7877822999726,425.7711207999964,426.7711402999703,0,1,424.78779460000806,None,1,M,14,R,KB,2021_Jun_15_1359,WASABI Nback,2020.2.10,59.992105048699464,
0,1,4,"[-0.2, 0]",None,0,1,1,1,,,,,0,0,0,0,0,24,24,24,,,,,,,,,,,None,None,0,426.78779509995366,None,426.78779509995366,427.78778759995475,427.77115079999203,428.7711394999642,0,1,426.78779509995366,None,1,M,14,R,KB,2021_Jun_15_1359,WASABI Nback,2020.2.10,59.992105048699464,
0,1,5,"[0, 0]",None,0,1,1,1,,,,,0,0,0,0,0,25,25,25,,,,,,,,,,,None,None,0,428.7878179999534,None,428.7878179999534,429.78783939999994,429.77115829999093,430.7711808999884,0,1,428.7878179999534,None,1,M,14,R,KB,2021_Jun_15_1359,WASABI Nback,2020.2.10,59.992105048699464,
0,1,2,"[0, 0.2]",None,0,1,1,1,,,,,0,0,0,0,0,26,26,26,,,,,,,,,,,None,None,0,430.78784070000984,None,430.78784070000984,431.78783419996034,431.77116129995557,432.77118899999186,0,1,430.78784070000984,None,1,M,14,R,KB,2021_Jun_15_1359,WASABI Nback,2020.2.10,59.992105048699464,
0,1,6,"[0.2, 0]",None,0,1,1,1,,,,,0,0,0,0,0,27,27,27,,,,,,,,,,,None,None,0,432.7878360999748,None,432.7878360999748,433.7878379999893,433.7711988000083,434.77119729999686,0,1,432.7878360999748,None,1,M,14,R,KB,2021_Jun_15_1359,WASABI Nback,2020.2.10,59.992105048699464,
0,1,7,"[-0.2, -0.2]",None,0,1,1,1,,,,,0,0,0,0,0,28,28,28,,,,,,,,,,,None,None,0,434.78787949995603,None,434.78787949995603,435.7878648999613,435.7711857999675,436.77121360000456,0,1,434.78787949995603,None,1,M,14,R,KB,2021_Jun_15_1359,WASABI Nback,2020.2.10,59.992105048699464,
0,1,6,"[0.2, 0]",1,0,1,1,1,,,,,0,0,0,0,0,29,29,29,,,,,,,,,,,None,None,0,436.78789420000976,None,436.78789420000976,437.7879132999806,437.7712268999894,438.7712285000016,0,1,436.78789420000976,None,1,M,14,R,KB,2021_Jun_15_1359,WASABI Nback,2020.2.10,59.992105048699464,
0,1,6,"[0.2, 0]",None,0,1,1,1,,,,,0,0,0,0,0,30,30,30,,,,,,,,,,,None,None,0,438.78788019996136,None,438.78788019996136,439.78792729997076,439.77124879998155,440.77124539995566,0,1,438.78788019996136,None,1,M,14,R,KB,2021_Jun_15_1359,WASABI Nback,2020.2.10,59.992105048699464,
0,1,7,"[-0.2, -0.2]",None,0,1,1,1,,,,,0,0,0,0,0,31,31,31,,,,,,,,,,,None,None,0,440.7879038999672,None,440.7879038999672,441.7879074999946,441.7712633999763,442.7712577999919,0,1,440.7879038999672,None,1,M,14,R,KB,2021_Jun_15_1359,WASABI Nback,2020.2.10,59.992105048699464,
0,1,6,"[0.2, 0]",1,0,1,1,1,,,,,0,0,0,0,0,32,32,32,,,,,,,,,,,None,None,0,442.7879491999629,None,442.7879491999629,443.78794409998227,443.77126020001015,444.77127619995736,0,1,442.7879491999629,None,1,M,14,R,KB,2021_Jun_15_1359,WASABI Nback,2020.2.10,59.992105048699464,
0,1,2,"[0, 0.2]",None,0,1,1,1,,,,,0,0,0,0,0,33,33,33,,,,,,,,,,,None,None,0,444.7879576999694,None,444.7879576999694,445.78795909998007,445.77128609997453,446.7712959999917,0,1,444.7879576999694,None,1,M,14,R,KB,2021_Jun_15_1359,WASABI Nback,2020.2.10,59.992105048699464,
0,1,5,"[0, 0]",None,0,1,1,1,,,,,0,0,0,0,0,34,34,34,,,,,,,,,,,None,None,0,446.78795039997203,None,446.78795039997203,447.7879564999603,447.77129800000694,448.7713197999983,0,1,446.78795039997203,None,1,M,14,R,KB,2021_Jun_15_1359,WASABI Nback,2020.2.10,59.992105048699464,
0,1,4,"[-0.2, 0]",None,0,1,1,1,,,,,0,0,0,0,0,35,35,35,,,,,,,,,,,None,None,0,448.7879882999696,None,448.7879882999696,449.78797179996036,449.771269299963,450.7713225999614,0,1,448.7879882999696,None,1,M,14,R,KB,2021_Jun_15_1359,WASABI Nback,2020.2.10,59.992105048699464,
0,1,4,"[-0.2, 0]",None,0,1,1,1,,,,,0,0,0,0,0,36,36,36,,,,,,,,,,,None,None,0,450.78800389997195,None,450.78800389997195,451.7880058999872,451.7713322999771,452.77133859996684,0,1,450.78800389997195,None,1,M,14,R,KB,2021_Jun_15_1359,WASABI Nback,2020.2.10,59.992105048699464,
0,1,7,"[-0.2, -0.2]",None,0,1,1,1,,,,,0,0,0,0,0,37,37,37,,,,,,,,,,,None,None,0,452.78800060000503,None,452.78800060000503,453.78801089996705,453.7713533999631,454.7713678999571,0,1,452.78800060000503,None,1,M,14,R,KB,2021_Jun_15_1359,WASABI Nback,2020.2.10,59.992105048699464,
0,1,4,"[-0.2, 0]",1,0,1,1,1,,,,,0,0,0,0,0,38,38,38,,,,,,,,,,,None,None,0,454.78801429999294,None,454.78801429999294,455.78802539996104,455.7713606999605,456.7713715999853,0,1,454.78801429999294,None,1,M,14,R,KB,2021_Jun_15_1359,WASABI Nback,2020.2.10,59.992105048699464,
0,1,3,"[0.2, 0.2]",None,0,1,1,1,,,,,0,0,0,0,0,39,39,39,,,,,,,,,,,None,None,0,456.78805329999886,None,456.78805329999886,457.7880319999531,457.7713800999918,458.77137400000356,0,1,456.78805329999886,None,1,M,14,R,KB,2021_Jun_15_1359,WASABI Nback,2020.2.10,59.992105048699464,
0,1,5,"[0, 0]",None,0,1,1,1,,,,,0,0,0,0,0,40,40,40,,,,,,,,,,,None,None,0,458.7879724999657,None,458.7879724999657,459.78806910000276,459.77139319997514,460.7714005999733,0,1,458.7879724999657,None,1,M,14,R,KB,2021_Jun_15_1359,WASABI Nback,2020.2.10,59.992105048699464,
0,1,3,"[0.2, 0.2]",1,0,1,1,1,,,,,0,0,0,0,0,41,41,41,,,,,,,,,,,None,None,0,460.78807039995445,None,460.78807039995445,461.7880880999728,461.77140999998664,462.77142030000687,0,1,460.78807039995445,None,1,M,14,R,KB,2021_Jun_15_1359,WASABI Nback,2020.2.10,59.992105048699464,
0,1,1,"[-0.2, 0.2]",None,0,1,1,1,,,,,0,0,0,0,0,42,42,42,,,,,,,,,,,None,None,0,462.78809829999227,None,462.78809829999227,463.7880987999961,463.7714243999799,464.77144099998986,0,1,462.78809829999227,None,1,M,14,R,KB,2021_Jun_15_1359,WASABI Nback,2020.2.10,59.992105048699464,
0,1,9,"[0.2, -0.2]",None,0,1,1,1,,,,,0,0,0,0,0,43,43,43,,,,,,,,,,,None,None,0,464.78809859999456,None,464.78809859999456,465.7881214999943,465.77144799998496,466.77145529998234,0,1,464.78809859999456,None,1,M,14,R,KB,2021_Jun_15_1359,WASABI Nback,2020.2.10,59.992105048699464,
0,1,9,"[0.2, -0.2]",None,0,1,1,1,,,,,0,0,0,0,0,44,44,44,,,,,,,,,,,None,None,0,466.78812139999354,None,466.78812139999354,467.7881311000092,467.77144979999866,468.77146409999114,0,1,466.78812139999354,None,1,M,14,R,KB,2021_Jun_15_1359,WASABI Nback,2020.2.10,59.992105048699464,
0,1,8,"[0, -0.2]",None,0,1,1,1,,,,,0,0,0,0,0,45,45,45,,,,,,,,,,,None,None,0,468.7881449999986,None,468.7881449999986,469.7881372999982,469.77135329996236,470.77148219995433,0,1,468.7881449999986,None,1,M,14,R,KB,2021_Jun_15_1359,WASABI Nback,2020.2.10,59.992105048699464,
0,1,6,"[0.2, 0]",None,0,1,1,1,,,,,0,0,0,0,0,46,46,46,,,,,,,,,,,None,None,0,470.7881411999697,None,470.7881411999697,471.78816799999913,471.7714941999875,472.7715081999777,0,1,470.7881411999697,None,1,M,14,R,KB,2021_Jun_15_1359,WASABI Nback,2020.2.10,59.992105048699464,
0,1,3,"[0.2, 0.2]",None,0,1,1,1,,,,,0,0,0,0,0,47,47,47,,,,,,,,,,,None,None,0,472.7881737999851,None,472.7881737999851,473.78816789999837,473.77152119996026,474.7715075999731,0,1,472.7881737999851,None,1,M,14,R,KB,2021_Jun_15_1359,WASABI Nback,2020.2.10,59.992105048699464,
0,1,6,"[0.2, 0]",1,0,1,1,1,,,,,0,0,0,0,0,48,48,48,,,,,,,,,,,None,None,0,474.78819589997875,None,474.78819589997875,475.78818370000226,475.7715287999599,476.77153549995273,0,1,474.78819589997875,None,1,M,14,R,KB,2021_Jun_15_1359,WASABI Nback,2020.2.10,59.992105048699464,
0,1,5,"[0, 0]",None,0,1,1,1,,,,,0,0,0,0,0,49,49,49,,,,,,,,,,,None,None,0,476.78821139998036,None,476.78821139998036,477.7882155999541,477.7715326999896,478.77155720000155,0,1,476.78821139998036,None,1,M,14,R,KB,2021_Jun_15_1359,WASABI Nback,2020.2.10,59.992105048699464,
0,1,7,"[-0.2, -0.2]",None,0,1,1,1,,,,,0,0,0,0,0,50,50,50,,,,,,,,,,,None,None,0,478.78822509996826,None,478.78822509996826,479.7882236999576,479.77155689999927,480.77165730000706,0,1,478.78822509996826,None,1,M,14,R,KB,2021_Jun_15_1359,WASABI Nback,2020.2.10,59.992105048699464,
0,1,5,"[0, 0]",1,0,1,1,1,,,,,0,0,0,0,0,51,51,51,,,,,,,,,,,None,None,0,480.78824939997867,None,480.78824939997867,481.7882097999682,481.7715734000085,482.77158379997127,0,1,480.78824939997867,None,1,M,14,R,KB,2021_Jun_15_1359,WASABI Nback,2020.2.10,59.992105048699464,
0,1,1,"[-0.2, 0.2]",None,0,1,1,1,,,,,0,0,0,0,0,52,52,52,,,,,,,,,,,None,None,0,482.7882588999928,None,482.7882588999928,483.7882663999917,483.77158309996594,484.7715891999542,0,1,482.7882588999928,None,1,M,14,R,KB,2021_Jun_15_1359,WASABI Nback,2020.2.10,59.992105048699464,
0,1,7,"[-0.2, -0.2]",None,0,1,1,1,,,,,0,0,0,0,0,53,53,53,,,,,,,,,,,None,None,0,484.78825280000456,None,484.78825280000456,485.7882585999905,485.77160609996645,486.77160039998125,0,1,484.78825280000456,None,1,M,14,R,KB,2021_Jun_15_1359,WASABI Nback,2020.2.10,59.992105048699464,
0,1,9,"[0.2, -0.2]",None,0,1,1,1,,,,,0,0,0,0,0,54,54,54,,,,,,,,,,,None,None,0,486.78828439995414,None,486.78828439995414,487.78828019998036,487.77161409996916,488.77162369998405,0,1,486.78828439995414,None,1,M,14,R,KB,2021_Jun_15_1359,WASABI Nback,2020.2.10,59.992105048699464,
0,1,3,"[0.2, 0.2]",None,0,1,1,1,,,,,0,0,0,0,0,55,55,55,,,,,,,,,,,None,None,0,488.7883079999592,None,488.7883079999592,489.78831669996725,489.7716367999674,490.7716348999529,0,1,488.7883079999592,None,1,M,14,R,KB,2021_Jun_15_1359,WASABI Nback,2020.2.10,59.992105048699464,
0,1,9,"[0.2, -0.2]",1,0,1,1,1,,,,,0,0,0,0,0,56,56,56,,,,,,,,,,,None,None,0,490.78830349998316,None,490.78830349998316,491.7883020999725,491.7716538999812,492.77165219996823,0,1,490.78830349998316,None,1,M,14,R,KB,2021_Jun_15_1359,WASABI Nback,2020.2.10,59.992105048699464,
0,1,6,"[0.2, 0]",None,0,1,1,1,,,,,0,0,0,0,0,57,57,57,,,,,,,,,,,None,None,0,492.7883380999556,None,492.7883380999556,493.7883224999532,493.77166739996755,494.77166689996375,0,1,492.7883380999556,None,1,M,14,R,KB,2021_Jun_15_1359,WASABI Nback,2020.2.10,59.992105048699464,
0,1,2,"[0, 0.2]",None,0,1,1,1,,,,,0,0,0,0,0,58,58,58,,,,,,,,,,,None,None,0,494.78835399996024,None,494.78835399996024,495.78833349997876,495.77167539997026,496.7716853999882,0,1,494.78835399996024,None,1,M,14,R,KB,2021_Jun_15_1359,WASABI Nback,2020.2.10,59.992105048699464,
0,1,5,"[0, 0]",None,0,1,1,1,,,,,0,0,0,0,0,59,59,59,,,,,,,,,,,None,None,0,496.7883646999835,None,496.7883646999835,497.7883504999918,497.7717005999875,498.7716962999548,0,1,496.7883646999835,None,1,M,14,R,KB,2021_Jun_15_1359,WASABI Nback,2020.2.10,59.992105048699464,
0,1,5,"[0, 0]",None,0,1,1,1,,,,,0,0,0,0,0,60,60,60,,,,,,,,,,,None,None,0,498.78838320000796,None,498.78838320000796,499.78838189999806,499.77170469996054,500.77172299998347,0,1,498.78838320000796,None,1,M,14,R,KB,2021_Jun_15_1359,WASABI Nback,2020.2.10,59.992105048699464,
0,1,2,"[0, 0.2]",None,0,1,1,1,,,,,0,0,0,0,0,61,61,61,,,,,,,,,,,None,None,0,500.78839770000195,None,500.78839770000195,501.7883969999966,501.771721099969,502.771734000009,0,0,500.78839770000195,None,1,M,14,R,KB,2021_Jun_15_1359,WASABI Nback,2020.2.10,59.992105048699464,
0,1,6,"[0.2, 0]",None,0,1,1,1,,,,,0,0,0,0,0,62,62,62,,,,,,,,,,,None,None,0,502.7884005999658,None,502.7884005999658,503.78842539998004,503.7717416000087,504.7717494999524,0,1,502.7884005999658,None,1,M,14,R,KB,2021_Jun_15_1359,WASABI Nback,2020.2.10,59.992105048699464,
0,1,9,"[0.2, -0.2]",None,0,1,1,1,,,,,0,0,0,0,0,63,63,63,,,,,,,,,,,None,None,0,504.78840699995635,None,504.78840699995635,505.78841529996134,505.77176779997535,506.7717660999624,0,1,504.78840699995635,None,1,M,14,R,KB,2021_Jun_15_1359,WASABI Nback,2020.2.10,59.992105048699464,
0,1,3,"[0.2, 0.2]",None,0,1,1,1,,,,,0,0,0,0,0,64,64,64,,,,,,,,,,,None,None,0,506.7884479999775,None,506.7884479999775,507.78845539997565,507.77176440000767,508.77177890000166,0,1,506.7884479999775,None,1,M,14,R,KB,2021_Jun_15_1359,WASABI Nback,2020.2.10,59.992105048699464,
0,1,9,"[0.2, -0.2]",1,0,1,1,1,,,,,0,0,0,0,0,65,65,65,,,,,,,,,,,None,None,0,508.78832789999433,None,508.78832789999433,509.78847400000086,509.77178929996444,510.77179679996334,0,0,508.78832789999433,None,1,M,14,R,KB,2021_Jun_15_1359,WASABI Nback,2020.2.10,59.992105048699464,
0,1,7,"[-0.2, -0.2]",None,0,1,1,1,,,,,0,0,0,0,0,66,66,66,,,,,,,,,,,None,None,0,510.788460199954,None,510.788460199954,511.7884679999552,511.77181720000226,512.7718020000029,0,1,510.788460199954,None,1,M,14,R,KB,2021_Jun_15_1359,WASABI Nback,2020.2.10,59.992105048699464,
0,1,1,"[-0.2, 0.2]",None,0,1,1,1,,,,,0,0,0,0,0,67,67,67,,,,,,,,,,,None,None,0,512.7884975000052,None,512.7884975000052,513.7884894000017,513.7718114999589,514.7716901999665,0,1,512.7884975000052,None,1,M,14,R,KB,2021_Jun_15_1359,WASABI Nback,2020.2.10,59.992105048699464,
0,1,5,"[0, 0]",None,0,1,1,1,,,,,0,0,0,0,0,68,68,68,,,,,,,,,,,None,None,0,514.7885072999634,None,514.7885072999634,515.7885284000076,515.7718367999769,516.7718411000096,0,1,514.7885072999634,None,1,M,14,R,KB,2021_Jun_15_1359,WASABI Nback,2020.2.10,59.992105048699464,
0,1,7,"[-0.2, -0.2]",None,0,1,1,1,,,,,0,0,0,0,0,69,69,69,,,,,,,,,,,None,None,0,516.7885198000004,None,516.7885198000004,517.7885189999943,517.7718573999591,518.7718701999984,0,1,516.7885198000004,None,1,M,14,R,KB,2021_Jun_15_1359,WASABI Nback,2020.2.10,59.992105048699464,
0,1,5,"[0, 0]",1,0,1,1,1,,,,,0,0,0,0,0,70,70,70,,,,,,,,,,,None,None,0,518.7885546999751,None,518.7885546999751,519.7885346999974,519.7718684999854,520.7718820999726,0,1,518.7885546999751,None,1,M,14,R,KB,2021_Jun_15_1359,WASABI Nback,2020.2.10,59.992105048699464,
0,1,6,"[0.2, 0]",None,0,1,1,1,,,,,0,0,0,0,0,71,71,71,,,,,,,,,,,None,None,0,520.7885558999842,None,520.7885558999842,521.7884732999955,521.771883999987,522.7718964999658,0,1,520.7885558999842,None,1,M,14,R,KB,2021_Jun_15_1359,WASABI Nback,2020.2.10,59.992105048699464,
0,1,3,"[0.2, 0.2]",None,0,1,1,1,,,,,0,0,0,0,0,72,72,72,,,,,,,,,,,None,None,0,522.7885555999819,None,522.7885555999819,523.7885916999658,523.7719157999963,524.771906399983,0,1,522.7885555999819,None,1,M,14,R,KB,2021_Jun_15_1359,WASABI Nback,2020.2.10,59.992105048699464,
0,1,6,"[0.2, 0]",1,0,1,1,1,,,,,0,0,0,0,0,73,73,73,,,,,,,,,,,None,None,0,524.788570899982,None,524.788570899982,525.7886322999839,525.7719156999956,526.7719309999957,0,1,524.788570899982,None,1,M,14,R,KB,2021_Jun_15_1359,WASABI Nback,2020.2.10,59.992105048699464,
0,1,8,"[0, -0.2]",None,0,1,1,1,,,,,0,0,0,0,0,74,74,74,,,,,,,,,,,None,None,0,526.7885964000016,None,526.7885964000016,527.7886090999818,527.7719345999649,528.7719347999664,0,1,526.7885964000016,None,1,M,14,R,KB,2021_Jun_15_1359,WASABI Nback,2020.2.10,59.992105048699464,
0,1,9,"[0.2, -0.2]",None,0,1,1,1,,,,,0,0,0,0,0,75,75,75,,,,,,,,,,,None,None,0,528.7885031999904,None,528.7885031999904,529.7886091999826,529.7719604999875,530.7719411999569,0,1,528.7885031999904,None,1,M,14,R,KB,2021_Jun_15_1359,WASABI Nback,2020.2.10,59.992105048699464,
0,1,9,"[0.2, -0.2]",None,0,1,1,1,,,,,0,0,0,0,0,76,76,76,,,,,,,,,,,None,None,0,530.7886178999906,None,530.7886178999906,531.7886268000002,531.7719626000035,532.7719768999959,0,1,530.7886178999906,None,1,M,14,R,KB,2021_Jun_15_1359,WASABI Nback,2020.2.10,59.992105048699464,
0,1,1,"[-0.2, 0.2]",None,0,1,1,1,,,,,0,0,0,0,0,77,77,77,,,,,,,,,,,None,None,0,532.7886414999957,None,532.7886414999957,533.7886364999576,533.7719608999905,534.771986000007,0,1,532.7886414999957,None,1,M,14,R,KB,2021_Jun_15_1359,WASABI Nback,2020.2.10,59.992105048699464,
0,1,3,"[0.2, 0.2]",None,0,1,1,1,,,,,0,0,0,0,0,78,78,78,,,,,,,,,,,None,None,0,534.7886246999842,None,534.7886246999842,535.7886770999758,535.7719997999957,536.7719988999888,0,1,534.7886246999842,None,1,M,14,R,KB,2021_Jun_15_1359,WASABI Nback,2020.2.10,59.992105048699464,
0,1,5,"[0, 0]",None,0,1,1,1,,,,,0,0,0,0,0,79,79,79,,,,,,,,,,,None,None,0,536.7886571999989,None,536.7886571999989,537.7886654000031,537.7720095999539,538.7720225999947,0,1,536.7886571999989,None,1,M,14,R,KB,2021_Jun_15_1359,WASABI Nback,2020.2.10,59.992105048699464,
0,1,3,"[0.2, 0.2]",1,0,1,1,1,,,,,0,0,0,0,0,80,80,80,,,,,,,,,,,None,None,0,538.7886648999993,None,538.7886648999993,539.788681200007,539.7720130999805,540.772033599962,0,1,538.7886648999993,None,1,M,14,R,KB,2021_Jun_15_1359,WASABI Nback,2020.2.10,59.992105048699464,
0,1,4,"[-0.2, 0]",None,0,1,1,1,,,,,0,0,0,0,0,81,81,81,,,,,,,,,,,None,None,0,540.788714299968,None,540.788714299968,541.7887145999703,541.7720483999583,542.7720590999816,0,1,540.788714299968,None,1,M,14,R,KB,2021_Jun_15_1359,WASABI Nback,2020.2.10,59.992105048699464,
0,1,7,"[-0.2, -0.2]",None,0,1,1,1,,,,,0,0,0,0,0,82,82,82,,,,,,,,,,,None,None,0,542.7887041000067,None,542.7887041000067,543.7887398999883,543.771972699964,544.7720710999565,0,1,542.7887041000067,None,1,M,14,R,KB,2021_Jun_15_1359,WASABI Nback,2020.2.10,59.992105048699464,
0,1,4,"[-0.2, 0]",1,0,1,1,1,,,,,0,0,0,0,0,83,83,83,,,,,,,,,,,None,None,0,544.7887275999528,None,544.7887275999528,545.788745399972,545.7720618000021,546.7720789999585,0,1,544.7887275999528,None,1,M,14,R,KB,2021_Jun_15_1359,WASABI Nback,2020.2.10,59.992105048699464,
0,1,4,"[-0.2, 0]",None,0,1,1,1,,,,,0,0,0,0,0,84,84,84,,,,,,,,,,,None,None,0,546.7887281999574,None,546.7887281999574,547.788768599974,547.7720877999673,548.7721027999651,0,1,546.7887281999574,None,1,M,14,R,KB,2021_Jun_15_1359,WASABI Nback,2020.2.10,59.992105048699464,
0,1,5,"[0, 0]",None,0,1,1,1,,,,,0,0,0,0,0,85,85,85,,,,,,,,,,,None,None,0,548.7887580999522,None,548.7887580999522,549.7887765999767,549.7721002000035,550.7721179999644,0,1,548.7887580999522,None,1,M,14,R,KB,2021_Jun_15_1359,WASABI Nback,2020.2.10,59.992105048699464,
0,1,2,"[0, 0.2]",None,0,1,1,1,,,,,0,0,0,0,0,86,86,86,,,,,,,,,,,None,None,0,550.7887817999581,None,550.7887817999581,551.7887997999787,551.7721101999632,552.772123600007,0,1,550.7887817999581,None,1,M,14,R,KB,2021_Jun_15_1359,WASABI Nback,2020.2.10,59.992105048699464,
0,1,6,"[0.2, 0]",None,0,1,1,1,,,,,0,0,0,0,0,87,87,87,,,,,,,,,,,None,None,0,552.788804199954,None,552.788804199954,553.7888046999578,553.7721339999698,554.7721466000075,0,1,552.788804199954,None,1,M,14,R,KB,2021_Jun_15_1359,WASABI Nback,2020.2.10,59.992105048699464,
0,1,7,"[-0.2, -0.2]",None,0,1,1,1,,,,,0,0,0,0,0,88,88,88,,,,,,,,,,,None,None,0,554.7888064999715,None,554.7888064999715,555.7888292999705,555.7721595999901,556.7721717999666,0,1,554.7888064999715,None,1,M,14,R,KB,2021_Jun_15_1359,WASABI Nback,2020.2.10,59.992105048699464,
0,1,6,"[0.2, 0]",1,0,1,1,1,,,,,0,0,0,0,0,89,89,89,,,,,,,,,,,None,None,0,556.7888151999796,None,556.7888151999796,557.7888521999703,557.7721664999845,558.772052699991,0,1,556.7888151999796,None,1,M,14,R,KB,2021_Jun_15_1359,WASABI Nback,2020.2.10,59.992105048699464,
0,1,6,"[0.2, 0]",None,0,1,1,1,,,,,0,0,0,0,0,90,90,90,,,,,,,,,,,None,None,0,558.7888219999732,None,558.7888219999732,559.7888530999771,559.7721831999952,560.7721908999956,0,1,558.7888219999732,None,1,M,14,R,KB,2021_Jun_15_1359,WASABI Nback,2020.2.10,59.992105048699464,
0,1,7,"[-0.2, -0.2]",None,0,1,1,1,,,,,0,0,0,0,0,91,91,91,,,,,,,,,,,None,None,0,560.7888693999848,None,560.7888693999848,561.7888651999529,561.7722086999565,562.7722107999725,0,1,560.7888693999848,None,1,M,14,R,KB,2021_Jun_15_1359,WASABI Nback,2020.2.10,59.992105048699464,
0,1,6,"[0.2, 0]",1,0,1,1,1,,,,,0,0,0,0,0,92,92,92,,,,,,,,,,,None,None,0,562.7888615999836,None,562.7888615999836,563.7888745999662,563.7722155000083,564.7722235999536,0,1,562.7888615999836,None,1,M,14,R,KB,2021_Jun_15_1359,WASABI Nback,2020.2.10,59.992105048699464,
0,1,2,"[0, 0.2]",None,0,1,1,1,,,,,0,0,0,0,0,93,93,93,,,,,,,,,,,None,None,0,564.788906199974,None,564.788906199974,565.7888905999716,565.772239599959,566.7722321999609,0,1,564.788906199974,None,1,M,14,R,KB,2021_Jun_15_1359,WASABI Nback,2020.2.10,59.992105048699464,
0,1,5,"[0, 0]",None,0,1,1,1,,,,,0,0,0,0,0,94,94,94,,,,,,,,,,,None,None,0,566.7888956999523,None,566.7888956999523,567.788925300003,567.7722505999845,568.7722519999952,0,1,566.7888956999523,None,1,M,14,R,KB,2021_Jun_15_1359,WASABI Nback,2020.2.10,59.992105048699464,
0,1,4,"[-0.2, 0]",None,0,1,1,1,,,,,0,0,0,0,0,95,95,95,,,,,,,,,,,None,None,0,568.7889163999935,None,568.7889163999935,569.7889118999592,569.772317099967,570.7722692000098,0,1,568.7889163999935,None,1,M,14,R,KB,2021_Jun_15_1359,WASABI Nback,2020.2.10,59.992105048699464,
0,1,4,"[-0.2, 0]",None,0,1,1,1,,,,,0,0,0,0,0,96,96,96,,,,,,,,,,,None,None,0,570.7889497999568,None,570.7889497999568,571.7889405000024,571.7722785999649,572.7722845000098,0,1,570.7889497999568,None,1,M,14,R,KB,2021_Jun_15_1359,WASABI Nback,2020.2.10,59.992105048699464,
0,1,7,"[-0.2, -0.2]",None,0,1,1,1,,,,,0,0,0,0,0,97,97,97,,,,,,,,,,,None,None,0,572.7889688999858,None,572.7889688999858,573.7889755999786,573.7722956999787,574.7723139000009,0,1,572.7889688999858,None,1,M,14,R,KB,2021_Jun_15_1359,WASABI Nback,2020.2.10,59.992105048699464,
0,1,4,"[-0.2, 0]",1,0,1,1,1,,,,,0,0,0,0,0,98,98,98,,,,,,,,,,,None,None,0,574.7889667999698,None,574.7889667999698,575.7889966999646,575.7723196999868,576.7723105999758,0,1,574.7889667999698,None,1,M,14,R,KB,2021_Jun_15_1359,WASABI Nback,2020.2.10,59.992105048699464,
0,1,3,"[0.2, 0.2]",None,0,1,1,1,,,,,0,0,0,0,0,99,99,99,,,,,,,,,,,None,None,0,576.7889909999794,None,576.7889909999794,577.7889872000087,577.7723230999545,578.7723361999961,0,1,576.7889909999794,None,1,M,14,R,KB,2021_Jun_15_1359,WASABI Nback,2020.2.10,59.992105048699464,
0,1,5,"[0, 0]",None,0,1,1,1,,,,,0,0,0,0,0,100,100,100,,,,,,,,,,,None,None,0,578.7890176000074,None,578.7890176000074,579.7890087999986,579.7723359999945,580.7724208,0,1,578.7890176000074,None,1,M,14,R,KB,2021_Jun_15_1359,WASABI Nback,2020.2.10,59.992105048699464,
0,1,3,"[0.2, 0.2]",1,0,1,1,1,,,,,0,0,0,0,0,101,101,101,,,,,,,,,,,None,None,0,580.7890021000057,None,580.7890021000057,581.7890084999963,581.7723658999894,582.7723673,0,1,580.7890021000057,None,1,M,14,R,KB,2021_Jun_15_1359,WASABI Nback,2020.2.10,59.992105048699464,
0,1,1,"[-0.2, 0.2]",None,0,1,1,1,,,,,0,0,0,0,0,102,102,102,,,,,,,,,,,None,None,0,582.7890273999656,None,582.7890273999656,583.7890431999695,583.7723743999959,584.7723685000092,0,1,582.7890273999656,None,1,M,14,R,KB,2021_Jun_15_1359,WASABI Nback,2020.2.10,59.992105048699464,
0,1,9,"[0.2, -0.2]",None,0,1,1,1,,,,,0,0,0,0,0,103,103,103,,,,,,,,,,,None,None,0,584.7890598999802,None,584.7890598999802,585.789048000006,585.7724042999907,586.772392099956,0,1,584.7890598999802,None,1,M,14,R,KB,2021_Jun_15_1359,WASABI Nback,2020.2.10,59.992105048699464,
0,1,9,"[0.2, -0.2]",None,0,1,1,1,,,,,0,0,0,0,0,104,104,104,,,,,,,,,,,None,None,0,586.7890606999863,None,586.7890606999863,587.789087299956,587.7724171999726,588.7724083999638,0,1,586.7890606999863,None,1,M,14,R,KB,2021_Jun_15_1359,WASABI Nback,2020.2.10,59.992105048699464,
0,1,8,"[0, -0.2]",None,0,1,1,1,,,,,0,0,0,0,0,105,105,105,,,,,,,,,,,None,None,0,588.7890753999818,None,588.7890753999818,589.7891094000079,589.7724326999742,590.7724346999894,0,1,588.7890753999818,None,1,M,14,R,KB,2021_Jun_15_1359,WASABI Nback,2020.2.10,59.992105048699464,
0,1,6,"[0.2, 0]",None,0,1,1,1,,,,,0,0,0,0,0,106,106,106,,,,,,,,,,,None,None,0,590.7891152999946,None,590.7891152999946,591.7891200999729,591.7724402999738,592.7724410999799,0,1,590.7891152999946,None,1,M,14,R,KB,2021_Jun_15_1359,WASABI Nback,2020.2.10,59.992105048699464,
0,1,3,"[0.2, 0.2]",None,0,1,1,1,,,,,0,0,0,0,0,107,107,107,,,,,,,,,,,None,None,0,592.7889929999947,None,592.7889929999947,593.7891368999844,593.7724499999895,594.7724551999709,0,1,592.7889929999947,None,1,M,14,R,KB,2021_Jun_15_1359,WASABI Nback,2020.2.10,59.992105048699464,
0,1,6,"[0.2, 0]",1,0,1,1,1,,,,,0,0,0,0,0,108,108,108,,,,,,,,,,,None,None,0,594.7891285999794,None,594.7891285999794,595.7891320000053,595.7724846999627,596.7724633999751,0,0,594.7891285999794,None,1,M,14,R,KB,2021_Jun_15_1359,WASABI Nback,2020.2.10,59.992105048699464,
0,1,5,"[0, 0]",None,0,1,1,1,,,,,0,0,0,0,0,109,109,109,,,,,,,,,,,None,None,0,596.7891622000025,None,596.7891622000025,597.7891387999989,597.7723619999597,598.7725258999853,0,1,596.7891622000025,None,1,M,14,R,KB,2021_Jun_15_1359,WASABI Nback,2020.2.10,59.992105048699464,
0,1,7,"[-0.2, -0.2]",None,0,1,1,1,,,,,0,0,0,0,0,110,110,110,,,,,,,,,,,None,None,0,598.7891677999869,None,598.7891677999869,599.7891764999949,599.7725059000077,600.7725056000054,0,1,598.7891677999869,None,1,M,14,R,KB,2021_Jun_15_1359,WASABI Nback,2020.2.10,59.992105048699464,
0,1,5,"[0, 0]",1,0,1,1,1,,,,,0,0,0,0,0,111,111,111,,,,,,,,,,,None,None,0,600.7891860000091,None,600.7891860000091,601.7891972999787,601.772556699987,602.7725216999534,0,0,600.7891860000091,None,1,M,14,R,KB,2021_Jun_15_1359,WASABI Nback,2020.2.10,59.992105048699464,
0,1,1,"[-0.2, 0.2]",None,0,1,1,1,,,,,0,0,0,0,0,112,112,112,,,,,,,,,,,None,None,0,602.7891952999635,None,602.7891952999635,603.7892050999799,603.7725308999652,604.7725503999973,0,1,602.7891952999635,None,1,M,14,R,KB,2021_Jun_15_1359,WASABI Nback,2020.2.10,59.992105048699464,
0,1,7,"[-0.2, -0.2]",None,0,1,1,1,,,,,0,0,0,0,0,113,113,113,,,,,,,,,,,None,None,0,604.7892217999906,None,604.7892217999906,605.7892038999707,605.7725519000087,606.7725532999611,0,1,604.7892217999906,None,1,M,14,R,KB,2021_Jun_15_1359,WASABI Nback,2020.2.10,59.992105048699464,
0,1,9,"[0.2, -0.2]",None,0,1,1,1,,,,,0,0,0,0,0,114,114,114,,,,,,,,,,,None,None,0,606.7892379999976,None,606.7892379999976,607.7892436999828,607.7725658999989,608.7725572999916,0,1,606.7892379999976,None,1,M,14,R,KB,2021_Jun_15_1359,WASABI Nback,2020.2.10,59.992105048699464,
0,1,3,"[0.2, 0.2]",None,0,1,1,1,,,,,0,0,0,0,0,115,115,115,,,,,,,,,,,None,None,0,608.7892382999999,None,608.7892382999999,609.789245699998,609.7725729999947,610.7725942999823,0,1,608.7892382999999,None,1,M,14,R,KB,2021_Jun_15_1359,WASABI Nback,2020.2.10,59.992105048699464,
0,1,9,"[0.2, -0.2]",1,0,1,1,1,,,,,0,0,0,0,0,116,116,116,,,,,,,,,,,None,None,0,610.7892692000023,None,610.7892692000023,611.7892681999947,611.7725977000082,612.7726043000002,0,1,610.7892692000023,None,1,M,14,R,KB,2021_Jun_15_1359,WASABI Nback,2020.2.10,59.992105048699464,
0,1,6,"[0.2, 0]",None,0,1,1,1,,,,,0,0,0,0,0,117,117,117,,,,,,,,,,,None,None,0,612.7892701000092,None,612.7892701000092,613.7892892999807,613.7724892999977,614.7726217999589,0,1,612.7892701000092,None,1,M,14,R,KB,2021_Jun_15_1359,WASABI Nback,2020.2.10,59.992105048699464,
0,1,2,"[0, 0.2]",None,0,1,1,1,,,,,0,0,0,0,0,118,118,118,,,,,,,,,,,None,None,0,614.78930579999,None,614.78930579999,615.7892945999629,615.7725971000036,616.772614699963,0,1,614.78930579999,None,1,M,14,R,KB,2021_Jun_15_1359,WASABI Nback,2020.2.10,59.992105048699464,
0,1,5,"[0, 0]",None,0,1,1,1,,,,,0,0,0,0,0,119,119,119,,,,,,,,,,,None,None,0,616.7893157000071,None,616.7893157000071,617.789328599989,617.7726460999693,618.7726500999997,0,1,616.7893157000071,None,1,M,14,R,KB,2021_Jun_15_1359,WASABI Nback,2020.2.10,59.992105048699464,
