square,location,corrAns,trials.thisRepN,trials.thisTrialN,trials.thisN,trials.thisIndex,trials_2.thisRepN,trials_2.thisTrialN,trials_2.thisN,trials_2.thisIndex,fixation_1.started,fixation_1.stopped,grid_lines.started,grid_lines.stopped,target_square.started,target_square.stopped,fixation_2.started,fixation_2.stopped,response.corr,response.x,response.y,response.leftButton,response.click_left,response.click_right,response.started,response.stopped,ScoreReportText.started,ScoreReportText.stopped,ScoreReportResponse.keys,ScoreReportResponse.started,ScoreReportResponse.stopped,response_2.x,response_2.y,response_2.leftButton,grid_lines_2.started,grid_lines_2.stopped,target_square_2.started,target_square_2.stopped,fixation_3.started,fixation_3.stopped,response_2.click,response_2.corr,response_2.started,response_2.stopped,BodySiteInstructionText.started,BodySiteImg.started,BodySiteImg.stopped,BodySiteInstructionRead.keys,BodySiteInstructionRead.rt,BodySiteInstructionRead.started,BodySiteInstructionRead.stopped,response.click,IntensityRating.response,IntensityRating.rt,IntensityRating.started,IntensityRating.stopped,subject number,gender,distractMap first- or second-half (1 or 2),session,handedness,scanner,date,psychopyVersion,expName,frameRate,body_site_order,
6,"[0.2, 0]",None,0,0,0,0,,,,,1445.731460000039,None,1446.7647983999923,None,1446.7647983999923,1447.7815037999535,1447.7648882999783,None,0,-0.45092592592592595,-0.49074074074074076,"[0, 0, 0]",0,0,1446.7647983999923,None,,,,,,,,,,,,,,,,,,,,,,,,,,,,,,,5,m,2,15,r,CIB,2021_Oct_12_1447,2020.2.10,distractmap2,59.99134925140597,"['Right Face', 'Chest', 'Left Leg', 'Left Face']",
6,"[0.2, 0]",1,0,1,1,1,,,,,,,1448.7481814000057,None,1448.7481814000057,1449.7481663000071,1449.7314855000004,1450.7314936999464,1,-0.45092592592592595,-0.49074074074074076,"[0, 0, 0]",0,0,1448.7481814000057,None,,,,,,,,,,,,,,,,,,,,,,,,,,,,,,,5,m,2,15,r,CIB,2021_Oct_12_1447,2020.2.10,distractmap2,59.99134925140597,"['Right Face', 'Chest', 'Left Leg', 'Left Face']",
2,"[0, 0.2]",0,0,2,2,2,,,,,,,1450.7481698000338,None,1450.7481698000338,1451.764827899984,1451.7485245999414,None,1,-0.45092592592592595,-0.49074074074074076,"[0, 0, 0]",0,0,1450.7481698000338,None,,,,,,,,,,,,,,,,,,,,,,,,,,,,,,,5,m,2,15,r,CIB,2021_Oct_12_1447,2020.2.10,distractmap2,59.99134925140597,"['Right Face', 'Chest', 'Left Leg', 'Left Face']",
9,"[0.2, -0.2]",0,0,3,3,3,,,,,,,1452.748184200027,None,1452.748184200027,1453.7481789999874,1453.7315370999277,1454.7315304999938,1,-0.45092592592592595,-0.49074074074074076,"[0, 0, 0]",0,0,1452.748184200027,None,,,,,,,,,,,,,,,,,,,,,,,,,,,,,,,5,m,2,15,r,CIB,2021_Oct_12_1447,2020.2.10,distractmap2,59.99134925140597,"['Right Face', 'Chest', 'Left Leg', 'Left Face']",
9,"[0.2, -0.2]",1,0,4,4,4,,,,,,,1454.7482099999906,None,1454.7482099999906,1455.748206899967,1455.7315519000404,1456.7315454999916,1,-0.45092592592592595,-0.49074074074074076,"[0, 0, 0]",0,0,1454.7482099999906,None,,,,,,,,,,,,,,,,,,,,,,,,,,,,,,,5,m,2,15,r,CIB,2021_Oct_12_1447,2020.2.10,distractmap2,59.99134925140597,"['Right Face', 'Chest', 'Left Leg', 'Left Face']",
6,"[0.2, 0]",0,0,5,5,5,,,,,,,1456.7482027999358,None,1456.7482027999358,1457.7482293000212,1457.731557699968,1458.7315745999804,1,-0.45092592592592595,-0.49074074074074076,"[0, 0, 0]",0,0,1456.7482027999358,None,,,,,,,,,,,,,,,,,,,,,,,,,,,,,,,5,m,2,15,r,CIB,2021_Oct_12_1447,2020.2.10,distractmap2,59.99134925140597,"['Right Face', 'Chest', 'Left Leg', 'Left Face']",
4,"[-0.2, 0]",0,0,6,6,6,,,,,,,1458.7482182999374,None,1458.7482182999374,1459.7482313000364,1459.7315671000397,1460.7315712999552,1,-0.45092592592592595,-0.49074074074074076,"[0, 0, 0]",0,0,1458.7482182999374,None,,,,,,,,,,,,,,,,,,,,,,,,,,,,,,,5,m,2,15,r,CIB,2021_Oct_12_1447,2020.2.10,distractmap2,59.99134925140597,"['Right Face', 'Chest', 'Left Leg', 'Left Face']",
3,"[0.2, 0.2]",0,0,7,7,7,,,,,,,1460.7482576000039,None,1460.7482576000039,1461.748227700009,1461.7315836999333,1462.7315722999629,1,-0.45092592592592595,-0.49074074074074076,"[0, 0, 0]",0,0,1460.7482576000039,None,,,,,,,,,,,,,,,,,,,,,,,,,,,,,,,5,m,2,15,r,CIB,2021_Oct_12_1447,2020.2.10,distractmap2,59.99134925140597,"['Right Face', 'Chest', 'Left Leg', 'Left Face']",
3,"[0.2, 0.2]",1,0,8,8,8,,,,,,,1462.7482498999452,None,1462.7482498999452,1463.7482973999577,1463.73154790001,1464.731590099982,1,-0.45092592592592595,-0.49074074074074076,"[0, 0, 0]",0,0,1462.7482498999452,None,,,,,,,,,,,,,,,,,,,,,,,,,,,,,,,5,m,2,15,r,CIB,2021_Oct_12_1447,2020.2.10,distractmap2,59.99134925140597,"['Right Face', 'Chest', 'Left Leg', 'Left Face']",
8,"[0, -0.2]",0,0,9,9,9,,,,,,,1464.7482565999962,None,1464.7482565999962,1465.748275400023,1465.7316185999662,1466.7316141999327,1,-0.45092592592592595,-0.49074074074074076,"[0, 0, 0]",0,0,1464.7482565999962,None,,,,,,,,,,,,,,,,,,,,,,,,,,,,,,,5,m,2,15,r,CIB,2021_Oct_12_1447,2020.2.10,distractmap2,59.99134925140597,"['Right Face', 'Chest', 'Left Leg', 'Left Face']",
1,"[-0.2, 0.2]",0,0,10,10,10,,,,,,,1466.7482877000002,None,1466.7482877000002,1467.748285299982,1467.7316197999753,1468.7316385000013,1,-0.45092592592592595,-0.49074074074074076,"[0, 0, 0]",0,0,1466.7482877000002,None,,,,,,,,,,,,,,,,,,,,,,,,,,,,,,,5,m,2,15,r,CIB,2021_Oct_12_1447,2020.2.10,distractmap2,59.99134925140597,"['Right Face', 'Chest', 'Left Leg', 'Left Face']",
2,"[0, 0.2]",0,0,11,11,11,,,,,,,1468.748292000033,None,1468.748292000033,1469.7483102999395,1469.7316357999807,1470.7316324999556,1,-0.45092592592592595,-0.49074074074074076,"[0, 0, 0]",0,0,1468.748292000033,None,,,,,,,,,,,,,,,,,,,,,,,,,,,,,,,5,m,2,15,r,CIB,2021_Oct_12_1447,2020.2.10,distractmap2,59.99134925140597,"['Right Face', 'Chest', 'Left Leg', 'Left Face']",
4,"[-0.2, 0]",0,0,12,12,12,,,,,,,1470.7483126999578,None,1470.7483126999578,1471.7483331999974,1471.7316453999374,1472.731662199949,1,-0.45092592592592595,-0.49074074074074076,"[0, 0, 0]",0,0,1470.7483126999578,None,,,,,,,,,,,,,,,,,,,,,,,,,,,,,,,5,m,2,15,r,CIB,2021_Oct_12_1447,2020.2.10,distractmap2,59.99134925140597,"['Right Face', 'Chest', 'Left Leg', 'Left Face']",
4,"[-0.2, 0]",1,0,13,13,13,,,,,,,1472.7483271999517,None,1472.7483271999517,1473.7483267999487,1473.7316549000097,1474.731671800022,1,-0.45092592592592595,-0.49074074074074076,"[0, 0, 0]",0,0,1472.7483271999517,None,,,,,,,,,,,,,,,,,,,,,,,,,,,,,,,5,m,2,15,r,CIB,2021_Oct_12_1447,2020.2.10,distractmap2,59.99134925140597,"['Right Face', 'Chest', 'Left Leg', 'Left Face']",
8,"[0, -0.2]",0,0,14,14,14,,,,,,,1474.7483310999814,None,1474.7483310999814,1475.7482788999332,1475.731677899952,1476.7316858000122,1,-0.45092592592592595,-0.49074074074074076,"[0, 0, 0]",0,0,1474.7483310999814,None,,,,,,,,,,,,,,,,,,,,,,,,,,,,,,,5,m,2,15,r,CIB,2021_Oct_12_1447,2020.2.10,distractmap2,59.99134925140597,"['Right Face', 'Chest', 'Left Leg', 'Left Face']",
5,"[0, 0]",0,0,15,15,15,,,,,,,1476.748354799929,None,1476.748354799929,1477.7483570999466,1477.7317369999364,1478.7316847000038,1,-0.45092592592592595,-0.49074074074074076,"[0, 0, 0]",0,0,1476.748354799929,None,,,,,,,,,,,,,,,,,,,,,,,,,,,,,,,5,m,2,15,r,CIB,2021_Oct_12_1447,2020.2.10,distractmap2,59.99134925140597,"['Right Face', 'Chest', 'Left Leg', 'Left Face']",
5,"[0, 0]",1,0,16,16,16,,,,,,,1478.7483699999284,None,1478.7483699999284,1479.7483763999771,1479.7316966999788,1480.7316981999902,1,-0.45092592592592595,-0.49074074074074076,"[0, 0, 0]",0,0,1478.7483699999284,None,,,,,,,,,,,,,,,,,,,,,,,,,,,,,,,5,m,2,15,r,CIB,2021_Oct_12_1447,2020.2.10,distractmap2,59.99134925140597,"['Right Face', 'Chest', 'Left Leg', 'Left Face']",
1,"[-0.2, 0.2]",0,0,17,17,17,,,,,,,1480.7483817000175,None,1480.7483817000175,1481.7483757999726,1481.7317040000344,1482.7317193000345,1,-0.45092592592592595,-0.49074074074074076,"[0, 0, 0]",0,0,1480.7483817000175,None,,,,,,,,,,,,,,,,,,,,,,,,,,,,,,,5,m,2,15,r,CIB,2021_Oct_12_1447,2020.2.10,distractmap2,59.99134925140597,"['Right Face', 'Chest', 'Left Leg', 'Left Face']",
3,"[0.2, 0.2]",0,0,18,18,18,,,,,,,1482.748398500029,None,1482.748398500029,1483.748392599984,1483.7317355999257,1484.7317273999797,1,-0.45092592592592595,-0.49074074074074076,"[0, 0, 0]",0,0,1482.748398500029,None,,,,,,,,,,,,,,,,,,,,,,,,,,,,,,,5,m,2,15,r,CIB,2021_Oct_12_1447,2020.2.10,distractmap2,59.99134925140597,"['Right Face', 'Chest', 'Left Leg', 'Left Face']",
6,"[0.2, 0]",0,0,19,19,19,,,,,,,1484.7483973000199,None,1484.7483973000199,1485.7484193999553,1485.731749700033,1486.731745600002,1,-0.45092592592592595,-0.49074074074074076,"[0, 0, 0]",0,0,1484.7483973000199,None,,,,,,,,,,,,,,,,,,,,,,,,,,,,,,,5,m,2,15,r,CIB,2021_Oct_12_1447,2020.2.10,distractmap2,59.99134925140597,"['Right Face', 'Chest', 'Left Leg', 'Left Face']",
1,"[-0.2, 0.2]",0,0,20,20,20,,,,,,,1486.7484202999622,None,1486.7484202999622,1487.748424999998,1487.7317688999465,1488.731738399947,1,-0.45092592592592595,-0.49074074074074076,"[0, 0, 0]",0,0,1486.7484202999622,None,,,,,,,,,,,,,,,,,,,,,,,,,,,,,,,5,m,2,15,r,CIB,2021_Oct_12_1447,2020.2.10,distractmap2,59.99134925140597,"['Right Face', 'Chest', 'Left Leg', 'Left Face']",
1,"[-0.2, 0.2]",1,0,21,21,21,,,,,,,1488.7484421000117,None,1488.7484421000117,1489.748358999961,1489.7317641000263,1490.73177199997,1,-0.45092592592592595,-0.49074074074074076,"[0, 0, 0]",0,0,1488.7484421000117,None,,,,,,,,,,,,,,,,,,,,,,,,,,,,,,,5,m,2,15,r,CIB,2021_Oct_12_1447,2020.2.10,distractmap2,59.99134925140597,"['Right Face', 'Chest', 'Left Leg', 'Left Face']",
1,"[-0.2, 0.2]",1,0,22,22,22,,,,,,,1490.7484608000377,None,1490.7484608000377,1491.74845980003,1491.731782299932,1492.7317903999938,1,-0.45092592592592595,-0.49074074074074076,"[0, 0, 0]",0,0,1490.7484608000377,None,,,,,,,,,,,,,,,,,,,,,,,,,,,,,,,5,m,2,15,r,CIB,2021_Oct_12_1447,2020.2.10,distractmap2,59.99134925140597,"['Right Face', 'Chest', 'Left Leg', 'Left Face']",
3,"[0.2, 0.2]",0,0,23,23,23,,,,,,,1492.7484628999373,None,1492.7484628999373,1493.748488000012,1493.731803999981,1494.7318006999558,1,-0.45092592592592595,-0.49074074074074076,"[0, 0, 0]",0,0,1492.7484628999373,None,,,,,,,,,,,,,,,,,,,,,,,,,,,,,,,5,m,2,15,r,CIB,2021_Oct_12_1447,2020.2.10,distractmap2,59.99134925140597,"['Right Face', 'Chest', 'Left Leg', 'Left Face']",
2,"[0, 0.2]",0,0,24,24,24,,,,,,,1494.7484792999458,None,1494.7484792999458,1495.748477499932,1495.7318072000053,1496.7318230000092,1,-0.45092592592592595,-0.49074074074074076,"[0, 0, 0]",0,0,1494.7484792999458,None,,,,,,,,,,,,,,,,,,,,,,,,,,,,,,,5,m,2,15,r,CIB,2021_Oct_12_1447,2020.2.10,distractmap2,59.99134925140597,"['Right Face', 'Chest', 'Left Leg', 'Left Face']",
1,"[-0.2, 0.2]",0,0,25,25,25,,,,,,,1496.748505000025,None,1496.748505000025,1497.7485031000106,1497.7318228000076,1498.7318311999552,1,-0.45092592592592595,-0.49074074074074076,"[0, 0, 0]",0,0,1496.748505000025,None,,,,,,,,,,,,,,,,,,,,,,,,,,,,,,,5,m,2,15,r,CIB,2021_Oct_12_1447,2020.2.10,distractmap2,59.99134925140597,"['Right Face', 'Chest', 'Left Leg', 'Left Face']",
7,"[-0.2, -0.2]",0,0,26,26,26,,,,,,,1498.7485107999528,None,1498.7485107999528,1499.7485313999932,1499.7318494999781,1500.7317751999944,1,-0.45092592592592595,-0.49074074074074076,"[0, 0, 0]",0,0,1498.7485107999528,None,,,,,,,,,,,,,,,,,,,,,,,,,,,,,,,5,m,2,15,r,CIB,2021_Oct_12_1447,2020.2.10,distractmap2,59.99134925140597,"['Right Face', 'Chest', 'Left Leg', 'Left Face']",
7,"[-0.2, -0.2]",1,0,27,27,27,,,,,,,1500.748525199946,None,1500.748525199946,1501.7485266999574,1501.7318369999994,1502.7318684000056,1,-0.45092592592592595,-0.49074074074074076,"[0, 0, 0]",0,0,1500.748525199946,None,,,,,,,,,,,,,,,,,,,,,,,,,,,,,,,5,m,2,15,r,CIB,2021_Oct_12_1447,2020.2.10,distractmap2,59.99134925140597,"['Right Face', 'Chest', 'Left Leg', 'Left Face']",
2,"[0, 0.2]",0,0,28,28,28,,,,,,,1502.7485389999347,None,1502.7485389999347,1503.7485483000055,1503.7318705000216,1504.7318802999798,1,-0.45092592592592595,-0.49074074074074076,"[0, 0, 0]",0,0,1502.7485389999347,None,,,,,,,,,,,,,,,,,,,,,,,,,,,,,,,5,m,2,15,r,CIB,2021_Oct_12_1447,2020.2.10,distractmap2,59.99134925140597,"['Right Face', 'Chest', 'Left Leg', 'Left Face']",
6,"[0.2, 0]",0,0,29,29,29,,,,,,,1504.748555499944,None,1504.748555499944,1505.748570399941,1505.7318715000292,1506.7319019000279,1,-0.45092592592592595,-0.49074074074074076,"[0, 0, 0]",0,0,1504.748555499944,None,,,,,,,,,,,,,,,,,,,,,,,,,,,,,,,5,m,2,15,r,CIB,2021_Oct_12_1447,2020.2.10,distractmap2,59.99134925140597,"['Right Face', 'Chest', 'Left Leg', 'Left Face']",
,,,,,,,,,,,,,,,,,,,,,,,,,,,1506.7651949999854,None,space,1506.7651949999854,None,,,,,,,,,,,,,,,,,,,,,,,,,,5,m,2,15,r,CIB,2021_Oct_12_1447,2020.2.10,distractmap2,59.99134925140597,"['Right Face', 'Chest', 'Left Leg', 'Left Face']",
6,"[0.2, 0]",None,,,,,0,0,0,0,1524.4153632000089,None,,,,,,,,,,,,,,,,,,,,None,None,"[0, 0, 0]",1525.4319310999708,None,1525.4319310999708,1526.432036299957,1526.4153760999907,1527.4153709999518,"[0, 0, 0]",0,1525.4319310999708,None,,,,,,,,,,,,,5,m,2,15,r,CIB,2021_Oct_12_1447,2020.2.10,distractmap2,59.99134925140597,"['Right Face', 'Chest', 'Left Leg', 'Left Face']",
7,"[-0.2, -0.2]",None,,,,,0,1,1,1,,,,,,,,,,,,,,,,,,,,,,None,None,"[0, 0, 0]",1527.4320452000247,1529.4320443000179,1527.4320452000247,1528.4320588000119,1528.415392099996,1529.4153984999284,"[0, 0, 0]",0,1527.4320452000247,1529.4320443000179,,,,,,,,,,,,,5,m,2,15,r,CIB,2021_Oct_12_1447,2020.2.10,distractmap2,59.99134925140597,"['Right Face', 'Chest', 'Left Leg', 'Left Face']",
6,"[0.2, 0]",1,,,,,0,2,2,2,,,,,,,,,,,,,,,,,,,,,,None,None,"[0, 0, 0]",1529.4487289999379,1531.4487409000285,1529.4487289999379,1530.4487118000397,1530.4320588000119,1531.4320726000005,"[0, 0, 0]",1,1529.4487289999379,1531.4487409000285,,,,,,,,,,,,,5,m,2,15,r,CIB,2021_Oct_12_1447,2020.2.10,distractmap2,59.99134925140597,"['Right Face', 'Chest', 'Left Leg', 'Left Face']",
2,"[0, 0.2]",0,,,,,0,3,3,3,,,,,,,,,,,,,,,,,,,,,,None,None,"[0, 0, 0]",1531.4654075999279,1533.465414699982,1531.4654075999279,1532.4824410999427,1532.4487375000026,1533.4487578000408,"[0, 0, 0]",1,1531.4654075999279,1533.465414699982,,,,,,,,,,,,,5,m,2,15,r,CIB,2021_Oct_12_1447,2020.2.10,distractmap2,59.99134925140597,"['Right Face', 'Chest', 'Left Leg', 'Left Face']",
5,"[0, 0]",0,,,,,0,4,4,4,,,,,,,,,,,,,,,,,,,,,,None,None,"[0, 0, 0]",1533.4820762999589,1535.4821023000404,1533.4820762999589,1534.4820997000206,1534.4654217000352,1535.4654341000132,"[0, 0, 0]",1,1533.4820762999589,1535.4821023000404,,,,,,,,,,,,,5,m,2,15,r,CIB,2021_Oct_12_1447,2020.2.10,distractmap2,59.99134925140597,"['Right Face', 'Chest', 'Left Leg', 'Left Face']",
4,"[-0.2, 0]",0,,,,,0,5,5,5,,,,,,,,,,,,,,,,,,,,,,None,None,"[0, 0, 0]",1535.4987757999916,1537.4987769,1535.4987757999916,1536.4987690999405,1536.4821655999403,1537.482118899934,"[0, 0, 0]",1,1535.4987757999916,1537.4987769,,,,,,,,,,,,,5,m,2,15,r,CIB,2021_Oct_12_1447,2020.2.10,distractmap2,59.99134925140597,"['Right Face', 'Chest', 'Left Leg', 'Left Face']",
4,"[-0.2, 0]",0,,,,,0,6,6,6,,,,,,,,,,,,,,,,,,,,,,None,None,"[0, 0, 0]",1537.5154410999967,1539.5154698999831,1537.5154410999967,1538.515460100025,1538.4987849999452,1539.4987988999346,"[0, 0, 0]",1,1537.5154410999967,1539.5154698999831,,,,,,,,,,,,,5,m,2,15,r,CIB,2021_Oct_12_1447,2020.2.10,distractmap2,59.99134925140597,"['Right Face', 'Chest', 'Left Leg', 'Left Face']",
7,"[-0.2, -0.2]",0,,,,,0,7,7,7,,,,,,,,,,,,,,,,,,,,,,None,None,"[0, 0, 0]",1539.5321452999488,1541.5321461999556,1539.5321452999488,1540.5321587999351,1540.5154612000333,1541.5154875000007,"[0, 0, 0]",1,1539.5321452999488,1541.5321461999556,,,,,,,,,,,,,5,m,2,15,r,CIB,2021_Oct_12_1447,2020.2.10,distractmap2,59.99134925140597,"['Right Face', 'Chest', 'Left Leg', 'Left Face']",
4,"[-0.2, 0]",1,,,,,0,8,8,8,,,,,,,,,,,,,,,,,,,,,,None,None,"[0, 0, 0]",1541.5488112999592,1543.5488252999494,1541.5488112999592,1542.5488140999805,1542.5321647999808,1543.5321664999938,"[0, 0, 0]",1,1541.5488112999592,1543.5488252999494,,,,,,,,,,,,,5,m,2,15,r,CIB,2021_Oct_12_1447,2020.2.10,distractmap2,59.99134925140597,"['Right Face', 'Chest', 'Left Leg', 'Left Face']",
3,"[0.2, 0.2]",0,,,,,0,9,9,9,,,,,,,,,,,,,,,,,,,,,,None,None,"[0, 0, 0]",1543.5654628999764,1545.5655148000224,1543.5654628999764,1544.5655046999454,1544.5488002999919,1545.5488358000293,"[0, 0, 0]",1,1543.5654628999764,1545.5655148000224,,,,,,,,,,,,,5,m,2,15,r,CIB,2021_Oct_12_1447,2020.2.10,distractmap2,59.99134925140597,"['Right Face', 'Chest', 'Left Leg', 'Left Face']",
5,"[0, 0]",0,,,,,0,10,10,10,,,,,,,,,,,,,,,,,,,,,,None,None,"[0, 0, 0]",1545.5821763999993,1547.5821008000057,1545.5821763999993,1546.5821887999773,1546.5655173999257,1547.5655161000323,"[0, 0, 0]",1,1545.5821763999993,1547.5821008000057,,,,,,,,,,,,,5,m,2,15,r,CIB,2021_Oct_12_1447,2020.2.10,distractmap2,59.99134925140597,"['Right Face', 'Chest', 'Left Leg', 'Left Face']",
3,"[0.2, 0.2]",1,,,,,0,11,11,11,,,,,,,,,,,,,,,,,,,,,,None,None,"[0, 0, 0]",1547.598855499993,1549.5988705999916,1547.598855499993,1548.5988639999414,1548.582189799985,1549.5822077000048,"[0, 0, 0]",1,1547.598855499993,1549.5988705999916,,,,,,,,,,,,,5,m,2,15,r,CIB,2021_Oct_12_1447,2020.2.10,distractmap2,59.99134925140597,"['Right Face', 'Chest', 'Left Leg', 'Left Face']",
1,"[-0.2, 0.2]",0,,,,,0,12,12,12,,,,,,,,,,,,,,,,,,,,,,None,None,"[0, 0, 0]",1549.6155283999396,1551.615555300028,1549.6155283999396,1550.615548199974,1550.5988856999902,1551.5988722000038,"[0, 0, 0]",1,1549.6155283999396,1551.615555300028,,,,,,,,,,,,,5,m,2,15,r,CIB,2021_Oct_12_1447,2020.2.10,distractmap2,59.99134925140597,"['Right Face', 'Chest', 'Left Leg', 'Left Face']",
9,"[0.2, -0.2]",0,,,,,0,13,13,13,,,,,,,,,,,,,,,,,,,,,,None,None,"[0, 0, 0]",1551.6321323999437,1553.6322342000203,1551.6321323999437,1552.6322219999274,1552.6155491999816,1553.61558829993,"[0, 0, 0]",1,1551.6321323999437,1553.6322342000203,,,,,,,,,,,,,5,m,2,15,r,CIB,2021_Oct_12_1447,2020.2.10,distractmap2,59.99134925140597,"['Right Face', 'Chest', 'Left Leg', 'Left Face']",
9,"[0.2, -0.2]",0,,,,,0,14,14,14,,,,,,,,,,,,,,,,,,,,,,None,None,"[0, 0, 0]",1553.648905399954,1555.6488942999858,1553.648905399954,1554.6489128000103,1554.632242099964,1555.632254099939,"[0, 0, 0]",1,1553.648905399954,1555.6488942999858,,,,,,,,,,,,,5,m,2,15,r,CIB,2021_Oct_12_1447,2020.2.10,distractmap2,59.99134925140597,"['Right Face', 'Chest', 'Left Leg', 'Left Face']",
8,"[0, -0.2]",0,,,,,0,15,15,15,,,,,,,,,,,,,,,,,,,,,,None,None,"[0, 0, 0]",1555.6655922000064,1557.6655908999965,1555.6655922000064,1556.665588599979,1556.6489175999304,1557.648926199996,"[0, 0, 0]",1,1555.6655922000064,1557.6655908999965,,,,,,,,,,,,,5,m,2,15,r,CIB,2021_Oct_12_1447,2020.2.10,distractmap2,59.99134925140597,"['Right Face', 'Chest', 'Left Leg', 'Left Face']",
6,"[0.2, 0]",0,,,,,0,16,16,16,,,,,,,,,,,,,,,,,,,,,,None,None,"[0, 0, 0]",1557.6822647999506,1559.6822648999514,1557.6822647999506,1558.6822748000268,1558.665596500039,1559.6656199999852,"[0, 0, 0]",1,1557.6822647999506,1559.6822648999514,,,,,,,,,,,,,5,m,2,15,r,CIB,2021_Oct_12_1447,2020.2.10,distractmap2,59.99134925140597,"['Right Face', 'Chest', 'Left Leg', 'Left Face']",
3,"[0.2, 0.2]",0,,,,,0,17,17,17,,,,,,,,,,,,,,,,,,,,,,None,None,"[0, 0, 0]",1559.6989339999855,1561.6989543000236,1559.6989339999855,1560.698954600026,1560.6822882000124,1561.6822934999363,"[0, 0, 0]",1,1559.6989339999855,1561.6989543000236,,,,,,,,,,,,,5,m,2,15,r,CIB,2021_Oct_12_1447,2020.2.10,distractmap2,59.99134925140597,"['Right Face', 'Chest', 'Left Leg', 'Left Face']",
6,"[0.2, 0]",1,,,,,0,18,18,18,,,,,,,,,,,,,,,,,,,,,,None,None,"[0, 0, 0]",1561.7156286999816,1563.7156337000197,1561.7156286999816,1562.7156245999504,1562.6989496999886,1563.698961899965,"[0, 0, 0]",1,1561.7156286999816,1563.7156337000197,,,,,,,,,,,,,5,m,2,15,r,CIB,2021_Oct_12_1447,2020.2.10,distractmap2,59.99134925140597,"['Right Face', 'Chest', 'Left Leg', 'Left Face']",
5,"[0, 0]",0,,,,,0,19,19,19,,,,,,,,,,,,,,,,,,,,,,None,None,"[0, 0, 0]",1563.732302499935,1565.7322230000282,1563.732302499935,1564.7323007000377,1564.7156202000333,1565.7156426999718,"[0, 0, 0]",1,1563.732302499935,1565.7322230000282,,,,,,,,,,,,,5,m,2,15,r,CIB,2021_Oct_12_1447,2020.2.10,distractmap2,59.99134925140597,"['Right Face', 'Chest', 'Left Leg', 'Left Face']",
7,"[-0.2, -0.2]",0,,,,,0,20,20,20,,,,,,,,,,,,,,,,,,,,,,None,None,"[0, 0, 0]",1565.7489908999996,1567.7489923000103,1565.7489908999996,1566.7489849999547,1566.7323280000128,1567.7323234999785,"[0, 0, 0]",1,1565.7489908999996,1567.7489923000103,,,,,,,,,,,,,5,m,2,15,r,CIB,2021_Oct_12_1447,2020.2.10,distractmap2,59.99134925140597,"['Right Face', 'Chest', 'Left Leg', 'Left Face']",
5,"[0, 0]",1,,,,,0,21,21,21,,,,,,,,,,,,,,,,,,,,,,None,None,"[0, 0, 0]",1567.765652299975,1569.7656839999836,1567.765652299975,1568.7656725000124,1568.7490145999473,1569.7490049999906,"[0, 0, 0]",1,1567.765652299975,1569.7656839999836,,,,,,,,,,,,,5,m,2,15,r,CIB,2021_Oct_12_1447,2020.2.10,distractmap2,59.99134925140597,"['Right Face', 'Chest', 'Left Leg', 'Left Face']",
1,"[-0.2, 0.2]",0,,,,,0,22,22,22,,,,,,,,,,,,,,,,,,,,,,None,None,"[0, 0, 0]",1569.7822875999846,1571.7823551000329,1569.7822875999846,1570.7823613999644,1570.765694099944,1571.765688000014,"[0, 0, 0]",1,1569.7822875999846,1571.7823551000329,,,,,,,,,,,,,5,m,2,15,r,CIB,2021_Oct_12_1447,2020.2.10,distractmap2,59.99134925140597,"['Right Face', 'Chest', 'Left Leg', 'Left Face']",
7,"[-0.2, -0.2]",0,,,,,0,23,23,23,,,,,,,,,,,,,,,,,,,,,,None,None,"[0, 0, 0]",1571.7990340000251,1573.7990488000214,1571.7990340000251,1572.7990366999293,1572.7823792999843,1573.7823778999737,"[0, 0, 0]",1,1571.7990340000251,1573.7990488000214,,,,,,,,,,,,,5,m,2,15,r,CIB,2021_Oct_12_1447,2020.2.10,distractmap2,59.99134925140597,"['Right Face', 'Chest', 'Left Leg', 'Left Face']",
9,"[0.2, -0.2]",0,,,,,0,24,24,24,,,,,,,,,,,,,,,,,,,,,,None,None,"[0, 0, 0]",1573.815716199926,1575.8157151000341,1573.815716199926,1574.8157082999824,1574.7990561999613,1575.7990580999758,"[0, 0, 0]",1,1573.815716199926,1575.8157151000341,,,,,,,,,,,,,5,m,2,15,r,CIB,2021_Oct_12_1447,2020.2.10,distractmap2,59.99134925140597,"['Right Face', 'Chest', 'Left Leg', 'Left Face']",
3,"[0.2, 0.2]",0,,,,,0,25,25,25,,,,,,,,,,,,,,,,,,,,,,None,None,"[0, 0, 0]",1575.832396499929,1577.8324272999307,1575.832396499929,1576.8324037999846,1576.8157244999893,1577.8157304000342,"[0, 0, 0]",1,1575.832396499929,1577.8324272999307,,,,,,,,,,,,,5,m,2,15,r,CIB,2021_Oct_12_1447,2020.2.10,distractmap2,59.99134925140597,"['Right Face', 'Chest', 'Left Leg', 'Left Face']",
9,"[0.2, -0.2]",1,,,,,0,26,26,26,,,,,,,,,,,,,,,,,,,,,,None,None,"[0, 0, 0]",1577.8490816999692,1579.8491174000083,1577.8490816999692,1578.8490832999814,1578.8324115999276,1579.8324203999946,"[0, 0, 0]",1,1577.8490816999692,1579.8491174000083,,,,,,,,,,,,,5,m,2,15,r,CIB,2021_Oct_12_1447,2020.2.10,distractmap2,59.99134925140597,"['Right Face', 'Chest', 'Left Leg', 'Left Face']",
6,"[0.2, 0]",0,,,,,0,27,27,27,,,,,,,,,,,,,,,,,,,,,,None,None,"[0, 0, 0]",1579.8657591999508,1581.865757899941,1579.8657591999508,1580.8657529000193,1580.8490909000393,1581.8491253999528,"[0, 0, 0]",1,1579.8657591999508,1581.865757899941,,,,,,,,,,,,,5,m,2,15,r,CIB,2021_Oct_12_1447,2020.2.10,distractmap2,59.99134925140597,"['Right Face', 'Chest', 'Left Leg', 'Left Face']",
2,"[0, 0.2]",0,,,,,0,28,28,28,,,,,,,,,,,,,,,,,,,,,,None,None,"[0, 0, 0]",1581.8824303000001,1583.882324300008,1581.8824303000001,1582.8824433999835,1582.8657770999707,1583.8657763999654,"[0, 0, 0]",1,1581.8824303000001,1583.882324300008,,,,,,,,,,,,,5,m,2,15,r,CIB,2021_Oct_12_1447,2020.2.10,distractmap2,59.99134925140597,"['Right Face', 'Chest', 'Left Leg', 'Left Face']",
5,"[0, 0]",0,,,,,0,29,29,29,,,,,,,,,,,,,,,,,,,,,,None,None,"[0, 0, 0]",1583.8991385999834,1585.8991443000268,1583.8991385999834,1584.8991474999348,1584.882451799931,1585.8824532999424,"[0, 0, 0]",1,1583.8991385999834,1585.8991443000268,,,,,,,,,,,,,5,m,2,15,r,CIB,2021_Oct_12_1447,2020.2.10,distractmap2,59.99134925140597,"['Right Face', 'Chest', 'Left Leg', 'Left Face']",
,,,,,,,,,,,,,,,,,,,,,,,,,,,1585.915786299971,None,space,1585.915786299971,None,,,,,,,,,,,,,,,,,,,,,,,,,,5,m,2,15,r,CIB,2021_Oct_12_1447,2020.2.10,distractmap2,59.99134925140597,"['Right Face', 'Chest', 'Left Leg', 'Left Face']",
5,"[0, 0]",None,0,0,0,0,,,,,2066.3530592999887,None,2072.9360871999525,None,2072.9360871999525,2073.936077099992,2073.9027298999717,2074.902739199926,0,None,None,"[0, 0, 0]",,,2072.9360871999525,None,,,,,,,,,,,,,,,,,,,1614.4162695000414,1614.4162695000414,None,space,227.24367509991862,1614.4162695000414,None,"[0, 0, 0]",,,,,5,m,2,15,r,CIB,2021_Oct_12_1447,2020.2.10,distractmap2,59.99134925140597,"['Right Face', 'Chest', 'Left Leg', 'Left Face']",
5,"[0, 0]",1,0,1,1,1,,,,,,,2074.9360871999525,None,2074.9360871999525,2075.9360900999745,2075.919426599983,2076.919420799939,1,None,None,"[0, 0, 0]",,,2074.9360871999525,None,,,,,,,,,,,,,,,,,,,,,,,,,,"[0, 0, 0]",,,,,5,m,2,15,r,CIB,2021_Oct_12_1447,2020.2.10,distractmap2,59.99134925140597,"['Right Face', 'Chest', 'Left Leg', 'Left Face']",
4,"[-0.2, 0]",0,0,2,2,2,,,,,,,2076.9361011999426,2076.9361011999426,2076.9361011999426,2077.9361067999853,2077.9194383999566,2078.9194516999414,1,None,None,"[0, 0, 0]",,,2076.9361011999426,2076.9361011999426,,,,,,,,,,,,,,,,,,,,,,,,,,"[0, 0, 0]",,,,,5,m,2,15,r,CIB,2021_Oct_12_1447,2020.2.10,distractmap2,59.99134925140597,"['Right Face', 'Chest', 'Left Leg', 'Left Face']",
2,"[0, 0.2]",0,0,3,3,3,,,,,,,2078.9360044000205,2078.9360044000205,2078.9360044000205,2079.936115999939,2079.9194503999315,2080.919457399985,1,None,None,"[0, 0, 0]",,,2078.9360044000205,2078.9360044000205,,,,,,,,,,,,,,,,,,,,,,,,,,"[0, 0, 0]",,,,,5,m,2,15,r,CIB,2021_Oct_12_1447,2020.2.10,distractmap2,59.99134925140597,"['Right Face', 'Chest', 'Left Leg', 'Left Face']",
6,"[0.2, 0]",0,0,4,4,4,,,,,,,2080.986479199957,2080.986479199957,2080.986479199957,2081.9861390999286,2081.9694741999265,None,1,None,None,"[0, 0, 0]",,,2080.986479199957,2080.986479199957,,,,,,,,,,,,,,,,,,,,,,,,,,"[0, 0, 0]",,,,,5,m,2,15,r,CIB,2021_Oct_12_1447,2020.2.10,distractmap2,59.99134925140597,"['Right Face', 'Chest', 'Left Leg', 'Left Face']",
8,"[0, -0.2]",0,0,5,5,5,,,,,,,2082.9528648999985,None,2082.9528648999985,2083.952817099984,2083.9361531999893,2084.936155400006,1,None,None,"[0, 0, 0]",,,2082.9528648999985,None,,,,,,,,,,,,,,,,,,,,,,,,,,"[0, 0, 0]",,,,,5,m,2,15,r,CIB,2021_Oct_12_1447,2020.2.10,distractmap2,59.99134925140597,"['Right Face', 'Chest', 'Left Leg', 'Left Face']",
1,"[-0.2, 0.2]",0,0,6,6,6,,,,,,,2084.9528232000303,2084.9528232000303,2084.9528232000303,2085.952840199927,2085.9361731000245,2086.9361850999994,1,None,None,"[0, 0, 0]",,,2084.9528232000303,2084.9528232000303,,,,,,,,,,,,,,,,,,,,,,,,,,"[0, 0, 0]",,,,,5,m,2,15,r,CIB,2021_Oct_12_1447,2020.2.10,distractmap2,59.99134925140597,"['Right Face', 'Chest', 'Left Leg', 'Left Face']",
4,"[-0.2, 0]",0,0,7,7,7,,,,,,,2086.9528262999374,2086.9528262999374,2086.9528262999374,2087.9528371000197,2087.93619040004,2088.9361924999394,1,None,None,"[0, 0, 0]",,,2086.9528262999374,2086.9528262999374,,,,,,,,,,,,,,,,,,,,,,,,,,"[0, 0, 0]",,,,,5,m,2,15,r,CIB,2021_Oct_12_1447,2020.2.10,distractmap2,59.99134925140597,"['Right Face', 'Chest', 'Left Leg', 'Left Face']",
8,"[0, -0.2]",0,0,8,8,8,,,,,,,2088.952749399934,2088.952749399934,2088.952749399934,2089.952869300032,2089.9361952999607,2090.936202700017,1,None,None,"[0, 0, 0]",,,2088.952749399934,2088.952749399934,,,,,,,,,,,,,,,,,,,,,,,,,,"[0, 0, 0]",,,,,5,m,2,15,r,CIB,2021_Oct_12_1447,2020.2.10,distractmap2,59.99134925140597,"['Right Face', 'Chest', 'Left Leg', 'Left Face']",
8,"[0, -0.2]",1,0,9,9,9,,,,,,,2090.9528768999735,2090.9528768999735,2090.9528768999735,2091.9528913999675,2091.9362166000064,2092.93621309998,1,None,None,"[0, 0, 0]",,,2090.9528768999735,2090.9528768999735,,,,,,,,,,,,,,,,,,,,,,,,,,"[0, 0, 0]",,,,,5,m,2,15,r,CIB,2021_Oct_12_1447,2020.2.10,distractmap2,59.99134925140597,"['Right Face', 'Chest', 'Left Leg', 'Left Face']",
,,,,,,,,,,,2092.9528788999887,None,,,,,,,,,,,,,,,,,,,,,,,,,,,,,,,,,,,,,,,,,14.691358024691356,2069.6375654999865,,,5,m,2,15,r,CIB,2021_Oct_12_1447,2020.2.10,distractmap2,59.99134925140597,"['Right Face', 'Chest', 'Left Leg', 'Left Face']",
3,"[0.2, 0.2]",None,,,,,0,0,0,0,2110.7530310000293,None,,,,,,,,,,,,,,,,,,,,None,None,"[0, 0, 0]",2113.019701699959,None,2113.019701699959,2114.0197056999896,2114.0030356999487,2115.0030336999334,"[0, 0, 0]",0,2113.019701699959,None,,,,,,,,,,,0.014587100013159215,5.011496899998747,5,m,2,15,r,CIB,2021_Oct_12_1447,2020.2.10,distractmap2,59.99134925140597,"['Right Face', 'Chest', 'Left Leg', 'Left Face']",
3,"[0.2, 0.2]",None,,,,,0,1,1,1,,,,,,,,,,,,,,,,,,,,,,None,None,"[0, 0, 0]",2115.019708000007,2117.0197108000284,2115.019708000007,2116.0197028999683,2116.003055499983,2117.0030502999434,"[0, 0, 0]",0,2115.019708000007,2117.0197108000284,,,,,,,,,,,,,5,m,2,15,r,CIB,2021_Oct_12_1447,2020.2.10,distractmap2,59.99134925140597,"['Right Face', 'Chest', 'Left Leg', 'Left Face']",
5,"[0, 0]",0,,,,,0,2,2,2,,,,,,,,,,,,,,,,,,,,,,None,None,"[0, 0, 0]",2117.0363834999735,2119.036407999927,2117.0363834999735,2118.0363876000047,2118.019700999954,2119.019705599989,"[0, 0, 0]",1,2117.0363834999735,2119.036407999927,,,,,,,,,,,,,5,m,2,15,r,CIB,2021_Oct_12_1447,2020.2.10,distractmap2,59.99134925140597,"['Right Face', 'Chest', 'Left Leg', 'Left Face']",
1,"[-0.2, 0.2]",0,,,,,0,3,3,3,,,,,,,,,,,,,,,,,,,,,,None,None,"[0, 0, 0]",2119.0530594999436,2121.053086400032,2119.0530594999436,2120.0530859000282,2120.0364218000323,2121.0364068000345,"[0, 0, 0]",1,2119.0530594999436,2121.053086400032,,,,,,,,,,,,,5,m,2,15,r,CIB,2021_Oct_12_1447,2020.2.10,distractmap2,59.99134925140597,"['Right Face', 'Chest', 'Left Leg', 'Left Face']",
5,"[0, 0]",1,,,,,0,4,4,4,,,,,,,,,,,,,,,,,,,,,,None,None,"[0, 0, 0]",2121.136757,None,2121.136757,2122.136435799999,2122.119769299985,None,"[0, 0, 0]",1,2121.136757,None,,,,,,,,,,,,,5,m,2,15,r,CIB,2021_Oct_12_1447,2020.2.10,distractmap2,59.99134925140597,"['Right Face', 'Chest', 'Left Leg', 'Left Face']",
8,"[0, -0.2]",0,,,,,0,5,5,5,,,,,,,,,,,,,,,,,,,,,,None,None,"[0, 0, 0]",2123.086444100016,2125.086448499933,2123.086444100016,2124.0864531999687,2124.0697512000334,2125.0697896999773,"[0, 0, 0]",1,2123.086444100016,2125.086448499933,,,,,,,,,,,,,5,m,2,15,r,CIB,2021_Oct_12_1447,2020.2.10,distractmap2,59.99134925140597,"['Right Face', 'Chest', 'Left Leg', 'Left Face']",
5,"[0, 0]",1,,,,,0,6,6,6,,,,,,,,,,,,,,,,,,,,,,None,None,"[0, 0, 0]",2125.103123000008,2127.103127300041,2125.103123000008,2126.1031172999647,2126.0864659999497,2127.0864809999475,"[0, 0, 0]",1,2125.103123000008,2127.103127300041,,,,,,,,,,,,,5,m,2,15,r,CIB,2021_Oct_12_1447,2020.2.10,distractmap2,59.99134925140597,"['Right Face', 'Chest', 'Left Leg', 'Left Face']",
7,"[-0.2, -0.2]",0,,,,,0,7,7,7,,,,,,,,,,,,,,,,,,,,,,None,None,"[0, 0, 0]",2127.11980710004,2129.1198059000308,2127.11980710004,2128.119809399941,2128.1031572000356,2129.103148999973,"[0, 0, 0]",1,2127.11980710004,2129.1198059000308,,,,,,,,,,,,,5,m,2,15,r,CIB,2021_Oct_12_1447,2020.2.10,distractmap2,59.99134925140597,"['Right Face', 'Chest', 'Left Leg', 'Left Face']",
5,"[0, 0]",1,,,,,0,8,8,8,,,,,,,,,,,,,,,,,,,,,,None,None,"[0, 0, 0]",2129.1364587999415,2131.1365094999783,2129.1364587999415,2130.1364859000314,2130.1198277999647,2131.119831899996,"[0, 0, 0]",1,2129.1364587999415,2131.1365094999783,,,,,,,,,,,,,5,m,2,15,r,CIB,2021_Oct_12_1447,2020.2.10,distractmap2,59.99134925140597,"['Right Face', 'Chest', 'Left Leg', 'Left Face']",
7,"[-0.2, -0.2]",1,,,,,0,9,9,9,,,,,,,,,,,,,,,,,,,,,,None,None,"[0, 0, 0]",2131.1531563999597,2133.15316430002,2131.1531563999597,2132.1531819000375,2132.1365145000163,2133.1365247999784,"[0, 0, 0]",1,2131.1531563999597,2133.15316430002,,,,,,,,,,,,,5,m,2,15,r,CIB,2021_Oct_12_1447,2020.2.10,distractmap2,59.99134925140597,"['Right Face', 'Chest', 'Left Leg', 'Left Face']",
,,,,,,,,,,,2133.169862300041,None,,,,,,,,,,,,,,,,,,,,,,,,,,,,,,,,,,,,,,,,,11.234567901234566,2108.4880795000354,,,5,m,2,15,r,CIB,2021_Oct_12_1447,2020.2.10,distractmap2,59.99134925140597,"['Right Face', 'Chest', 'Left Leg', 'Left Face']",
6,"[0.2, 0]",None,,,,,0,0,0,0,2148.403405899997,None,,,,,,,,,,,,,,,,,,,,None,None,"[0, 0, 0]",2153.2200014999835,None,2153.2200014999835,2154.2200069000246,2154.203651699936,2155.203342600027,"[0, 0, 0]",0,2153.2200014999835,None,,,,,,,,,,,0.014235100010409951,5.010834699962288,5,m,2,15,r,CIB,2021_Oct_12_1447,2020.2.10,distractmap2,59.99134925140597,"['Right Face', 'Chest', 'Left Leg', 'Left Face']",
1,"[-0.2, 0.2]",None,,,,,0,1,1,1,,,,,,,,,,,,,,,,,,,,,,None,None,"[0, 0, 0]",2155.220010299934,2157.220025699935,2155.220010299934,2156.220016199979,2156.203353699995,2157.20334909996,"[0, 0, 0]",0,2155.220010299934,2157.220025699935,,,,,,,,,,,,,5,m,2,15,r,CIB,2021_Oct_12_1447,2020.2.10,distractmap2,59.99134925140597,"['Right Face', 'Chest', 'Left Leg', 'Left Face']",
6,"[0.2, 0]",1,,,,,0,2,2,2,,,,,,,,,,,,,,,,,,,,,,None,None,"[0, 0, 0]",2157.236679099966,2159.2367114999797,2157.236679099966,2158.236671700026,2158.22002899996,2159.220056799939,"[0, 0, 0]",1,2157.236679099966,2159.2367114999797,,,,,,,,,,,,,5,m,2,15,r,CIB,2021_Oct_12_1447,2020.2.10,distractmap2,59.99134925140597,"['Right Face', 'Chest', 'Left Leg', 'Left Face']",
4,"[-0.2, 0]",0,,,,,0,3,3,3,,,,,,,,,,,,,,,,,,,,,,None,None,"[0, 0, 0]",2159.253365600016,2161.2533808000153,2159.253365600016,2160.253381000017,2160.236719000037,2161.236728399992,"[0, 0, 0]",1,2159.253365600016,2161.2533808000153,,,,,,,,,,,,,5,m,2,15,r,CIB,2021_Oct_12_1447,2020.2.10,distractmap2,59.99134925140597,"['Right Face', 'Chest', 'Left Leg', 'Left Face']",
1,"[-0.2, 0.2]",0,,,,,0,4,4,4,,,,,,,,,,,,,,,,,,,,,,None,None,"[0, 0, 0]",2161.4034460999537,None,2161.4034460999537,2162.4034078000113,2162.3867352999514,None,"[0, 0, 0]",1,2161.4034460999537,None,,,,,,,,,,,,,5,m,2,15,r,CIB,2021_Oct_12_1447,2020.2.10,distractmap2,59.99134925140597,"['Right Face', 'Chest', 'Left Leg', 'Left Face']",
8,"[0, -0.2]",0,,,,,0,5,5,5,,,,,,,,,,,,,,,,,,,,,,None,None,"[0, 0, 0]",2163.286755500012,2165.2867558000144,2163.286755500012,2164.2867381999968,2164.270075700013,2165.270079699927,"[0, 0, 0]",0,2163.286755500012,2165.2867558000144,,,,,,,,,,,,,5,m,2,15,r,CIB,2021_Oct_12_1447,2020.2.10,distractmap2,59.99134925140597,"['Right Face', 'Chest', 'Left Leg', 'Left Face']",
1,"[-0.2, 0.2]",1,,,,,0,6,6,6,,,,,,,,,,,,,,,,,,,,,,None,None,"[0, 0, 0]",2165.3034173999913,2167.303457299946,2165.3034173999913,2166.3029253999703,2166.2867767999414,2167.2867617999436,"[0, 0, 0]",1,2165.3034173999913,2167.303457299946,,,,,,,,,,,,,5,m,2,15,r,CIB,2021_Oct_12_1447,2020.2.10,distractmap2,59.99134925140597,"['Right Face', 'Chest', 'Left Leg', 'Left Face']",
8,"[0, -0.2]",1,,,,,0,7,7,7,,,,,,,,,,,,,,,,,,,,,,None,None,"[0, 0, 0]",2167.320088999928,2169.3200945999706,2167.320088999928,2168.32010719995,2168.3034487999976,2169.303441899945,"[0, 0, 0]",1,2167.320088999928,2169.3200945999706,,,,,,,,,,,,,5,m,2,15,r,CIB,2021_Oct_12_1447,2020.2.10,distractmap2,59.99134925140597,"['Right Face', 'Chest', 'Left Leg', 'Left Face']",
1,"[-0.2, 0.2]",1,,,,,0,8,8,8,,,,,,,,,,,,,,,,,,,,,,None,None,"[0, 0, 0]",2169.3367919999873,2171.3368050999707,2169.3367919999873,2170.336789999972,2170.3201222999487,2171.32012769999,"[0, 0, 0]",1,2169.3367919999873,2171.3368050999707,,,,,,,,,,,,,5,m,2,15,r,CIB,2021_Oct_12_1447,2020.2.10,distractmap2,59.99134925140597,"['Right Face', 'Chest', 'Left Leg', 'Left Face']",
6,"[0.2, 0]",0,,,,,0,9,9,9,,,,,,,,,,,,,,,,,,,,,,None,None,"[0, 0, 0]",2171.353476500022,2173.3534760000184,2171.353476500022,2172.3534764000215,2172.3368098000064,2173.336813400034,"[0, 0, 0]",1,2171.353476500022,2173.3534760000184,,,,,,,,,,,,,5,m,2,15,r,CIB,2021_Oct_12_1447,2020.2.10,distractmap2,59.99134925140597,"['Right Face', 'Chest', 'Left Leg', 'Left Face']",
,,,,,,,,,,,2173.370138099999,None,,,,,,,,,,,,,,,,,,,,,,,,,,,,,,,,,,,,,,,,,10.185185185185187,2147.305051500094,,,5,m,2,15,r,CIB,2021_Oct_12_1447,2020.2.10,distractmap2,59.99134925140597,"['Right Face', 'Chest', 'Left Leg', 'Left Face']",
3,"[0.2, 0.2]",None,0,0,0,0,,,,,2188.586817399948,None,2193.4369587999536,None,2193.4369587999536,2194.4369757999666,2194.420294099953,2195.42030769994,0,None,None,"[0, 0, 0]",,,2193.4369587999536,None,,,,,,,,,,,,,,,,,,,,,,,,,,"[0, 0, 0]",,,0.014324299991130829,5.011085900012404,5,m,2,15,r,CIB,2021_Oct_12_1447,2020.2.10,distractmap2,59.99134925140597,"['Right Face', 'Chest', 'Left Leg', 'Left Face']",
4,"[-0.2, 0]",0,0,1,1,1,,,,,,,2195.4370278000133,None,2195.4370278000133,2196.436999800033,2196.4203237999463,2197.4203445999883,1,None,None,"[0, 0, 0]",,,2195.4370278000133,None,,,,,,,,,,,,,,,,,,,,,,,,,,"[0, 0, 0]",,,,,5,m,2,15,r,CIB,2021_Oct_12_1447,2020.2.10,distractmap2,59.99134925140597,"['Right Face', 'Chest', 'Left Leg', 'Left Face']",
1,"[-0.2, 0.2]",0,0,2,2,2,,,,,,,2197.4369962000055,2197.4369962000055,2197.4369962000055,2198.436911299941,2198.4203252999578,2199.420347600011,1,None,None,"[0, 0, 0]",,,2197.4369962000055,2197.4369962000055,,,,,,,,,,,,,,,,,,,,,,,,,,"[0, 0, 0]",,,,,5,m,2,15,r,CIB,2021_Oct_12_1447,2020.2.10,distractmap2,59.99134925140597,"['Right Face', 'Chest', 'Left Leg', 'Left Face']",
2,"[0, 0.2]",0,0,3,3,3,,,,,,,2199.4369996000314,2199.4369996000314,2199.4369996000314,2200.4370205999585,2200.4203359000385,2201.4203597999876,1,None,None,"[0, 0, 0]",,,2199.4369996000314,2199.4369996000314,,,,,,,,,,,,,,,,,,,,,,,,,,"[0, 0, 0]",,,,,5,m,2,15,r,CIB,2021_Oct_12_1447,2020.2.10,distractmap2,59.99134925140597,"['Right Face', 'Chest', 'Left Leg', 'Left Face']",
2,"[0, 0.2]",1,0,4,4,4,,,,,,,2201.4703491999535,2201.4703491999535,2201.4703491999535,2202.4703520999756,2202.4536973999348,None,0,None,None,"[0, 0, 0]",,,2201.4703491999535,2201.4703491999535,,,,,,,,,,,,,,,,,,,,,,,,,,"[0, 0, 0]",,,,,5,m,2,15,r,CIB,2021_Oct_12_1447,2020.2.10,distractmap2,59.99134925140597,"['Right Face', 'Chest', 'Left Leg', 'Left Face']",
5,"[0, 0]",0,0,5,5,5,,,,,,,2203.453702399973,None,2203.453702399973,2204.4537162999623,2204.437041600002,2205.4370370999677,1,None,None,"[0, 0, 0]",,,2203.453702399973,None,,,,,,,,,,,,,,,,,,,,,,,,,,"[0, 0, 0]",,,,,5,m,2,15,r,CIB,2021_Oct_12_1447,2020.2.10,distractmap2,59.99134925140597,"['Right Face', 'Chest', 'Left Leg', 'Left Face']",
1,"[-0.2, 0.2]",0,0,6,6,6,,,,,,,2205.4536536999512,2205.4536536999512,2205.4536536999512,2206.4537289999425,2206.437067299965,2207.4370469999267,1,None,None,"[0, 0, 0]",,,2205.4536536999512,2205.4536536999512,,,,,,,,,,,,,,,,,,,,,,,,,,"[0, 0, 0]",,,,,5,m,2,15,r,CIB,2021_Oct_12_1447,2020.2.10,distractmap2,59.99134925140597,"['Right Face', 'Chest', 'Left Leg', 'Left Face']",
1,"[-0.2, 0.2]",1,0,7,7,7,,,,,,,2207.45374919998,2207.45374919998,2207.45374919998,2208.4537431999343,2208.437062199926,2209.437088400009,0,None,None,"[0, 0, 0]",,,2207.45374919998,2207.45374919998,,,,,,,,,,,,,,,,,,,,,,,,,,"[0, 0, 0]",,,,,5,m,2,15,r,CIB,2021_Oct_12_1447,2020.2.10,distractmap2,59.99134925140597,"['Right Face', 'Chest', 'Left Leg', 'Left Face']",
8,"[0, -0.2]",0,0,8,8,8,,,,,,,2209.45374919998,2209.45374919998,2209.45374919998,2210.4537690000143,2210.4370894000167,2211.437092700042,1,None,None,"[0, 0, 0]",,,2209.45374919998,2209.45374919998,,,,,,,,,,,,,,,,,,,,,,,,,,"[0, 0, 0]",,,,,5,m,2,15,r,CIB,2021_Oct_12_1447,2020.2.10,distractmap2,59.99134925140597,"['Right Face', 'Chest', 'Left Leg', 'Left Face']",
7,"[-0.2, -0.2]",0,0,9,9,9,,,,,,,2211.4537647999823,2211.4537647999823,2211.4537647999823,2212.4537719000364,2212.4371018999955,2213.4371044000145,1,None,None,"[0, 0, 0]",,,2211.4537647999823,2211.4537647999823,,,,,,,,,,,,,,,,,,,,,,,,,,"[0, 0, 0]",,,,,5,m,2,15,r,CIB,2021_Oct_12_1447,2020.2.10,distractmap2,59.99134925140597,"['Right Face', 'Chest', 'Left Leg', 'Left Face']",
,,,,,,,,,,,2213.453787900042,None,,,,,,,,,,,,,,,,,,,,,,,,,,,,,,,,,,,,,,,,,10.74074074074074,2189.6212321001804,,,5,m,2,15,r,CIB,2021_Oct_12_1447,2020.2.10,distractmap2,59.99134925140597,"['Right Face', 'Chest', 'Left Leg', 'Left Face']",
7,"[-0.2, -0.2]",None,,,,,0,0,0,0,2231.270610000007,None,,,,,,,,,,,,,,,,,,,,None,None,"[0, 0, 0]",2233.520594600006,None,2233.520594600006,2234.520614100038,2234.503923299955,2235.503938799957,"[0, 0, 0]",0,2233.520594600006,None,,,,,,,,,,,0.015093999914824963,5.012622299953364,5,m,2,15,r,CIB,2021_Oct_12_1447,2020.2.10,distractmap2,59.99134925140597,"['Right Face', 'Chest', 'Left Leg', 'Left Face']",
7,"[-0.2, -0.2]",None,,,,,0,1,1,1,,,,,,,,,,,,,,,,,,,,,,None,None,"[0, 0, 0]",2235.52060779999,2237.520643500029,2235.52060779999,2236.5206098000053,2236.5039124999894,2237.5039767000126,"[0, 0, 0]",0,2235.52060779999,2237.520643500029,,,,,,,,,,,,,5,m,2,15,r,CIB,2021_Oct_12_1447,2020.2.10,distractmap2,59.99134925140597,"['Right Face', 'Chest', 'Left Leg', 'Left Face']",
7,"[-0.2, -0.2]",1,,,,,0,2,2,2,,,,,,,,,,,,,,,,,,,,,,None,None,"[0, 0, 0]",2237.5372973999474,2239.5373070000205,2237.5372973999474,2238.5373096000403,2238.520630199928,2239.520633499953,"[0, 0, 0]",1,2237.5372973999474,2239.5373070000205,,,,,,,,,,,,,5,m,2,15,r,CIB,2021_Oct_12_1447,2020.2.10,distractmap2,59.99134925140597,"['Right Face', 'Chest', 'Left Leg', 'Left Face']",
5,"[0, 0]",0,,,,,0,3,3,3,,,,,,,,,,,,,,,,,,,,,,None,None,"[0, 0, 0]",2239.5539668999845,2241.553989200038,2239.5539668999845,2240.5539796999656,2240.537317999988,2241.5373284999514,"[0, 0, 0]",1,2239.5539668999845,2241.553989200038,,,,,,,,,,,,,5,m,2,15,r,CIB,2021_Oct_12_1447,2020.2.10,distractmap2,59.99134925140597,"['Right Face', 'Chest', 'Left Leg', 'Left Face']",
1,"[-0.2, 0.2]",0,,,,,0,4,4,4,,,,,,,,,,,,,,,,,,,,,,None,None,"[0, 0, 0]",2241.6206691999687,None,2241.6206691999687,2242.62066409993,2242.6039877999574,None,"[0, 0, 0]",1,2241.6206691999687,None,,,,,,,,,,,,,5,m,2,15,r,CIB,2021_Oct_12_1447,2020.2.10,distractmap2,59.99134925140597,"['Right Face', 'Chest', 'Left Leg', 'Left Face']",
6,"[0.2, 0]",0,,,,,0,5,5,5,,,,,,,,,,,,,,,,,,,,,,None,None,"[0, 0, 0]",2243.587338699959,2245.587359199999,2243.587338699959,2244.58733270003,2244.5707396999933,2245.5706863999367,"[0, 0, 0]",1,2243.587338699959,2245.587359199999,,,,,,,,,,,,,5,m,2,15,r,CIB,2021_Oct_12_1447,2020.2.10,distractmap2,59.99134925140597,"['Right Face', 'Chest', 'Left Leg', 'Left Face']",
1,"[-0.2, 0.2]",1,,,,,0,6,6,6,,,,,,,,,,,,,,,,,,,,,,None,None,"[0, 0, 0]",2245.604013400036,2247.604038499994,2245.604013400036,2246.604025700013,2246.587365199928,2247.5873598000035,"[0, 0, 0]",1,2245.604013400036,2247.604038499994,,,,,,,,,,,,,5,m,2,15,r,CIB,2021_Oct_12_1447,2020.2.10,distractmap2,59.99134925140597,"['Right Face', 'Chest', 'Left Leg', 'Left Face']",
7,"[-0.2, -0.2]",0,,,,,0,7,7,7,,,,,,,,,,,,,,,,,,,,,,None,None,"[0, 0, 0]",2247.6207281999523,2249.62073580001,2247.6207281999523,2248.6207561999327,2248.604034299962,2249.6040557000088,"[0, 0, 0]",1,2247.6207281999523,2249.62073580001,,,,,,,,,,,,,5,m,2,15,r,CIB,2021_Oct_12_1447,2020.2.10,distractmap2,59.99134925140597,"['Right Face', 'Chest', 'Left Leg', 'Left Face']",
6,"[0.2, 0]",0,,,,,0,8,8,8,,,,,,,,,,,,,,,,,,,,,,None,None,"[0, 0, 0]",2249.637422199943,2251.6374015000183,2249.637422199943,2250.637394099962,2250.6207401999272,2251.620738000027,"[0, 0, 0]",1,2249.637422199943,2251.6374015000183,,,,,,,,,,,,,5,m,2,15,r,CIB,2021_Oct_12_1447,2020.2.10,distractmap2,59.99134925140597,"['Right Face', 'Chest', 'Left Leg', 'Left Face']",
7,"[-0.2, -0.2]",1,,,,,0,9,9,9,,,,,,,,,,,,,,,,,,,,,,None,None,"[0, 0, 0]",2251.6540545999305,2253.654081000015,2251.6540545999305,2252.654076099978,2252.6374050999293,2253.6373943999643,"[0, 0, 0]",1,2251.6540545999305,2253.654081000015,,,,,,,,,,,,,5,m,2,15,r,CIB,2021_Oct_12_1447,2020.2.10,distractmap2,59.99134925140597,"['Right Face', 'Chest', 'Left Leg', 'Left Face']",
,,,,,,,,,,,2253.6707517999457,None,,,,,,,,,,,,,,,,,,,,,,,,,,,,,,,,,,,,,,,,,4.1358024691357995,2227.2216059999773,,,5,m,2,15,r,CIB,2021_Oct_12_1447,2020.2.10,distractmap2,59.99134925140597,"['Right Face', 'Chest', 'Left Leg', 'Left Face']",
6,"[0.2, 0]",None,0,0,0,0,,,,,2268.9208443999523,None,2273.737563899951,None,2273.737563899951,2274.7375730000203,2274.720894600032,2275.7209100000327,0,None,None,"[0, 0, 0]",,,2273.737563899951,None,,,,,,,,,,,,,,,,,,,,,,,,,,"[0, 0, 0]",,,0.014944600057788193,5.012328300043009,5,m,2,15,r,CIB,2021_Oct_12_1447,2020.2.10,distractmap2,59.99134925140597,"['Right Face', 'Chest', 'Left Leg', 'Left Face']",
6,"[0.2, 0]",1,0,1,1,1,,,,,,,2275.737584699993,None,2275.737584699993,2276.7375843999907,2276.720924000023,2277.7208305000095,1,None,None,"[0, 0, 0]",,,2275.737584699993,None,,,,,,,,,,,,,,,,,,,,,,,,,,"[0, 0, 0]",,,,,5,m,2,15,r,CIB,2021_Oct_12_1447,2020.2.10,distractmap2,59.99134925140597,"['Right Face', 'Chest', 'Left Leg', 'Left Face']",
1,"[-0.2, 0.2]",0,0,2,2,2,,,,,,,2277.73758169997,2277.73758169997,2277.73758169997,2278.737639299943,2278.7209383000154,2279.720931399963,1,None,None,"[0, 0, 0]",,,2277.73758169997,2277.73758169997,,,,,,,,,,,,,,,,,,,,,,,,,,"[0, 0, 0]",,,,,5,m,2,15,r,CIB,2021_Oct_12_1447,2020.2.10,distractmap2,59.99134925140597,"['Right Face', 'Chest', 'Left Leg', 'Left Face']",
8,"[0, -0.2]",0,0,3,3,3,,,,,,,2279.73759169993,2279.73759169993,2279.73759169993,2280.7376045000274,2280.7209531000117,2281.7209613999585,1,None,None,"[0, 0, 0]",,,2279.73759169993,2279.73759169993,,,,,,,,,,,,,,,,,,,,,,,,,,"[0, 0, 0]",,,,,5,m,2,15,r,CIB,2021_Oct_12_1447,2020.2.10,distractmap2,59.99134925140597,"['Right Face', 'Chest', 'Left Leg', 'Left Face']",
1,"[-0.2, 0.2]",0,0,4,4,4,,,,,,,2281.787571199937,2281.787571199937,2281.787571199937,2282.787636299967,2282.7709659000393,None,1,None,None,"[0, 0, 0]",,,2281.787571199937,2281.787571199937,,,,,,,,,,,,,,,,,,,,,,,,,,"[0, 0, 0]",,,,,5,m,2,15,r,CIB,2021_Oct_12_1447,2020.2.10,distractmap2,59.99134925140597,"['Right Face', 'Chest', 'Left Leg', 'Left Face']",
4,"[-0.2, 0]",0,0,5,5,5,,,,,,,2283.754290999961,None,2283.754290999961,2284.754301699926,2284.7376479000086,2285.737654299941,1,None,None,"[0, 0, 0]",,,2283.754290999961,None,,,,,,,,,,,,,,,,,,,,,,,,,,"[0, 0, 0]",,,,,5,m,2,15,r,CIB,2021_Oct_12_1447,2020.2.10,distractmap2,59.99134925140597,"['Right Face', 'Chest', 'Left Leg', 'Left Face']",
5,"[0, 0]",0,0,6,6,6,,,,,,,2285.7543184999377,2285.7543184999377,2285.7543184999377,2286.754314700025,2286.7376466999995,2287.737675799988,1,None,None,"[0, 0, 0]",,,2285.7543184999377,2285.7543184999377,,,,,,,,,,,,,,,,,,,,,,,,,,"[0, 0, 0]",,,,,5,m,2,15,r,CIB,2021_Oct_12_1447,2020.2.10,distractmap2,59.99134925140597,"['Right Face', 'Chest', 'Left Leg', 'Left Face']",
7,"[-0.2, -0.2]",0,0,7,7,7,,,,,,,2287.7543325999286,2287.7543325999286,2287.7543325999286,2288.754343800014,2288.737665600027,2289.737671699957,1,None,None,"[0, 0, 0]",,,2287.7543325999286,2287.7543325999286,,,,,,,,,,,,,,,,,,,,,,,,,,"[0, 0, 0]",,,,,5,m,2,15,r,CIB,2021_Oct_12_1447,2020.2.10,distractmap2,59.99134925140597,"['Right Face', 'Chest', 'Left Leg', 'Left Face']",
7,"[-0.2, -0.2]",1,0,8,8,8,,,,,,,2289.754332899931,2289.754332899931,2289.754332899931,2290.7543605000246,2290.7376262999605,2291.737699499936,1,None,None,"[0, 0, 0]",,,2289.754332899931,2289.754332899931,,,,,,,,,,,,,,,,,,,,,,,,,,"[0, 0, 0]",,,,,5,m,2,15,r,CIB,2021_Oct_12_1447,2020.2.10,distractmap2,59.99134925140597,"['Right Face', 'Chest', 'Left Leg', 'Left Face']",
7,"[-0.2, -0.2]",1,0,9,9,9,,,,,,,2291.7543665999547,2291.7543665999547,2291.7543665999547,2292.75436729996,2292.737693700008,2293.7377200999763,1,None,None,"[0, 0, 0]",,,2291.7543665999547,2291.7543665999547,,,,,,,,,,,,,,,,,,,,,,,,,,"[0, 0, 0]",,,,,5,m,2,15,r,CIB,2021_Oct_12_1447,2020.2.10,distractmap2,59.99134925140597,"['Right Face', 'Chest', 'Left Leg', 'Left Face']",
,,,,,,,,,,,2293.7543729000026,None,,,,,,,,,,,,,,,,,,,,,,,,,,,,,,,,,,,,,,,,,1.0493827160493816,2264.739141399972,,,5,m,2,15,r,CIB,2021_Oct_12_1447,2020.2.10,distractmap2,59.99134925140597,"['Right Face', 'Chest', 'Left Leg', 'Left Face']",
8,"[0, -0.2]",None,0,0,0,0,,,,,2307.5711684999987,None,2313.8045292999595,None,2313.8045292999595,2314.804534900002,2314.7878911999287,2315.7878762999317,0,None,None,"[0, 0, 0]",,,2313.8045292999595,None,,,,,,,,,,,,,,,,,,,,,,,,,,"[0, 0, 0]",,,0.014436500030569732,5.011226800037548,5,m,2,15,r,CIB,2021_Oct_12_1447,2020.2.10,distractmap2,59.99134925140597,"['Right Face', 'Chest', 'Left Leg', 'Left Face']",
6,"[0.2, 0]",0,0,1,1,1,,,,,,,2315.8045471999794,None,2315.8045471999794,2316.80454069993,2316.787887100014,2317.787898199982,1,None,None,"[0, 0, 0]",,,2315.8045471999794,None,,,,,,,,,,,,,,,,,,,,,,,,,,"[0, 0, 0]",,,,,5,m,2,15,r,CIB,2021_Oct_12_1447,2020.2.10,distractmap2,59.99134925140597,"['Right Face', 'Chest', 'Left Leg', 'Left Face']",
6,"[0.2, 0]",1,0,2,2,2,,,,,,,2317.804573499947,2317.804573499947,2317.804573499947,2318.8045680000214,2318.787913099979,2319.7879108999623,0,None,None,"[0, 0, 0]",,,2317.804573499947,2317.804573499947,,,,,,,,,,,,,,,,,,,,,,,,,,"[0, 0, 0]",,,,,5,m,2,15,r,CIB,2021_Oct_12_1447,2020.2.10,distractmap2,59.99134925140597,"['Right Face', 'Chest', 'Left Leg', 'Left Face']",
2,"[0, 0.2]",0,0,3,3,3,,,,,,,2319.8045636999886,2319.8045636999886,2319.8045636999886,2320.8045667000115,2320.7879273999715,2321.787936699926,1,None,None,"[0, 0, 0]",,,2319.8045636999886,2319.8045636999886,,,,,,,,,,,,,,,,,,,,,,,,,,"[0, 0, 0]",,,,,5,m,2,15,r,CIB,2021_Oct_12_1447,2020.2.10,distractmap2,59.99134925140597,"['Right Face', 'Chest', 'Left Leg', 'Left Face']",
1,"[-0.2, 0.2]",0,0,4,4,4,,,,,,,2321.8716298999498,2321.8716298999498,2321.8716298999498,2322.871253599995,2322.854599399958,None,1,None,None,"[0, 0, 0]",,,2321.8716298999498,2321.8716298999498,,,,,,,,,,,,,,,,,,,,,,,,,,"[0, 0, 0]",,,,,5,m,2,15,r,CIB,2021_Oct_12_1447,2020.2.10,distractmap2,59.99134925140597,"['Right Face', 'Chest', 'Left Leg', 'Left Face']",
6,"[0.2, 0]",0,0,5,5,5,,,,,,,2323.821268999949,None,2323.821268999949,2324.821287399973,2324.8046164000407,2325.8046273000073,1,None,None,"[0, 0, 0]",,,2323.821268999949,None,,,,,,,,,,,,,,,,,,,,,,,,,,"[0, 0, 0]",,,,,5,m,2,15,r,CIB,2021_Oct_12_1447,2020.2.10,distractmap2,59.99134925140597,"['Right Face', 'Chest', 'Left Leg', 'Left Face']",
9,"[0.2, -0.2]",0,0,6,6,6,,,,,,,2325.8212780000176,2325.8212780000176,2325.8212780000176,2326.8212827999378,2326.8046310000354,2327.804632299929,1,None,None,"[0, 0, 0]",,,2325.8212780000176,2325.8212780000176,,,,,,,,,,,,,,,,,,,,,,,,,,"[0, 0, 0]",,,,,5,m,2,15,r,CIB,2021_Oct_12_1447,2020.2.10,distractmap2,59.99134925140597,"['Right Face', 'Chest', 'Left Leg', 'Left Face']",
1,"[-0.2, 0.2]",0,0,7,7,7,,,,,,,2327.8212074999465,2327.8212074999465,2327.8212074999465,2328.8213100000285,2328.804639799986,2329.8046230999753,1,None,None,"[0, 0, 0]",,,2327.8212074999465,2327.8212074999465,,,,,,,,,,,,,,,,,,,,,,,,,,"[0, 0, 0]",,,,,5,m,2,15,r,CIB,2021_Oct_12_1447,2020.2.10,distractmap2,59.99134925140597,"['Right Face', 'Chest', 'Left Leg', 'Left Face']",
6,"[0.2, 0]",0,0,8,8,8,,,,,,,2329.8213109000353,2329.8213109000353,2329.8213109000353,2330.8213415000355,2330.804657600005,2331.80466299993,1,None,None,"[0, 0, 0]",,,2329.8213109000353,2329.8213109000353,,,,,,,,,,,,,,,,,,,,,,,,,,"[0, 0, 0]",,,,,5,m,2,15,r,CIB,2021_Oct_12_1447,2020.2.10,distractmap2,59.99134925140597,"['Right Face', 'Chest', 'Left Leg', 'Left Face']",
6,"[0.2, 0]",1,0,9,9,9,,,,,,,2331.8213423000416,2331.8213423000416,2331.8213423000416,2332.8213617999572,2332.8046722,2333.8046843999764,1,None,None,"[0, 0, 0]",,,2331.8213423000416,2331.8213423000416,,,,,,,,,,,,,,,,,,,,,,,,,,"[0, 0, 0]",,,,,5,m,2,15,r,CIB,2021_Oct_12_1447,2020.2.10,distractmap2,59.99134925140597,"['Right Face', 'Chest', 'Left Leg', 'Left Face']",
,,,,,,,,,,,2333.821354500018,None,,,,,,,,,,,,,,,,,,,,,,,,,,,,,,,,,,,,,,,,,11.296296296296294,2310.1890624000225,,,5,m,2,15,r,CIB,2021_Oct_12_1447,2020.2.10,distractmap2,59.99134925140597,"['Right Face', 'Chest', 'Left Leg', 'Left Face']",
9,"[0.2, -0.2]",None,0,0,0,0,,,,,2351.6383753999835,None,2353.8715051999316,None,2353.8715051999316,2354.8715068999445,2354.8548347000033,2355.854824500042,0,None,None,"[0, 0, 0]",,,2353.8715051999316,None,,,,,,,,,,,,,,,,,,,,,,,,,,"[0, 0, 0]",,,0.014855400077067316,5.012201800011098,5,m,2,15,r,CIB,2021_Oct_12_1447,2020.2.10,distractmap2,59.99134925140597,"['Right Face', 'Chest', 'Left Leg', 'Left Face']",
9,"[0.2, -0.2]",1,0,1,1,1,,,,,,,2355.8715113999788,None,2355.8715113999788,2356.871522799949,2356.85487010004,2357.8548494999995,1,None,None,"[0, 0, 0]",,,2355.8715113999788,None,,,,,,,,,,,,,,,,,,,,,,,,,,"[0, 0, 0]",,,,,5,m,2,15,r,CIB,2021_Oct_12_1447,2020.2.10,distractmap2,59.99134925140597,"['Right Face', 'Chest', 'Left Leg', 'Left Face']",
9,"[0.2, -0.2]",1,0,2,2,2,,,,,,,2357.8715297000017,2357.8715297000017,2357.8715297000017,2358.8715401999652,2358.854874099954,2359.854886899935,1,None,None,"[0, 0, 0]",,,2357.8715297000017,2357.8715297000017,,,,,,,,,,,,,,,,,,,,,,,,,,"[0, 0, 0]",,,,,5,m,2,15,r,CIB,2021_Oct_12_1447,2020.2.10,distractmap2,59.99134925140597,"['Right Face', 'Chest', 'Left Leg', 'Left Face']",
3,"[0.2, 0.2]",0,0,3,3,3,,,,,,,2359.8715578999836,2359.8715578999836,2359.8715578999836,2360.871520699933,2360.854897900019,2361.854780399939,1,None,None,"[0, 0, 0]",,,2359.8715578999836,2359.8715578999836,,,,,,,,,,,,,,,,,,,,,,,,,,"[0, 0, 0]",,,,,5,m,2,15,r,CIB,2021_Oct_12_1447,2020.2.10,distractmap2,59.99134925140597,"['Right Face', 'Chest', 'Left Leg', 'Left Face']",
5,"[0, 0]",0,0,4,4,4,,,,,,,2361.9385639999527,2361.9385639999527,2361.9385639999527,2362.9382509000134,2362.921556200017,None,1,None,None,"[0, 0, 0]",,,2361.9385639999527,2361.9385639999527,,,,,,,,,,,,,,,,,,,,,,,,,,"[0, 0, 0]",,,,,5,m,2,15,r,CIB,2021_Oct_12_1447,2020.2.10,distractmap2,59.99134925140597,"['Right Face', 'Chest', 'Left Leg', 'Left Face']",
4,"[-0.2, 0]",0,0,5,5,5,,,,,,,2363.8882416000124,None,2363.8882416000124,2364.8882504999638,2364.8715674999403,2365.8714906999376,1,None,None,"[0, 0, 0]",,,2363.8882416000124,None,,,,,,,,,,,,,,,,,,,,,,,,,,"[0, 0, 0]",,,,,5,m,2,15,r,CIB,2021_Oct_12_1447,2020.2.10,distractmap2,59.99134925140597,"['Right Face', 'Chest', 'Left Leg', 'Left Face']",
9,"[0.2, -0.2]",0,0,6,6,6,,,,,,,2365.888255800004,2365.888255800004,2365.888255800004,2366.888261199929,2366.8716000999557,2367.871602399973,1,None,None,"[0, 0, 0]",,,2365.888255800004,2365.888255800004,,,,,,,,,,,,,,,,,,,,,,,,,,"[0, 0, 0]",,,,,5,m,2,15,r,CIB,2021_Oct_12_1447,2020.2.10,distractmap2,59.99134925140597,"['Right Face', 'Chest', 'Left Leg', 'Left Face']",
6,"[0.2, 0]",0,0,7,7,7,,,,,,,2367.8882581000216,2367.8882581000216,2367.8882581000216,2368.8882722000126,2368.8716098000295,2369.8716141999466,1,None,None,"[0, 0, 0]",,,2367.8882581000216,2367.8882581000216,,,,,,,,,,,,,,,,,,,,,,,,,,"[0, 0, 0]",,,,,5,m,2,15,r,CIB,2021_Oct_12_1447,2020.2.10,distractmap2,59.99134925140597,"['Right Face', 'Chest', 'Left Leg', 'Left Face']",
2,"[0, 0.2]",0,0,8,8,8,,,,,,,2369.888287800015,2369.888287800015,2369.888287800015,2370.8882960999617,2370.8716133999405,2371.8716342999833,1,None,None,"[0, 0, 0]",,,2369.888287800015,2369.888287800015,,,,,,,,,,,,,,,,,,,,,,,,,,"[0, 0, 0]",,,,,5,m,2,15,r,CIB,2021_Oct_12_1447,2020.2.10,distractmap2,59.99134925140597,"['Right Face', 'Chest', 'Left Leg', 'Left Face']",
2,"[0, 0.2]",1,0,9,9,9,,,,,,,2371.888308899943,2371.888308899943,2371.888308899943,2372.8883114999626,2372.871641900041,2373.8716408000328,0,None,None,"[0, 0, 0]",,,2371.888308899943,2371.888308899943,,,,,,,,,,,,,,,,,,,,,,,,,,"[0, 0, 0]",,,,,5,m,2,15,r,CIB,2021_Oct_12_1447,2020.2.10,distractmap2,59.99134925140597,"['Right Face', 'Chest', 'Left Leg', 'Left Face']",
,,,,,,,,,,,2373.8883086999413,None,,,,,,,,,,,,,,,,,,,,,,,,,,,,,,,,,,,,,,,,,14.629629629629628,2345.589389999979,,,5,m,2,15,r,CIB,2021_Oct_12_1447,2020.2.10,distractmap2,59.99134925140597,"['Right Face', 'Chest', 'Left Leg', 'Left Face']",
4,"[-0.2, 0]",None,,,,,0,0,0,0,2387.1550117000006,None,,,,,,,,,,,,,,,,,,,,None,None,"[0, 0, 0]",2393.9551344999345,None,2393.9551344999345,2394.955131500028,2394.9384758999804,2395.938463600003,"[0, 0, 0]",0,2393.9551344999345,None,,,,,,,,,,,0.014778800075873733,5.012006200151518,5,m,2,15,r,CIB,2021_Oct_12_1447,2020.2.10,distractmap2,59.99134925140597,"['Right Face', 'Chest', 'Left Leg', 'Left Face']",
5,"[0, 0]",None,,,,,0,1,1,1,,,,,,,,,,,,,,,,,,,,,,None,None,"[0, 0, 0]",2395.9551509999437,2397.9551523999544,2395.9551509999437,2396.955156799988,2396.938473099959,2397.9384941000026,"[0, 0, 0]",0,2395.9551509999437,2397.9551523999544,,,,,,,,,,,,,5,m,2,15,r,CIB,2021_Oct_12_1447,2020.2.10,distractmap2,59.99134925140597,"['Right Face', 'Chest', 'Left Leg', 'Left Face']",
6,"[0.2, 0]",0,,,,,0,2,2,2,,,,,,,,,,,,,,,,,,,,,,None,None,"[0, 0, 0]",2397.9718359999824,2399.971832399955,2397.9718359999824,2398.971828000038,2398.955156799988,2399.955179899931,"[0, 0, 0]",1,2397.9718359999824,2399.971832399955,,,,,,,,,,,,,5,m,2,15,r,CIB,2021_Oct_12_1447,2020.2.10,distractmap2,59.99134925140597,"['Right Face', 'Chest', 'Left Leg', 'Left Face']",
1,"[-0.2, 0.2]",0,,,,,0,3,3,3,,,,,,,,,,,,,,,,,,,,,,None,None,"[0, 0, 0]",2399.988501099986,2401.988527199952,2399.988501099986,2400.9885255999397,2400.9718386000022,2401.971866099979,"[0, 0, 0]",1,2399.988501099986,2401.988527199952,,,,,,,,,,,,,5,m,2,15,r,CIB,2021_Oct_12_1447,2020.2.10,distractmap2,59.99134925140597,"['Right Face', 'Chest', 'Left Leg', 'Left Face']",
6,"[0.2, 0]",1,,,,,0,4,4,4,,,,,,,,,,,,,,,,,,,,,,None,None,"[0, 0, 0]",2402.0552066999953,None,2402.0552066999953,2403.0552069999976,2403.038531100028,None,"[0, 0, 0]",1,2402.0552066999953,None,,,,,,,,,,,,,5,m,2,15,r,CIB,2021_Oct_12_1447,2020.2.10,distractmap2,59.99134925140597,"['Right Face', 'Chest', 'Left Leg', 'Left Face']",
1,"[-0.2, 0.2]",1,,,,,0,5,5,5,,,,,,,,,,,,,,,,,,,,,,None,None,"[0, 0, 0]",2404.021868499927,2406.0219020999502,2404.021868499927,2405.0218844999326,2405.0052083999617,2406.005229500006,"[0, 0, 0]",1,2404.021868499927,2406.0219020999502,,,,,,,,,,,,,5,m,2,15,r,CIB,2021_Oct_12_1447,2020.2.10,distractmap2,59.99134925140597,"['Right Face', 'Chest', 'Left Leg', 'Left Face']",
2,"[0, 0.2]",0,,,,,0,6,6,6,,,,,,,,,,,,,,,,,,,,,,None,None,"[0, 0, 0]",2406.038556799991,2408.0385801999364,2406.038556799991,2407.0385613000253,2407.0218947000103,2408.0218980000354,"[0, 0, 0]",1,2406.038556799991,2408.0385801999364,,,,,,,,,,,,,5,m,2,15,r,CIB,2021_Oct_12_1447,2020.2.10,distractmap2,59.99134925140597,"['Right Face', 'Chest', 'Left Leg', 'Left Face']",
3,"[0.2, 0.2]",0,,,,,0,7,7,7,,,,,,,,,,,,,,,,,,,,,,None,None,"[0, 0, 0]",2408.055237099994,2410.0552612999454,2408.055237099994,2409.055232899962,2409.0385826999554,2410.0385808999417,"[0, 0, 0]",1,2408.055237099994,2410.0552612999454,,,,,,,,,,,,,5,m,2,15,r,CIB,2021_Oct_12_1447,2020.2.10,distractmap2,59.99134925140597,"['Right Face', 'Chest', 'Left Leg', 'Left Face']",
6,"[0.2, 0]",0,,,,,0,8,8,8,,,,,,,,,,,,,,,,,,,,,,None,None,"[0, 0, 0]",2410.071933500003,2412.071944299969,2410.071933500003,2411.071934000007,2411.0552674999926,2412.0552744999295,"[0, 0, 0]",1,2410.071933500003,2412.071944299969,,,,,,,,,,,,,5,m,2,15,r,CIB,2021_Oct_12_1447,2020.2.10,distractmap2,59.99134925140597,"['Right Face', 'Chest', 'Left Leg', 'Left Face']",
3,"[0.2, 0.2]",1,,,,,0,9,9,9,,,,,,,,,,,,,,,,,,,,,,None,None,"[0, 0, 0]",2412.0885894999374,2414.088607999962,2412.0885894999374,2413.0886034999276,2413.0719543999294,2414.0719606999774,"[0, 0, 0]",1,2412.0885894999374,2414.088607999962,,,,,,,,,,,,,5,m,2,15,r,CIB,2021_Oct_12_1447,2020.2.10,distractmap2,59.99134925140597,"['Right Face', 'Chest', 'Left Leg', 'Left Face']",
,,,,,,,,,,,2414.105293600005,None,,,,,,,,,,,,,,,,,,,,,,,,,,,,,,,,,,,,,,,,,12.962962962962962,2388.9397720998386,,,5,m,2,15,r,CIB,2021_Oct_12_1447,2020.2.10,distractmap2,59.99134925140597,"['Right Face', 'Chest', 'Left Leg', 'Left Face']",
2,"[0, 0.2]",None,,,,,0,0,0,0,2429.322262999951,None,,,,,,,,,,,,,,,,,,,,None,None,"[0, 0, 0]",2434.155455400003,None,2434.155455400003,2435.155436799978,2435.1387806999264,2436.1387731999857,"[0, 0, 0]",0,2434.155455400003,None,,,,,,,,,,,0.014728100155480206,5.011900800163858,5,m,2,15,r,CIB,2021_Oct_12_1447,2020.2.10,distractmap2,59.99134925140597,"['Right Face', 'Chest', 'Left Leg', 'Left Face']",
5,"[0, 0]",None,,,,,0,1,1,1,,,,,,,,,,,,,,,,,,,,,,None,None,"[0, 0, 0]",2436.1554534999887,2438.1554585000267,2436.1554534999887,2437.1554506999673,2437.1387911000056,2438.138804999995,"[0, 0, 0]",0,2436.1554534999887,2438.1554585000267,,,,,,,,,,,,,5,m,2,15,r,CIB,2021_Oct_12_1447,2020.2.10,distractmap2,59.99134925140597,"['Right Face', 'Chest', 'Left Leg', 'Left Face']",
6,"[0.2, 0]",0,,,,,0,2,2,2,,,,,,,,,,,,,,,,,,,,,,None,None,"[0, 0, 0]",2438.1721197000006,2440.172138300026,2438.1721197000006,2439.1721351000015,2439.1554803999607,2440.155486100004,"[0, 0, 0]",1,2438.1721197000006,2440.172138300026,,,,,,,,,,,,,5,m,2,15,r,CIB,2021_Oct_12_1447,2020.2.10,distractmap2,59.99134925140597,"['Right Face', 'Chest', 'Left Leg', 'Left Face']",
1,"[-0.2, 0.2]",0,,,,,0,3,3,3,,,,,,,,,,,,,,,,,,,,,,None,None,"[0, 0, 0]",2440.188820499927,2442.188831300009,2440.188820499927,2441.188833800028,2441.172159199952,2442.1721686000237,"[0, 0, 0]",1,2440.188820499927,2442.188831300009,,,,,,,,,,,,,5,m,2,15,r,CIB,2021_Oct_12_1447,2020.2.10,distractmap2,59.99134925140597,"['Right Face', 'Chest', 'Left Leg', 'Left Face']",
6,"[0.2, 0]",1,,,,,0,4,4,4,,,,,,,,,,,,,,,,,,,,,,None,None,"[0, 0, 0]",2442.2388242000015,None,2442.2388242000015,2443.2388434000313,2443.2221772000194,None,"[0, 0, 0]",1,2442.2388242000015,None,,,,,,,,,,,,,5,m,2,15,r,CIB,2021_Oct_12_1447,2020.2.10,distractmap2,59.99134925140597,"['Right Face', 'Chest', 'Left Leg', 'Left Face']",
6,"[0.2, 0]",0,,,,,0,5,5,5,,,,,,,,,,,,,,,,,,,,,,None,None,"[0, 0, 0]",2444.222167199943,2446.222197199939,2444.222167199943,2445.222191400011,2445.2055140000302,2446.205529400031,"[0, 0, 0]",1,2444.222167199943,2446.222197199939,,,,,,,,,,,,,5,m,2,15,r,CIB,2021_Oct_12_1447,2020.2.10,distractmap2,59.99134925140597,"['Right Face', 'Chest', 'Left Leg', 'Left Face']",
9,"[0.2, -0.2]",0,,,,,0,6,6,6,,,,,,,,,,,,,,,,,,,,,,None,None,"[0, 0, 0]",2446.2388659999706,2448.2388842999935,2446.2388659999706,2447.238875000039,2447.222207200015,2448.2222156999633,"[0, 0, 0]",1,2446.2388659999706,2448.2388842999935,,,,,,,,,,,,,5,m,2,15,r,CIB,2021_Oct_12_1447,2020.2.10,distractmap2,59.99134925140597,"['Right Face', 'Chest', 'Left Leg', 'Left Face']",
6,"[0.2, 0]",1,,,,,0,7,7,7,,,,,,,,,,,,,,,,,,,,,,None,None,"[0, 0, 0]",2448.2555522000184,2450.2555672000162,2448.2555522000184,2449.2555526000215,2449.2388817999745,2450.2389108999632,"[0, 0, 0]",1,2448.2555522000184,2450.2555672000162,,,,,,,,,,,,,5,m,2,15,r,CIB,2021_Oct_12_1447,2020.2.10,distractmap2,59.99134925140597,"['Right Face', 'Chest', 'Left Leg', 'Left Face']",
3,"[0.2, 0.2]",0,,,,,0,8,8,8,,,,,,,,,,,,,,,,,,,,,,None,None,"[0, 0, 0]",2450.2722191000357,2452.272232600022,2450.2722191000357,2451.272253999952,2451.25556640001,2452.2555798999965,"[0, 0, 0]",1,2450.2722191000357,2452.272232600022,,,,,,,,,,,,,5,m,2,15,r,CIB,2021_Oct_12_1447,2020.2.10,distractmap2,59.99134925140597,"['Right Face', 'Chest', 'Left Leg', 'Left Face']",
9,"[0.2, -0.2]",0,,,,,0,9,9,9,,,,,,,,,,,,,,,,,,,,,,None,None,"[0, 0, 0]",2452.288919899962,2454.2889302000403,2452.288919899962,2453.288917799946,2453.2722419999773,2454.2722614000086,"[0, 0, 0]",1,2452.288919899962,2454.2889302000403,,,,,,,,,,,,,5,m,2,15,r,CIB,2021_Oct_12_1447,2020.2.10,distractmap2,59.99134925140597,"['Right Face', 'Chest', 'Left Leg', 'Left Face']",
,,,,,,,,,,,2454.3055198999355,None,,,,,,,,,,,,,,,,,,,,,,,,,,,,,,,,,,,,,,,,,13.086419753086421,2428.523082599975,,,5,m,2,15,r,CIB,2021_Oct_12_1447,2020.2.10,distractmap2,59.99134925140597,"['Right Face', 'Chest', 'Left Leg', 'Left Face']",
3,"[0.2, 0.2]",None,,,,,0,0,0,0,2469.5056587000145,None,,,,,,,,,,,,,,,,,,,,None,None,"[0, 0, 0]",2474.3557425999315,None,2474.3557425999315,2475.355740400031,2475.3390924999258,2476.339093699935,"[0, 0, 0]",0,2474.3557425999315,None,,,,,,,,,,,0.015049900044687092,5.012516099959612,5,m,2,15,r,CIB,2021_Oct_12_1447,2020.2.10,distractmap2,59.99134925140597,"['Right Face', 'Chest', 'Left Leg', 'Left Face']",
9,"[0.2, -0.2]",None,,,,,0,1,1,1,,,,,,,,,,,,,,,,,,,,,,None,None,"[0, 0, 0]",2476.355667499942,2478.3557875000406,2476.355667499942,2477.3557590999408,2477.3391142999753,2478.3391136999708,"[0, 0, 0]",0,2476.355667499942,2478.3557875000406,,,,,,,,,,,,,5,m,2,15,r,CIB,2021_Oct_12_1447,2020.2.10,distractmap2,59.99134925140597,"['Right Face', 'Chest', 'Left Leg', 'Left Face']",
3,"[0.2, 0.2]",1,,,,,0,2,2,2,,,,,,,,,,,,,,,,,,,,,,None,None,"[0, 0, 0]",2478.372425599955,2480.372447700007,2478.372425599955,2479.3724419999635,2479.3557868000353,2480.355818100041,"[0, 0, 0]",1,2478.372425599955,2480.372447700007,,,,,,,,,,,,,5,m,2,15,r,CIB,2021_Oct_12_1447,2020.2.10,distractmap2,59.99134925140597,"['Right Face', 'Chest', 'Left Leg', 'Left Face']",
7,"[-0.2, -0.2]",0,,,,,0,3,3,3,,,,,,,,,,,,,,,,,,,,,,None,None,"[0, 0, 0]",2480.3891131000128,2482.3891383999726,2480.3891131000128,2481.389137799968,2481.372496100026,2482.3724729999667,"[0, 0, 0]",1,2480.3891131000128,2482.3891383999726,,,,,,,,,,,,,5,m,2,15,r,CIB,2021_Oct_12_1447,2020.2.10,distractmap2,59.99134925140597,"['Right Face', 'Chest', 'Left Leg', 'Left Face']",
8,"[0, -0.2]",0,,,,,0,4,4,4,,,,,,,,,,,,,,,,,,,,,,None,None,"[0, 0, 0]",2482.4558138999855,None,2482.4558138999855,2483.4558173000114,2483.4391255000373,None,"[0, 0, 0]",1,2482.4558138999855,None,,,,,,,,,,,,,5,m,2,15,r,CIB,2021_Oct_12_1447,2020.2.10,distractmap2,59.99134925140597,"['Right Face', 'Chest', 'Left Leg', 'Left Face']",
4,"[-0.2, 0]",0,,,,,0,5,5,5,,,,,,,,,,,,,,,,,,,,,,None,None,"[0, 0, 0]",2484.422489700024,2486.422489800025,2484.422489700024,2485.4224950999487,2485.40583850001,2486.405841300031,"[0, 0, 0]",1,2484.422489700024,2486.422489800025,,,,,,,,,,,,,5,m,2,15,r,CIB,2021_Oct_12_1447,2020.2.10,distractmap2,59.99134925140597,"['Right Face', 'Chest', 'Left Leg', 'Left Face']",
4,"[-0.2, 0]",0,,,,,0,6,6,6,,,,,,,,,,,,,,,,,,,,,,None,None,"[0, 0, 0]",2486.4391579999356,2488.439182000002,2486.4391579999356,2487.43917170004,2487.4225088999374,2488.4225061000325,"[0, 0, 0]",1,2486.4391579999356,2488.439182000002,,,,,,,,,,,,,5,m,2,15,r,CIB,2021_Oct_12_1447,2020.2.10,distractmap2,59.99134925140597,"['Right Face', 'Chest', 'Left Leg', 'Left Face']",
1,"[-0.2, 0.2]",0,,,,,0,7,7,7,,,,,,,,,,,,,,,,,,,,,,None,None,"[0, 0, 0]",2488.45585769997,2490.4558662000345,2488.45585769997,2489.4558288999833,2489.4391784999752,2490.439199300017,"[0, 0, 0]",1,2488.45585769997,2490.4558662000345,,,,,,,,,,,,,5,m,2,15,r,CIB,2021_Oct_12_1447,2020.2.10,distractmap2,59.99134925140597,"['Right Face', 'Chest', 'Left Leg', 'Left Face']",
4,"[-0.2, 0]",1,,,,,0,8,8,8,,,,,,,,,,,,,,,,,,,,,,None,None,"[0, 0, 0]",2490.472525099991,2492.472534899949,2490.472525099991,2491.4725277000107,2491.4558739999775,2492.455884599942,"[0, 0, 0]",1,2490.472525099991,2492.472534899949,,,,,,,,,,,,,5,m,2,15,r,CIB,2021_Oct_12_1447,2020.2.10,distractmap2,59.99134925140597,"['Right Face', 'Chest', 'Left Leg', 'Left Face']",
8,"[0, -0.2]",0,,,,,0,9,9,9,,,,,,,,,,,,,,,,,,,,,,None,None,"[0, 0, 0]",2492.4892166999634,2494.4892272999277,2492.4892166999634,2493.4892195999855,2493.4725447000237,2494.4725509999553,"[0, 0, 0]",1,2492.4892166999634,2494.4892272999277,,,,,,,,,,,,,5,m,2,15,r,CIB,2021_Oct_12_1447,2020.2.10,distractmap2,59.99134925140597,"['Right Face', 'Chest', 'Left Leg', 'Left Face']",
,,,,,,,,,,,2494.505900899996,None,,,,,,,,,,,,,,,,,,,,,,,,,,,,,,,,,,,,,,,,,7.592592592592595,2470.340264700004,,,5,m,2,15,r,CIB,2021_Oct_12_1447,2020.2.10,distractmap2,59.99134925140597,"['Right Face', 'Chest', 'Left Leg', 'Left Face']",
2,"[0, 0.2]",None,0,0,0,0,,,,,2511.823074099957,None,2514.5727219999535,None,2514.5727219999535,2515.572740499978,2515.5560548999347,2516.556071699946,0,None,None,"[0, 0, 0]",,,2514.5727219999535,None,,,,,,,,,,,,,,,,,,,,,,,,,,"[0, 0, 0]",,,0.014849800034426153,5.011954699992202,5,m,2,15,r,CIB,2021_Oct_12_1447,2020.2.10,distractmap2,59.99134925140597,"['Right Face', 'Chest', 'Left Leg', 'Left Face']",
8,"[0, -0.2]",0,0,1,1,1,,,,,,,2516.5727470000274,None,2516.5727470000274,2517.5727546999697,2517.556070099934,2518.556092899991,1,None,None,"[0, 0, 0]",,,2516.5727470000274,None,,,,,,,,,,,,,,,,,,,,,,,,,,"[0, 0, 0]",,,,,5,m,2,15,r,CIB,2021_Oct_12_1447,2020.2.10,distractmap2,59.99134925140597,"['Right Face', 'Chest', 'Left Leg', 'Left Face']",
1,"[-0.2, 0.2]",0,0,2,2,2,,,,,,,2518.5727496999316,2518.5727496999316,2518.5727496999316,2519.5727551999735,2519.556101599941,2520.55608879996,1,None,None,"[0, 0, 0]",,,2518.5727496999316,2518.5727496999316,,,,,,,,,,,,,,,,,,,,,,,,,,"[0, 0, 0]",,,,,5,m,2,15,r,CIB,2021_Oct_12_1447,2020.2.10,distractmap2,59.99134925140597,"['Right Face', 'Chest', 'Left Leg', 'Left Face']",
2,"[0, 0.2]",0,0,3,3,3,,,,,,,2520.57276479993,2520.57276479993,2520.57276479993,2521.572767299949,2521.5560941000003,2522.5561118000187,0,None,None,"[0, 0, 0]",,,2520.57276479993,2520.57276479993,,,,,,,,,,,,,,,,,,,,,,,,,,"[0, 0, 0]",,,,,5,m,2,15,r,CIB,2021_Oct_12_1447,2020.2.10,distractmap2,59.99134925140597,"['Right Face', 'Chest', 'Left Leg', 'Left Face']",
2,"[0, 0.2]",1,0,4,4,4,,,,,,,2522.6394147999818,2522.6394147999818,2522.6394147999818,2523.639434200013,2523.639434200013,None,1,None,None,"[0, 0, 0]",,,2522.6394147999818,2522.6394147999818,,,,,,,,,,,,,,,,,,,,,,,,,,"[0, 0, 0]",,,,,5,m,2,15,r,CIB,2021_Oct_12_1447,2020.2.10,distractmap2,59.99134925140597,"['Right Face', 'Chest', 'Left Leg', 'Left Face']",
7,"[-0.2, -0.2]",0,0,5,5,5,,,,,,,2524.589452299988,None,2524.589452299988,2525.58946259995,2525.5727981999516,2526.5728178999852,1,None,None,"[0, 0, 0]",,,2524.589452299988,None,,,,,,,,,,,,,,,,,,,,,,,,,,"[0, 0, 0]",,,,,5,m,2,15,r,CIB,2021_Oct_12_1447,2020.2.10,distractmap2,59.99134925140597,"['Right Face', 'Chest', 'Left Leg', 'Left Face']",
9,"[0.2, -0.2]",0,0,6,6,6,,,,,,,2526.5894781999523,2526.5894781999523,2526.5894781999523,2527.589490299928,2527.57281719998,2528.5728113999357,1,None,None,"[0, 0, 0]",,,2526.5894781999523,2526.5894781999523,,,,,,,,,,,,,,,,,,,,,,,,,,"[0, 0, 0]",,,,,5,m,2,15,r,CIB,2021_Oct_12_1447,2020.2.10,distractmap2,59.99134925140597,"['Right Face', 'Chest', 'Left Leg', 'Left Face']",
9,"[0.2, -0.2]",1,0,7,7,7,,,,,,,2528.5894792999607,2528.5894792999607,2528.5894792999607,2529.5894976999843,2529.5728331999853,2530.5728408999275,1,None,None,"[0, 0, 0]",,,2528.5894792999607,2528.5894792999607,,,,,,,,,,,,,,,,,,,,,,,,,,"[0, 0, 0]",,,,,5,m,2,15,r,CIB,2021_Oct_12_1447,2020.2.10,distractmap2,59.99134925140597,"['Right Face', 'Chest', 'Left Leg', 'Left Face']",
4,"[-0.2, 0]",0,0,8,8,8,,,,,,,2530.5894937999547,2530.5894937999547,2530.5894937999547,2531.5895075999433,2531.572865599999,2532.572865199996,1,None,None,"[0, 0, 0]",,,2530.5894937999547,2530.5894937999547,,,,,,,,,,,,,,,,,,,,,,,,,,"[0, 0, 0]",,,,,5,m,2,15,r,CIB,2021_Oct_12_1447,2020.2.10,distractmap2,59.99134925140597,"['Right Face', 'Chest', 'Left Leg', 'Left Face']",
5,"[0, 0]",0,0,9,9,9,,,,,,,2532.5895200000377,2532.5895200000377,2532.5895200000377,2533.589566499926,2533.5728817000054,2534.57275209995,1,None,None,"[0, 0, 0]",,,2532.5895200000377,2532.5895200000377,,,,,,,,,,,,,,,,,,,,,,,,,,"[0, 0, 0]",,,,,5,m,2,15,r,CIB,2021_Oct_12_1447,2020.2.10,distractmap2,59.99134925140597,"['Right Face', 'Chest', 'Left Leg', 'Left Face']",
,,,,,,,,,,,2534.589538899949,None,,,,,,,,,,,,,,,,,,,,,,,,,,,,,,,,,,,,,,,,,12.901234567901234,2511.5412486999994,,,5,m,2,15,r,CIB,2021_Oct_12_1447,2020.2.10,distractmap2,59.99134925140597,"['Right Face', 'Chest', 'Left Leg', 'Left Face']",
2,"[0, 0.2]",None,0,0,0,0,,,,,2551.8230091999285,None,2554.6397093000123,None,2554.6397093000123,2555.6396823000396,2555.623026699992,2556.622917999979,0,None,None,"[0, 0, 0]",,,2554.6397093000123,None,,,,,,,,,,,,,,,,,,,,,,,,,,"[0, 0, 0]",,,0.014188500004820526,5.0108560000080615,5,m,2,15,r,CIB,2021_Oct_12_1447,2020.2.10,distractmap2,59.99134925140597,"['Right Face', 'Chest', 'Left Leg', 'Left Face']",
2,"[0, 0.2]",1,0,1,1,1,,,,,,,2556.6397054999834,None,2556.6397054999834,2557.639703099965,2557.622937200009,2558.623061500024,1,None,None,"[0, 0, 0]",,,2556.6397054999834,None,,,,,,,,,,,,,,,,,,,,,,,,,,"[0, 0, 0]",,,,,5,m,2,15,r,CIB,2021_Oct_12_1447,2020.2.10,distractmap2,59.99134925140597,"['Right Face', 'Chest', 'Left Leg', 'Left Face']",
1,"[-0.2, 0.2]",0,0,2,2,2,,,,,,,2558.6397228999995,2558.6397228999995,2558.6397228999995,2559.639713499928,2559.623057399993,2560.6230741000036,1,None,None,"[0, 0, 0]",,,2558.6397228999995,2558.6397228999995,,,,,,,,,,,,,,,,,,,,,,,,,,"[0, 0, 0]",,,,,5,m,2,15,r,CIB,2021_Oct_12_1447,2020.2.10,distractmap2,59.99134925140597,"['Right Face', 'Chest', 'Left Leg', 'Left Face']",
2,"[0, 0.2]",0,0,3,3,3,,,,,,,2560.639728100039,2560.639728100039,2560.639728100039,2561.6397290999303,2561.623065499938,2562.623053899966,1,None,None,"[0, 0, 0]",,,2560.639728100039,2560.639728100039,,,,,,,,,,,,,,,,,,,,,,,,,,"[0, 0, 0]",,,,,5,m,2,15,r,CIB,2021_Oct_12_1447,2020.2.10,distractmap2,59.99134925140597,"['Right Face', 'Chest', 'Left Leg', 'Left Face']",
2,"[0, 0.2]",1,0,4,4,4,,,,,,,2562.6897585999686,2562.6897585999686,2562.6897585999686,2563.689745599986,2563.6730954999803,None,1,None,None,"[0, 0, 0]",,,2562.6897585999686,2562.6897585999686,,,,,,,,,,,,,,,,,,,,,,,,,,"[0, 0, 0]",,,,,5,m,2,15,r,CIB,2021_Oct_12_1447,2020.2.10,distractmap2,59.99134925140597,"['Right Face', 'Chest', 'Left Leg', 'Left Face']",
4,"[-0.2, 0]",0,0,5,5,5,,,,,,,2564.6564313999843,None,2564.6564313999843,2565.656449300004,2565.639765399974,2566.6397711000172,1,None,None,"[0, 0, 0]",,,2564.6564313999843,None,,,,,,,,,,,,,,,,,,,,,,,,,,"[0, 0, 0]",,,,,5,m,2,15,r,CIB,2021_Oct_12_1447,2020.2.10,distractmap2,59.99134925140597,"['Right Face', 'Chest', 'Left Leg', 'Left Face']",
6,"[0.2, 0]",0,0,6,6,6,,,,,,,2566.6564508000156,2566.6564508000156,2566.6564508000156,2567.656453600037,2567.63978279999,2568.6397879000288,1,None,None,"[0, 0, 0]",,,2566.6564508000156,2566.6564508000156,,,,,,,,,,,,,,,,,,,,,,,,,,"[0, 0, 0]",,,,,5,m,2,15,r,CIB,2021_Oct_12_1447,2020.2.10,distractmap2,59.99134925140597,"['Right Face', 'Chest', 'Left Leg', 'Left Face']",
8,"[0, -0.2]",0,0,7,7,7,,,,,,,2568.6564513000194,2568.6564513000194,2568.6564513000194,2569.6564559999388,2569.6398115999764,2570.6398037000326,1,None,None,"[0, 0, 0]",,,2568.6564513000194,2568.6564513000194,,,,,,,,,,,,,,,,,,,,,,,,,,"[0, 0, 0]",,,,,5,m,2,15,r,CIB,2021_Oct_12_1447,2020.2.10,distractmap2,59.99134925140597,"['Right Face', 'Chest', 'Left Leg', 'Left Face']",
9,"[0.2, -0.2]",0,0,8,8,8,,,,,,,2570.6564752999693,2570.6564752999693,2570.6564752999693,2571.656477499986,2571.639824599959,2572.639830800006,1,None,None,"[0, 0, 0]",,,2570.6564752999693,2570.6564752999693,,,,,,,,,,,,,,,,,,,,,,,,,,"[0, 0, 0]",,,,,5,m,2,15,r,CIB,2021_Oct_12_1447,2020.2.10,distractmap2,59.99134925140597,"['Right Face', 'Chest', 'Left Leg', 'Left Face']",
9,"[0.2, -0.2]",1,0,9,9,9,,,,,,,2572.6564662000164,2572.6564662000164,2572.6564662000164,2573.656497100019,2573.6398562999675,2574.639832200017,1,None,None,"[0, 0, 0]",,,2572.6564662000164,2572.6564662000164,,,,,,,,,,,,,,,,,,,,,,,,,,"[0, 0, 0]",,,,,5,m,2,15,r,CIB,2021_Oct_12_1447,2020.2.10,distractmap2,59.99134925140597,"['Right Face', 'Chest', 'Left Leg', 'Left Face']",
,,,,,,,,,,,2574.656427799957,None,,,,,,,,,,,,,,,,,,,,,,,,,,,,,,,,,,,,,,,,,12.716049382716053,2548.5414399999427,,,5,m,2,15,r,CIB,2021_Oct_12_1447,2020.2.10,distractmap2,59.99134925140597,"['Right Face', 'Chest', 'Left Leg', 'Left Face']",
4,"[-0.2, 0]",None,0,0,0,0,,,,,2587.9066293999786,None,2594.706662399927,None,2594.706662399927,2595.7066685999744,2595.689999999944,2596.6900036999723,0,None,None,"[0, 0, 0]",,,2594.706662399927,None,,,,,,,,,,,,,,,,,,,,,,,,,,"[0, 0, 0]",,,0.014317300054244697,5.010865699965507,5,m,2,15,r,CIB,2021_Oct_12_1447,2020.2.10,distractmap2,59.99134925140597,"['Right Face', 'Chest', 'Left Leg', 'Left Face']",
7,"[-0.2, -0.2]",0,0,1,1,1,,,,,,,2596.7066933999304,None,2596.7066933999304,2597.706690000021,2597.6900228000013,2598.690040400019,1,None,None,"[0, 0, 0]",,,2596.7066933999304,None,,,,,,,,,,,,,,,,,,,,,,,,,,"[0, 0, 0]",,,,,5,m,2,15,r,CIB,2021_Oct_12_1447,2020.2.10,distractmap2,59.99134925140597,"['Right Face', 'Chest', 'Left Leg', 'Left Face']",
7,"[-0.2, -0.2]",1,0,2,2,2,,,,,,,2598.7066854999866,2598.7066854999866,2598.7066854999866,2599.706723399926,2599.6900274000363,2600.6900525999954,1,None,None,"[0, 0, 0]",,,2598.7066854999866,2598.7066854999866,,,,,,,,,,,,,,,,,,,,,,,,,,"[0, 0, 0]",,,,,5,m,2,15,r,CIB,2021_Oct_12_1447,2020.2.10,distractmap2,59.99134925140597,"['Right Face', 'Chest', 'Left Leg', 'Left Face']",
4,"[-0.2, 0]",0,0,3,3,3,,,,,,,2600.7067137999693,2600.7067137999693,2600.7067137999693,2601.7067080000415,2601.6900410000235,2602.690053700004,1,None,None,"[0, 0, 0]",,,2600.7067137999693,2600.7067137999693,,,,,,,,,,,,,,,,,,,,,,,,,,"[0, 0, 0]",,,,,5,m,2,15,r,CIB,2021_Oct_12_1447,2020.2.10,distractmap2,59.99134925140597,"['Right Face', 'Chest', 'Left Leg', 'Left Face']",
8,"[0, -0.2]",0,0,4,4,4,,,,,,,2602.756726499996,2602.756726499996,2602.756726499996,2603.7566951999906,2603.7399910000386,None,1,None,None,"[0, 0, 0]",,,2602.756726499996,2602.756726499996,,,,,,,,,,,,,,,,,,,,,,,,,,"[0, 0, 0]",,,,,5,m,2,15,r,CIB,2021_Oct_12_1447,2020.2.10,distractmap2,59.99134925140597,"['Right Face', 'Chest', 'Left Leg', 'Left Face']",
4,"[-0.2, 0]",0,0,5,5,5,,,,,,,2604.7234033999266,None,2604.7234033999266,2605.7233994000126,2605.7067397999344,2606.7067558999406,1,None,None,"[0, 0, 0]",,,2604.7234033999266,None,,,,,,,,,,,,,,,,,,,,,,,,,,"[0, 0, 0]",,,,,5,m,2,15,r,CIB,2021_Oct_12_1447,2020.2.10,distractmap2,59.99134925140597,"['Right Face', 'Chest', 'Left Leg', 'Left Face']",
7,"[-0.2, -0.2]",0,0,6,6,6,,,,,,,2606.7233892999357,2606.7233892999357,2606.7233892999357,2607.7234353999374,2607.7067491000053,2608.706756999949,1,None,None,"[0, 0, 0]",,,2606.7233892999357,2606.7233892999357,,,,,,,,,,,,,,,,,,,,,,,,,,"[0, 0, 0]",,,,,5,m,2,15,r,CIB,2021_Oct_12_1447,2020.2.10,distractmap2,59.99134925140597,"['Right Face', 'Chest', 'Left Leg', 'Left Face']",
6,"[0.2, 0]",0,0,7,7,7,,,,,,,2608.723435099935,2608.723435099935,2608.723435099935,2609.7234458000166,2609.7067750999704,2610.7067783999955,1,None,None,"[0, 0, 0]",,,2608.723435099935,2608.723435099935,,,,,,,,,,,,,,,,,,,,,,,,,,"[0, 0, 0]",,,,,5,m,2,15,r,CIB,2021_Oct_12_1447,2020.2.10,distractmap2,59.99134925140597,"['Right Face', 'Chest', 'Left Leg', 'Left Face']",
6,"[0.2, 0]",1,0,8,8,8,,,,,,,2610.723447400029,2610.723447400029,2610.723447400029,2611.723463000031,2611.706798900035,2612.7067998999264,0,None,None,"[0, 0, 0]",,,2610.723447400029,2610.723447400029,,,,,,,,,,,,,,,,,,,,,,,,,,"[0, 0, 0]",,,,,5,m,2,15,r,CIB,2021_Oct_12_1447,2020.2.10,distractmap2,59.99134925140597,"['Right Face', 'Chest', 'Left Leg', 'Left Face']",
1,"[-0.2, 0.2]",0,0,9,9,9,,,,,,,2612.723468699958,2612.723468699958,2612.723468699958,2613.7234616000205,2613.7063166999724,2614.7068431000225,1,None,None,"[0, 0, 0]",,,2612.723468699958,2612.723468699958,,,,,,,,,,,,,,,,,,,,,,,,,,"[0, 0, 0]",,,,,5,m,2,15,r,CIB,2021_Oct_12_1447,2020.2.10,distractmap2,59.99134925140597,"['Right Face', 'Chest', 'Left Leg', 'Left Face']",
,,,,,,,,,,,2614.723470399971,None,,,,,,,,,,,,,,,,,,,,,,,,,,,,,,,,,,,,,,,,,12.345679012345682,2587.658656500047,,,5,m,2,15,r,CIB,2021_Oct_12_1447,2020.2.10,distractmap2,59.99134925140597,"['Right Face', 'Chest', 'Left Leg', 'Left Face']",
2,"[0, 0.2]",None,,,,,0,0,0,0,2628.556938100024,None,,,,,,,,,,,,,,,,,,,,None,None,"[0, 0, 0]",2634.7903053000337,None,2634.7903053000337,2635.7903006999986,2635.7736290999455,2636.7736558000324,"[0, 0, 0]",1,2634.7903053000337,None,,,,,,,,,,,0.014037500019185245,5.010550300008617,5,m,2,15,r,CIB,2021_Oct_12_1447,2020.2.10,distractmap2,59.99134925140597,"['Right Face', 'Chest', 'Left Leg', 'Left Face']",
5,"[0, 0]",None,,,,,0,1,1,1,,,,,,,,,,,,,,,,,,,,,,None,None,"[0, 0, 0]",2636.7903226999333,2638.7903222999303,2636.7903226999333,2637.7903586999746,2637.773661299958,2638.7736887999345,"[0, 0, 0]",0,2636.7903226999333,2638.7903222999303,,,,,,,,,,,,,5,m,2,15,r,CIB,2021_Oct_12_1447,2020.2.10,distractmap2,59.99134925140597,"['Right Face', 'Chest', 'Left Leg', 'Left Face']",
3,"[0.2, 0.2]",0,,,,,0,2,2,2,,,,,,,,,,,,,,,,,,,,,,None,None,"[0, 0, 0]",2638.8070032999385,2640.8070207999554,2638.8070032999385,2639.8070014000405,2639.7903548999457,2640.7903509000316,"[0, 0, 0]",1,2638.8070032999385,2640.8070207999554,,,,,,,,,,,,,5,m,2,15,r,CIB,2021_Oct_12_1447,2020.2.10,distractmap2,59.99134925140597,"['Right Face', 'Chest', 'Left Leg', 'Left Face']",
5,"[0, 0]",1,,,,,0,3,3,3,,,,,,,,,,,,,,,,,,,,,,None,None,"[0, 0, 0]",2640.8236893999856,2642.8237018999644,2640.8236893999856,2641.823670499958,2641.8070257999934,2642.8070235999767,"[0, 0, 0]",1,2640.8236893999856,2642.8237018999644,,,,,,,,,,,,,5,m,2,15,r,CIB,2021_Oct_12_1447,2020.2.10,distractmap2,59.99134925140597,"['Right Face', 'Chest', 'Left Leg', 'Left Face']",
2,"[0, 0.2]",0,,,,,0,4,4,4,,,,,,,,,,,,,,,,,,,,,,None,None,"[0, 0, 0]",2642.8737192000262,None,2642.8737192000262,2643.8736962999683,2643.857039500028,None,"[0, 0, 0]",1,2642.8737192000262,None,,,,,,,,,,,,,5,m,2,15,r,CIB,2021_Oct_12_1447,2020.2.10,distractmap2,59.99134925140597,"['Right Face', 'Chest', 'Left Leg', 'Left Face']",
8,"[0, -0.2]",0,,,,,0,5,5,5,,,,,,,,,,,,,,,,,,,,,,None,None,"[0, 0, 0]",2644.857060399954,2646.856947500026,2644.857060399954,2645.8570541000227,2645.8403962999582,2646.8404356000246,"[0, 0, 0]",1,2644.857060399954,2646.856947500026,,,,,,,,,,,,,5,m,2,15,r,CIB,2021_Oct_12_1447,2020.2.10,distractmap2,59.99134925140597,"['Right Face', 'Chest', 'Left Leg', 'Left Face']",
4,"[-0.2, 0]",0,,,,,0,6,6,6,,,,,,,,,,,,,,,,,,,,,,None,None,"[0, 0, 0]",2646.8737170000095,2648.8737765999977,2646.8737170000095,2647.8737371999305,2647.8570901999483,2648.8570831000106,"[0, 0, 0]",1,2646.8737170000095,2648.8737765999977,,,,,,,,,,,,,5,m,2,15,r,CIB,2021_Oct_12_1447,2020.2.10,distractmap2,59.99134925140597,"['Right Face', 'Chest', 'Left Leg', 'Left Face']",
8,"[0, -0.2]",1,,,,,0,7,7,7,,,,,,,,,,,,,,,,,,,,,,None,None,"[0, 0, 0]",2648.8904270000057,2650.890431799926,2648.8904270000057,2649.8904241999844,2649.8736565000145,2650.873728699982,"[0, 0, 0]",1,2648.8904270000057,2650.890431799926,,,,,,,,,,,,,5,m,2,15,r,CIB,2021_Oct_12_1447,2020.2.10,distractmap2,59.99134925140597,"['Right Face', 'Chest', 'Left Leg', 'Left Face']",
7,"[-0.2, -0.2]",0,,,,,0,8,8,8,,,,,,,,,,,,,,,,,,,,,,None,None,"[0, 0, 0]",2650.907084599952,2652.90711489995,2650.907084599952,2651.9070962000405,2651.890433499939,2652.890436399961,"[0, 0, 0]",1,2650.907084599952,2652.90711489995,,,,,,,,,,,,,5,m,2,15,r,CIB,2021_Oct_12_1447,2020.2.10,distractmap2,59.99134925140597,"['Right Face', 'Chest', 'Left Leg', 'Left Face']",
8,"[0, -0.2]",1,,,,,0,9,9,9,,,,,,,,,,,,,,,,,,,,,,None,None,"[0, 0, 0]",2652.9237743000267,2654.923782899976,2652.9237743000267,2653.923785399995,2653.9071163999615,2654.9071252000285,"[0, 0, 0]",1,2652.9237743000267,2654.923782899976,,,,,,,,,,,,,5,m,2,15,r,CIB,2021_Oct_12_1447,2020.2.10,distractmap2,59.99134925140597,"['Right Face', 'Chest', 'Left Leg', 'Left Face']",
,,,,,,,,,,,2654.940471400041,None,,,,,,,,,,,,,,,,,,,,,,,,,,,,,,,,,,,,,,,,,13.580246913580249,2632.341722900048,,,5,m,2,15,r,CIB,2021_Oct_12_1447,2020.2.10,distractmap2,59.99134925140597,"['Right Face', 'Chest', 'Left Leg', 'Left Face']",
2,"[0, 0.2]",None,,,,,0,0,0,0,2672.74098579993,None,,,,,,,,,,,,,,,,,,,,None,None,"[0, 0, 0]",2674.9906104999827,None,2674.9906104999827,2675.9906079999637,2675.973961199983,2676.97396870004,"[0, 0, 0]",0,2674.9906104999827,None,,,,,,,,,,,0.01463540003169328,5.011722999974154,5,m,2,15,r,CIB,2021_Oct_12_1447,2020.2.10,distractmap2,59.99134925140597,"['Right Face', 'Chest', 'Left Leg', 'Left Face']",
2,"[0, 0.2]",None,,,,,0,1,1,1,,,,,,,,,,,,,,,,,,,,,,None,None,"[0, 0, 0]",2676.9906165000284,2678.990629500011,2676.9906165000284,2677.9906313000247,2677.9739733999595,2678.9739834000356,"[0, 0, 0]",0,2676.9906165000284,2678.990629500011,,,,,,,,,,,,,5,m,2,15,r,CIB,2021_Oct_12_1447,2020.2.10,distractmap2,59.99134925140597,"['Right Face', 'Chest', 'Left Leg', 'Left Face']",
2,"[0, 0.2]",1,,,,,0,2,2,2,,,,,,,,,,,,,,,,,,,,,,None,None,"[0, 0, 0]",2679.0072959000245,2681.007229799987,2679.0072959000245,2680.0073035999667,2679.9905814999947,2680.990643600002,"[0, 0, 0]",1,2679.0072959000245,2681.007229799987,,,,,,,,,,,,,5,m,2,15,r,CIB,2021_Oct_12_1447,2020.2.10,distractmap2,59.99134925140597,"['Right Face', 'Chest', 'Left Leg', 'Left Face']",
8,"[0, -0.2]",0,,,,,0,3,3,3,,,,,,,,,,,,,,,,,,,,,,None,None,"[0, 0, 0]",2681.0239916000282,2683.023999399971,2681.0239916000282,2682.0238700000336,2682.0073360999813,2683.0073595999274,"[0, 0, 0]",1,2681.0239916000282,2683.023999399971,,,,,,,,,,,,,5,m,2,15,r,CIB,2021_Oct_12_1447,2020.2.10,distractmap2,59.99134925140597,"['Right Face', 'Chest', 'Left Leg', 'Left Face']",
2,"[0, 0.2]",1,,,,,0,4,4,4,,,,,,,,,,,,,,,,,,,,,,None,None,"[0, 0, 0]",2683.0740102999844,None,2683.0740102999844,2684.074016800034,2684.0406829999993,2685.0406884000404,"[0, 0, 0]",1,2683.0740102999844,None,,,,,,,,,,,,,5,m,2,15,r,CIB,2021_Oct_12_1447,2020.2.10,distractmap2,59.99134925140597,"['Right Face', 'Chest', 'Left Leg', 'Left Face']",
5,"[0, 0]",0,,,,,0,5,5,5,,,,,,,,,,,,,,,,,,,,,,None,None,"[0, 0, 0]",2685.0572630999377,2687.057373299962,2685.0572630999377,2686.0573473999975,2686.0406846000114,2687.0406926999567,"[0, 0, 0]",1,2685.0572630999377,2687.057373299962,,,,,,,,,,,,,5,m,2,15,r,CIB,2021_Oct_12_1447,2020.2.10,distractmap2,59.99134925140597,"['Right Face', 'Chest', 'Left Leg', 'Left Face']",
1,"[-0.2, 0.2]",0,,,,,0,6,6,6,,,,,,,,,,,,,,,,,,,,,,None,None,"[0, 0, 0]",2687.0740371999564,2689.0740557999816,2687.0740371999564,2688.074051499949,2688.057376599987,2689.057373599964,"[0, 0, 0]",1,2687.0740371999564,2689.0740557999816,,,,,,,,,,,,,5,m,2,15,r,CIB,2021_Oct_12_1447,2020.2.10,distractmap2,59.99134925140597,"['Right Face', 'Chest', 'Left Leg', 'Left Face']",
1,"[-0.2, 0.2]",0,,,,,0,7,7,7,,,,,,,,,,,,,,,,,,,,,,None,None,"[0, 0, 0]",2689.0907139999326,2691.0907302999403,2689.0907139999326,2690.0907156999456,2690.07405429997,2691.0740597000113,"[0, 0, 0]",1,2689.0907139999326,2691.0907302999403,,,,,,,,,,,,,5,m,2,15,r,CIB,2021_Oct_12_1447,2020.2.10,distractmap2,59.99134925140597,"['Right Face', 'Chest', 'Left Leg', 'Left Face']",
6,"[0.2, 0]",0,,,,,0,8,8,8,,,,,,,,,,,,,,,,,,,,,,None,None,"[0, 0, 0]",2691.1073912000284,2693.107419500011,2691.1073912000284,2692.107417499996,2692.0907423000317,2693.0907504999777,"[0, 0, 0]",1,2691.1073912000284,2693.107419500011,,,,,,,,,,,,,5,m,2,15,r,CIB,2021_Oct_12_1447,2020.2.10,distractmap2,59.99134925140597,"['Right Face', 'Chest', 'Left Leg', 'Left Face']",
1,"[-0.2, 0.2]",1,,,,,0,9,9,9,,,,,,,,,,,,,,,,,,,,,,None,None,"[0, 0, 0]",2693.1240854000207,2695.1241016000276,2693.1240854000207,2694.124098100001,2694.107389200013,2695.107434400008,"[0, 0, 0]",1,2693.1240854000207,2695.1241016000276,,,,,,,,,,,,,5,m,2,15,r,CIB,2021_Oct_12_1447,2020.2.10,distractmap2,59.99134925140597,"['Right Face', 'Chest', 'Left Leg', 'Left Face']",
,,,,,,,,,,,2695.140768100042,None,,,,,,,,,,,,,,,,,,,,,,,,,,,,,,,,,,,,,,,,,5.9259259259259265,2668.059207100072,,,5,m,2,15,r,CIB,2021_Oct_12_1447,2020.2.10,distractmap2,59.99134925140597,"['Right Face', 'Chest', 'Left Leg', 'Left Face']",
3,"[0.2, 0.2]",None,,,,,0,0,0,0,3015.0599378999323,None,,,,,,,,,,,,,,,,,,,,None,None,"[0, 0, 0]",3017.6766027000267,None,3017.6766027000267,3018.676609899965,3018.6599336999934,3019.6599423999432,"[0, 0, 0]",0,3017.6766027000267,None,2712.0411834999686,2712.0411834999686,None,space,263.0833415000234,2712.0411834999686,None,,,,0.0140796999912709,5.010489100008272,5,m,2,15,r,CIB,2021_Oct_12_1447,2020.2.10,distractmap2,59.99134925140597,"['Right Face', 'Chest', 'Left Leg', 'Left Face']",
3,"[0.2, 0.2]",None,,,,,0,1,1,1,,,,,,,,,,,,,,,,,,,,,,None,None,"[0, 0, 0]",3019.676621099934,3021.6765716000227,3019.676621099934,3020.676618800033,3020.659960699966,3021.6599540000316,"[0, 0, 0]",0,3019.676621099934,3021.6765716000227,,,,,,,,,,,,,5,m,2,15,r,CIB,2021_Oct_12_1447,2020.2.10,distractmap2,59.99134925140597,"['Right Face', 'Chest', 'Left Leg', 'Left Face']",
5,"[0, 0]",0,,,,,0,2,2,2,,,,,,,,,,,,,,,,,,,,,,None,None,"[0, 0, 0]",3021.693301699939,3023.693317499943,3021.693301699939,3022.6933074999833,3022.6766280999873,3023.676634000032,"[0, 0, 0]",1,3021.693301699939,3023.693317499943,,,,,,,,,,,,,5,m,2,15,r,CIB,2021_Oct_12_1447,2020.2.10,distractmap2,59.99134925140597,"['Right Face', 'Chest', 'Left Leg', 'Left Face']",
1,"[-0.2, 0.2]",0,,,,,0,3,3,3,,,,,,,,,,,,,,,,,,,,,,None,None,"[0, 0, 0]",3023.709969999967,3025.7099896,3023.709969999967,3024.709990100004,3024.6933653999586,3025.6933359999675,"[0, 0, 0]",1,3023.709969999967,3025.7099896,,,,,,,,,,,,,5,m,2,15,r,CIB,2021_Oct_12_1447,2020.2.10,distractmap2,59.99134925140597,"['Right Face', 'Chest', 'Left Leg', 'Left Face']",
5,"[0, 0]",1,,,,,0,4,4,4,,,,,,,,,,,,,,,,,,,,,,None,None,"[0, 0, 0]",3025.7761735999957,None,3025.7761735999957,3026.776645899983,3026.760012499988,None,"[0, 0, 0]",1,3025.7761735999957,None,,,,,,,,,,,,,5,m,2,15,r,CIB,2021_Oct_12_1447,2020.2.10,distractmap2,59.99134925140597,"['Right Face', 'Chest', 'Left Leg', 'Left Face']",
8,"[0, -0.2]",0,,,,,0,5,5,5,,,,,,,,,,,,,,,,,,,,,,None,None,"[0, 0, 0]",3027.7433443999616,3029.743361299974,3027.7433443999616,3028.743351000012,3028.7266782999504,3029.7266372999875,"[0, 0, 0]",1,3027.7433443999616,3029.743361299974,,,,,,,,,,,,,5,m,2,15,r,CIB,2021_Oct_12_1447,2020.2.10,distractmap2,59.99134925140597,"['Right Face', 'Chest', 'Left Leg', 'Left Face']",
5,"[0, 0]",1,,,,,0,6,6,6,,,,,,,,,,,,,,,,,,,,,,None,None,"[0, 0, 0]",3029.7600353999296,3031.7600314000156,3029.7600353999296,3030.760034899926,3030.7433712999336,3031.7433789999923,"[0, 0, 0]",1,3029.7600353999296,3031.7600314000156,,,,,,,,,,,,,5,m,2,15,r,CIB,2021_Oct_12_1447,2020.2.10,distractmap2,59.99134925140597,"['Right Face', 'Chest', 'Left Leg', 'Left Face']",
7,"[-0.2, -0.2]",0,,,,,0,7,7,7,,,,,,,,,,,,,,,,,,,,,,None,None,"[0, 0, 0]",3031.7767193999607,3033.7767186999554,3031.7767193999607,3032.776706499979,3032.760052599944,3033.760041499976,"[0, 0, 0]",1,3031.7767193999607,3033.7767186999554,,,,,,,,,,,,,5,m,2,15,r,CIB,2021_Oct_12_1447,2020.2.10,distractmap2,59.99134925140597,"['Right Face', 'Chest', 'Left Leg', 'Left Face']",
5,"[0, 0]",1,,,,,0,8,8,8,,,,,,,,,,,,,,,,,,,,,,None,None,"[0, 0, 0]",3033.7933941000374,3035.793401199975,3033.7933941000374,3034.7933881999925,3034.7767359999707,3035.7767531999853,"[0, 0, 0]",1,3033.7933941000374,3035.793401199975,,,,,,,,,,,,,5,m,2,15,r,CIB,2021_Oct_12_1447,2020.2.10,distractmap2,59.99134925140597,"['Right Face', 'Chest', 'Left Leg', 'Left Face']",
7,"[-0.2, -0.2]",1,,,,,0,9,9,9,,,,,,,,,,,,,,,,,,,,,,None,None,"[0, 0, 0]",3035.8100649999687,3037.810087800026,3035.8100649999687,3036.8100820999825,3036.7934171999805,3037.7934158999706,"[0, 0, 0]",1,3035.8100649999687,3037.810087800026,,,,,,,,,,,,,5,m,2,15,r,CIB,2021_Oct_12_1447,2020.2.10,distractmap2,59.99134925140597,"['Right Face', 'Chest', 'Left Leg', 'Left Face']",
,,,,,,,,,,,3037.8267445999663,None,,,,,,,,,,,,,,,,,,,,,,,,,,,,,,,,,,,,,,,,,32.098765432098766,3010.060968600097,,,5,m,2,15,r,CIB,2021_Oct_12_1447,2020.2.10,distractmap2,59.99134925140597,"['Right Face', 'Chest', 'Left Leg', 'Left Face']",
5,"[0, 0]",None,0,0,0,0,,,,,3051.06019009999,None,3057.893577400013,None,3057.893577400013,3058.8935725999763,3058.8769186999416,3059.8769221999682,0,None,None,"[0, 0, 0]",,,3057.893577400013,None,,,,,,,,,,,,,,,,,,,,,,,,,,"[0, 0, 0]",,,0.014977599959820509,5.012389599927701,5,m,2,15,r,CIB,2021_Oct_12_1447,2020.2.10,distractmap2,59.99134925140597,"['Right Face', 'Chest', 'Left Leg', 'Left Face']",
5,"[0, 0]",1,0,1,1,1,,,,,,,3059.893591100001,None,3059.893591100001,3060.8935869999696,3060.8769345999463,3061.876930700033,1,None,None,"[0, 0, 0]",,,3059.893591100001,None,,,,,,,,,,,,,,,,,,,,,,,,,,"[0, 0, 0]",,,,,5,m,2,15,r,CIB,2021_Oct_12_1447,2020.2.10,distractmap2,59.99134925140597,"['Right Face', 'Chest', 'Left Leg', 'Left Face']",
4,"[-0.2, 0]",0,0,2,2,2,,,,,,,3061.893598799943,3061.893598799943,3061.893598799943,3062.8936023999704,3062.876962499926,3063.8769481999334,1,None,None,"[0, 0, 0]",,,3061.893598799943,3061.893598799943,,,,,,,,,,,,,,,,,,,,,,,,,,"[0, 0, 0]",,,,,5,m,2,15,r,CIB,2021_Oct_12_1447,2020.2.10,distractmap2,59.99134925140597,"['Right Face', 'Chest', 'Left Leg', 'Left Face']",
2,"[0, 0.2]",0,0,3,3,3,,,,,,,3063.8936274999287,3063.8936274999287,3063.8936274999287,3064.8936214999994,3064.8769875,3065.8769777000416,1,None,None,"[0, 0, 0]",,,3063.8936274999287,3063.8936274999287,,,,,,,,,,,,,,,,,,,,,,,,,,"[0, 0, 0]",,,,,5,m,2,15,r,CIB,2021_Oct_12_1447,2020.2.10,distractmap2,59.99134925140597,"['Right Face', 'Chest', 'Left Leg', 'Left Face']",
6,"[0.2, 0]",0,0,4,4,4,,,,,,,3065.960319899954,3065.960319899954,3065.960319899954,3066.9603064999683,3066.926977999974,None,1,None,None,"[0, 0, 0]",,,3065.960319899954,3065.960319899954,,,,,,,,,,,,,,,,,,,,,,,,,,"[0, 0, 0]",,,,,5,m,2,15,r,CIB,2021_Oct_12_1447,2020.2.10,distractmap2,59.99134925140597,"['Right Face', 'Chest', 'Left Leg', 'Left Face']",
8,"[0, -0.2]",0,0,5,5,5,,,,,,,3067.9103144999826,None,3067.9103144999826,3068.910322999931,3068.893645999953,3069.8936598999426,1,None,None,"[0, 0, 0]",,,3067.9103144999826,None,,,,,,,,,,,,,,,,,,,,,,,,,,"[0, 0, 0]",,,,,5,m,2,15,r,CIB,2021_Oct_12_1447,2020.2.10,distractmap2,59.99134925140597,"['Right Face', 'Chest', 'Left Leg', 'Left Face']",
1,"[-0.2, 0.2]",0,0,6,6,6,,,,,,,3069.9103464999935,3069.9103464999935,3069.9103464999935,3070.910355299944,3070.893689199933,3071.89366609999,1,None,None,"[0, 0, 0]",,,3069.9103464999935,3069.9103464999935,,,,,,,,,,,,,,,,,,,,,,,,,,"[0, 0, 0]",,,,,5,m,2,15,r,CIB,2021_Oct_12_1447,2020.2.10,distractmap2,59.99134925140597,"['Right Face', 'Chest', 'Left Leg', 'Left Face']",
4,"[-0.2, 0]",0,0,7,7,7,,,,,,,3071.9098445000127,3071.9098445000127,3071.9098445000127,3072.910370999947,3072.893700100016,3073.893702200032,1,None,None,"[0, 0, 0]",,,3071.9098445000127,3071.9098445000127,,,,,,,,,,,,,,,,,,,,,,,,,,"[0, 0, 0]",,,,,5,m,2,15,r,CIB,2021_Oct_12_1447,2020.2.10,distractmap2,59.99134925140597,"['Right Face', 'Chest', 'Left Leg', 'Left Face']",
8,"[0, -0.2]",0,0,8,8,8,,,,,,,3073.91037659999,3073.91037659999,3073.91037659999,3074.9103954000166,3074.8936952999793,3075.8936875000363,1,None,None,"[0, 0, 0]",,,3073.91037659999,3073.91037659999,,,,,,,,,,,,,,,,,,,,,,,,,,"[0, 0, 0]",,,,,5,m,2,15,r,CIB,2021_Oct_12_1447,2020.2.10,distractmap2,59.99134925140597,"['Right Face', 'Chest', 'Left Leg', 'Left Face']",
8,"[0, -0.2]",1,0,9,9,9,,,,,,,3075.9103927999968,3075.9103927999968,3075.9103927999968,3076.9103976000333,3076.8937470000237,3077.893720999942,1,None,None,"[0, 0, 0]",,,3075.9103927999968,3075.9103927999968,,,,,,,,,,,,,,,,,,,,,,,,,,"[0, 0, 0]",,,,,5,m,2,15,r,CIB,2021_Oct_12_1447,2020.2.10,distractmap2,59.99134925140597,"['Right Face', 'Chest', 'Left Leg', 'Left Face']",
,,,,,,,,,,,3077.910488400026,None,,,,,,,,,,,,,,,,,,,,,,,,,,,,,,,,,,,,,,,,,23.51851851851852,3052.8950868000975,,,5,m,2,15,r,CIB,2021_Oct_12_1447,2020.2.10,distractmap2,59.99134925140597,"['Right Face', 'Chest', 'Left Leg', 'Left Face']",
3,"[0.2, 0.2]",None,0,0,0,0,,,,,3093.1442195000127,None,3097.960559900035,None,3097.960559900035,3098.960576399928,3098.9438847999554,3099.943900399958,0,None,None,"[0, 0, 0]",,,3097.960559900035,None,,,,,,,,,,,,,,,,,,,,,,,,,,"[0, 0, 0]",,,0.014526099897921085,5.011412899941206,5,m,2,15,r,CIB,2021_Oct_12_1447,2020.2.10,distractmap2,59.99134925140597,"['Right Face', 'Chest', 'Left Leg', 'Left Face']",
4,"[-0.2, 0]",0,0,1,1,1,,,,,,,3099.9605746000307,None,3099.9605746000307,3100.960582999978,3100.9439171999693,3101.943918199977,1,None,None,"[0, 0, 0]",,,3099.9605746000307,None,,,,,,,,,,,,,,,,,,,,,,,,,,"[0, 0, 0]",,,,,5,m,2,15,r,CIB,2021_Oct_12_1447,2020.2.10,distractmap2,59.99134925140597,"['Right Face', 'Chest', 'Left Leg', 'Left Face']",
1,"[-0.2, 0.2]",0,0,2,2,2,,,,,,,3101.9605884000193,3101.9605884000193,3101.9605884000193,3102.9605976999737,3102.9439260000363,3103.943947099964,1,None,None,"[0, 0, 0]",,,3101.9605884000193,3101.9605884000193,,,,,,,,,,,,,,,,,,,,,,,,,,"[0, 0, 0]",,,,,5,m,2,15,r,CIB,2021_Oct_12_1447,2020.2.10,distractmap2,59.99134925140597,"['Right Face', 'Chest', 'Left Leg', 'Left Face']",
2,"[0, 0.2]",0,0,3,3,3,,,,,,,3103.960608699941,3103.960608699941,3103.960608699941,3104.9606174000073,3104.94396970002,3105.9439468999626,1,None,None,"[0, 0, 0]",,,3103.960608699941,3103.960608699941,,,,,,,,,,,,,,,,,,,,,,,,,,"[0, 0, 0]",,,,,5,m,2,15,r,CIB,2021_Oct_12_1447,2020.2.10,distractmap2,59.99134925140597,"['Right Face', 'Chest', 'Left Leg', 'Left Face']",
2,"[0, 0.2]",1,0,4,4,4,,,,,,,3105.9939626000123,3105.9939626000123,3105.9939626000123,3106.9939681999385,3106.9772890999448,None,1,None,None,"[0, 0, 0]",,,3105.9939626000123,3105.9939626000123,,,,,,,,,,,,,,,,,,,,,,,,,,"[0, 0, 0]",,,,,5,m,2,15,r,CIB,2021_Oct_12_1447,2020.2.10,distractmap2,59.99134925140597,"['Right Face', 'Chest', 'Left Leg', 'Left Face']",
5,"[0, 0]",0,0,5,5,5,,,,,,,3107.9772532000206,None,3107.9772532000206,3108.9772992000217,3108.960661899997,3109.9606518000364,1,None,None,"[0, 0, 0]",,,3107.9772532000206,None,,,,,,,,,,,,,,,,,,,,,,,,,,"[0, 0, 0]",,,,,5,m,2,15,r,CIB,2021_Oct_12_1447,2020.2.10,distractmap2,59.99134925140597,"['Right Face', 'Chest', 'Left Leg', 'Left Face']",
1,"[-0.2, 0.2]",0,0,6,6,6,,,,,,,3109.977306799963,3109.977306799963,3109.977306799963,3110.977328400011,3110.9606680999277,3111.9606824000366,1,None,None,"[0, 0, 0]",,,3109.977306799963,3109.977306799963,,,,,,,,,,,,,,,,,,,,,,,,,,"[0, 0, 0]",,,,,5,m,2,15,r,CIB,2021_Oct_12_1447,2020.2.10,distractmap2,59.99134925140597,"['Right Face', 'Chest', 'Left Leg', 'Left Face']",
1,"[-0.2, 0.2]",1,0,7,7,7,,,,,,,3111.9773317000363,3111.9773317000363,3111.9773317000363,3112.9773440000135,3112.96068020002,3113.960683000041,1,None,None,"[0, 0, 0]",,,3111.9773317000363,3111.9773317000363,,,,,,,,,,,,,,,,,,,,,,,,,,"[0, 0, 0]",,,,,5,m,2,15,r,CIB,2021_Oct_12_1447,2020.2.10,distractmap2,59.99134925140597,"['Right Face', 'Chest', 'Left Leg', 'Left Face']",
8,"[0, -0.2]",0,0,8,8,8,,,,,,,3113.9773317000363,3113.9773317000363,3113.9773317000363,3114.977365699946,3114.960687099956,3115.960728600039,1,None,None,"[0, 0, 0]",,,3113.9773317000363,3113.9773317000363,,,,,,,,,,,,,,,,,,,,,,,,,,"[0, 0, 0]",,,,,5,m,2,15,r,CIB,2021_Oct_12_1447,2020.2.10,distractmap2,59.99134925140597,"['Right Face', 'Chest', 'Left Leg', 'Left Face']",
7,"[-0.2, -0.2]",0,0,9,9,9,,,,,,,3115.977365599945,3115.977365599945,3115.977365599945,3116.97738149995,3116.9607063999865,3117.960724400007,1,None,None,"[0, 0, 0]",,,3115.977365599945,3115.977365599945,,,,,,,,,,,,,,,,,,,,,,,,,,"[0, 0, 0]",,,,,5,m,2,15,r,CIB,2021_Oct_12_1447,2020.2.10,distractmap2,59.99134925140597,"['Right Face', 'Chest', 'Left Leg', 'Left Face']",
,,,,,,,,,,,3117.977376500028,None,,,,,,,,,,,,,,,,,,,,,,,,,,,,,,,,,,,,,,,,,20.61728395061728,3094.912213100004,,,5,m,2,15,r,CIB,2021_Oct_12_1447,2020.2.10,distractmap2,59.99134925140597,"['Right Face', 'Chest', 'Left Leg', 'Left Face']",
6,"[0.2, 0]",None,,,,,0,0,0,0,3135.794139800011,None,,,,,,,,,,,,,,,,,,,,None,None,"[0, 0, 0]",3138.0275302999653,None,3138.0275302999653,3139.0275353000034,3139.010879499954,3140.0108851999976,"[0, 0, 0]",0,3138.0275302999653,None,,,,,,,,,,,0.014426800073124468,5.011306300060824,5,m,2,15,r,CIB,2021_Oct_12_1447,2020.2.10,distractmap2,59.99134925140597,"['Right Face', 'Chest', 'Left Leg', 'Left Face']",
1,"[-0.2, 0.2]",None,,,,,0,1,1,1,,,,,,,,,,,,,,,,,,,,,,None,None,"[0, 0, 0]",3140.0275468999753,3142.027568600024,3140.0275468999753,3141.027551700012,3141.0108768999344,3142.010890900041,"[0, 0, 0]",0,3140.0275468999753,3142.027568600024,,,,,,,,,,,,,5,m,2,15,r,CIB,2021_Oct_12_1447,2020.2.10,distractmap2,59.99134925140597,"['Right Face', 'Chest', 'Left Leg', 'Left Face']",
6,"[0.2, 0]",1,,,,,0,2,2,2,,,,,,,,,,,,,,,,,,,,,,None,None,"[0, 0, 0]",3142.0442445999943,3144.04425060004,3142.0442445999943,3143.044241799973,3143.027574399952,3144.0275736999465,"[0, 0, 0]",0,3142.0442445999943,3144.04425060004,,,,,,,,,,,,,5,m,2,15,r,CIB,2021_Oct_12_1447,2020.2.10,distractmap2,59.99134925140597,"['Right Face', 'Chest', 'Left Leg', 'Left Face']",
