	SID	biopac_channel	body_site	condition	correct	date	duration	handedness	mouseclick	onset	rt	scanner	score	session	sex	skin_site	temperature	value
0	3109	51	Left Leg	Expectancy		2025_Mar_04_1859	5.00469643992983	r		3.2647972000013397	3.6003445999995165	mrs ss		2	f	3		39.691358024691354
1	3109	44	Left Leg	0-back Instruction		2025_Mar_04_1859	5.00405297999896	r		8.630485900001077		mrs ss		2	f	3		
2	3109	7	Left Leg	Pre-Trial Jitter		2025_Mar_04_1859	5.006638540002314	r		13.645898700000544		mrs ss		2	f	3		
3	3109	44.0	Left Leg	pretrialfixation		2025_Mar_04_1859	0.9965773799958697	r		18.92598690000159		mrs ss		2	f	3		
4	3109		Left Leg	0-back	1.0	2025_Mar_04_1859	1.9902367399954528	r	0.0	19.929162100001122	0.5802370999990671	mrs ss	12.5	2	f	3	48.5	
5	3109		Left Leg	0-back	1.0	2025_Mar_04_1859	1.987844840001344	r	0.0	21.938692200001242	0.3804371000005631	mrs ss	25.0	2	f	3	48.5	
6	3109		Left Leg	0-back	1.0	2025_Mar_04_1859	1.9888937399991846	r	0.0	23.938193099998898	0.31763239999781945	mrs ss	37.5	2	f	3	48.5	
7	3109		Left Leg	0-back	1.0	2025_Mar_04_1859	1.9886284400017757	r	0.0	25.93835179999951	0.33057669999834616	mrs ss	50.0	2	f	3	48.5	
8	3109		Left Leg	0-back	1.0	2025_Mar_04_1859	1.989199940002436	r	0.0	27.938079200001084	0.4338543000012578	mrs ss	62.5	2	f	3	48.5	
9	3109		Left Leg	0-back	1.0	2025_Mar_04_1859	1.9882982399976754	r	0.0	29.93855959999928	0.4135034999999334	mrs ss	75.0	2	f	3	48.5	
10	3109		Left Leg	0-back	1.0	2025_Mar_04_1859	1.988837639997655	r	0.0	31.93831180000052	0.5639339000008476	mrs ss	87.5	2	f	3	48.5	
11	3109		Left Leg	0-back	1.0	2025_Mar_04_1859	1.9883978399993794	r	0.0	33.93856859999869	0.6003653000007034	mrs ss	100.0	2	f	3	48.5	
12	3109	48.0	Left Leg	ScoreReport		2025_Mar_04_1859	5.005749140000262	r		35.946593000000576		mrs ss		2	f	3		
13	3109	8	Left Leg	Post-Trial Jitter		2025_Mar_04_1859	9.001671360001637	r		41.00706839999839		mrs ss		2	f	3		
14	3109	20	Left Leg	PainBinary		2025_Mar_04_1859	5.009964379998564	r		50.0196720999993	1.3669674000011582	mrs ss		2	f	3		1.0
15	3109	21	Left Leg	IntensityRating		2025_Mar_04_1859	5.01547428000049	r		55.04197360000035	1.9835719000002427	mrs ss		2	f	3		33.33333333333333
16	3109	23	Left Leg	DistractBinary		2025_Mar_04_1859	5.0095280799978354	r		60.06997639999827	1.733629900001688	mrs ss		2	f	3		-1.0
17	3109	9	Left Leg	Post-Q-Jitter		2025_Mar_04_1859	8.996526639999502	r		65.0765485999982		mrs ss		2	f	3		
18	3109	51	Left Leg	Expectancy		2025_Mar_04_1859	5.0137970999930985	r		75.38480540000091	2.316998700000113	mrs ss		2	f	3		35.123456790123456
19	3109	44	Left Leg	0-back Instruction		2025_Mar_04_1859	5.0163108199994895	r		80.7502123000013		mrs ss		2	f	3		
20	3109	7	Left Leg	Pre-Trial Jitter		2025_Mar_04_1859	5.005459740001243	r		85.76397069999803		mrs ss		2	f	3		
21	3109	44.0	Left Leg	pretrialfixation		2025_Mar_04_1859	1.0078300399945874	r		91.02117709999948		mrs ss		2	f	3		
22	3109		Left Leg	0-back	1.0	2025_Mar_04_1859	1.991280040001584	r	0.0	92.02946090000114	0.6135737000004156	mrs ss	12.5	2	f	3	48.5	
23	3109		Left Leg	0-back	1.0	2025_Mar_04_1859	1.988178039999184	r	0.0	94.03936450000037	0.4500735999972676	mrs ss	25.0	2	f	3	48.5	
24	3109		Left Leg	0-back	1.0	2025_Mar_04_1859	1.988600939999742	r	0.0	96.03918400000111	0.3971674999993411	mrs ss	37.5	2	f	3	48.5	
25	3109		Left Leg	0-back	1.0	2025_Mar_04_1859	1.9892354399962642	r	0.0	98.03889160000108	0.567060199999105	mrs ss	50.0	2	f	3	48.5	
26	3109		Left Leg	0-back	1.0	2025_Mar_04_1859	1.988755639998999	r	0.0	100.039162699999	0.5971932000029483	mrs ss	62.5	2	f	3	48.5	
27	3109		Left Leg	0-back	1.0	2025_Mar_04_1859	1.989245340002526	r	0.0	102.03894500000024	0.6303861000014876	mrs ss	75.0	2	f	3	48.5	
28	3109		Left Leg	0-back	1.0	2025_Mar_04_1859	1.989339640000253	r	0.0	104.03886789999888	0.6634598999989976	mrs ss	87.5	2	f	3	48.5	
29	3109		Left Leg	0-back	1.0	2025_Mar_04_1859	1.9891997400009132	r	0.0	106.03900939999949	0.5472660000014002	mrs ss	100.0	2	f	3	48.5	
30	3109	48.0	Left Leg	ScoreReport		2025_Mar_04_1859	5.005182240001886	r		108.04772199999934		mrs ss		2	f	3		
31	3109	8	Left Leg	Post-Trial Jitter		2025_Mar_04_1859	9.001617559999431	r		113.10790080000152		mrs ss		2	f	3		
32	3109	20	Left Leg	PainBinary		2025_Mar_04_1859	5.0081365799997	r		122.1213854000016	1.266944399998465	mrs ss		2	f	3		1.0
33	3109	21	Left Leg	IntensityRating		2025_Mar_04_1859	5.01396608000141	r		127.14355069999874	1.9169122000021162	mrs ss		2	f	3		32.22222222222222
34	3109	23	Left Leg	DistractBinary		2025_Mar_04_1859	5.009118879999733	r		132.17102309999973	1.3190431999973953	mrs ss		2	f	3		-1.0
35	3109	9	Left Leg	Post-Q-Jitter		2025_Mar_04_1859	9.012449339999876	r		137.17777869999918		mrs ss		2	f	3		
36	3109	43	Left Leg	2-back Instruction		2025_Mar_04_1859	4.996087080002326	r		146.21107230000052		mrs ss		2	f	3		
37	3109	7	Left Leg	Pre-trial Jitter		2025_Mar_04_1859	5.005267740001727	r		151.2148707999986		mrs ss		2	f	3		
38	3109	44.0	Left Leg	pretrialfixation		2025_Mar_04_1859	1.0030918999982532	r		156.45765879999817		mrs ss		2	f	3		
39	3109		Left Leg	2-back	1.0	2025_Mar_04_1859	1.9908197400000063	r		157.46378539999932		mrs ss	12.5	2	f	3	32.0	
40	3109		Left Leg	2-back	1.0	2025_Mar_04_1859	1.9875123400015582	r		159.47379119999823		mrs ss	25.0	2	f	3	32.0	
41	3109		Left Leg	2-back	1.0	2025_Mar_04_1859	1.9880207399983192	r	0	161.47357909999846	0.6970302999980049	mrs ss	37.5	2	f	3	32.0	
42	3109		Left Leg	2-back	1.0	2025_Mar_04_1859	1.9874950400044327	r	2	163.47384410000086	0.8303798999986611	mrs ss	50.0	2	f	3	32.0	
43	3109		Left Leg	2-back	1.0	2025_Mar_04_1859	1.9875284399968223	r	2	165.473872999999	1.6971130999991146	mrs ss	62.5	2	f	3	32.0	
44	3109		Left Leg	2-back	1.0	2025_Mar_04_1859	1.9874016399990069	r	2	167.4739598999986	1.0137447000015527	mrs ss	75.0	2	f	3	32.0	
45	3109		Left Leg	2-back	0.0	2025_Mar_04_1859	1.9879309400021157	r	2	169.47369450000042	0.7304068000012194	mrs ss	75.0	2	f	3	32.0	
46	3109		Left Leg	2-back	1.0	2025_Mar_04_1859	1.9881413400034944	r	0	171.47363799999948	0.6632304999984626	mrs ss	87.5	2	f	3	32.0	
47	3109	48.0	Left Leg	ScoreReport		2025_Mar_04_1859	5.006532280000101	r		173.4894557000007		mrs ss		2	f	3		
48	3109	8	Left Leg	Post-trial Jitter		2025_Mar_04_1859	5.002028359998803	r		178.54175620000024		mrs ss		2	f	3		
49	3109	43	Left Leg	2-back Instruction		2025_Mar_04_1859	5.009873479997623	r		183.56290309999895		mrs ss		2	f	3		
50	3109	7	Left Leg	Pre-trial Jitter		2025_Mar_04_1859	9.002467440004693	r		188.58334309999918		mrs ss		2	f	3		
51	3109	44.0	Left Leg	pretrialfixation		2025_Mar_04_1859	1.0053131999957259	r		197.82368940000015		mrs ss		2	f	3		
52	3109		Left Leg	2-back	1.0	2025_Mar_04_1859	1.9918373399996199	r		198.83042289999867		mrs ss	12.5	2	f	3	32.0	
53	3109		Left Leg	2-back	1.0	2025_Mar_04_1859	1.9866794400004437	r		200.84136600000056		mrs ss	25.0	2	f	3	32.0	
54	3109		Left Leg	2-back	1.0	2025_Mar_04_1859	1.9879188400009298	r	2	202.84077609999804	0.6634703999989142	mrs ss	37.5	2	f	3	32.0	
55	3109		Left Leg	2-back	1.0	2025_Mar_04_1859	1.988258040000801	r	2	204.8406122999986	0.8670841999992263	mrs ss	50.0	2	f	3	32.0	
56	3109		Left Leg	2-back	1.0	2025_Mar_04_1859	1.9881352400007017	r	0	206.8407115000009	0.8505969999969238	mrs ss	62.5	2	f	3	32.0	
57	3109		Left Leg	2-back	1.0	2025_Mar_04_1859	1.988061239997478	r	0	208.84077360000083	0.7468042000000423	mrs ss	75.0	2	f	3	32.0	
58	3109		Left Leg	2-back	1.0	2025_Mar_04_1859	1.9880856400013727	r	2	210.84078429999863	0.630445899998449	mrs ss	87.5	2	f	3	32.0	
59	3109		Left Leg	2-back	1.0	2025_Mar_04_1859	1.9879077400000824	r	2	212.84088809999957	0.5802766999986488	mrs ss	100.0	2	f	3	32.0	
60	3109	48.0	Left Leg	ScoreReport		2025_Mar_04_1859	5.00206753999737	r		214.8504780000003		mrs ss		2	f	3		
61	3109	8	Left Leg	Post-trial Jitter		2025_Mar_04_1859	9.00356376000127	r		219.90818220000074		mrs ss		2	f	3		
62	3109	51	Left Leg	Expectancy		2025_Mar_04_1859	5.0011001199927705	r		230.276296	2.769460399998934	mrs ss		2	f	3		35.37037037037037
63	3109	45	Left Leg	2-back Instruction		2025_Mar_04_1859	5.015163519998168	r		235.63591570000062		mrs ss		2	f	3		
64	3109	7	Left Leg	Pre-trial Jitter		2025_Mar_04_1859	5.004349340000772	r		240.64967500000057		mrs ss		2	f	3		
65	3109	44.0	Left Leg	pretrialfixation		2025_Mar_04_1859	1.0095069199960562	r		245.9388187000004		mrs ss		2	f	3		
66	3109		Left Leg	2-back	1.0	2025_Mar_04_1859	1.990653540000494	r		246.94823890000043		mrs ss	12.5	2	f	3	48.5	
67	3109		Left Leg	2-back	1.0	2025_Mar_04_1859	1.9869596399985312	r		248.9584708000002		mrs ss	25.0	2	f	3	48.5	
68	3109		Left Leg	2-back	1.0	2025_Mar_04_1859	1.9880765399975644	r	2	250.9579202999994	0.6301910000001953	mrs ss	37.5	2	f	3	48.5	
69	3109		Left Leg	2-back	1.0	2025_Mar_04_1859	1.9877621400009957	r	2	252.95810300000085	0.6638160000002244	mrs ss	50.0	2	f	3	48.5	
70	3109		Left Leg	2-back	1.0	2025_Mar_04_1859	1.987493539996649	r	0	254.95827260000078	0.5473043999991205	mrs ss	62.5	2	f	3	48.5	
71	3109		Left Leg	2-back	1.0	2025_Mar_04_1859	1.987559240002156	r	0	256.9582450000016	0.7469160000000556	mrs ss	75.0	2	f	3	48.5	
72	3109		Left Leg	2-back	1.0	2025_Mar_04_1859	1.9880337399954442	r	2	258.9580257000016	0.497212700000091	mrs ss	87.5	2	f	3	48.5	
73	3109		Left Leg	2-back	1.0	2025_Mar_04_1859	1.9876399399981892	r	2	260.95824979999816	0.5304544999999052	mrs ss	100.0	2	f	3	48.5	
74	3109	48.0	Left Leg	ScoreReport		2025_Mar_04_1859	5.002423240002827	r		262.96756559999994		mrs ss		2	f	3		
75	3109	8	Left Leg	Post-trial Jitter		2025_Mar_04_1859	9.0091753600027	r		268.03095219999886		mrs ss		2	f	3		
76	3109	20	Left Leg	PainBinary		2025_Mar_04_1859	5.003792579998844	r		277.0587149999992	1.2503012000015588	mrs ss		2	f	3		1.0
77	3109	21	Left Leg	IntensityRating		2025_Mar_04_1859	5.012138179998146	r		282.07957579999857	2.3002198000031058	mrs ss		2	f	3		30.98765432098765
78	3109	23	Left Leg	DistractBinary		2025_Mar_04_1859	5.005555380001169	r		287.10793209999974	1.5836436999998114	mrs ss		2	f	3		-1.0
79	3109	9	Left Leg	Post-Q-Jitter		2025_Mar_04_1859	9.011800240004959	r		292.1132476999992		mrs ss		2	f	3		
80	3109	51	Left Leg	Expectancy		2025_Mar_04_1859	5.008196819999284	r		301.66519229999903	2.250258699998085	mrs ss		2	f	3		33.45679012345679
81	3109	45	Left Leg	2-back Instruction		2025_Mar_04_1859	5.0153762199952325	r		307.0366326000003		mrs ss		2	f	3		
82	3109	7	Left Leg	Pre-trial Jitter		2025_Mar_04_1859	5.0026195400023425	r		312.0513570000003		mrs ss		2	f	3		
83	3109	44.0	Left Leg	pretrialfixation		2025_Mar_04_1859	1.0135706799992477	r		317.3209453999989		mrs ss		2	f	3		
84	3109		Left Leg	2-back	1.0	2025_Mar_04_1859	1.989011940000637	r		318.33322829999815		mrs ss	12.5	2	f	3	48.5	
85	3109		Left Leg	2-back	1.0	2025_Mar_04_1859	1.9876540400000522	r		320.3422783999995		mrs ss	25.0	2	f	3	48.5	
86	3109		Left Leg	2-back	1.0	2025_Mar_04_1859	1.9885516399990593	r	0	322.34183140000096	0.6968405999978131	mrs ss	37.5	2	f	3	48.5	
87	3109		Left Leg	2-back	1.0	2025_Mar_04_1859	1.9880503400017915	r	2	324.3421156000004	0.6300040999994962	mrs ss	50.0	2	f	3	48.5	
88	3109		Left Leg	2-back	1.0	2025_Mar_04_1859	1.988152940000873	r	0	326.34209069999997	0.5967725000009523	mrs ss	62.5	2	f	3	48.5	
89	3109		Left Leg	2-back	1.0	2025_Mar_04_1859	1.9882251400013047	r	2	328.3420834999997	0.7304265999991912	mrs ss	75.0	2	f	3	48.5	
90	3109		Left Leg	2-back	1.0	2025_Mar_04_1859	1.9873153400003503	r	2	330.3425568999992	1.2509298000004492	mrs ss	87.5	2	f	3	48.5	
91	3109		Left Leg	2-back	1.0	2025_Mar_04_1859	1.9881624400004512	r	2	332.3421554000015	0.9967676999985997	mrs ss	100.0	2	f	3	48.5	
92	3109	48.0	Left Leg	ScoreReport		2025_Mar_04_1859	5.003107639997324	r		334.3514068000004		mrs ss		2	f	3		
93	3109	8	Left Leg	Post-trial Jitter		2025_Mar_04_1859	9.001548460000777	r		339.4106280999986		mrs ss		2	f	3		
94	3109	20	Left Leg	PainBinary		2025_Mar_04_1859	5.006647879999946	r		348.4247930999991	1.5503186999994796	mrs ss		2	f	3		1.0
95	3109	21	Left Leg	IntensityRating		2025_Mar_04_1859	4.999941480000416	r		353.44487260000096	1.8004071999966982	mrs ss		2	f	3		30.123456790123456
96	3109	23	Left Leg	DistractBinary		2025_Mar_04_1859	5.0062614800008305	r		358.4584228999993	1.4502298000006704	mrs ss		2	f	3		-1.0
97	3109	9	Left Leg	Post-Q-Jitter		2025_Mar_04_1859	9.011573640000279	r		363.4641746999987		mrs ss		2	f	3		
98	3109	42	Left Leg	0-back Instruction		2025_Mar_04_1859	5.006382380001014	r		372.50018049999926		mrs ss		2	f	3		
99	3109	7	Left Leg	Pre-Trial Jitter		2025_Mar_04_1859	5.0031237399998645	r		377.518546700001		mrs ss		2	f	3		
100	3109	44.0	Left Leg	pretrialfixation		2025_Mar_04_1859	1.0084089999945718	r		382.75763050000023		mrs ss		2	f	3		
101	3109		Left Leg	0-back	1.0	2025_Mar_04_1859	1.9891790399997262	r	0.0	383.7672419999981	0.6638013000010687	mrs ss	12.5	2	f	3	32.0	
102	3109		Left Leg	0-back	1.0	2025_Mar_04_1859	1.9876730399992084	r	0.0	385.7763436999994	0.4635998000012478	mrs ss	25.0	2	f	3	32.0	
103	3109		Left Leg	0-back	1.0	2025_Mar_04_1859	1.9890532400022494	r	0.0	387.775669300001	0.4304222999999183	mrs ss	37.5	2	f	3	32.0	
104	3109		Left Leg	0-back	1.0	2025_Mar_04_1859	1.9889305400029116	r	0.0	389.7757587999986	0.5472143999977561	mrs ss	50.0	2	f	3	32.0	
105	3109		Left Leg	0-back	1.0	2025_Mar_04_1859	1.9893470400020306	r	0.0	391.77559269999983	0.4304401000008511	mrs ss	62.5	2	f	3	32.0	
106	3109		Left Leg	0-back	1.0	2025_Mar_04_1859	1.987941139999748	r	0.0	393.776314499999	0.4132366000012553	mrs ss	75.0	2	f	3	32.0	
107	3109		Left Leg	0-back	1.0	2025_Mar_04_1859	1.9888163399991754	r	0.0	395.775908399999	0.43056670000078157	mrs ss	87.5	2	f	3	32.0	
108	3109		Left Leg	0-back	1.0	2025_Mar_04_1859	1.988528440004302	r	0.0	397.7760668999981	0.5806861000019126	mrs ss	100.0	2	f	3	32.0	
109	3109	48.0	Left Leg	ScoreReport		2025_Mar_04_1859	5.005676640001184	r		399.7841885000016		mrs ss		2	f	3		
110	3109	8	Left Leg	Post-Trial Jitter		2025_Mar_04_1859	5.011127059995488	r		404.84820480000053		mrs ss		2	f	3		
111	3109	42	Left Leg	0-back Instruction		2025_Mar_04_1859	5.009878580000077	r		409.8822218999994		mrs ss		2	f	3		
112	3109	7	Left Leg	Pre-Trial Jitter		2025_Mar_04_1859	9.001792740000383	r		414.9030046000007		mrs ss		2	f	3		
113	3109	44.0	Left Leg	pretrialfixation		2025_Mar_04_1859	1.00478700000167	r		424.14325029999964		mrs ss		2	f	3		
114	3109		Left Leg	0-back	1.0	2025_Mar_04_1859	1.989295340001263	r	0.0	425.1510171000009	1.2468154999987746	mrs ss	12.5	2	f	3	32.0	
115	3109		Left Leg	0-back	1.0	2025_Mar_04_1859	1.988069839997479	r	0.0	427.1599725999986	0.6971173999991152	mrs ss	25.0	2	f	3	32.0	
116	3109		Left Leg	0-back	1.0	2025_Mar_04_1859	1.9887050399956934	r	0.0	429.1596704000003	0.3804872999971849	mrs ss	37.5	2	f	3	32.0	
117	3109		Left Leg	0-back	1.0	2025_Mar_04_1859	1.9895064400006959	r	0.0	431.1593041999986	0.41389820000040345	mrs ss	50.0	2	f	3	32.0	
118	3109		Left Leg	0-back	1.0	2025_Mar_04_1859	1.9890212399986922	r	0.0	433.15951009999844	0.3804368000019167	mrs ss	62.5	2	f	3	32.0	
119	3109		Left Leg	0-back	1.0	2025_Mar_04_1859	1.9894195400047465	r	0.0	435.1593716999996	0.3972191999964707	mrs ss	75.0	2	f	3	32.0	
120	3109		Left Leg	0-back	1.0	2025_Mar_04_1859	1.9889619400019	r	0.0	437.15964299999905	0.35114319999775034	mrs ss	87.5	2	f	3	32.0	
121	3109		Left Leg	0-back	1.0	2025_Mar_04_1859	1.9894095399977232	r	0.0	439.159436599999	0.4637220000004163	mrs ss	100.0	2	f	3	32.0	
122	3109	48.0	Left Leg	ScoreReport		2025_Mar_04_1859	5.005038740004238	r		441.1683273999988		mrs ss		2	f	3		
123	3109	8	Left Leg	Post-Trial Jitter		2025_Mar_04_1859	5.000475360000564	r		446.2290071999996		mrs ss		2	f	3		
124	3109	51	Left Leg	Expectancy		2025_Mar_04_1859	5.002720099997532	r		452.54474610000034	3.0169581999980437	mrs ss		2	f	3		35.74074074074074
125	3109	45	Left Leg	2-back Instruction		2025_Mar_04_1859	5.003701580004417	r		457.9025666999987		mrs ss		2	f	3		
126	3109	7	Left Leg	Pre-trial Jitter		2025_Mar_04_1859	9.002425940001558	r		462.9199050999996		mrs ss		2	f	3		
127	3109	44.0	Left Leg	pretrialfixation		2025_Mar_04_1859	1.0008411799972237	r		472.1958228000003		mrs ss		2	f	3		
128	3109		Left Leg	2-back	1.0	2025_Mar_04_1859	1.9913801399998192	r		473.2005262999992		mrs ss	12.5	2	f	3	48.5	
129	3109		Left Leg	2-back	1.0	2025_Mar_04_1859	1.98735053999917	r		475.21088569999847		mrs ss	25.0	2	f	3	48.5	
130	3109		Left Leg	2-back	1.0	2025_Mar_04_1859	1.98844533999727	r	0	477.2103414000012	0.5472742999991169	mrs ss	37.5	2	f	3	48.5	
131	3109		Left Leg	2-back	1.0	2025_Mar_04_1859	1.9876374399973429	r	2	479.2107748999988	0.6806294999987585	mrs ss	50.0	2	f	3	48.5	
132	3109		Left Leg	2-back	1.0	2025_Mar_04_1859	1.988300140001229	r	2	481.21044170000096	0.900304299997515	mrs ss	62.5	2	f	3	48.5	
133	3109		Left Leg	2-back	1.0	2025_Mar_04_1859	1.987095140000747	r	2	483.21111259999816	0.6676154999986466	mrs ss	75.0	2	f	3	48.5	
134	3109		Left Leg	2-back	0.0	2025_Mar_04_1859	1.9881159399992612	r	2	485.21060379999835	0.5974046000010276	mrs ss	75.0	2	f	3	48.5	
135	3109		Left Leg	2-back	1.0	2025_Mar_04_1859	1.98701513999913	r	0	487.21118809999825	0.8638511999997718	mrs ss	87.5	2	f	3	48.5	
136	3109	48.0	Left Leg	ScoreReport		2025_Mar_04_1859	5.012308080000366	r		489.2235871999983		mrs ss		2	f	3		
137	3109	8	Left Leg	Post-trial Jitter		2025_Mar_04_1859	5.002813060000335	r		494.27839550000135		mrs ss		2	f	3		
138	3109	20	Left Leg	PainBinary		2025_Mar_04_1859	5.004938080001011	r		499.2940615000007	1.6168829000016558	mrs ss		2	f	3		1.0
139	3109	21	Left Leg	IntensityRating		2025_Mar_04_1859	5.012519980002253	r		504.315321099999	1.7168667999976606	mrs ss		2	f	3		32.77777777777778
140	3109	23	Left Leg	DistractBinary		2025_Mar_04_1859	5.0067114800003765	r		509.34327829999893	1.2169814000008046	mrs ss		2	f	3		-1.0
141	3109	9	Left Leg	Post-Q-Jitter		2025_Mar_04_1859	4.995065539998905	r		514.3491581999988		mrs ss		2	f	3		
142	3109	51	Left Leg	Expectancy		2025_Mar_04_1859	5.008564999989176	r		520.7509380999982	3.250284299996565	mrs ss		2	f	3		36.60493827160494
143	3109	45	Left Leg	2-back Instruction		2025_Mar_04_1859	5.0142126200044	r		526.1231000000007		mrs ss		2	f	3		
144	3109	7	Left Leg	Pre-trial Jitter		2025_Mar_04_1859	9.002069940001093	r		531.1375388999986		mrs ss		2	f	3		
145	3109	44.0	Left Leg	pretrialfixation		2025_Mar_04_1859	1.0012271799969312	r		540.413061700001		mrs ss		2	f	3		
146	3109		Left Leg	2-back	1.0	2025_Mar_04_1859	1.9884562400038703	r		541.4194338000016		mrs ss	12.5	2	f	3	48.5	
147	3109		Left Leg	2-back	1.0	2025_Mar_04_1859	1.9866888400028984	r		543.4286809000005		mrs ss	25.0	2	f	3	48.5	
148	3109		Left Leg	2-back	1.0	2025_Mar_04_1859	1.9884117399997194	r	2	545.4278468000011	0.6305339999998978	mrs ss	37.5	2	f	3	48.5	
149	3109		Left Leg	2-back	1.0	2025_Mar_04_1859	1.9875498399997014	r	2	547.4282969000014	0.5805535999970743	mrs ss	50.0	2	f	3	48.5	
150	3109		Left Leg	2-back	1.0	2025_Mar_04_1859	1.988220340001135	r	0	549.4279723	0.48057019999760087	mrs ss	62.5	2	f	3	48.5	
151	3109		Left Leg	2-back	1.0	2025_Mar_04_1859	1.9881100400016294	r	2	551.4280733999985	0.6471934000001056	mrs ss	75.0	2	f	3	48.5	
152	3109		Left Leg	2-back	1.0	2025_Mar_04_1859	1.9876570400010678	r	2	553.4283093999984	0.7638852999989467	mrs ss	87.5	2	f	3	48.5	
153	3109		Left Leg	2-back	1.0	2025_Mar_04_1859	1.987505040000542	r	0	555.4284102999991	0.6305461000010837	mrs ss	100.0	2	f	3	48.5	
154	3109	48.0	Left Leg	ScoreReport		2025_Mar_04_1859	5.000839939999423	r		557.438442300001		mrs ss		2	f	3		
155	3109	8	Left Leg	Post-trial Jitter		2025_Mar_04_1859	7.003294260000985	r		562.495633999999		mrs ss		2	f	3		
156	3109	20	Left Leg	PainBinary		2025_Mar_04_1859	5.004311979999329	r		569.5118567999998	1.483653499999491	mrs ss		2	f	3		1.0
157	3109	21	Left Leg	IntensityRating		2025_Mar_04_1859	5.014488680000795	r		574.5318101000012	1.6863417999993544	mrs ss		2	f	3		29.444444444444446
158	3109	23	Left Leg	DistractBinary		2025_Mar_04_1859	5.00537477999751	r		579.5614298	1.2002880000000005	mrs ss		2	f	3		-1.0
159	3109	9	Left Leg	Post-Q-Jitter		2025_Mar_04_1859	6.994795639999211	r		584.5667977999983		mrs ss		2	f	3		
160	3109	51	Left Leg	Expectancy		2025_Mar_04_1859	5.0150929399969755	r		592.8985167999999	2.5501819999990403	mrs ss		2	f	3		36.97530864197531
161	3109	44	Left Leg	0-back Instruction		2025_Mar_04_1859	5.013907720000134	r		598.2740790999997		mrs ss		2	f	3		
162	3109	7	Left Leg	Pre-Trial Jitter		2025_Mar_04_1859	7.003574339996703	r		603.2876123999995		mrs ss		2	f	3		
163	3109	44.0	Left Leg	pretrialfixation		2025_Mar_04_1859	1.0052485199958028	r		610.5785384999981		mrs ss		2	f	3		
164	3109		Left Leg	0-back	1.0	2025_Mar_04_1859	1.9897196399979293	r	0.0	611.5863124999996	0.5301093999987643	mrs ss	12.5	2	f	3	48.5	
165	3109		Left Leg	0-back	1.0	2025_Mar_04_1859	1.9882539400023234	r	0.0	613.5953673000004	0.4638942000019597	mrs ss	25.0	2	f	3	48.5	
166	3109		Left Leg	0-back	1.0	2025_Mar_04_1859	1.9894426400023804	r	0.0	615.5948118999986	0.41386939999938477	mrs ss	37.5	2	f	3	48.5	
167	3109		Left Leg	0-back	1.0	2025_Mar_04_1859	1.9888262399981613	r	0.0	617.5951327000002	0.39666159999978845	mrs ss	50.0	2	f	3	48.5	
168	3109		Left Leg	0-back	1.0	2025_Mar_04_1859	1.9894360399994184	r	0.0	619.5948537000004	0.3471441000001505	mrs ss	62.5	2	f	3	48.5	
169	3109		Left Leg	0-back	1.0	2025_Mar_04_1859	1.9892176400026074	r	0.0	621.5949727000007	0.3005037999973865	mrs ss	75.0	2	f	3	48.5	
170	3109		Left Leg	0-back	1.0	2025_Mar_04_1859	1.989259440000751	r	0.0	623.5949800999988	0.34694369999851915	mrs ss	87.5	2	f	3	48.5	
171	3109		Left Leg	0-back	1.0	2025_Mar_04_1859	1.9891530399982003	r	0.0	625.5950687000004	0.33031059999848367	mrs ss	100.0	2	f	3	48.5	
172	3109	48.0	Left Leg	ScoreReport		2025_Mar_04_1859	5.005313639998349	r		627.6036901000007		mrs ss		2	f	3		
173	3109	8	Left Leg	Post-Trial Jitter		2025_Mar_04_1859	8.999121860000741	r		632.6652121000006		mrs ss		2	f	3		
174	3109	20	Left Leg	PainBinary		2025_Mar_04_1859	5.006594180002139	r		641.6782243000016	1.2503229000030842	mrs ss		2	f	3		1.0
175	3109	21	Left Leg	IntensityRating		2025_Mar_04_1859	5.010567579996859	r		646.7012796999988	1.6669057999970391	mrs ss		2	f	3		33.2716049382716
176	3109	23	Left Leg	DistractBinary		2025_Mar_04_1859	5.005675980002707	r		651.7287948999983	1.8502835999970557	mrs ss		2	f	3		-1.0
177	3109	9	Left Leg	Post-Q-Jitter		2025_Mar_04_1859	9.011892140002601	r		656.7340990000012		mrs ss		2	f	3		
178	3109	51	Left Leg	Expectancy		2025_Mar_04_1859	5.008243180000136	r		666.2693766999982	2.500288900002488	mrs ss		2	f	3		34.69135802469136
179	3109	44	Left Leg	0-back Instruction		2025_Mar_04_1859	5.014704619999975	r		671.6411617000012		mrs ss		2	f	3		
180	3109	7	Left Leg	Pre-Trial Jitter		2025_Mar_04_1859	5.000271140001132	r		676.6567270999985		mrs ss		2	f	3		
181	3109	44.0	Left Leg	pretrialfixation		2025_Mar_04_1859	0.9976995799988799	r		681.9331228999981		mrs ss		2	f	3		
182	3109		Left Leg	0-back	1.0	2025_Mar_04_1859	1.9908457399978943	r	0.0	682.9365450000005	0.6302738000013051	mrs ss	12.5	2	f	3	48.5	
183	3109		Left Leg	0-back	1.0	2025_Mar_04_1859	1.987604840000131	r	0.0	684.9465289	0.48442269999941345	mrs ss	25.0	2	f	3	48.5	
184	3109		Left Leg	0-back	1.0	2025_Mar_04_1859	1.9886268400005065	r	0.0	686.9460448999998	0.3803845000002184	mrs ss	37.5	2	f	3	48.5	
185	3109		Left Leg	0-back	1.0	2025_Mar_04_1859	1.9882878400021582	r	0.0	688.9462372000016	0.3638147999990906	mrs ss	50.0	2	f	3	48.5	
186	3109		Left Leg	0-back	1.0	2025_Mar_04_1859	1.9885580400004983	r	0.0	690.9461205000007	0.2972113999967405	mrs ss	62.5	2	f	3	48.5	
187	3109		Left Leg	0-back	1.0	2025_Mar_04_1859	1.988681139995606	r	0.0	692.9460820999993	0.38045730000158073	mrs ss	75.0	2	f	3	48.5	
188	3109		Left Leg	0-back	1.0	2025_Mar_04_1859	1.9885790400003316	r	0.0	694.9461598999987	0.3305720999996993	mrs ss	87.5	2	f	3	48.5	
189	3109		Left Leg	0-back	1.0	2025_Mar_04_1859	1.9883141399986926	r	0.0	696.9463099999994	0.3465895000008459	mrs ss	100.0	2	f	3	48.5	
190	3109	48.0	Left Leg	ScoreReport		2025_Mar_04_1859	5.002851239998563	r		698.9557408000001		mrs ss		2	f	3		
191	3109	8	Left Leg	Post-Trial Jitter		2025_Mar_04_1859	4.999549460000708	r		704.0158158000013		mrs ss		2	f	3		
192	3109	20	Left Leg	PainBinary		2025_Mar_04_1859	5.003375780001079	r		709.0306276999981	1.5003156999991916	mrs ss		2	f	3		1.0
193	3109	21	Left Leg	IntensityRating		2025_Mar_04_1859	5.012235679998412	r		714.0512467000008	2.0169451000001573	mrs ss		2	f	3		34.32098765432099
194	3109	23	Left Leg	DistractBinary		2025_Mar_04_1859	5.001465779998398	r		719.0816778000008	1.433638400001655	mrs ss		2	f	3		-1.0
195	3109	9	Left Leg	Post-Q-Jitter		2025_Mar_04_1859	5.009467140000197	r		724.0860582999994		mrs ss		2	f	3		
196	3109	26	Left Leg	ComfortRating		2025_Mar_04_1859	2.2967870800021046	r		729.1175108999996	2.2669054999969376	mrs ss		2	f	3		-12.46913580246914
197	3109	24	Left Leg	ValenceRating		2025_Mar_04_1859	1.925912579998112	r		731.436368300001	1.8865124999974796	mrs ss		2	f	3		33.76543209876544
198	3109	26	Left Leg	IntensityRating		2025_Mar_04_1859	1.9650413800009119	r		733.3834482999991	1.9507496999976865	mrs ss		2	f	3		39.93827160493827
199	3109	27	Left Leg	AvoidanceRating		2025_Mar_04_1859	1.875897679998161	r		735.3696875999995	1.8502058999984001	mrs ss		2	f	3		31.975308641975317
200	3109	28	Left Leg	RelaxationRating		2025_Mar_04_1859	2.8818926799976907	r		737.2667081	2.850277699999424	mrs ss		2	f	3		54.87654320987655
201	3109	29	Left Leg	AttentionRating		2025_Mar_04_1859	2.5631238799978746	r		740.1677979999986	2.5336112000004505	mrs ss		2	f	3		85.06172839506173
202	3109	30	Left Leg	BoredomRating		2025_Mar_04_1859	2.0839575799982413	r		742.7490799000007	2.0670014999996056	mrs ss		2	f	3		35.432098765432094
203	3109	31	Left Leg	AlertnessRating		2025_Mar_04_1859	1.783324680000078	r		744.8494151000014	1.7669897000014316	mrs ss		2	f	3		47.40740740740742
204	3109	32	Left Leg	PosThxRating		2025_Mar_04_1859	1.780030780002562	r		746.6510849000006	1.7502547000003688	mrs ss		2	f	3		57.16049382716051
205	3109	33	Left Leg	NegThxRating		2025_Mar_04_1859	3.346886679999443	r		748.4510182999984	3.3170400999988487	mrs ss		2	f	3		21.728395061728392
206	3109	34	Left Leg	SelfRating		2025_Mar_04_1859	2.312926080001489	r		751.8180329999996	2.26983829999881	mrs ss		2	f	3		48.765432098765416
207	3109	35	Left Leg	OtherRating		2025_Mar_04_1859	2.0476819800023804	r		754.1506843999996	2.0336960999993607	mrs ss		2	f	3		-46.04938271604938
208	3109	32	Left Leg	ImageryRating		2025_Mar_04_1859	1.6082534800007124	r		756.2204286999986	1.5836332999970182	mrs ss		2	f	3		59.62962962962962
209	3109	37	Left Leg	PresentRating		2025_Mar_04_1859	1.991321980000066	r		757.8539120999994	1.966932799998176	mrs ss		2	f	3		69.38271604938271
