	SID	biopac_channel	body_site	condition	correct	date	duration	handedness	mouseclick	onset	rt	scanner	score	session	sex	skin_site	temperature	value
0	3191	42	Chest	0-back Instruction		2025_Oct_23_1248	5.014166233944707	r		2.788946200045757		ts ss		3	m	3		
1	3191	7	Chest	Pre-Trial Jitter		2025_Oct_23_1248	9.015333159943111	r		7.804781100014225		ts ss		3	m	3		
2	3191	44.0	Chest	pretrialfixation		2025_Oct_23_1248	1.0082649100804701	r		17.075044900062494		ts ss		3	m	3		
3	3191		Chest	0-back	1.0	2025_Oct_23_1248	1.9841882300097495	r	0.0	18.08710740006063	0.5969098000787199	ts ss	12.5	3	m	3	32.0	
4	3191		Chest	0-back	0.0	2025_Oct_23_1248	1.9884234300116077	r		20.09334400005173		ts ss	12.5	3	m	3	32.0	
5	3191		Chest	0-back	1.0	2025_Oct_23_1248	1.9885466300183907	r	0	22.093307300005108	0.38005700008943677	ts ss	25.0	3	m	3	32.0	
6	3191		Chest	0-back	1.0	2025_Oct_23_1248	1.9878057300811633	r	0	24.09371090005152	0.36371459998190403	ts ss	37.5	3	m	3	32.0	
7	3191		Chest	0-back	1.0	2025_Oct_23_1248	1.987998130149208	r	0	26.09363040002063	0.3637517000315711	ts ss	50.0	3	m	3	32.0	
8	3191		Chest	0-back	1.0	2025_Oct_23_1248	1.9875382300233468	r	0	28.0939138000831	0.330468500033021	ts ss	62.5	3	m	3	32.0	
9	3191		Chest	0-back	1.0	2025_Oct_23_1248	1.9880365299759433	r	0	30.093650400056504	0.3136403999524191	ts ss	75.0	3	m	3	32.0	
10	3191		Chest	0-back	1.0	2025_Oct_23_1248	1.9872667299350724	r	0	32.094072900014	0.28026339993812144	ts ss	87.5	3	m	3	32.0	
11	3191	48.0	Chest	ScoreReport		2025_Oct_23_1248	5.009385960060172	r		34.10805929999333		ts ss		3	m	3		
12	3191	8	Chest	Post-Trial Jitter		2025_Oct_23_1248	9.008529620012268	r		39.166912500048056		ts ss		3	m	3		
13	3191	42	Chest	0-back Instruction		2025_Oct_23_1248	5.01042885996867	r		48.19935730006546		ts ss		3	m	3		
14	3191	7	Chest	Pre-Trial Jitter		2025_Oct_23_1248	5.005067629972473	r		53.2187596000731		ts ss		3	m	3		
15	3191	44.0	Chest	pretrialfixation		2025_Oct_23_1248	1.015095280134119	r		58.47212930000387		ts ss		3	m	3		
16	3191		Chest	0-back	1.0	2025_Oct_23_1248	1.9887157301418483	r	0.0	59.48534210002981	0.4801161999348551	ts ss	12.5	3	m	3	32.0	
17	3191		Chest	0-back	1.0	2025_Oct_23_1248	1.9880692301085219	r	0.0	61.49401760008186	0.3305853999918327	ts ss	25.0	3	m	3	32.0	
18	3191		Chest	0-back	1.0	2025_Oct_23_1248	1.988848030101508	r	0.0	63.49364770005923	0.3305731000145897	ts ss	37.5	3	m	3	32.0	
19	3191		Chest	0-back	1.0	2025_Oct_23_1248	1.98948043002747	r	0.0	65.49336570000742	0.3304860000498593	ts ss	50.0	3	m	3	32.0	
20	3191		Chest	0-back	1.0	2025_Oct_23_1248	1.988695429987274	r	0.0	67.49376260000281	0.38021069997921586	ts ss	62.5	3	m	3	32.0	
21	3191		Chest	0-back	1.0	2025_Oct_23_1248	1.989087330061011	r	0.0	69.49360190005973	0.44708269997499883	ts ss	75.0	3	m	3	32.0	
22	3191		Chest	0-back	1.0	2025_Oct_23_1248	1.9886677300091833	r	0.0	71.4938418000238	0.347095699980855	ts ss	87.5	3	m	3	32.0	
23	3191		Chest	0-back	1.0	2025_Oct_23_1248	1.9885639300337061	r	0.0	73.49391950003337	0.3302970000077039	ts ss	100.0	3	m	3	32.0	
24	3191	48.0	Chest	ScoreReport		2025_Oct_23_1248	5.004308930132538	r		75.50273200008087		ts ss		3	m	3		
25	3191	8	Chest	Post-Trial Jitter		2025_Oct_23_1248	5.0055739199742675	r		80.56049200007692		ts ss		3	m	3		
26	3191	51	Chest	Expectancy		2025_Oct_23_1248	5.010294070118107	r		85.85822900000494	2.633676099940203	ts ss		3	m	3		41.23456790123456
27	3191	44	Chest	0-back Instruction		2025_Oct_23_1248	5.006081890314817	r		91.22707120003179		ts ss		3	m	3		
28	3191	7	Chest	Pre-Trial Jitter		2025_Oct_23_1248	9.002549930009991	r		96.2372438000748		ts ss		3	m	3		
29	3191	44.0	Chest	pretrialfixation		2025_Oct_23_1248	0.998273610137403	r		105.51443860004656		ts ss		3	m	3		
30	3191		Chest	0-back	1.0	2025_Oct_23_1248	1.9905430300859734	r	0.0	106.51831350009888	0.49694830004591495	ts ss	12.5	3	m	3	48.5	
31	3191		Chest	0-back	1.0	2025_Oct_23_1248	1.9884694300126284	r	0.0	108.5277189000044	0.2638853000244126	ts ss	25.0	3	m	3	48.5	
32	3191		Chest	0-back	1.0	2025_Oct_23_1248	1.989071230054833	r	0.0	110.52744189999066	0.2471091999905184	ts ss	37.5	3	m	3	48.5	
33	3191		Chest	0-back	1.0	2025_Oct_23_1248	1.9892353300238028	r	0.0	112.52737340005115	0.26382970006670803	ts ss	50.0	3	m	3	48.5	
34	3191		Chest	0-back	1.0	2025_Oct_23_1248	1.9891672300873324	r	0.0	114.52747190010268	0.29653929988853633	ts ss	62.5	3	m	3	48.5	
35	3191		Chest	0-back	1.0	2025_Oct_23_1248	1.9889327301643789	r	0.0	116.5275743000675	0.3136794000165537	ts ss	75.0	3	m	3	48.5	
36	3191		Chest	0-back	1.0	2025_Oct_23_1248	1.9890199300134555	r	0.0	118.52755320002325	0.2972492999397218	ts ss	87.5	3	m	3	48.5	
37	3191		Chest	0-back	1.0	2025_Oct_23_1248	1.9893535301089287	r	0.0	120.52741300000343	0.2972654999466613	ts ss	100.0	3	m	3	48.5	
38	3191	48.0	Chest	ScoreReport		2025_Oct_23_1248	5.005155430175364	r		122.53622570005246		ts ss		3	m	3		
39	3191	8	Chest	Post-Trial Jitter		2025_Oct_23_1248	4.9989411199931055	r		127.59772810002323		ts ss		3	m	3		
40	3191	20	Chest	PainBinary		2025_Oct_23_1248	5.001322160009295	r		132.6132590000052	1.066989399958402	ts ss		3	m	3		1.0
41	3191	21	Chest	IntensityRating		2025_Oct_23_1248	5.012342859990895	r		137.63279560010415	2.566992200096138	ts ss		3	m	3		47.46913580246914
42	3191	23	Chest	DistractBinary		2025_Oct_23_1248	5.008047559997067	r		142.66001510003116	1.4334360000211746	ts ss		3	m	3		1.0
43	3191	9	Chest	Post-Q-Jitter		2025_Oct_23_1248	5.010946830036119	r		147.66695240000263		ts ss		3	m	3		
44	3191	51	Chest	Expectancy		2025_Oct_23_1248	5.000445280224085	r		152.9389671999961	3.583701799972914	ts ss		3	m	3		41.111111111111114
45	3191	44	Chest	0-back Instruction		2025_Oct_23_1248	5.013037490076385	r		158.31604470009916		ts ss		3	m	3		
46	3191	7	Chest	Pre-Trial Jitter		2025_Oct_23_1248	9.003876629984006	r		163.33736080001108		ts ss		3	m	3		
47	3191	44.0	Chest	pretrialfixation		2025_Oct_23_1248	1.0085759701905772	r		172.6434190000873		ts ss		3	m	3		
48	3191		Chest	0-back	1.0	2025_Oct_23_1248	1.9904577300185338	r	0.0	173.6524599000113	0.4802532000467181	ts ss	12.5	3	m	3	48.5	
49	3191		Chest	0-back	1.0	2025_Oct_23_1248	1.9883393300697207	r	0.0	175.6619185000891	0.23045739997178316	ts ss	25.0	3	m	3	48.5	
50	3191		Chest	0-back	1.0	2025_Oct_23_1248	1.989403530023992	r	0.0	177.66140760004055	0.29701980005484074	ts ss	37.5	3	m	3	48.5	
51	3191		Chest	0-back	1.0	2025_Oct_23_1248	1.989201530115679	r	0.0	179.66153430007398	0.21373179997317493	ts ss	50.0	3	m	3	48.5	
52	3191		Chest	0-back	1.0	2025_Oct_23_1248	1.9892330301227048	r	0.0	181.66154970007483	0.2969531000126153	ts ss	62.5	3	m	3	48.5	
53	3191		Chest	0-back	1.0	2025_Oct_23_1248	1.9885952300392091	r	0.0	183.66188320005313	0.28009999997448176	ts ss	75.0	3	m	3	48.5	
54	3191		Chest	0-back	1.0	2025_Oct_23_1248	1.9894161301199347	r	0.0	185.6614970000228	0.33040099998470396	ts ss	87.5	3	m	3	48.5	
55	3191		Chest	0-back	1.0	2025_Oct_23_1248	1.989277429995127	r	0.0	187.6615953000728	0.3470613999525085	ts ss	100.0	3	m	3	48.5	
56	3191	48.0	Chest	ScoreReport		2025_Oct_23_1248	5.004857029998675	r		189.67046970000956		ts ss		3	m	3		
57	3191	8	Chest	Post-Trial Jitter		2025_Oct_23_1248	5.006160519900732	r		194.73656210000627		ts ss		3	m	3		
58	3191	20	Chest	PainBinary		2025_Oct_23_1248	5.0072562599089	r		199.76112470007502	1.3170870000030845	ts ss		3	m	3		1.0
59	3191	21	Chest	IntensityRating		2025_Oct_23_1248	4.999430559924804	r		204.78173859999515	1.634094399982132	ts ss		3	m	3		39.32098765432099
60	3191	23	Chest	DistractBinary		2025_Oct_23_1248	5.008374159922823	r		209.79398670000955	1.950111799989827	ts ss		3	m	3		-1.0
61	3191	9	Chest	Post-Q-Jitter		2025_Oct_23_1248	5.01101393008139	r		214.80105300003197		ts ss		3	m	3		
62	3191	51	Chest	Expectancy		2025_Oct_23_1248	5.009185910457745	r		220.9103902000934	1.9854999999515712	ts ss		3	m	3		41.111111111111114
63	3191	45	Chest	2-back Instruction		2025_Oct_23_1248	5.003808290231973	r		226.27980550006032		ts ss		3	m	3		
64	3191	7	Chest	Pre-trial Jitter		2025_Oct_23_1248	9.003595530055463	r		231.28833150002174		ts ss		3	m	3		
65	3191	44.0	Chest	pretrialfixation		2025_Oct_23_1248	1.004680110141635	r		240.5628581000492		ts ss		3	m	3		
66	3191		Chest	2-back	1.0	2025_Oct_23_1248	1.9894159301184118	r		241.57050960010383		ts ss	12.5	3	m	3	48.5	
67	3191		Chest	2-back	1.0	2025_Oct_23_1248	1.987624530098401	r		243.57974790001754		ts ss	25.0	3	m	3	48.5	
68	3191		Chest	2-back	1.0	2025_Oct_23_1248	1.988445130060427	r	0	245.57937910000328	0.6008639999199659	ts ss	37.5	3	m	3	48.5	
69	3191		Chest	2-back	1.0	2025_Oct_23_1248	1.9880866300081834	r	2	247.5795785000082	0.5970655999844894	ts ss	50.0	3	m	3	48.5	
70	3191		Chest	2-back	1.0	2025_Oct_23_1248	1.9879491300089285	r	2	249.57967340003233	0.6304351000580937	ts ss	62.5	3	m	3	48.5	
71	3191		Chest	2-back	1.0	2025_Oct_23_1248	1.9881501300260425	r	2	251.57959630002733	0.5137049000477418	ts ss	75.0	3	m	3	48.5	
72	3191		Chest	2-back	1.0	2025_Oct_23_1248	1.9879422300728038	r	2	253.57969969999976	0.6803645000327379	ts ss	87.5	3	m	3	48.5	
73	3191		Chest	2-back	1.0	2025_Oct_23_1248	1.9878644299460575	r	2	255.5797995000612	0.6970766000449657	ts ss	100.0	3	m	3	48.5	
74	3191	48.0	Chest	ScoreReport		2025_Oct_23_1248	5.002469930099323	r		257.58919040008914		ts ss		3	m	3		
75	3191	8	Chest	Post-trial Jitter		2025_Oct_23_1248	6.997996020014398	r		262.6498382000718		ts ss		3	m	3		
76	3191	20	Chest	PainBinary		2025_Oct_23_1248	5.007889659958892	r		269.6616432000883	1.1001063999719918	ts ss		3	m	3		1.0
77	3191	21	Chest	IntensityRating		2025_Oct_23_1248	4.999969559954479	r		274.6823169999989	2.783648000098765	ts ss		3	m	3		35.80246913580247
78	3191	23	Chest	DistractBinary		2025_Oct_23_1248	5.0061468600761145	r		279.69596130005084		ts ss		3	m	3		1.0
79	3191	9	Chest	Post-Q-Jitter		2025_Oct_23_1248	6.9951460300944746	r		284.70146720006596		ts ss		3	m	3		
80	3191	51	Chest	Expectancy		2025_Oct_23_1248	5.001781140570529	r		292.81496270000935	2.3006816999986768	ts ss		3	m	3		40.555555555555564
81	3191	45	Chest	2-back Instruction		2025_Oct_23_1248	5.006275920197368	r		298.19612840004265		ts ss		3	m	3		
82	3191	7	Chest	Pre-trial Jitter		2025_Oct_23_1248	7.002134830108844	r		303.2065897000721		ts ss		3	m	3		
83	3191	44.0	Chest	pretrialfixation		2025_Oct_23_1248	1.015038140118122	r		310.49183980003		ts ss		3	m	3		
84	3191		Chest	2-back	1.0	2025_Oct_23_1248	1.989619230153039	r		311.50455940002576		ts ss	12.5	3	m	3	48.5	
85	3191		Chest	2-back	1.0	2025_Oct_23_1248	1.9875932299764827	r		313.51394420000724		ts ss	25.0	3	m	3	48.5	
86	3191		Chest	2-back	1.0	2025_Oct_23_1248	1.9879122299607843	r	0	315.5138137000613	0.41770530003122985	ts ss	37.5	3	m	3	48.5	
87	3191		Chest	2-back	1.0	2025_Oct_23_1248	1.9872949300333858	r	2	317.51414059998933	0.5136826999951154	ts ss	50.0	3	m	3	48.5	
88	3191		Chest	2-back	1.0	2025_Oct_23_1248	1.9879730300744995	r	2	319.51383220008574	0.5638381999451667	ts ss	62.5	3	m	3	48.5	
89	3191		Chest	2-back	1.0	2025_Oct_23_1248	1.9869279300328344	r	2	321.51438150007743	0.4637754999566823	ts ss	75.0	3	m	3	48.5	
90	3191		Chest	2-back	1.0	2025_Oct_23_1248	1.98794473009184	r	0	323.51390570006333	0.5971831000642851	ts ss	87.5	3	m	3	48.5	
91	3191		Chest	2-back	1.0	2025_Oct_23_1248	1.9874024301534519	r	2	325.51419620006345	0.5636494999052957	ts ss	100.0	3	m	3	48.5	
92	3191	48.0	Chest	ScoreReport		2025_Oct_23_1248	5.0018003300065175	r		327.5236966999946		ts ss		3	m	3		
93	3191	8	Chest	Post-trial Jitter		2025_Oct_23_1248	7.000051520066336	r		332.58284170005936		ts ss		3	m	3		
94	3191	20	Chest	PainBinary		2025_Oct_23_1248	5.005928859929554	r		339.5966072001029	1.250367800006643	ts ss		3	m	3		1.0
95	3191	21	Chest	IntensityRating		2025_Oct_23_1248	5.01410385989584	r		344.6177560000215	3.7501015999587253	ts ss		3	m	3		38.641975308641975
96	3191	23	Chest	DistractBinary		2025_Oct_23_1248	5.006295460043475	r		349.64672750001773	3.2003414999926463	ts ss		3	m	3		-1.0
97	3191	9	Chest	Post-Q-Jitter		2025_Oct_23_1248	6.995691330055706	r		354.6520967000397		ts ss		3	m	3		
98	3191	43	Chest	2-back Instruction		2025_Oct_23_1248	5.008962859981693	r		361.67054190009367		ts ss		3	m	3		
99	3191	7	Chest	Pre-trial Jitter		2025_Oct_23_1248	7.002490030135959	r		366.69051480002236		ts ss		3	m	3		
100	3191	44.0	Chest	pretrialfixation		2025_Oct_23_1248	1.0081246501067653	r		373.9377701000776		ts ss		3	m	3		
101	3191		Chest	2-back	1.0	2025_Oct_23_1248	1.991264329990372	r		374.95454629999585		ts ss	12.5	3	m	3	32.0	
102	3191		Chest	2-back	1.0	2025_Oct_23_1248	1.9872668301686645	r		376.9648546000244		ts ss	25.0	3	m	3	32.0	
103	3191		Chest	2-back	1.0	2025_Oct_23_1248	1.9876341300550848	r	2	378.96474200009834	0.5803827999625355	ts ss	37.5	3	m	3	32.0	
104	3191		Chest	2-back	1.0	2025_Oct_23_1248	1.9878165299305692	r	0	380.9646697000135	0.6134898000163957	ts ss	50.0	3	m	3	32.0	
105	3191		Chest	2-back	1.0	2025_Oct_23_1248	1.9873910299502313	r	2	382.9649106001016	0.6137111000716686	ts ss	62.5	3	m	3	32.0	
106	3191		Chest	2-back	1.0	2025_Oct_23_1248	1.987909430055879	r	2	384.9646681000013	0.6804455000674352	ts ss	75.0	3	m	3	32.0	
107	3191		Chest	2-back	1.0	2025_Oct_23_1248	1.9877019299892709	r	2	386.9647985000629	0.5635881000198424	ts ss	87.5	3	m	3	32.0	
108	3191		Chest	2-back	1.0	2025_Oct_23_1248	1.9879688300425187	r	0	388.9646898000501	0.5969529000576586	ts ss	100.0	3	m	3	32.0	
109	3191	48.0	Chest	ScoreReport		2025_Oct_23_1248	5.0012524301419035	r		390.97474980005063		ts ss		3	m	3		
110	3191	8	Chest	Post-trial Jitter		2025_Oct_23_1248	8.995706620044075	r		396.03594160010107		ts ss		3	m	3		
111	3191	43	Chest	2-back Instruction		2025_Oct_23_1248	5.010237859911285	r		405.05377820006106		ts ss		3	m	3		
112	3191	7	Chest	Pre-trial Jitter		2025_Oct_23_1248	5.003532930044457	r		410.0738440999994		ts ss		3	m	3		
113	3191	44.0	Chest	pretrialfixation		2025_Oct_23_1248	1.004589750082232	r		415.3233668000903		ts ss		3	m	3		
114	3191		Chest	2-back	1.0	2025_Oct_23_1248	1.991320929955691	r		416.3383545000106		ts ss	12.5	3	m	3	32.0	
115	3191		Chest	2-back	1.0	2025_Oct_23_1248	1.9867329300614074	r		418.34896190010477		ts ss	25.0	3	m	3	32.0	
116	3191		Chest	2-back	1.0	2025_Oct_23_1248	1.987977429991588	r	2	420.3483841000125	0.6137967999093235	ts ss	37.5	3	m	3	32.0	
117	3191		Chest	2-back	1.0	2025_Oct_23_1248	1.9873266299255192	r	2	422.3487515000161	0.6638179000001401	ts ss	50.0	3	m	3	32.0	
118	3191		Chest	2-back	1.0	2025_Oct_23_1248	1.987762030097656	r	0	424.3485567000462	0.5638931000139564	ts ss	62.5	3	m	3	32.0	
119	3191		Chest	2-back	1.0	2025_Oct_23_1248	1.987570830155164	r	2	426.3486827000743	0.9299675999209285	ts ss	75.0	3	m	3	32.0	
120	3191		Chest	2-back	1.0	2025_Oct_23_1248	1.9877264300594106	r	2	428.34862559998874	0.663704099948518	ts ss	87.5	3	m	3	32.0	
121	3191		Chest	2-back	1.0	2025_Oct_23_1248	1.987606230075471	r	0	430.348713500076	0.5305605999892578	ts ss	100.0	3	m	3	32.0	
122	3191	48.0	Chest	ScoreReport		2025_Oct_23_1248	5.0008513301145285	r		432.35880340007134		ts ss		3	m	3		
123	3191	8	Chest	Post-trial Jitter		2025_Oct_23_1248	5.004548919969238	r		437.4153349000262		ts ss		3	m	3		
124	3191	51	Chest	Expectancy		2025_Oct_23_1248	5.001705250586383	r		443.4918460000772	2.5000008000060916	ts ss		3	m	3		42.65432098765432
125	3191	44	Chest	0-back Instruction		2025_Oct_23_1248	5.011569420108572	r		448.878640800016		ts ss		3	m	3		
126	3191	7	Chest	Pre-Trial Jitter		2025_Oct_23_1248	9.001933030085638	r		453.8918697000481		ts ss		3	m	3		
127	3191	44.0	Chest	pretrialfixation		2025_Oct_23_1248	1.0130035100737587	r		463.1614248000551		ts ss		3	m	3		
128	3191		Chest	0-back	1.0	2025_Oct_23_1248	1.9903789300005883	r	0.0	464.1727541000582	1.063488099956885	ts ss	12.5	3	m	3	48.5	
129	3191		Chest	0-back	1.0	2025_Oct_23_1248	1.9883037301478907	r	0.0	466.18214580009226	0.41356740007176995	ts ss	25.0	3	m	3	48.5	
130	3191		Chest	0-back	1.0	2025_Oct_23_1248	1.9889812300680205	r	0.0	468.18183220003266	0.3136731000849977	ts ss	37.5	3	m	3	48.5	
131	3191		Chest	0-back	1.0	2025_Oct_23_1248	1.9894444301025942	r	0.0	470.18162190006115	0.4302388000069186	ts ss	50.0	3	m	3	48.5	
132	3191		Chest	0-back	1.0	2025_Oct_23_1248	1.9887554299784824	r	0.0	472.18197740009055	0.3304333999985829	ts ss	62.5	3	m	3	48.5	
133	3191		Chest	0-back	1.0	2025_Oct_23_1248	1.9895319300703704	r	0.0	474.18162960000336	0.29696700000204146	ts ss	75.0	3	m	3	48.5	
134	3191		Chest	0-back	1.0	2025_Oct_23_1248	1.9891916300402954	r	0.0	476.1818213000661	0.397063700016588	ts ss	87.5	3	m	3	48.5	
135	3191		Chest	0-back	1.0	2025_Oct_23_1248	1.9893521300982684	r	0.0	478.18177190003917	0.34700369997881353	ts ss	100.0	3	m	3	48.5	
136	3191	48.0	Chest	ScoreReport		2025_Oct_23_1248	5.004380430094898	r		480.1909527000971		ts ss		3	m	3		
137	3191	8	Chest	Post-Trial Jitter		2025_Oct_23_1248	7.004586319904774	r		485.25758289999794		ts ss		3	m	3		
138	3191	20	Chest	PainBinary		2025_Oct_23_1248	5.005858159973286	r		492.2820311000105	1.0503207999281585	ts ss		3	m	3		1.0
139	3191	21	Chest	IntensityRating		2025_Oct_23_1248	5.0144546600058675	r		497.30279139999766	1.5168388000456616	ts ss		3	m	3		37.160493827160494
140	3191	23	Chest	DistractBinary		2025_Oct_23_1248	5.006988259963691	r		502.33157580008265	2.4504416999407113	ts ss		3	m	3		-1.0
141	3191	9	Chest	Post-Q-Jitter		2025_Oct_23_1248	6.9953088300535455	r		507.3374524000101		ts ss		3	m	3		
142	3191	51	Chest	Expectancy		2025_Oct_23_1248	5.013925040489994	r		515.4449170000153	2.866863499977626	ts ss		3	m	3		41.23456790123456
143	3191	44	Chest	0-back Instruction		2025_Oct_23_1248	5.011888590292074	r		520.821045699995		ts ss		3	m	3		
144	3191	7	Chest	Pre-Trial Jitter		2025_Oct_23_1248	7.002828730037436	r		525.8423026000382		ts ss		3	m	3		
145	3191	44.0	Chest	pretrialfixation		2025_Oct_23_1248	1.0013102401280776	r		533.1431026000064		ts ss		3	m	3		
146	3191		Chest	0-back	1.0	2025_Oct_23_1248	1.9888698300346732	r	0.0	534.1576861999929	0.5302546999882907	ts ss	12.5	3	m	3	48.5	
147	3191		Chest	0-back	1.0	2025_Oct_23_1248	1.988088530022651	r	0.0	536.1664343000157	0.5305225999327376	ts ss	25.0	3	m	3	48.5	
148	3191		Chest	0-back	1.0	2025_Oct_23_1248	1.9886451300699264	r	0.0	538.1661800000584	0.29681920004077256	ts ss	37.5	3	m	3	48.5	
149	3191		Chest	0-back	1.0	2025_Oct_23_1248	1.988796430057846	r	0.0	540.1661252999911	0.2802582000149414	ts ss	50.0	3	m	3	48.5	
150	3191		Chest	0-back	1.0	2025_Oct_23_1248	1.988860229961574	r	0.0	542.1661174000474	0.3137861000141129	ts ss	62.5	3	m	3	48.5	
151	3191		Chest	0-back	1.0	2025_Oct_23_1248	1.9888168300967664	r	0.0	544.1661777000409	0.413843399961479	ts ss	75.0	3	m	3	48.5	
152	3191		Chest	0-back	1.0	2025_Oct_23_1248	1.9887614301405847	r	0.0	546.166222400032	0.2805135000962764	ts ss	87.5	3	m	3	48.5	
153	3191		Chest	0-back	1.0	2025_Oct_23_1248	1.989068730152212	r	0.0	548.1660887000617	0.3805327001027763	ts ss	100.0	3	m	3	48.5	
154	3191	48.0	Chest	ScoreReport		2025_Oct_23_1248	5.004054030054249	r		550.1753158000065		ts ss		3	m	3		
155	3191	8	Chest	Post-Trial Jitter		2025_Oct_23_1248	9.005114419967867	r		555.2415321000153		ts ss		3	m	3		
156	3191	20	Chest	PainBinary		2025_Oct_23_1248	5.006991859991103	r		564.2656843001023	2.4669829999329522	ts ss		3	m	3		1.0
157	3191	21	Chest	IntensityRating		2025_Oct_23_1248	4.999762860010378	r		569.2860335001023	1.9503821999533102	ts ss		3	m	3		33.95061728395062
158	3191	23	Chest	DistractBinary		2025_Oct_23_1248	5.006424459978007	r		574.299442699994	1.3669841999653727	ts ss		3	m	3		-1.0
159	3191	9	Chest	Post-Q-Jitter		2025_Oct_23_1248	9.010603730101138	r		579.305759800016		ts ss		3	m	3		
160	3191	51	Chest	Expectancy		2025_Oct_23_1248	5.001458210172132	r		588.5854251000565	2.8170934999361634	ts ss		3	m	3		40.80246913580247
161	3191	45	Chest	2-back Instruction		2025_Oct_23_1248	5.009785990230739	r		593.9563278000569		ts ss		3	m	3		
162	3191	7	Chest	Pre-trial Jitter		2025_Oct_23_1248	5.003327430109493	r		598.9762833000859		ts ss		3	m	3		
163	3191	44.0	Chest	pretrialfixation		2025_Oct_23_1248	0.9967566700652242	r		604.287948000012		ts ss		3	m	3		
164	3191		Chest	2-back	1.0	2025_Oct_23_1248	1.9912514300085604	r		605.2907151000109		ts ss	12.5	3	m	3	48.5	
165	3191		Chest	2-back	1.0	2025_Oct_23_1248	1.9876470300368965	r		607.3008794999914		ts ss	25.0	3	m	3	48.5	
166	3191		Chest	2-back	1.0	2025_Oct_23_1248	1.9885488300351426	r	0	609.3004402000224	0.48032239999156445	ts ss	37.5	3	m	3	48.5	
167	3191		Chest	2-back	1.0	2025_Oct_23_1248	1.9881347300251946	r	2	611.3006764000747	0.547131200088188	ts ss	50.0	3	m	3	48.5	
168	3191		Chest	2-back	1.0	2025_Oct_23_1248	1.987814130145125	r	2	613.3008891000645	0.5304704000009224	ts ss	62.5	3	m	3	48.5	
169	3191		Chest	2-back	1.0	2025_Oct_23_1248	1.988199430052191	r	2	615.3006940000923	0.6804315000772476	ts ss	75.0	3	m	3	48.5	
170	3191		Chest	2-back	1.0	2025_Oct_23_1248	1.9878438300220296	r	2	617.3008985000197	0.6303388000233099	ts ss	87.5	3	m	3	48.5	
171	3191		Chest	2-back	1.0	2025_Oct_23_1248	1.987632630043663	r	2	619.3010402000509	0.8803097000345588	ts ss	100.0	3	m	3	48.5	
172	3191	48.0	Chest	ScoreReport		2025_Oct_23_1248	5.001812129979953	r		621.3106402000412		ts ss		3	m	3		
173	3191	8	Chest	Post-trial Jitter		2025_Oct_23_1248	5.006959119928069	r		626.3747958000749		ts ss		3	m	3		
174	3191	20	Chest	PainBinary		2025_Oct_23_1248	5.005197159945965	r		631.4007632000139	4.6168886999366805	ts ss		3	m	3		1.0
175	3191	21	Chest	IntensityRating		2025_Oct_23_1248	4.999650560086593	r		636.420258600032	1.9674970000050962	ts ss		3	m	3		29.506172839506174
176	3191	23	Chest	DistractBinary		2025_Oct_23_1248	5.0077764600282535	r		641.4329044000478	2.3667738999938592	ts ss		3	m	3		-1.0
177	3191	9	Chest	Post-Q-Jitter		2025_Oct_23_1248	5.010455030016601	r		646.4399635000154		ts ss		3	m	3		
178	3191	51	Chest	Expectancy		2025_Oct_23_1248	5.014538310118951	r		651.7129928000504	2.3003802000312135	ts ss		3	m	3		41.2962962962963
179	3191	45	Chest	2-back Instruction		2025_Oct_23_1248	5.015684990212321	r		657.0874767000787		ts ss		3	m	3		
180	3191	7	Chest	Pre-trial Jitter		2025_Oct_23_1248	9.002152930013835	r		662.1109819000121		ts ss		3	m	3		
181	3191	44.0	Chest	pretrialfixation		2025_Oct_23_1248	0.9970000700559467	r		671.4219778000843		ts ss		3	m	3		
182	3191		Chest	2-back	1.0	2025_Oct_23_1248	1.9915521300863475	r		672.4247523000231		ts ss	12.5	3	m	3	48.5	
183	3191		Chest	2-back	1.0	2025_Oct_23_1248	1.9863593301270157	r		674.4357610000297		ts ss	25.0	3	m	3	48.5	
184	3191		Chest	2-back	1.0	2025_Oct_23_1248	1.9838078300235793	r	2	676.4370539000956	0.7457954999990761	ts ss	37.5	3	m	3	48.5	
185	3191		Chest	2-back	1.0	2025_Oct_23_1248	1.987470030086115	r	2	678.4351712000789	0.6469912000466138	ts ss	50.0	3	m	3	48.5	
186	3191		Chest	2-back	1.0	2025_Oct_23_1248	1.9879951300099492	r	0	680.4349342000205	0.4971252999966964	ts ss	62.5	3	m	3	48.5	
187	3191		Chest	2-back	1.0	2025_Oct_23_1248	1.9879461301025003	r	2	682.4349781000055	0.6304583000019193	ts ss	75.0	3	m	3	48.5	
188	3191		Chest	2-back	1.0	2025_Oct_23_1248	1.987868030089885	r	0	684.4350511000957	0.4804473000112921	ts ss	87.5	3	m	3	48.5	
189	3191		Chest	2-back	1.0	2025_Oct_23_1248	1.9879281300818548	r	2	686.4350529999938	0.547091200016439	ts ss	100.0	3	m	3	48.5	
190	3191	48.0	Chest	ScoreReport		2025_Oct_23_1248	5.001576829934493	r		688.4449281000998		ts ss		3	m	3		
191	3191	8	Chest	Post-trial Jitter		2025_Oct_23_1248	5.008524919860065	r		693.5081892000744		ts ss		3	m	3		
192	3191	20	Chest	PainBinary		2025_Oct_23_1248	5.0059551600134	r		698.5345563000301	4.350281499908306	ts ss		3	m	3		1.0
193	3191	21	Chest	IntensityRating		2025_Oct_23_1248	5.012150660040788	r		703.5565591000486		ts ss		3	m	3		28.271604938271604
194	3191	23	Chest	DistractBinary		2025_Oct_23_1248	5.006639560102485	r		708.5843152001034	1.3670162999769673	ts ss		3	m	3		-1.0
195	3191	9	Chest	Post-Q-Jitter		2025_Oct_23_1248	5.010112830088474	r		713.5909769000718		ts ss		3	m	3		
196	3191	26	Chest	ComfortRating		2025_Oct_23_1248	5.877649459987879	r		718.624004600104	5.850384499994107	ts ss		3	m	3		26.419753086419746
197	3191	24	Chest	ValenceRating		2025_Oct_23_1248	3.2420691599836573	r		724.5251743000699	3.216860300046392	ts ss		3	m	3		41.97530864197531
198	3191	26	Chest	IntensityRating		2025_Oct_23_1248	3.6963535599643365	r		727.7897425000556	3.667009099968709	ts ss		3	m	3		35.74074074074074
199	3191	27	Chest	AvoidanceRating		2025_Oct_23_1248	2.191135159926489	r		731.5090479000937	2.1526663000695407	ts ss		3	m	3		9.753086419753103
200	3191	28	Chest	RelaxationRating		2025_Oct_23_1248	3.369438159978017	r		733.719939700095	3.3503872000146657	ts ss		3	m	3		100.0
201	3191	29	Chest	AttentionRating		2025_Oct_23_1248	3.4273231599945575	r		737.1077124000294	3.4001687000272796	ts ss		3	m	3		66.72839506172839
202	3191	30	Chest	BoredomRating		2025_Oct_23_1248	3.0364466599421576	r		740.5531762000173	3.0170184000162408	ts ss		3	m	3		75.8641975308642
203	3191	31	Chest	AlertnessRating		2025_Oct_23_1248	4.118991660070606	r		743.6036032000557	4.100391800049692	ts ss		3	m	3		-100.0
204	3191	32	Chest	PosThxRating		2025_Oct_23_1248	2.947075859992765	r		747.7396184999961	2.916898599942215	ts ss		3	m	3		19.135802469135797
205	3191	33	Chest	NegThxRating		2025_Oct_23_1248	2.912668460048735	r		750.7068643000675	2.8691548999631777	ts ss		3	m	3		-45.80246913580247
206	3191	34	Chest	SelfRating		2025_Oct_23_1248	2.39672595995944	r		753.6398615000071	2.366969299968332	ts ss		3	m	3		100.0
207	3191	35	Chest	OtherRating		2025_Oct_23_1248	1.9513453600229695	r		756.0542490000371	1.9331052999477834	ts ss		3	m	3		-73.70370370370371
208	3191	32	Chest	ImageryRating		2025_Oct_23_1248	4.947207860066555	r		758.0230308000464	4.916863000020385	ts ss		3	m	3		-51.48148148148148
209	3191	37	Chest	PresentRating		2025_Oct_23_1248	7.075657060020603	r		762.992210400058	7.050220399978571	ts ss		3	m	3		95.67901234567901
