	SID	biopac_channel	body_site	condition	correct	date	duration	handedness	mouseclick	onset	rt	scanner	score	session	sex	skin_site	temperature	value
0	3108	43	Chest	2-back Instruction		2025_Mar_14_1805	5.009183879563352	r		2.7796886000141967		jd ss		3	f	3		
1	3108	7	Chest	Pre-trial Jitter		2025_Mar_14_1805	9.006448709988035	r		7.796424600004684		jd ss		3	f	3		
2	3108	44.0	Chest	pretrialfixation		2025_Mar_14_1805	0.9961544500256423	r		17.043178099993384		jd ss		3	f	3		
3	3108		Chest	2-back	1.0	2025_Mar_14_1805	1.9888772100093774	r		18.04691720000119		jd ss	12.5	3	f	3	32.0	
4	3108		Chest	2-back	1.0	2025_Mar_14_1805	1.987186809972627	r		20.05616939999163		jd ss	25.0	3	f	3	32.0	
5	3108		Chest	2-back	0.0	2025_Mar_14_1805	1.9876031099702232	r	0	22.05598520001513	1.329996000014944	jd ss	25.0	3	f	3	32.0	
6	3108		Chest	2-back	0.0	2025_Mar_14_1805	1.98765600999468	r	0	24.055951899994398	1.1467606999794953	jd ss	25.0	3	f	3	32.0	
7	3108		Chest	2-back	0.0	2025_Mar_14_1805	1.987489210005151	r	2	26.05608189999475	1.0012077999999747	jd ss	25.0	3	f	3	32.0	
8	3108		Chest	2-back	0.0	2025_Mar_14_1805	1.987060109997401	r	2	28.05632540001534	1.046193599991966	jd ss	25.0	3	f	3	32.0	
9	3108		Chest	2-back	0.0	2025_Mar_14_1805	1.9876333099673502	r	0	30.056050800019875	0.6800411000149325	jd ss	25.0	3	f	3	32.0	
10	3108		Chest	2-back	0.0	2025_Mar_14_1805	1.98769151000306	r	0	32.05604920000769	0.8962081000208855	jd ss	25.0	3	f	3	32.0	
11	3108	50.0	Chest	ScoreReport		2025_Mar_14_1805	5.01472122000996	r		34.067568099999335		jd ss		3	f	3		
12	3108	8	Chest	Post-trial Jitter		2025_Mar_14_1805	8.9951242399693	r		39.127432900015265		jd ss		3	f	3		
13	3108	43	Chest	2-back Instruction		2025_Mar_14_1805	5.008045319962548	r		48.14605420001317		jd ss		3	f	3		
14	3108	7	Chest	Pre-trial Jitter		2025_Mar_14_1805	5.002442710014293	r		53.16558729999815		jd ss		3	f	3		
15	3108	44.0	Chest	pretrialfixation		2025_Mar_14_1805	1.0063354499870911	r		58.4136118000024		jd ss		3	f	3		
16	3108		Chest	2-back	1.0	2025_Mar_14_1805	1.9894585100119002	r		59.430486099998234		jd ss	12.5	3	f	3	32.0	
17	3108		Chest	2-back	1.0	2025_Mar_14_1805	1.9869018099852838	r		61.44011789999786		jd ss	25.0	3	f	3	32.0	
18	3108		Chest	2-back	1.0	2025_Mar_14_1805	1.9881222099938896	r	2	63.43952360001276	0.8465808999899309	jd ss	37.5	3	f	3	32.0	
19	3108		Chest	2-back	0.0	2025_Mar_14_1805	1.98726751000504	r	0	65.4399755000195	0.8468274000042584	jd ss	37.5	3	f	3	32.0	
20	3108		Chest	2-back	0.0	2025_Mar_14_1805	1.9873385099926963	r	2	67.4399579000019	0.9635222000069916	jd ss	37.5	3	f	3	32.0	
21	3108		Chest	2-back	0.0	2025_Mar_14_1805	1.9868665099784266	r	0	69.44021850000718	0.6798364999995101	jd ss	37.5	3	f	3	32.0	
22	3108		Chest	2-back	0.0	2025_Mar_14_1805	1.9873917099903338	r	2	71.43998160000774	0.9801839000137988	jd ss	37.5	3	f	3	32.0	
23	3108		Chest	2-back	0.0	2025_Mar_14_1805	1.9876313100103289	r	0	73.43992319999961	0.879661799990572	jd ss	37.5	3	f	3	32.0	
24	3108	50.0	Chest	ScoreReport		2025_Mar_14_1805	5.0111677199893165	r		75.4531474999967		jd ss		3	f	3		
25	3108	8	Chest	Post-trial Jitter		2025_Mar_14_1805	7.001288339990424	r		80.50813750000088		jd ss		3	f	3		
26	3108	51	Chest	Expectancy		2025_Mar_14_1805	5.0133273899846245	r		87.96871730001294	2.167035400023451	jd ss		3	f	3		37.22222222222222
27	3108	45	Chest	2-back Instruction		2025_Mar_14_1805	5.010864229989238	r		93.33671510001295		jd ss		3	f	3		
28	3108	7	Chest	Pre-trial Jitter		2025_Mar_14_1805	7.003331910003908	r		98.34900919999927		jd ss		3	f	3		
29	3108	44.0	Chest	pretrialfixation		2025_Mar_14_1805	1.0048524800222367	r		105.63987919999636		jd ss		3	f	3		
30	3108		Chest	2-back	1.0	2025_Mar_14_1805	1.9913026099966373	r		106.64676450000843		jd ss	12.5	3	f	3	47.5	
31	3108		Chest	2-back	1.0	2025_Mar_14_1805	1.9872465099906549	r		108.65714670001762		jd ss	25.0	3	f	3	47.5	
32	3108		Chest	2-back	0.0	2025_Mar_14_1805	1.9881391100061592	r	2	110.65672540001106	1.1798233999870718	jd ss	25.0	3	f	3	47.5	
33	3108		Chest	2-back	0.0	2025_Mar_14_1805	1.987263510003686	r	0	112.6571857999952	1.4631354000011925	jd ss	25.0	3	f	3	47.5	
34	3108		Chest	2-back	0.0	2025_Mar_14_1805	1.987525509990519	r	0	114.65707790001761	1.2964260000153445	jd ss	25.0	3	f	3	47.5	
35	3108		Chest	2-back	0.0	2025_Mar_14_1805	1.9869447100209072	r	0	116.65738869999768	1.3468496999994386	jd ss	25.0	3	f	3	47.5	
36	3108		Chest	2-back	0.0	2025_Mar_14_1805	1.9876525099971332	r	0	118.65705870001693	1.3302375999919605	jd ss	25.0	3	f	3	47.5	
37	3108		Chest	2-back	0.0	2025_Mar_14_1805	1.9867647099890746	r	0	120.65751380001893	1.5135531999985687	jd ss	25.0	3	f	3	47.5	
38	3108	50.0	Chest	ScoreReport		2025_Mar_14_1805	5.013978119997773	r		122.6689444000076		jd ss		3	f	3		
39	3108	8	Chest	Post-trial Jitter		2025_Mar_14_1805	7.001767140027368	r		127.72513050000998		jd ss		3	f	3		
40	3108	20	Chest	PainBinary		2025_Mar_14_1805	5.0041001200152095	r		134.7407322000072		jd ss		3	f	3		0.0
41	3108	21	Chest	IntensityRating		2025_Mar_14_1805	5.011090420011897	r		139.7622459999984	3.46695259999251	jd ss		3	f	3		37.71604938271605
42	3108	9	Chest	Post-Q-Jitter		2025_Mar_14_1805	6.995925210008863	r		144.77823670001817		jd ss		3	f	3		
43	3108	51	Chest	Expectancy		2025_Mar_14_1805	5.01673393996316	r		152.98416789999465	2.953094599972246	jd ss		3	f	3		29.32098765432099
44	3108	45	Chest	2-back Instruction		2025_Mar_14_1805	5.005961629998637	r		158.35657180001726		jd ss		3	f	3		
45	3108	7	Chest	Pre-trial Jitter		2025_Mar_14_1805	7.001648609992117	r		163.36725549999392		jd ss		3	f	3		
46	3108	44.0	Chest	pretrialfixation		2025_Mar_14_1805	1.0077692700142507	r		170.63916120000067		jd ss		3	f	3		
47	3108		Chest	2-back	1.0	2025_Mar_14_1805	1.9906387100054417	r		171.64784079999663		jd ss	12.5	3	f	3	47.5	
48	3108		Chest	2-back	1.0	2025_Mar_14_1805	1.9870739099860657	r		173.6579716000124		jd ss	25.0	3	f	3	47.5	
49	3108		Chest	2-back	0.0	2025_Mar_14_1805	1.9878304100129753	r	2	175.65762189999805	1.7801705000165384	jd ss	25.0	3	f	3	47.5	
50	3108		Chest	2-back	0.0	2025_Mar_14_1805	1.987192110012984	r	0	177.65794330000062	1.1801942999882158	jd ss	25.0	3	f	3	47.5	
51	3108		Chest	2-back	1.0	2025_Mar_14_1805	1.9876156100071967	r	2	179.65775620000204	1.4965986000024714	jd ss	37.5	3	f	3	47.5	
52	3108		Chest	2-back	0.0	2025_Mar_14_1805	1.9870334099978209	r	0	181.65809250000166	0.9465900000068359	jd ss	37.5	3	f	3	47.5	
53	3108		Chest	2-back	0.0	2025_Mar_14_1805	1.9875472100102343	r	2	183.6578484000056	0.8467986000177916	jd ss	37.5	3	f	3	47.5	
54	3108		Chest	2-back	1.0	2025_Mar_14_1805	1.9862140100158285	r	0	185.65854730000137	0.5801284999761265	jd ss	50.0	3	f	3	47.5	
55	3108	50.0	Chest	ScoreReport		2025_Mar_14_1805	5.014099619991612	r		187.66962610001792		jd ss		3	f	3		
56	3108	8	Chest	Post-trial Jitter		2025_Mar_14_1805	7.001763940003002	r		192.72585129999788		jd ss		3	f	3		
57	3108	20	Chest	PainBinary		2025_Mar_14_1805	5.004512819985393	r		199.74126340000657		jd ss		3	f	3		0.0
58	3108	21	Chest	IntensityRating		2025_Mar_14_1805	4.999095020000823	r		204.76065790001303	2.167462200013688	jd ss		3	f	3		35.06172839506173
59	3108	9	Chest	Post-Q-Jitter		2025_Mar_14_1805	7.010716209973907	r		209.76325590000488		jd ss		3	f	3		
60	3108	42	Chest	0-back Instruction		2025_Mar_14_1805	5.006014620012138	r		216.79900890000863		jd ss		3	f	3		
61	3108	7	Chest	Pre-Trial Jitter		2025_Mar_14_1805	7.002230109996162	r		221.81763760000467		jd ss		3	f	3		
62	3108	44.0	Chest	pretrialfixation		2025_Mar_14_1805	0.9991714500065427	r		229.06079020001926		jd ss		3	f	3		
63	3108		Chest	0-back	1.0	2025_Mar_14_1805	1.9907312100112904	r	0.0	230.06511429999955	1.3463984999980312	jd ss	12.5	3	f	3	32.0	
64	3108		Chest	0-back	1.0	2025_Mar_14_1805	1.9873849099967629	r	0.0	232.07515409999178	1.2801184999989346	jd ss	25.0	3	f	3	32.0	
65	3108		Chest	0-back	1.0	2025_Mar_14_1805	1.9890275099896826	r	0.0	234.07435080001596	1.1624850000080187	jd ss	37.5	3	f	3	32.0	
66	3108		Chest	0-back	1.0	2025_Mar_14_1805	1.9884633100009523	r	0.0	236.07466020001448	1.3296837999951094	jd ss	50.0	3	f	3	32.0	
67	3108		Chest	0-back	1.0	2025_Mar_14_1805	1.9888952100009192	r	0.0	238.07446110001183	1.1801160000031814	jd ss	62.5	3	f	3	32.0	
68	3108		Chest	0-back	1.0	2025_Mar_14_1805	1.987757810013136	r	0.0	240.0750526000047	0.4965939000248909	jd ss	75.0	3	f	3	32.0	
69	3108		Chest	0-back	1.0	2025_Mar_14_1805	1.9890262100088876	r	0.0	242.07443670000066	0.3298291000246536	jd ss	87.5	3	f	3	32.0	
70	3108		Chest	0-back	1.0	2025_Mar_14_1805	1.988540610007476	r	0.0	244.0747181000188	0.4801310999901034	jd ss	100.0	3	f	3	32.0	
71	3108	48.0	Chest	ScoreReport		2025_Mar_14_1805	5.004967409971869	r		246.08319030000712		jd ss		3	f	3		
72	3108	8	Chest	Post-Trial Jitter		2025_Mar_14_1805	5.001531939982669	r		251.14328580000438		jd ss		3	f	3		
73	3108	42	Chest	0-back Instruction		2025_Mar_14_1805	5.009468520001974	r		256.1644107000029		jd ss		3	f	3		
74	3108	7	Chest	Pre-Trial Jitter		2025_Mar_14_1805	9.001965210016351	r		261.1848991000152		jd ss		3	f	3		
75	3108	44.0	Chest	pretrialfixation		2025_Mar_14_1805	1.0053041499922983	r		270.433216800011		jd ss		3	f	3		
76	3108		Chest	0-back	0.0	2025_Mar_14_1805	1.990348110004561	r		271.44913809999707		jd ss	0.0	3	f	3	32.0	
77	3108		Chest	0-back	0.0	2025_Mar_14_1805	1.9867171100049745	r		273.4592855999945		jd ss	0.0	3	f	3	32.0	
78	3108		Chest	0-back	1.0	2025_Mar_14_1805	1.9879140099801589	r	0	275.45872290001716	1.3966226000047754	jd ss	12.5	3	f	3	32.0	
79	3108		Chest	0-back	1.0	2025_Mar_14_1805	1.9866677100071684	r	0	277.4593547999975	1.2301160999923013	jd ss	25.0	3	f	3	32.0	
80	3108		Chest	0-back	1.0	2025_Mar_14_1805	1.9874320099770557	r	0	279.4589963000035	1.2131283000053372	jd ss	37.5	3	f	3	32.0	
81	3108		Chest	0-back	1.0	2025_Mar_14_1805	1.987084810010856	r	0	281.45919590000995	1.1466027999995276	jd ss	50.0	3	f	3	32.0	
82	3108		Chest	0-back	1.0	2025_Mar_14_1805	1.9860957100172527	r	0	283.4597081000102	1.0632419000030495	jd ss	62.5	3	f	3	32.0	
83	3108		Chest	0-back	1.0	2025_Mar_14_1805	1.9868591100384947	r	0	285.45935029999237	0.7964110000175424	jd ss	75.0	3	f	3	32.0	
84	3108	48.0	Chest	ScoreReport		2025_Mar_14_1805	5.0117988199635874	r		287.4719240000122		jd ss		3	f	3		
85	3108	8	Chest	Post-Trial Jitter		2025_Mar_14_1805	6.998224539973307	r		292.5287600000156		jd ss		3	f	3		
86	3108	51	Chest	Expectancy		2025_Mar_14_1805	5.010193819995038	r		300.7057992000191	3.350555000011809	jd ss		3	f	3		27.59259259259259
87	3108	44	Chest	0-back Instruction		2025_Mar_14_1805	5.0061917300045025	r		306.07481520000147		jd ss		3	f	3		
88	3108	7	Chest	Pre-Trial Jitter		2025_Mar_14_1805	7.0022114099992905	r		311.08531900000526		jd ss		3	f	3		
89	3108	44.0	Chest	pretrialfixation		2025_Mar_14_1805	1.00410317000933	r		318.36766519999946		jd ss		3	f	3		
90	3108		Chest	0-back	1.0	2025_Mar_14_1805	1.991680310020456	r	0.0	319.3823379999958	1.479955799994059	jd ss	12.5	3	f	3	47.5	
91	3108		Chest	0-back	1.0	2025_Mar_14_1805	1.9880824100109749	r	0.0	321.3924770000158	1.3836807000043336	jd ss	25.0	3	f	3	47.5	
92	3108		Chest	0-back	1.0	2025_Mar_14_1805	1.9885199099953752	r	0.0	323.392288300005	1.2461800999881234	jd ss	37.5	3	f	3	47.5	
93	3108		Chest	0-back	1.0	2025_Mar_14_1805	1.9889021099952515	r	0.0	325.39212010000483	0.6800325000076555	jd ss	50.0	3	f	3	47.5	
94	3108		Chest	0-back	1.0	2025_Mar_14_1805	1.9885404100059532	r	0.0	327.39233140001306	0.8963102999841794	jd ss	62.5	3	f	3	47.5	
95	3108		Chest	0-back	0.0	2025_Mar_14_1805	1.9890324099978898	r		329.3920566000161		jd ss	62.5	3	f	3	47.5	
96	3108		Chest	0-back	0.0	2025_Mar_14_1805	1.9882562099955976	r		331.39252650001436		jd ss	62.5	3	f	3	47.5	
97	3108		Chest	0-back	0.0	2025_Mar_14_1805	1.9870611100050155	r		333.39315650000935		jd ss	62.5	3	f	3	47.5	
98	3108	50.0	Chest	ScoreReport		2025_Mar_14_1805	5.013029919966357	r		335.4051626000146		jd ss		3	f	3		
99	3108	8	Chest	Post-Trial Jitter		2025_Mar_14_1805	7.011760039982619	r		340.4642037000158		jd ss		3	f	3		
100	3108	20	Chest	PainBinary		2025_Mar_14_1805	5.004143020021729	r		347.4931319000025		jd ss		3	f	3		0.0
101	3108	21	Chest	IntensityRating		2025_Mar_14_1805	4.999761919985758	r		352.51200220000464	2.100693799991859	jd ss		3	f	3		31.35802469135803
102	3108	9	Chest	Post-Q-Jitter		2025_Mar_14_1805	6.994142209994607	r		357.5148913000012		jd ss		3	f	3		
103	3108	51	Chest	Expectancy		2025_Mar_14_1805	5.004246919997968	r		365.6929001999961		jd ss		3	f	3		50.0
104	3108	44	Chest	0-back Instruction		2025_Mar_14_1805	5.007006430008914	r		371.0584780999925		jd ss		3	f	3		
105	3108	7	Chest	Pre-Trial Jitter		2025_Mar_14_1805	7.001811110007111	r		376.06958949999535		jd ss		3	f	3		
106	3108	44.0	Chest	pretrialfixation		2025_Mar_14_1805	0.9994355700036976	r		383.34574049999355		jd ss		3	f	3		
107	3108		Chest	0-back	0.0	2025_Mar_14_1805	1.9913903100241441	r		384.34987649999675		jd ss	0.0	3	f	3	47.5	
108	3108		Chest	0-back	1.0	2025_Mar_14_1805	1.9867089100007433	r	0	386.360579900007	0.9967558000062127	jd ss	12.5	3	f	3	47.5	
109	3108		Chest	0-back	1.0	2025_Mar_14_1805	1.9873376099858433	r	0	388.36029770001187	1.0965721000102349	jd ss	25.0	3	f	3	47.5	
110	3108		Chest	0-back	1.0	2025_Mar_14_1805	1.9854966099956073	r	0	390.36123539999244	1.096764499990968	jd ss	37.5	3	f	3	47.5	
111	3108		Chest	0-back	1.0	2025_Mar_14_1805	1.9863406099902932	r	0	392.3608394000039	1.046616699983133	jd ss	50.0	3	f	3	47.5	
112	3108		Chest	0-back	1.0	2025_Mar_14_1805	1.9865092099935282	r	0	394.3607868000108	0.99676140001975	jd ss	62.5	3	f	3	47.5	
113	3108		Chest	0-back	1.0	2025_Mar_14_1805	1.9862493100226857	r	0	396.3609143999929	0.9467029999941587	jd ss	75.0	3	f	3	47.5	
114	3108		Chest	0-back	1.0	2025_Mar_14_1805	1.9876026099955197	r	0	398.36026720001246	1.0135856000124477	jd ss	87.5	3	f	3	47.5	
115	3108	48.0	Chest	ScoreReport		2025_Mar_14_1805	5.010791619977681	r		400.37371240000357		jd ss		3	f	3		
116	3108	8	Chest	Post-Trial Jitter		2025_Mar_14_1805	6.999012040003436	r		405.4296449999965		jd ss		3	f	3		
117	3108	20	Chest	PainBinary		2025_Mar_14_1805	5.004787819983903	r		412.4435131000064	1.0003156999882776	jd ss		3	f	3		1.0
118	3108	21	Chest	IntensityRating		2025_Mar_14_1805	5.014893820014549	r		417.46352099999785	1.7835400000039954	jd ss		3	f	3		37.839506172839506
119	3108	23	Chest	DistractBinary		2025_Mar_14_1805	5.007827419991372	r		422.49218790000305		jd ss		3	f	3		1.0
120	3108	9	Chest	Post-Q-Jitter		2025_Mar_14_1805	6.994331210007658	r		427.4989534000051		jd ss		3	f	3		
121	3108	51	Chest	Expectancy		2025_Mar_14_1805	5.012215729948366	r		435.6896573000122	2.750272599980235	jd ss		3	f	3		21.54320987654321
122	3108	45	Chest	2-back Instruction		2025_Mar_14_1805	5.012650129967369	r		441.0564520000189		jd ss		3	f	3		
123	3108	7	Chest	Pre-trial Jitter		2025_Mar_14_1805	7.0008964099688455	r		446.0708605000109		jd ss		3	f	3		
124	3108	44.0	Chest	pretrialfixation		2025_Mar_14_1805	1.009876380005153	r		453.3663225999917		jd ss		3	f	3		
125	3108		Chest	2-back	1.0	2025_Mar_14_1805	1.9901651100080926	r		454.38463099999353		jd ss	12.5	3	f	3	47.5	
126	3108		Chest	2-back	0.0	2025_Mar_14_1805	1.9866865100048017	r	2	456.3947282000154	1.4296523999946658	jd ss	12.5	3	f	3	47.5	
127	3108		Chest	2-back	0.0	2025_Mar_14_1805	1.9870469099842012	r	0	458.394561299996	1.229828000010457	jd ss	12.5	3	f	3	47.5	
128	3108		Chest	2-back	0.0	2025_Mar_14_1805	1.987409410008695	r	0	460.3944061000075	1.3959047000098508	jd ss	12.5	3	f	3	47.5	
129	3108		Chest	2-back	0.0	2025_Mar_14_1805	1.9878064100048505	r	2	462.3942255000002	1.4300635000108741	jd ss	12.5	3	f	3	47.5	
130	3108		Chest	2-back	0.0	2025_Mar_14_1805	1.9877582100161817	r	2	464.39426669999375	1.4800900999980513	jd ss	12.5	3	f	3	47.5	
131	3108		Chest	2-back	0.0	2025_Mar_14_1805	1.9877453100052662	r	0	466.39430730001186	1.2127376999997068	jd ss	12.5	3	f	3	47.5	
132	3108		Chest	2-back	0.0	2025_Mar_14_1805	1.9875509099802002	r	0	468.3944267000188	1.1802166000124998	jd ss	12.5	3	f	3	47.5	
133	3108	50.0	Chest	ScoreReport		2025_Mar_14_1805	5.013904119987274	r		470.4062850000046		jd ss		3	f	3		
134	3108	8	Chest	Post-trial Jitter		2025_Mar_14_1805	5.007074739987729	r		475.4680677000142		jd ss		3	f	3		
135	3108	20	Chest	PainBinary		2025_Mar_14_1805	5.001484520005761	r		480.4959465000138	2.0360169999767095	jd ss		3	f	3		1.0
136	3108	21	Chest	IntensityRating		2025_Mar_14_1805	5.01012131999596	r		485.51668850000715	1.9836026999983005	jd ss		3	f	3		30.864197530864196
137	3108	23	Chest	DistractBinary		2025_Mar_14_1805	5.007667719997698	r		490.54295750000165	1.1836534999893047	jd ss		3	f	3		1.0
138	3108	9	Chest	Post-Q-Jitter		2025_Mar_14_1805	4.993957409984432	r		495.5498812000151		jd ss		3	f	3		
139	3108	51	Chest	Expectancy		2025_Mar_14_1805	5.015001919964561	r		501.7307042000175	3.650262400013162	jd ss		3	f	3		39.44444444444444
140	3108	45	Chest	2-back Instruction		2025_Mar_14_1805	5.005157930019777	r		507.1109540000034		jd ss		3	f	3		
141	3108	7	Chest	Pre-trial Jitter		2025_Mar_14_1805	9.003079109999817	r		512.120528600004		jd ss		3	f	3		
142	3108	44.0	Chest	pretrialfixation		2025_Mar_14_1805	1.0043421800073702	r		521.4115285000007		jd ss		3	f	3		
143	3108		Chest	2-back	1.0	2025_Mar_14_1805	1.9885342099878471	r		522.4195468999969		jd ss	12.5	3	f	3	47.5	
144	3108		Chest	2-back	1.0	2025_Mar_14_1805	1.9872178100049496	r		524.4285609000071		jd ss	25.0	3	f	3	47.5	
145	3108		Chest	2-back	0.0	2025_Mar_14_1805	1.9881149099965114	r	2	526.4281355999992	1.0801642000151332	jd ss	25.0	3	f	3	47.5	
146	3108		Chest	2-back	1.0	2025_Mar_14_1805	1.9868358100065961	r	2	528.4287960999936	1.5135620000073686	jd ss	37.5	3	f	3	47.5	
147	3108		Chest	2-back	0.0	2025_Mar_14_1805	1.9872584100230597	r	0	530.4286094999989	1.3133833999745548	jd ss	37.5	3	f	3	47.5	
148	3108		Chest	2-back	0.0	2025_Mar_14_1805	1.9866221100091934	r	0	532.428951000009	1.2796326999960002	jd ss	37.5	3	f	3	47.5	
149	3108		Chest	2-back	0.0	2025_Mar_14_1805	1.9874889100028668	r	2	534.4285245999927	1.5301070999994408	jd ss	37.5	3	f	3	47.5	
150	3108		Chest	2-back	0.0	2025_Mar_14_1805	1.9875701100099832	r	0	536.428516999993	1.4299332000082359	jd ss	37.5	3	f	3	47.5	
151	3108	50.0	Chest	ScoreReport		2025_Mar_14_1805	5.011312419985188	r		538.4416833000141		jd ss		3	f	3		
152	3108	8	Chest	Post-trial Jitter		2025_Mar_14_1805	5.000154339999426	r		543.4973129999998		jd ss		3	f	3		
153	3108	20	Chest	PainBinary		2025_Mar_14_1805	5.005094519990962	r		548.5116347000003		jd ss		3	f	3		1.0
154	3108	21	Chest	IntensityRating		2025_Mar_14_1805	5.014448920002906	r		553.5319548000116	4.350188700016588	jd ss		3	f	3		50.0
155	3108	23	Chest	DistractBinary		2025_Mar_14_1805	5.007929020037409	r		558.5602604000014	0.8502811000216752	jd ss		3	f	3		1.0
156	3108	9	Chest	Post-Q-Jitter		2025_Mar_14_1805	4.993937610008288	r		563.5673209000088		jd ss		3	f	3		
157	3108	51	Chest	Expectancy		2025_Mar_14_1805	5.0017521099653095	r		569.9047030000074	3.216984799975762	jd ss		3	f	3		35.308641975308646
158	3108	44	Chest	0-back Instruction		2025_Mar_14_1805	5.010442329978105	r		575.2757174000144		jd ss		3	f	3		
159	3108	7	Chest	Pre-Trial Jitter		2025_Mar_14_1805	9.001932110026246	r		580.2885158999998		jd ss		3	f	3		
160	3108	44.0	Chest	pretrialfixation		2025_Mar_14_1805	1.0094409799785353	r		589.5764252000081		jd ss		3	f	3		
161	3108		Chest	0-back	0.0	2025_Mar_14_1805	1.9895524100284092	r		590.5864792999928		jd ss	0.0	3	f	3	47.5	
162	3108		Chest	0-back	0.0	2025_Mar_14_1805	1.9871793100028299	r		592.5960167000012		jd ss	0.0	3	f	3	47.5	
163	3108		Chest	0-back	0.0	2025_Mar_14_1805	1.9879208099737298	r		594.5956806000031		jd ss	0.0	3	f	3	47.5	
164	3108		Chest	0-back	1.0	2025_Mar_14_1805	1.9871700100193266	r	0	596.5960754000116	1.5293250000104308	jd ss	12.5	3	f	3	47.5	
165	3108		Chest	0-back	1.0	2025_Mar_14_1805	1.9877564100024756	r	0	598.5958056999953	1.230171600007452	jd ss	25.0	3	f	3	47.5	
166	3108		Chest	0-back	1.0	2025_Mar_14_1805	1.986565610015532	r	0	600.5964281000197	1.0134441000118386	jd ss	37.5	3	f	3	47.5	
167	3108		Chest	0-back	1.0	2025_Mar_14_1805	1.9877636099699885	r	0	602.595839000016	1.1299824999878183	jd ss	50.0	3	f	3	47.5	
168	3108		Chest	0-back	1.0	2025_Mar_14_1805	1.9870947099698242	r	0	604.5961930000049	0.8635083999834023	jd ss	62.5	3	f	3	47.5	
169	3108	50.0	Chest	ScoreReport		2025_Mar_14_1805	5.012868420017185	r		606.6083844999957		jd ss		3	f	3		
170	3108	8	Chest	Post-Trial Jitter		2025_Mar_14_1805	7.001372939994326	r		611.664153699996		jd ss		3	f	3		
171	3108	20	Chest	PainBinary		2025_Mar_14_1805	5.003809120011283	r		618.6796787000203	1.083634799986612	jd ss		3	f	3		1.0
172	3108	21	Chest	IntensityRating		2025_Mar_14_1805	5.013297619996592	r		623.6999872000015	0.9335942000034265	jd ss		3	f	3		55.37037037037037
173	3108	23	Chest	DistractBinary		2025_Mar_14_1805	5.006733219983289	r		628.7282881000137	2.0003045000194106	jd ss		3	f	3		1.0
174	3108	9	Chest	Post-Q-Jitter		2025_Mar_14_1805	7.010062510002172	r		633.7350322999991		jd ss		3	f	3		
175	3108	51	Chest	Expectancy		2025_Mar_14_1805	5.006879429973196	r		642.1112947000074	4.11710810000659	jd ss		3	f	3		40.864197530864196
176	3108	44	Chest	0-back Instruction		2025_Mar_14_1805	5.014414929988561	r		647.474581699993		jd ss		3	f	3		
177	3108	7	Chest	Pre-Trial Jitter		2025_Mar_14_1805	7.001456010009861	r		652.4895879999967		jd ss		3	f	3		
178	3108	44.0	Chest	pretrialfixation		2025_Mar_14_1805	1.0035007700207643	r		659.7718688000168		jd ss		3	f	3		
179	3108		Chest	0-back	0.0	2025_Mar_14_1805	1.989965109998593	r		660.787080500013		jd ss	0.0	3	f	3	47.5	
180	3108		Chest	0-back	0.0	2025_Mar_14_1805	1.9865150099794846	r		662.7970790000109		jd ss	0.0	3	f	3	47.5	
181	3108		Chest	0-back	0.0	2025_Mar_14_1805	1.9880638100148644	r		664.7964033000171		jd ss	0.0	3	f	3	47.5	
182	3108		Chest	0-back	0.0	2025_Mar_14_1805	1.9875990099972114	r		666.7966698000091		jd ss	0.0	3	f	3	47.5	
183	3108		Chest	0-back	1.0	2025_Mar_14_1805	1.9882190100033768	r	0	668.7963385000185	1.5172663000121247	jd ss	12.5	3	f	3	47.5	
184	3108		Chest	0-back	1.0	2025_Mar_14_1805	1.986880709999241	r	0	670.7970600000117	1.0468970000219997	jd ss	25.0	3	f	3	47.5	
185	3108		Chest	0-back	1.0	2025_Mar_14_1805	1.9877323100226931	r	0	672.7966636000201	0.9498869999952149	jd ss	37.5	3	f	3	47.5	
186	3108		Chest	0-back	1.0	2025_Mar_14_1805	1.9875310100032948	r	0	674.7967912000022	1.0337358000106178	jd ss	50.0	3	f	3	47.5	
187	3108	50.0	Chest	ScoreReport		2025_Mar_14_1805	5.014097619976383	r		676.8085456000117		jd ss		3	f	3		
188	3108	8	Chest	Post-Trial Jitter		2025_Mar_14_1805	9.000658239994664	r		681.8653262000007		jd ss		3	f	3		
189	3108	20	Chest	PainBinary		2025_Mar_14_1805	5.003767020010855	r		690.880538700003	1.0003558000025805	jd ss		3	f	3		1.0
190	3108	21	Chest	IntensityRating		2025_Mar_14_1805	4.999920420028502	r		695.8991712999996	1.484106400021119	jd ss		3	f	3		43.7037037037037
191	3108	23	Chest	DistractBinary		2025_Mar_14_1805	5.007144420000259	r		700.9122904000105	0.8196982000081334	jd ss		3	f	3		-1.0
192	3108	9	Chest	Post-Q-Jitter		2025_Mar_14_1805	8.993799610005226	r		705.9190617999993		jd ss		3	f	3		
193	3108	26	Chest	ComfortRating		2025_Mar_14_1805	4.711836720001884	r		714.9351633000188	4.6835909000074025	jd ss		3	f	3		-22.345679012345684
194	3108	24	Chest	ValenceRating		2025_Mar_14_1805	2.755812520015752	r		719.671531400003	2.7335568999988027	jd ss		3	f	3		56.2962962962963
195	3108	26	Chest	IntensityRating		2025_Mar_14_1805	11.701560419984162	r		722.4487512999913	11.683807199995499	jd ss		3	f	3		52.77777777777778
196	3108	27	Chest	AvoidanceRating		2025_Mar_14_1805	3.9793976199871395	r		734.1682427000196	3.9505741000175476	jd ss		3	f	3		66.04938271604937
197	3108	28	Chest	RelaxationRating		2025_Mar_14_1805	1.603050820005592	r		738.164795699995	1.5836718000064138	jd ss		3	f	3		44.81481481481482
198	3108	29	Chest	AttentionRating		2025_Mar_14_1805	1.1816166199860163	r		739.783872	1.1674156000080984	jd ss		3	f	3		89.19753086419752
199	3108	30	Chest	BoredomRating		2025_Mar_14_1805	2.618164520012215	r		740.9822741000098	2.60032970001339	jd ss		3	f	3		54.75308641975308
200	3108	31	Chest	AlertnessRating		2025_Mar_14_1805	1.5355518200085498	r		743.6152722999977	1.5170089000021107	jd ss		3	f	3		41.48148148148147
201	3108	32	Chest	PosThxRating		2025_Mar_14_1805	2.627176120004151	r		745.1694747000001	2.60019860000466	jd ss		3	f	3		-50.370370370370374
202	3108	33	Chest	NegThxRating		2025_Mar_14_1805	2.678225920011755	r		747.8189847000176	2.635925899987342	jd ss		3	f	3		46.666666666666686
203	3108	34	Chest	SelfRating		2025_Mar_14_1805	1.5630853199691046	r		750.5182419000193	1.5335352000256535	jd ss		3	f	3		44.32098765432099
204	3108	35	Chest	OtherRating		2025_Mar_14_1805	0.9646601199929137	r		752.1008067000075	0.9336019000038505	jd ss		3	f	3		-45.18518518518518
205	3108	32	Chest	ImageryRating		2025_Mar_14_1805	1.4120644200011156	r		753.0854565000045	1.3835977999842726	jd ss		3	f	3		38.02469135802468
206	3108	37	Chest	PresentRating		2025_Mar_14_1805	0.8601945199770853	r		754.5197236000095	0.8335399999923538	jd ss		3	f	3		33.20987654320987
