RestT1,TaskT1,square,location,corrAns,counterbalancer.thisRepN,counterbalancer.thisTrialN,counterbalancer.thisN,counterbalancer.thisIndex,RestT1Loop.thisRepN,RestT1Loop.thisTrialN,RestT1Loop.thisN,RestT1Loop.thisIndex,TaskT1Loop.thisRepN,TaskT1Loop.thisTrialN,TaskT1Loop.thisN,TaskT1Loop.thisIndex,trials_2.thisRepN,trials_2.thisTrialN,trials_2.thisN,trials_2.thisIndex,fixation_1.started,fixation_1.stopped,NbackInstructions.started,NbackInstructions.stopped,NbackStart.keys,NbackStart.rt,NbackStart.started,NbackStart.stopped,fixation_2.started,fixation_2.stopped,response_2.x,response_2.y,response_2.leftButton,grid_lines_2.started,grid_lines_2.stopped,target_square_2.started,target_square_2.stopped,fixation_3.started,fixation_3.stopped,response_2.click,response_2.corr,response_2.started,response_2.stopped,subject number,gender,session,handedness,scanner,date,expName,psychopyVersion,frameRate,
1,0,,,,0,0,0,0,0,0,0,0,,,,,,,,,105.3508928999945,None,,,,,,,,,,,,,,,,,,,,,,1,m,18,r,KB,2021_Jul_02_1139,WASABI Nback,2020.2.10,60.023901517902125,
0,1,,,,0,1,1,1,,,,,0,0,0,0,,,,,,,389.1863116000022,None,space,34.927163999993354,389.1863116000022,None,,,,,,,,,,,,,,,,1,m,18,r,KB,2021_Jul_02_1139,WASABI Nback,2020.2.10,60.023901517902125,
0,1,5,"[0, 0]",None,0,1,1,1,,,,,0,0,0,0,0,0,0,0,,,,,,,,,None,None,None,None,0,426.90324320000946,None,426.90324320000946,None,None,None,0,1,426.90324320000946,None,1,m,18,r,KB,2021_Jul_02_1139,WASABI Nback,2020.2.10,60.023901517902125,
0,1,2,"[0, 0.2]",None,0,1,1,1,,,,,0,0,0,0,0,1,1,1,,,,,,,,,,,None,None,0,427.1532417999988,None,427.1532417999988,428.15324139999575,428.1365759999899,429.1365928000014,0,1,427.1532417999988,None,1,m,18,r,KB,2021_Jul_02_1139,WASABI Nback,2020.2.10,60.023901517902125,
0,1,6,"[0.2, 0]",None,0,1,1,1,,,,,0,0,0,0,0,2,2,2,,,,,,,,,,,None,None,0,429.1532506000076,None,429.1532506000076,430.1532442999887,430.1366102999891,431.13660989998607,0,1,429.1532506000076,None,1,m,18,r,KB,2021_Jul_02_1139,WASABI Nback,2020.2.10,60.023901517902125,
0,1,9,"[0.2, -0.2]",None,0,1,1,1,,,,,0,0,0,0,0,3,3,3,,,,,,,,,,,None,None,0,431.1532792999933,None,431.1532792999933,432.15328200001386,432.13660820000223,433.1366582000046,0,1,431.1532792999933,None,1,m,18,r,KB,2021_Jul_02_1139,WASABI Nback,2020.2.10,60.023901517902125,
0,1,3,"[0.2, 0.2]",None,0,1,1,1,,,,,0,0,0,0,0,4,4,4,,,,,,,,,,,None,None,0,433.1532855000114,None,433.1532855000114,434.1532831999939,434.1366240000061,435.13661670000874,0,1,433.1532855000114,None,1,m,18,r,KB,2021_Jul_02_1139,WASABI Nback,2020.2.10,60.023901517902125,
0,1,9,"[0.2, -0.2]",1,0,1,1,1,,,,,0,0,0,0,0,5,5,5,,,,,,,,,,,None,None,0,435.15329879999626,None,435.15329879999626,436.15329190000193,436.13666710001417,437.1366415999946,0,0,435.15329879999626,None,1,m,18,r,KB,2021_Jul_02_1139,WASABI Nback,2020.2.10,60.023901517902125,
0,1,7,"[-0.2, -0.2]",None,0,1,1,1,,,,,0,0,0,0,0,6,6,6,,,,,,,,,,,None,None,0,437.1533186000015,None,437.1533186000015,438.1533184,438.136642700003,439.1366480999859,0,1,437.1533186000015,None,1,m,18,r,KB,2021_Jul_02_1139,WASABI Nback,2020.2.10,60.023901517902125,
0,1,1,"[-0.2, 0.2]",None,0,1,1,1,,,,,0,0,0,0,0,7,7,7,,,,,,,,,,,None,None,0,439.15332829998806,None,439.15332829998806,440.15334409999195,440.1366452999937,441.136671699991,0,1,439.15332829998806,None,1,m,18,r,KB,2021_Jul_02_1139,WASABI Nback,2020.2.10,60.023901517902125,
0,1,5,"[0, 0]",None,0,1,1,1,,,,,0,0,0,0,0,8,8,8,,,,,,,,,,,None,None,0,441.1533463000087,None,441.1533463000087,442.1533502000093,442.1366610999976,443.1366857000103,0,1,441.1533463000087,None,1,m,18,r,KB,2021_Jul_02_1139,WASABI Nback,2020.2.10,60.023901517902125,
0,1,7,"[-0.2, -0.2]",None,0,1,1,1,,,,,0,0,0,0,0,9,9,9,,,,,,,,,,,None,None,0,443.15335340000456,None,443.15335340000456,444.15337049998925,444.13674809999065,445.13669899999513,0,1,443.15335340000456,None,1,m,18,r,KB,2021_Jul_02_1139,WASABI Nback,2020.2.10,60.023901517902125,
0,1,5,"[0, 0]",1,0,1,1,1,,,,,0,0,0,0,0,10,10,10,,,,,,,,,,,None,None,0,445.15337310000905,None,445.15337310000905,446.15337620000355,446.136717699992,447.136628999986,0,1,445.15337310000905,None,1,m,18,r,KB,2021_Jul_02_1139,WASABI Nback,2020.2.10,60.023901517902125,
0,1,6,"[0.2, 0]",None,0,1,1,1,,,,,0,0,0,0,0,11,11,11,,,,,,,,,,,None,None,0,447.1533916000044,None,447.1533916000044,448.15339920000406,448.1367337999982,449.13673389999894,0,1,447.1533916000044,None,1,m,18,r,KB,2021_Jul_02_1139,WASABI Nback,2020.2.10,60.023901517902125,
0,1,3,"[0.2, 0.2]",None,0,1,1,1,,,,,0,0,0,0,0,12,12,12,,,,,,,,,,,None,None,0,449.1534088999906,None,449.1534088999906,450.15340720000677,450.13674529999844,451.1367442999908,0,1,449.1534088999906,None,1,m,18,r,KB,2021_Jul_02_1139,WASABI Nback,2020.2.10,60.023901517902125,
0,1,6,"[0.2, 0]",1,0,1,1,1,,,,,0,0,0,0,0,13,13,13,,,,,,,,,,,None,None,0,451.1534023999993,None,451.1534023999993,452.1534188000078,452.1367498000036,453.1367631999892,0,1,451.1534023999993,None,1,m,18,r,KB,2021_Jul_02_1139,WASABI Nback,2020.2.10,60.023901517902125,
0,1,8,"[0, -0.2]",None,0,1,1,1,,,,,0,0,0,0,0,14,14,14,,,,,,,,,,,None,None,0,453.15343880001456,None,453.15343880001456,454.153444399999,454.13678279999294,455.13678820000496,0,1,453.15343880001456,None,1,m,18,r,KB,2021_Jul_02_1139,WASABI Nback,2020.2.10,60.023901517902125,
0,1,9,"[0.2, -0.2]",None,0,1,1,1,,,,,0,0,0,0,0,15,15,15,,,,,,,,,,,None,None,0,455.15345330000855,None,455.15345330000855,456.1534602000029,456.1367909999972,457.1367876000004,0,1,455.15345330000855,None,1,m,18,r,KB,2021_Jul_02_1139,WASABI Nback,2020.2.10,60.023901517902125,
0,1,9,"[0.2, -0.2]",None,0,1,1,1,,,,,0,0,0,0,0,16,16,16,,,,,,,,,,,None,None,0,457.15346729999874,None,457.15346729999874,458.1534762000083,458.1368162999861,459.13680559999193,0,1,457.15346729999874,None,1,m,18,r,KB,2021_Jul_02_1139,WASABI Nback,2020.2.10,60.023901517902125,
0,1,1,"[-0.2, 0.2]",None,0,1,1,1,,,,,0,0,0,0,0,17,17,17,,,,,,,,,,,None,None,0,459.1534885999863,None,459.1534885999863,460.1535283999983,460.13681230001384,461.1368308000092,0,1,459.1534885999863,None,1,m,18,r,KB,2021_Jul_02_1139,WASABI Nback,2020.2.10,60.023901517902125,
0,1,3,"[0.2, 0.2]",None,0,1,1,1,,,,,0,0,0,0,0,18,18,18,,,,,,,,,,,None,None,0,461.1534948000044,None,461.1534948000044,462.15351880001253,462.1368298000016,463.13685159999295,0,1,461.1534948000044,None,1,m,18,r,KB,2021_Jul_02_1139,WASABI Nback,2020.2.10,60.023901517902125,
0,1,5,"[0, 0]",None,0,1,1,1,,,,,0,0,0,0,0,19,19,19,,,,,,,,,,,None,None,0,463.1535323999997,None,463.1535323999997,464.1536206000019,464.13685680000344,465.13688519998686,0,1,463.1535323999997,None,1,m,18,r,KB,2021_Jul_02_1139,WASABI Nback,2020.2.10,60.023901517902125,
0,1,3,"[0.2, 0.2]",1,0,1,1,1,,,,,0,0,0,0,0,20,20,20,,,,,,,,,,,None,None,0,465.1535314999928,None,465.1535314999928,466.15352600000915,466.1368577000103,467.13686319999397,0,1,465.1535314999928,None,1,m,18,r,KB,2021_Jul_02_1139,WASABI Nback,2020.2.10,60.023901517902125,
0,1,4,"[-0.2, 0]",None,0,1,1,1,,,,,0,0,0,0,0,21,21,21,,,,,,,,,,,None,None,0,467.15354850000585,None,467.15354850000585,468.1535845999897,468.13687180000124,469.13689769999473,0,1,467.15354850000585,None,1,m,18,r,KB,2021_Jul_02_1139,WASABI Nback,2020.2.10,60.023901517902125,
0,1,7,"[-0.2, -0.2]",None,0,1,1,1,,,,,0,0,0,0,0,22,22,22,,,,,,,,,,,None,None,0,469.15355290001025,None,469.15355290001025,470.15356509998674,470.1368703999906,471.13693030001014,0,1,469.15355290001025,None,1,m,18,r,KB,2021_Jul_02_1139,WASABI Nback,2020.2.10,60.023901517902125,
0,1,4,"[-0.2, 0]",1,0,1,1,1,,,,,0,0,0,0,0,23,23,23,,,,,,,,,,,None,None,0,471.15357309998944,None,471.15357309998944,472.1535436999984,472.1368816999893,473.13691969998763,0,1,471.15357309998944,None,1,m,18,r,KB,2021_Jul_02_1139,WASABI Nback,2020.2.10,60.023901517902125,
0,1,4,"[-0.2, 0]",None,0,1,1,1,,,,,0,0,0,0,0,24,24,24,,,,,,,,,,,None,None,0,473.1535920999886,None,473.1535920999886,474.15362150000874,474.1369382000121,475.1369282999949,0,1,473.1535920999886,None,1,m,18,r,KB,2021_Jul_02_1139,WASABI Nback,2020.2.10,60.023901517902125,
0,1,5,"[0, 0]",None,0,1,1,1,,,,,0,0,0,0,0,25,25,25,,,,,,,,,,,None,None,0,475.1536000999913,None,475.1536000999913,476.1536242000002,476.13693519998924,477.13694190001115,0,1,475.1536000999913,None,1,m,18,r,KB,2021_Jul_02_1139,WASABI Nback,2020.2.10,60.023901517902125,
0,1,2,"[0, 0.2]",None,0,1,1,1,,,,,0,0,0,0,0,26,26,26,,,,,,,,,,,None,None,0,477.1536544999981,None,477.1536544999981,478.1536195999943,478.13695869999356,479.1369272999873,0,1,477.1536544999981,None,1,m,18,r,KB,2021_Jul_02_1139,WASABI Nback,2020.2.10,60.023901517902125,
0,1,6,"[0.2, 0]",None,0,1,1,1,,,,,0,0,0,0,0,27,27,27,,,,,,,,,,,None,None,0,479.15363159999833,None,479.15363159999833,480.153684799996,480.1369623999926,481.1369687000115,0,1,479.15363159999833,None,1,m,18,r,KB,2021_Jul_02_1139,WASABI Nback,2020.2.10,60.023901517902125,
0,1,7,"[-0.2, -0.2]",None,0,1,1,1,,,,,0,0,0,0,0,28,28,28,,,,,,,,,,,None,None,0,481.1536452000146,None,481.1536452000146,482.15365540000494,482.1369943000027,483.13698690000456,0,1,481.1536452000146,None,1,m,18,r,KB,2021_Jul_02_1139,WASABI Nback,2020.2.10,60.023901517902125,
0,1,6,"[0.2, 0]",1,0,1,1,1,,,,,0,0,0,0,0,29,29,29,,,,,,,,,,,None,None,0,483.1536555000057,None,483.1536555000057,484.1536572999903,484.13702260001446,485.13700680001057,0,1,483.1536555000057,None,1,m,18,r,KB,2021_Jul_02_1139,WASABI Nback,2020.2.10,60.023901517902125,
0,1,6,"[0.2, 0]",None,0,1,1,1,,,,,0,0,0,0,0,30,30,30,,,,,,,,,,,None,None,0,485.1536758999864,None,485.1536758999864,486.1536727999919,486.1370190999878,487.1370314999949,0,1,485.1536758999864,None,1,m,18,r,KB,2021_Jul_02_1139,WASABI Nback,2020.2.10,60.023901517902125,
0,1,7,"[-0.2, -0.2]",None,0,1,1,1,,,,,0,0,0,0,0,31,31,31,,,,,,,,,,,None,None,0,487.1536874999874,None,487.1536874999874,488.153744500014,488.1370209000015,489.1370336000109,0,1,487.1536874999874,None,1,m,18,r,KB,2021_Jul_02_1139,WASABI Nback,2020.2.10,60.023901517902125,
0,1,6,"[0.2, 0]",1,0,1,1,1,,,,,0,0,0,0,0,32,32,32,,,,,,,,,,,None,None,0,489.15369750000536,None,489.15369750000536,490.1537113999948,490.1370503999933,491.1370425999921,0,1,489.15369750000536,None,1,m,18,r,KB,2021_Jul_02_1139,WASABI Nback,2020.2.10,60.023901517902125,
0,1,2,"[0, 0.2]",None,0,1,1,1,,,,,0,0,0,0,0,33,33,33,,,,,,,,,,,None,None,0,491.15371129999403,None,491.15371129999403,492.1536147999868,492.13706710000406,493.1370561000076,0,1,491.15371129999403,None,1,m,18,r,KB,2021_Jul_02_1139,WASABI Nback,2020.2.10,60.023901517902125,
0,1,5,"[0, 0]",None,0,1,1,1,,,,,0,0,0,0,0,34,34,34,,,,,,,,,,,None,None,0,493.15373220000765,None,493.15373220000765,494.153732900013,494.1371022000094,495.13707980001345,0,1,493.15373220000765,None,1,m,18,r,KB,2021_Jul_02_1139,WASABI Nback,2020.2.10,60.023901517902125,
0,1,4,"[-0.2, 0]",None,0,1,1,1,,,,,0,0,0,0,0,35,35,35,,,,,,,,,,,None,None,0,495.15374929999234,None,495.15374929999234,496.15375470000436,496.13708270000643,497.1371027000132,0,1,495.15374929999234,None,1,m,18,r,KB,2021_Jul_02_1139,WASABI Nback,2020.2.10,60.023901517902125,
0,1,4,"[-0.2, 0]",None,0,1,1,1,,,,,0,0,0,0,0,36,36,36,,,,,,,,,,,None,None,0,497.15375830000266,None,497.15375830000266,498.1537657000008,498.13710540000466,499.1371167000034,0,1,497.15375830000266,None,1,m,18,r,KB,2021_Jul_02_1139,WASABI Nback,2020.2.10,60.023901517902125,
0,1,7,"[-0.2, -0.2]",None,0,1,1,1,,,,,0,0,0,0,0,37,37,37,,,,,,,,,,,None,None,0,499.15376580000157,None,499.15376580000157,500.1537840999954,500.1371148999897,501.1371254000114,0,1,499.15376580000157,None,1,m,18,r,KB,2021_Jul_02_1139,WASABI Nback,2020.2.10,60.023901517902125,
0,1,4,"[-0.2, 0]",1,0,1,1,1,,,,,0,0,0,0,0,38,38,38,,,,,,,,,,,None,None,0,501.15379790001316,None,501.15379790001316,502.1538009000069,502.13713769998867,503.1371332000126,0,1,501.15379790001316,None,1,m,18,r,KB,2021_Jul_02_1139,WASABI Nback,2020.2.10,60.023901517902125,
0,1,3,"[0.2, 0.2]",None,0,1,1,1,,,,,0,0,0,0,0,39,39,39,,,,,,,,,,,None,None,0,503.1538045000052,None,503.1538045000052,504.15381970000453,504.1371460999944,505.13714470001287,0,1,503.1538045000052,None,1,m,18,r,KB,2021_Jul_02_1139,WASABI Nback,2020.2.10,60.023901517902125,
0,1,5,"[0, 0]",None,0,1,1,1,,,,,0,0,0,0,0,40,40,40,,,,,,,,,,,None,None,0,505.15381270000944,None,505.15381270000944,506.153839000006,506.1371685999911,507.1371712000109,0,1,505.15381270000944,None,1,m,18,r,KB,2021_Jul_02_1139,WASABI Nback,2020.2.10,60.023901517902125,
0,1,3,"[0.2, 0.2]",1,0,1,1,1,,,,,0,0,0,0,0,41,41,41,,,,,,,,,,,None,None,0,507.1538417999982,None,507.1538417999982,508.1538511000108,508.137169900001,509.1371831000142,0,1,507.1538417999982,None,1,m,18,r,KB,2021_Jul_02_1139,WASABI Nback,2020.2.10,60.023901517902125,
0,1,1,"[-0.2, 0.2]",None,0,1,1,1,,,,,0,0,0,0,0,42,42,42,,,,,,,,,,,None,None,0,509.153856799996,None,509.153856799996,510.1538620000065,510.13722500001313,511.137203899998,0,1,509.153856799996,None,1,m,18,r,KB,2021_Jul_02_1139,WASABI Nback,2020.2.10,60.023901517902125,
0,1,9,"[0.2, -0.2]",None,0,1,1,1,,,,,0,0,0,0,0,43,43,43,,,,,,,,,,,None,None,0,511.1538583000074,None,511.1538583000074,512.1538723999984,512.1372120000015,513.1372117999999,0,1,511.1538583000074,None,1,m,18,r,KB,2021_Jul_02_1139,WASABI Nback,2020.2.10,60.023901517902125,
0,1,9,"[0.2, -0.2]",None,0,1,1,1,,,,,0,0,0,0,0,44,44,44,,,,,,,,,,,None,None,0,513.1538924000051,None,513.1538924000051,514.1538796999957,514.1372190999973,515.1372258999909,0,0,513.1538924000051,None,1,m,18,r,KB,2021_Jul_02_1139,WASABI Nback,2020.2.10,60.023901517902125,
0,1,8,"[0, -0.2]",None,0,1,1,1,,,,,0,0,0,0,0,45,45,45,,,,,,,,,,,None,None,0,515.153922700003,None,515.153922700003,516.1539084000106,516.1372352000035,517.1372371999896,0,1,515.153922700003,None,1,m,18,r,KB,2021_Jul_02_1139,WASABI Nback,2020.2.10,60.023901517902125,
0,1,6,"[0.2, 0]",None,0,1,1,1,,,,,0,0,0,0,0,46,46,46,,,,,,,,,,,None,None,0,517.153793800011,None,517.153793800011,518.1539154000056,518.1372566999926,519.137255300011,0,1,517.153793800011,None,1,m,18,r,KB,2021_Jul_02_1139,WASABI Nback,2020.2.10,60.023901517902125,
0,1,3,"[0.2, 0.2]",None,0,1,1,1,,,,,0,0,0,0,0,47,47,47,,,,,,,,,,,None,None,0,519.1539331999957,None,519.1539331999957,520.153936799994,520.1372608999955,521.1373011000105,0,1,519.1539331999957,None,1,m,18,r,KB,2021_Jul_02_1139,WASABI Nback,2020.2.10,60.023901517902125,
0,1,6,"[0.2, 0]",1,0,1,1,1,,,,,0,0,0,0,0,48,48,48,,,,,,,,,,,None,None,0,521.1539525999979,None,521.1539525999979,522.1539520999941,522.1372841999982,523.1373131000146,0,1,521.1539525999979,None,1,m,18,r,KB,2021_Jul_02_1139,WASABI Nback,2020.2.10,60.023901517902125,
0,1,5,"[0, 0]",None,0,1,1,1,,,,,0,0,0,0,0,49,49,49,,,,,,,,,,,None,None,0,523.1539519999933,None,523.1539519999933,524.1539619000105,524.1373011000105,525.1372723999957,0,1,523.1539519999933,None,1,m,18,r,KB,2021_Jul_02_1139,WASABI Nback,2020.2.10,60.023901517902125,
0,1,7,"[-0.2, -0.2]",None,0,1,1,1,,,,,0,0,0,0,0,50,50,50,,,,,,,,,,,None,None,0,525.1539765000052,None,525.1539765000052,526.1539596999937,526.1373059999896,527.1373235000065,0,1,525.1539765000052,None,1,m,18,r,KB,2021_Jul_02_1139,WASABI Nback,2020.2.10,60.023901517902125,
0,1,5,"[0, 0]",1,0,1,1,1,,,,,0,0,0,0,0,51,51,51,,,,,,,,,,,None,None,0,527.1539980999951,None,527.1539980999951,528.1539548000146,528.1373251999903,529.1373287999886,0,0,527.1539980999951,None,1,m,18,r,KB,2021_Jul_02_1139,WASABI Nback,2020.2.10,60.023901517902125,
0,1,1,"[-0.2, 0.2]",None,0,1,1,1,,,,,0,0,0,0,0,52,52,52,,,,,,,,,,,None,None,0,529.1539970999875,None,529.1539970999875,530.1540198000148,530.1373494,531.13734690001,0,1,529.1539970999875,None,1,m,18,r,KB,2021_Jul_02_1139,WASABI Nback,2020.2.10,60.023901517902125,
0,1,7,"[-0.2, -0.2]",None,0,1,1,1,,,,,0,0,0,0,0,53,53,53,,,,,,,,,,,None,None,0,531.1540100999991,None,531.1540100999991,532.1540090999915,532.1373487999954,533.1373706999875,0,1,531.1540100999991,None,1,m,18,r,KB,2021_Jul_02_1139,WASABI Nback,2020.2.10,60.023901517902125,
0,1,9,"[0.2, -0.2]",None,0,1,1,1,,,,,0,0,0,0,0,54,54,54,,,,,,,,,,,None,None,0,533.1540440999961,None,533.1540440999961,534.1541208999988,534.1373744999873,535.1373749999912,0,1,533.1540440999961,None,1,m,18,r,KB,2021_Jul_02_1139,WASABI Nback,2020.2.10,60.023901517902125,
0,1,3,"[0.2, 0.2]",None,0,1,1,1,,,,,0,0,0,0,0,55,55,55,,,,,,,,,,,None,None,0,535.1540521999996,None,535.1540521999996,536.1540741999925,536.1373794999963,537.1373861999891,0,1,535.1540521999996,None,1,m,18,r,KB,2021_Jul_02_1139,WASABI Nback,2020.2.10,60.023901517902125,
0,1,9,"[0.2, -0.2]",1,0,1,1,1,,,,,0,0,0,0,0,56,56,56,,,,,,,,,,,None,None,0,537.1540629999945,None,537.1540629999945,538.1540705999942,538.1374162000138,539.1374018999923,0,1,537.1540629999945,None,1,m,18,r,KB,2021_Jul_02_1139,WASABI Nback,2020.2.10,60.023901517902125,
0,1,6,"[0.2, 0]",None,0,1,1,1,,,,,0,0,0,0,0,57,57,57,,,,,,,,,,,None,None,0,539.1540730000124,None,539.1540730000124,540.1539745999908,540.13741570001,541.1374343000061,0,1,539.1540730000124,None,1,m,18,r,KB,2021_Jul_02_1139,WASABI Nback,2020.2.10,60.023901517902125,
0,1,2,"[0, 0.2]",None,0,1,1,1,,,,,0,0,0,0,0,58,58,58,,,,,,,,,,,None,None,0,541.1540929999901,None,541.1540929999901,542.1540945000015,542.1374716999999,543.1374749999959,0,1,541.1540929999901,None,1,m,18,r,KB,2021_Jul_02_1139,WASABI Nback,2020.2.10,60.023901517902125,
0,1,5,"[0, 0]",None,0,1,1,1,,,,,0,0,0,0,0,59,59,59,,,,,,,,,,,None,None,0,543.1541153000144,None,543.1541153000144,544.1541145000083,544.1374909000006,545.1374601999996,0,1,543.1541153000144,None,1,m,18,r,KB,2021_Jul_02_1139,WASABI Nback,2020.2.10,60.023901517902125,
0,1,5,"[0, 0]",None,0,1,1,1,,,,,0,0,0,0,0,60,60,60,,,,,,,,,,,None,None,0,545.1541052999964,None,545.1541052999964,546.154123699991,546.137493599992,547.1374776999874,0,1,545.1541052999964,None,1,m,18,r,KB,2021_Jul_02_1139,WASABI Nback,2020.2.10,60.023901517902125,
0,1,2,"[0, 0.2]",None,0,1,1,1,,,,,0,0,0,0,0,61,61,61,,,,,,,,,,,None,None,0,547.1541368000035,None,547.1541368000035,548.1541388999904,548.1374801000056,549.1375146000064,0,1,547.1541368000035,None,1,m,18,r,KB,2021_Jul_02_1139,WASABI Nback,2020.2.10,60.023901517902125,
0,1,6,"[0.2, 0]",None,0,1,1,1,,,,,0,0,0,0,0,62,62,62,,,,,,,,,,,None,None,0,549.1541549999965,None,549.1541549999965,550.1541423999879,550.1374032000022,551.1375028000039,0,1,549.1541549999965,None,1,m,18,r,KB,2021_Jul_02_1139,WASABI Nback,2020.2.10,60.023901517902125,
0,1,9,"[0.2, -0.2]",None,0,1,1,1,,,,,0,0,0,0,0,63,63,63,,,,,,,,,,,None,None,0,551.1541774999932,None,551.1541774999932,552.1541815999954,552.1375359999947,553.1375117000134,0,1,551.1541774999932,None,1,m,18,r,KB,2021_Jul_02_1139,WASABI Nback,2020.2.10,60.023901517902125,
0,1,3,"[0.2, 0.2]",None,0,1,1,1,,,,,0,0,0,0,0,64,64,64,,,,,,,,,,,None,None,0,553.1541786000016,None,553.1541786000016,554.1541911000095,554.1375690000132,555.1375692999864,0,1,553.1541786000016,None,1,m,18,r,KB,2021_Jul_02_1139,WASABI Nback,2020.2.10,60.023901517902125,
0,1,9,"[0.2, -0.2]",1,0,1,1,1,,,,,0,0,0,0,0,65,65,65,,,,,,,,,,,None,None,0,555.1542022000067,None,555.1542022000067,556.1542043999943,556.1375393999915,557.1375535000116,0,1,555.1542022000067,None,1,m,18,r,KB,2021_Jul_02_1139,WASABI Nback,2020.2.10,60.023901517902125,
0,1,7,"[-0.2, -0.2]",None,0,1,1,1,,,,,0,0,0,0,0,66,66,66,,,,,,,,,,,None,None,0,557.1542093000025,None,557.1542093000025,558.154225700011,558.1375793000043,559.1376019000018,0,1,557.1542093000025,None,1,m,18,r,KB,2021_Jul_02_1139,WASABI Nback,2020.2.10,60.023901517902125,
0,1,1,"[-0.2, 0.2]",None,0,1,1,1,,,,,0,0,0,0,0,67,67,67,,,,,,,,,,,None,None,0,559.1542835999862,None,559.1542835999862,560.1542284000025,560.1375682000071,561.1375935999968,0,1,559.1542835999862,None,1,m,18,r,KB,2021_Jul_02_1139,WASABI Nback,2020.2.10,60.023901517902125,
0,1,5,"[0, 0]",None,0,1,1,1,,,,,0,0,0,0,0,68,68,68,,,,,,,,,,,None,None,0,561.1542488000123,None,561.1542488000123,562.1542456999887,562.1375982000027,563.13758770001,0,1,561.1542488000123,None,1,m,18,r,KB,2021_Jul_02_1139,WASABI Nback,2020.2.10,60.023901517902125,
0,1,7,"[-0.2, -0.2]",None,0,1,1,1,,,,,0,0,0,0,0,69,69,69,,,,,,,,,,,None,None,0,563.1542580999958,None,563.1542580999958,564.1542700999998,564.1376073000138,565.1376168999996,0,1,563.1542580999958,None,1,m,18,r,KB,2021_Jul_02_1139,WASABI Nback,2020.2.10,60.023901517902125,
0,1,5,"[0, 0]",1,0,1,1,1,,,,,0,0,0,0,0,70,70,70,,,,,,,,,,,None,None,0,565.1542593000049,None,565.1542593000049,566.1542758999858,566.1376171000011,567.13762210001,0,0,565.1542593000049,None,1,m,18,r,KB,2021_Jul_02_1139,WASABI Nback,2020.2.10,60.023901517902125,
0,1,6,"[0.2, 0]",None,0,1,1,1,,,,,0,0,0,0,0,71,71,71,,,,,,,,,,,None,None,0,567.154292399995,None,567.154292399995,568.1542963999964,568.1376268999884,569.1377939000085,0,1,567.154292399995,None,1,m,18,r,KB,2021_Jul_02_1139,WASABI Nback,2020.2.10,60.023901517902125,
0,1,3,"[0.2, 0.2]",None,0,1,1,1,,,,,0,0,0,0,0,72,72,72,,,,,,,,,,,None,None,0,569.154309000005,None,569.154309000005,570.1543152999948,570.1376504999935,571.1376467999944,0,1,569.154309000005,None,1,m,18,r,KB,2021_Jul_02_1139,WASABI Nback,2020.2.10,60.023901517902125,
0,1,6,"[0.2, 0]",1,0,1,1,1,,,,,0,0,0,0,0,73,73,73,,,,,,,,,,,None,None,0,571.1543095000088,None,571.1543095000088,572.1543303999933,572.1376665999996,573.1376627999998,0,1,571.1543095000088,None,1,m,18,r,KB,2021_Jul_02_1139,WASABI Nback,2020.2.10,60.023901517902125,
0,1,8,"[0, -0.2]",None,0,1,1,1,,,,,0,0,0,0,0,74,74,74,,,,,,,,,,,None,None,0,573.1543265999935,None,573.1543265999935,574.1543348999985,574.1377570999903,575.1376823000028,0,1,573.1543265999935,None,1,m,18,r,KB,2021_Jul_02_1139,WASABI Nback,2020.2.10,60.023901517902125,
0,1,9,"[0.2, -0.2]",None,0,1,1,1,,,,,0,0,0,0,0,75,75,75,,,,,,,,,,,None,None,0,575.154355000006,None,575.154355000006,576.1543575999967,576.1376911000116,577.1376862000034,0,1,575.154355000006,None,1,m,18,r,KB,2021_Jul_02_1139,WASABI Nback,2020.2.10,60.023901517902125,
0,1,9,"[0.2, -0.2]",None,0,1,1,1,,,,,0,0,0,0,0,76,76,76,,,,,,,,,,,None,None,0,577.1543592000089,None,577.1543592000089,578.1543985999888,578.1377084999986,579.1377053000033,0,1,577.1543592000089,None,1,m,18,r,KB,2021_Jul_02_1139,WASABI Nback,2020.2.10,60.023901517902125,
0,1,1,"[-0.2, 0.2]",None,0,1,1,1,,,,,0,0,0,0,0,77,77,77,,,,,,,,,,,None,None,0,579.154372399993,None,579.154372399993,580.1543790000142,580.1377256000123,581.1377322000044,0,1,579.154372399993,None,1,m,18,r,KB,2021_Jul_02_1139,WASABI Nback,2020.2.10,60.023901517902125,
0,1,3,"[0.2, 0.2]",None,0,1,1,1,,,,,0,0,0,0,0,78,78,78,,,,,,,,,,,None,None,0,581.154403499997,None,581.154403499997,582.154401000007,582.1377305999922,583.1377313999983,0,1,581.154403499997,None,1,m,18,r,KB,2021_Jul_02_1139,WASABI Nback,2020.2.10,60.023901517902125,
0,1,5,"[0, 0]",None,0,1,1,1,,,,,0,0,0,0,0,79,79,79,,,,,,,,,,,None,None,0,583.1544091000105,None,583.1544091000105,584.1544280000089,584.1377478000068,585.1377495999914,0,1,583.1544091000105,None,1,m,18,r,KB,2021_Jul_02_1139,WASABI Nback,2020.2.10,60.023901517902125,
0,1,3,"[0.2, 0.2]",1,0,1,1,1,,,,,0,0,0,0,0,80,80,80,,,,,,,,,,,None,None,0,585.154428400012,None,585.154428400012,586.1544241000083,586.1377746000071,587.1377405000094,0,0,585.154428400012,None,1,m,18,r,KB,2021_Jul_02_1139,WASABI Nback,2020.2.10,60.023901517902125,
0,1,4,"[-0.2, 0]",None,0,1,1,1,,,,,0,0,0,0,0,81,81,81,,,,,,,,,,,None,None,0,587.1544403999869,None,587.1544403999869,588.1544602999929,588.1377759999887,589.137783299986,0,1,587.1544403999869,None,1,m,18,r,KB,2021_Jul_02_1139,WASABI Nback,2020.2.10,60.023901517902125,
0,1,7,"[-0.2, -0.2]",None,0,1,1,1,,,,,0,0,0,0,0,82,82,82,,,,,,,,,,,None,None,0,589.1544633999874,None,589.1544633999874,590.1544731000031,590.1377863000089,591.1377991999907,0,1,589.1544633999874,None,1,m,18,r,KB,2021_Jul_02_1139,WASABI Nback,2020.2.10,60.023901517902125,
0,1,4,"[-0.2, 0]",1,0,1,1,1,,,,,0,0,0,0,0,83,83,83,,,,,,,,,,,None,None,0,591.1544719999947,None,591.1544719999947,592.1544786999875,592.1378083000018,593.1378150999954,0,1,591.1544719999947,None,1,m,18,r,KB,2021_Jul_02_1139,WASABI Nback,2020.2.10,60.023901517902125,
0,1,4,"[-0.2, 0]",None,0,1,1,1,,,,,0,0,0,0,0,84,84,84,,,,,,,,,,,None,None,0,593.1544846000033,None,593.1544846000033,594.1544944999914,594.1378175000136,595.1378316000046,0,1,593.1544846000033,None,1,m,18,r,KB,2021_Jul_02_1139,WASABI Nback,2020.2.10,60.023901517902125,
0,1,5,"[0, 0]",None,0,1,1,1,,,,,0,0,0,0,0,85,85,85,,,,,,,,,,,None,None,0,595.1544995000004,None,595.1544995000004,596.1545000000042,596.1378285000101,597.1378442000132,0,1,595.1544995000004,None,1,m,18,r,KB,2021_Jul_02_1139,WASABI Nback,2020.2.10,60.023901517902125,
0,1,2,"[0, 0.2]",None,0,1,1,1,,,,,0,0,0,0,0,86,86,86,,,,,,,,,,,None,None,0,597.154521599994,None,597.154521599994,598.1545250999916,598.1378474000085,599.1378608999948,0,1,597.154521599994,None,1,m,18,r,KB,2021_Jul_02_1139,WASABI Nback,2020.2.10,60.023901517902125,
0,1,6,"[0.2, 0]",None,0,1,1,1,,,,,0,0,0,0,0,87,87,87,,,,,,,,,,,None,None,0,599.1545340000011,None,599.1545340000011,600.1545500000066,600.1378860000113,601.1378808000009,0,1,599.1545340000011,None,1,m,18,r,KB,2021_Jul_02_1139,WASABI Nback,2020.2.10,60.023901517902125,
0,1,7,"[-0.2, -0.2]",None,0,1,1,1,,,,,0,0,0,0,0,88,88,88,,,,,,,,,,,None,None,0,601.1545510999858,None,601.1545510999858,602.1545934999886,602.1378878999967,603.1378942999872,0,1,601.1545510999858,None,1,m,18,r,KB,2021_Jul_02_1139,WASABI Nback,2020.2.10,60.023901517902125,
0,1,6,"[0.2, 0]",1,0,1,1,1,,,,,0,0,0,0,0,89,89,89,,,,,,,,,,,None,None,0,603.1546090999909,None,603.1546090999909,604.1545777000138,604.1379029999953,605.1379106999957,0,1,603.1546090999909,None,1,m,18,r,KB,2021_Jul_02_1139,WASABI Nback,2020.2.10,60.023901517902125,
0,1,6,"[0.2, 0]",None,0,1,1,1,,,,,0,0,0,0,0,90,90,90,,,,,,,,,,,None,None,0,605.1545812000113,None,605.1545812000113,606.1545910999994,606.1379182999954,607.1379397000128,0,1,605.1545812000113,None,1,m,18,r,KB,2021_Jul_02_1139,WASABI Nback,2020.2.10,60.023901517902125,
0,1,7,"[-0.2, -0.2]",None,0,1,1,1,,,,,0,0,0,0,0,91,91,91,,,,,,,,,,,None,None,0,607.1545824999921,None,607.1545824999921,608.1545981999952,608.1379250999889,609.1379382000014,0,1,607.1545824999921,None,1,m,18,r,KB,2021_Jul_02_1139,WASABI Nback,2020.2.10,60.023901517902125,
0,1,6,"[0.2, 0]",1,0,1,1,1,,,,,0,0,0,0,0,92,92,92,,,,,,,,,,,None,None,0,609.1546130999923,None,609.1546130999923,610.1546063999995,610.1379546000098,611.1379489999963,0,1,609.1546130999923,None,1,m,18,r,KB,2021_Jul_02_1139,WASABI Nback,2020.2.10,60.023901517902125,
0,1,2,"[0, 0.2]",None,0,1,1,1,,,,,0,0,0,0,0,93,93,93,,,,,,,,,,,None,None,0,611.154604100011,None,611.154604100011,612.1546323999937,612.1379568999982,613.1379739000113,0,1,611.154604100011,None,1,m,18,r,KB,2021_Jul_02_1139,WASABI Nback,2020.2.10,60.023901517902125,
0,1,5,"[0, 0]",None,0,1,1,1,,,,,0,0,0,0,0,94,94,94,,,,,,,,,,,None,None,0,613.1546320999914,None,613.1546320999914,614.1546459000092,614.1379677999939,615.1380000000063,0,1,613.1546320999914,None,1,m,18,r,KB,2021_Jul_02_1139,WASABI Nback,2020.2.10,60.023901517902125,
0,1,4,"[-0.2, 0]",None,0,1,1,1,,,,,0,0,0,0,0,95,95,95,,,,,,,,,,,None,None,0,615.1546890999889,None,615.1546890999889,616.1546507999883,616.1379850000085,617.137991800002,0,1,615.1546890999889,None,1,m,18,r,KB,2021_Jul_02_1139,WASABI Nback,2020.2.10,60.023901517902125,
0,1,4,"[-0.2, 0]",None,0,1,1,1,,,,,0,0,0,0,0,96,96,96,,,,,,,,,,,None,None,0,617.1546577000117,None,617.1546577000117,618.1546775999886,618.1380083000113,619.1380495000049,0,1,617.1546577000117,None,1,m,18,r,KB,2021_Jul_02_1139,WASABI Nback,2020.2.10,60.023901517902125,
0,1,7,"[-0.2, -0.2]",None,0,1,1,1,,,,,0,0,0,0,0,97,97,97,,,,,,,,,,,None,None,0,619.1546708999958,None,619.1546708999958,620.154696499987,620.1380227000045,621.1378732000012,0,1,619.1546708999958,None,1,m,18,r,KB,2021_Jul_02_1139,WASABI Nback,2020.2.10,60.023901517902125,
0,1,4,"[-0.2, 0]",1,0,1,1,1,,,,,0,0,0,0,0,98,98,98,,,,,,,,,,,None,None,0,621.1546908000018,None,621.1546908000018,622.1547040999867,622.1380434999883,623.1380474999896,0,1,621.1546908000018,None,1,m,18,r,KB,2021_Jul_02_1139,WASABI Nback,2020.2.10,60.023901517902125,
0,1,3,"[0.2, 0.2]",None,0,1,1,1,,,,,0,0,0,0,0,99,99,99,,,,,,,,,,,None,None,0,623.1547206999967,None,623.1547206999967,624.1547111000109,624.1380240999861,625.1380484999972,0,1,623.1547206999967,None,1,m,18,r,KB,2021_Jul_02_1139,WASABI Nback,2020.2.10,60.023901517902125,
0,1,5,"[0, 0]",None,0,1,1,1,,,,,0,0,0,0,0,100,100,100,,,,,,,,,,,None,None,0,625.1547178000037,None,625.1547178000037,626.1547277999925,626.138071399997,627.1380719000008,0,1,625.1547178000037,None,1,m,18,r,KB,2021_Jul_02_1139,WASABI Nback,2020.2.10,60.023901517902125,
0,1,3,"[0.2, 0.2]",1,0,1,1,1,,,,,0,0,0,0,0,101,101,101,,,,,,,,,,,None,None,0,627.1547335000068,None,627.1547335000068,628.1547398999974,628.138077999989,629.1380922000099,0,1,627.1547335000068,None,1,m,18,r,KB,2021_Jul_02_1139,WASABI Nback,2020.2.10,60.023901517902125,
0,1,1,"[-0.2, 0.2]",None,0,1,1,1,,,,,0,0,0,0,0,102,102,102,,,,,,,,,,,None,None,0,629.1547668999992,None,629.1547668999992,630.1547686000122,630.1380943999975,631.1381005999865,0,1,629.1547668999992,None,1,m,18,r,KB,2021_Jul_02_1139,WASABI Nback,2020.2.10,60.023901517902125,
0,1,9,"[0.2, -0.2]",None,0,1,1,1,,,,,0,0,0,0,0,103,103,103,,,,,,,,,,,None,None,0,631.1547661999939,None,631.1547661999939,632.15478360001,632.1381119000143,633.1381110000075,0,1,631.1547661999939,None,1,m,18,r,KB,2021_Jul_02_1139,WASABI Nback,2020.2.10,60.023901517902125,
0,1,9,"[0.2, -0.2]",None,0,1,1,1,,,,,0,0,0,0,0,104,104,104,,,,,,,,,,,None,None,0,633.1547850999923,None,633.1547850999923,634.1547764000134,634.1381350999873,635.1381233000138,0,1,633.1547850999923,None,1,m,18,r,KB,2021_Jul_02_1139,WASABI Nback,2020.2.10,60.023901517902125,
0,1,8,"[0, -0.2]",None,0,1,1,1,,,,,0,0,0,0,0,105,105,105,,,,,,,,,,,None,None,0,635.1548138000071,None,635.1548138000071,636.1546872000035,636.1381426999869,637.1381501000142,0,1,635.1548138000071,None,1,m,18,r,KB,2021_Jul_02_1139,WASABI Nback,2020.2.10,60.023901517902125,
0,1,6,"[0.2, 0]",None,0,1,1,1,,,,,0,0,0,0,0,106,106,106,,,,,,,,,,,None,None,0,637.1548159999948,None,637.1548159999948,638.1547189000121,638.1380320999888,639.1381627999945,0,1,637.1548159999948,None,1,m,18,r,KB,2021_Jul_02_1139,WASABI Nback,2020.2.10,60.023901517902125,
0,1,3,"[0.2, 0.2]",None,0,1,1,1,,,,,0,0,0,0,0,107,107,107,,,,,,,,,,,None,None,0,639.1548262999859,None,639.1548262999859,640.1548295000102,640.1381797000067,641.1381738999917,0,1,639.1548262999859,None,1,m,18,r,KB,2021_Jul_02_1139,WASABI Nback,2020.2.10,60.023901517902125,
0,1,6,"[0.2, 0]",1,0,1,1,1,,,,,0,0,0,0,0,108,108,108,,,,,,,,,,,None,None,0,641.1548635000072,None,641.1548635000072,642.1548417999875,642.1381708999979,643.1381996000127,0,1,641.1548635000072,None,1,m,18,r,KB,2021_Jul_02_1139,WASABI Nback,2020.2.10,60.023901517902125,
0,1,5,"[0, 0]",None,0,1,1,1,,,,,0,0,0,0,0,109,109,109,,,,,,,,,,,None,None,0,643.1548592000036,None,643.1548592000036,644.1548963999958,644.1381807000143,645.1382022000034,0,1,643.1548592000036,None,1,m,18,r,KB,2021_Jul_02_1139,WASABI Nback,2020.2.10,60.023901517902125,
0,1,7,"[-0.2, -0.2]",None,0,1,1,1,,,,,0,0,0,0,0,110,110,110,,,,,,,,,,,None,None,0,645.1547609000118,None,645.1547609000118,646.1548797000141,646.1382244999986,647.1382328000036,0,1,645.1547609000118,None,1,m,18,r,KB,2021_Jul_02_1139,WASABI Nback,2020.2.10,60.023901517902125,
0,1,5,"[0, 0]",1,0,1,1,1,,,,,0,0,0,0,0,111,111,111,,,,,,,,,,,None,None,0,647.154892599996,None,647.154892599996,648.1548956999904,648.1382300000114,649.1382448000077,0,1,647.154892599996,None,1,m,18,r,KB,2021_Jul_02_1139,WASABI Nback,2020.2.10,60.023901517902125,
0,1,1,"[-0.2, 0.2]",None,0,1,1,1,,,,,0,0,0,0,0,112,112,112,,,,,,,,,,,None,None,0,649.154884699994,None,649.154884699994,650.1549091000052,650.1382536999881,651.1382485000067,0,1,649.154884699994,None,1,m,18,r,KB,2021_Jul_02_1139,WASABI Nback,2020.2.10,60.023901517902125,
0,1,7,"[-0.2, -0.2]",None,0,1,1,1,,,,,0,0,0,0,0,113,113,113,,,,,,,,,,,None,None,0,651.15492120001,None,651.15492120001,652.1549285000074,652.1382680000097,653.1382669000013,0,1,651.15492120001,None,1,m,18,r,KB,2021_Jul_02_1139,WASABI Nback,2020.2.10,60.023901517902125,
0,1,9,"[0.2, -0.2]",None,0,1,1,1,,,,,0,0,0,0,0,114,114,114,,,,,,,,,,,None,None,0,653.1549137000111,None,653.1549137000111,654.1549586000037,654.1382744000002,655.1382937000017,0,1,653.1549137000111,None,1,m,18,r,KB,2021_Jul_02_1139,WASABI Nback,2020.2.10,60.023901517902125,
0,1,3,"[0.2, 0.2]",None,0,1,1,1,,,,,0,0,0,0,0,115,115,115,,,,,,,,,,,None,None,0,655.1549601999868,None,655.1549601999868,656.1549769999983,656.1382817999984,657.1382952000131,0,1,655.1549601999868,None,1,m,18,r,KB,2021_Jul_02_1139,WASABI Nback,2020.2.10,60.023901517902125,
0,1,9,"[0.2, -0.2]",1,0,1,1,1,,,,,0,0,0,0,0,116,116,116,,,,,,,,,,,None,None,0,657.1549727999954,None,657.1549727999954,658.1549761999922,658.138300999999,659.1382986000099,0,1,657.1549727999954,None,1,m,18,r,KB,2021_Jul_02_1139,WASABI Nback,2020.2.10,60.023901517902125,
0,1,6,"[0.2, 0]",None,0,1,1,1,,,,,0,0,0,0,0,117,117,117,,,,,,,,,,,None,None,0,659.1549553000077,None,659.1549553000077,660.154981700005,660.138323399995,661.1383390999981,0,1,659.1549553000077,None,1,m,18,r,KB,2021_Jul_02_1139,WASABI Nback,2020.2.10,60.023901517902125,
0,1,2,"[0, 0.2]",None,0,1,1,1,,,,,0,0,0,0,0,118,118,118,,,,,,,,,,,None,None,0,661.154999099992,None,661.154999099992,662.1550741000101,662.1383396000019,663.1383422999934,0,1,661.154999099992,None,1,m,18,r,KB,2021_Jul_02_1139,WASABI Nback,2020.2.10,60.023901517902125,
0,1,5,"[0, 0]",None,0,1,1,1,,,,,0,0,0,0,0,119,119,119,,,,,,,,,,,None,None,0,663.1550164000073,None,663.1550164000073,664.1550205000094,664.1383502999961,665.1383540999959,0,1,663.1550164000073,None,1,m,18,r,KB,2021_Jul_02_1139,WASABI Nback,2020.2.10,60.023901517902125,
