	SID	biopac_channel	body_site	condition	correct	date	duration	handedness	mouseclick	onset	rt	scanner	score	session	sex	skin_site	temperature	value
0	3210	42	Left Leg	0-back Instruction		2025_Nov_04_2021	5.005255652824417	r		2.789546800078824		ss mrs		2	m	3		
1	3210	7	Left Leg	Pre-Trial Jitter		2025_Nov_04_2021	7.005491720046848	r		7.801695999922231		ss mrs		2	m	3		
2	3210	44.0	Left Leg	pretrialfixation		2025_Nov_04_2021	1.0093780201859772	r		15.062450600089505		ss mrs		2	m	3		
3	3210		Left Leg	0-back	1.0	2025_Nov_04_2021	1.9870744599029422	r	0.0	16.075135400053114	0.6092679998837411	ss mrs	12.5	2	m	3	32.0	
4	3210		Left Leg	0-back	1.0	2025_Nov_04_2021	1.97322336002253	r	0.0	18.084145999979228	0.4873841998632997	ss mrs	25.0	2	m	3	32.0	
5	3210		Left Leg	0-back	1.0	2025_Nov_04_2021	1.9911293601617217	r	0.0	20.068953499896452	0.3305720998905599	ss mrs	37.5	2	m	3	32.0	
6	3210		Left Leg	0-back	1.0	2025_Nov_04_2021	1.9911601599305868	r	0.0	22.071003699908033	0.3350935000926256	ss mrs	50.0	2	m	3	32.0	
7	3210		Left Leg	0-back	1.0	2025_Nov_04_2021	1.9906754598487169	r	0.0	24.07323219999671	0.33063089987263083	ss mrs	62.5	2	m	3	32.0	
8	3210		Left Leg	0-back	1.0	2025_Nov_04_2021	1.990796559723094	r	0.0	26.075230499962345	0.40093540004454553	ss mrs	75.0	2	m	3	32.0	
9	3210		Left Leg	0-back	1.0	2025_Nov_04_2021	1.9910573598463088	r	0.0	28.07710379990749	0.2805194000247866	ss mrs	87.5	2	m	3	32.0	
10	3210		Left Leg	0-back	1.0	2025_Nov_04_2021	1.991441260324791	r	0.0	30.07907330011949	0.28163020010106266	ss mrs	100.0	2	m	3	32.0	
11	3210	48.0	Left Leg	ScoreReport		2025_Nov_04_2021	4.992247460177168	r		32.09052999992855		ss mrs		2	m	3		
12	3210	8	Left Leg	Post-Trial Jitter		2025_Nov_04_2021	4.9918947401456535	r		37.14596530003473		ss mrs		2	m	3		
13	3210	42	Left Leg	0-back Instruction		2025_Nov_04_2021	4.999956920044497	r		42.16373370005749		ss mrs		2	m	3		
14	3210	7	Left Leg	Pre-Trial Jitter		2025_Nov_04_2021	8.998725760029629	r		47.17152309999801		ss mrs		2	m	3		
15	3210	44.0	Left Leg	pretrialfixation		2025_Nov_04_2021	1.0041023003868759	r		56.41588669992052		ss mrs		2	m	3		
16	3210		Left Leg	0-back	1.0	2025_Nov_04_2021	1.99293755996041	r	0.0	57.43129629991017	0.6145423001144081	ss mrs	12.5	2	m	3	32.0	
17	3210		Left Leg	0-back	1.0	2025_Nov_04_2021	1.9728462600614876	r	0.0	59.44339819997549	0.4140384001657367	ss mrs	25.0	2	m	3	32.0	
18	3210		Left Leg	0-back	1.0	2025_Nov_04_2021	1.990743060130626	r	0.0	61.42812749999575	0.3509856001473963	ss mrs	37.5	2	m	3	32.0	
19	3210		Left Leg	0-back	1.0	2025_Nov_04_2021	1.9912394597195089	r	0.0	63.42994199995883	0.3679829000029713	ss mrs	50.0	2	m	3	32.0	
20	3210		Left Leg	0-back	1.0	2025_Nov_04_2021	1.9905967600643635	r	0.0	65.43232879997231	0.38505539996549487	ss mrs	62.5	2	m	3	32.0	
21	3210		Left Leg	0-back	1.0	2025_Nov_04_2021	1.9912078599445522	r	0.0	67.43407350010239	0.43531289999373257	ss mrs	75.0	2	m	3	32.0	
22	3210		Left Leg	0-back	1.0	2025_Nov_04_2021	1.990733559941873	r	0.0	69.4363255999051	0.3645349000580609	ss mrs	87.5	2	m	3	32.0	
23	3210		Left Leg	0-back	1.0	2025_Nov_04_2021	1.9908599599730223	r	0.0	71.43837670003995	0.301095400005579	ss mrs	100.0	2	m	3	32.0	
24	3210	48.0	Left Leg	ScoreReport		2025_Nov_04_2021	4.993226960068569	r		73.44904029997997		ss mrs		2	m	3		
25	3210	8	Left Leg	Post-Trial Jitter		2025_Nov_04_2021	7.002517340006307	r		78.50062069995329		ss mrs		2	m	3		
26	3210	51	Left Leg	Expectancy		2025_Nov_04_2021	4.999731780029833	r		85.79183100000955		ss mrs		2	m	3		31.11111111111111
27	3210	45	Left Leg	2-back Instruction		2025_Nov_04_2021	5.016469580121338	r		91.15561800007708		ss mrs		2	m	3		
28	3210	7	Left Leg	Pre-trial Jitter		2025_Nov_04_2021	6.993717059958726	r		96.1731710000895		ss mrs		2	m	3		
29	3210	44.0	Left Leg	pretrialfixation		2025_Nov_04_2021	0.9980599202681333	r		103.4420694001019		ss mrs		2	m	3		
30	3210		Left Leg	2-back	1.0	2025_Nov_04_2021	1.9915044601075351	r		104.44689960009418		ss mrs	12.5	2	m	3	48.5	
31	3210		Left Leg	2-back	1.0	2025_Nov_04_2021	1.9726542599964887	r		106.45834059990011		ss mrs	25.0	2	m	3	48.5	
32	3210		Left Leg	2-back	1.0	2025_Nov_04_2021	1.9900910602882504	r	2	108.44329200009815	0.8136303001083434	ss mrs	37.5	2	m	3	48.5	
33	3210		Left Leg	2-back	0.0	2025_Nov_04_2021	1.9896080601029098	r	2	110.44547970010899	0.8177419998683035	ss mrs	37.5	2	m	3	48.5	
34	3210		Left Leg	2-back	1.0	2025_Nov_04_2021	1.9886175598949194	r	2	112.44774820003659	0.7675755000673234	ss mrs	50.0	2	m	3	48.5	
35	3210		Left Leg	2-back	1.0	2025_Nov_04_2021	1.989718560129404	r	2	114.44890039996244	0.5976831000298262	ss mrs	62.5	2	m	3	48.5	
36	3210		Left Leg	2-back	1.0	2025_Nov_04_2021	1.9898599600419402	r	2	116.45088999997824	0.9979600999504328	ss mrs	75.0	2	m	3	48.5	
37	3210		Left Leg	2-back	1.0	2025_Nov_04_2021	1.9895354600157589	r	0	118.4531113000121	0.78186049987562	ss mrs	87.5	2	m	3	48.5	
38	3210	48.0	Left Leg	ScoreReport		2025_Nov_04_2021	5.01371481991373	r		120.46968189999461		ss mrs		2	m	3		
39	3210	8	Left Leg	Post-trial Jitter		2025_Nov_04_2021	7.0130246402695775	r		125.52614640002139		ss mrs		2	m	3		
40	3210	20	Left Leg	PainBinary		2025_Nov_04_2021	5.011152519844472	r		132.54996210010722	2.443102899938822	ss mrs		2	m	3		1.0
41	3210	21	Left Leg	IntensityRating		2025_Nov_04_2021	5.001147020142525	r		137.57686359994113	2.101487600011751	ss mrs		2	m	3		23.950617283950617
42	3210	23	Left Leg	DistractBinary		2025_Nov_04_2021	5.01404022006318	r		142.59220449998975	2.0271578999236226	ss mrs		2	m	3		1.0
43	3210	9	Left Leg	Post-Q-Jitter		2025_Nov_04_2021	7.019409160129726	r		147.60391220008023		ss mrs		2	m	3		
44	3210	51	Left Leg	Expectancy		2025_Nov_04_2021	4.998397200368345	r		155.11275850003585	2.451661700149998	ss mrs		2	m	3		22.901234567901234
45	3210	45	Left Leg	2-back Instruction		2025_Nov_04_2021	5.015425979858264	r		160.47642059996724		ss mrs		2	m	3		
46	3210	7	Left Leg	Pre-trial Jitter		2025_Nov_04_2021	6.992060760036111	r		165.4942461999599		ss mrs		2	m	3		
47	3210	44.0	Left Leg	pretrialfixation		2025_Nov_04_2021	1.001511620124802	r		172.76895619998686		ss mrs		2	m	3		
48	3210		Left Leg	2-back	1.0	2025_Nov_04_2021	1.9928343598730862	r		173.783433200093		ss mrs	12.5	2	m	3	48.5	
49	3210		Left Leg	2-back	1.0	2025_Nov_04_2021	1.9860665597952902	r		175.78078359994106		ss mrs	25.0	2	m	3	48.5	
50	3210		Left Leg	2-back	1.0	2025_Nov_04_2021	1.9898515599779785	r	2	177.7806623999495	0.8135699001140893	ss mrs	37.5	2	m	3	48.5	
51	3210		Left Leg	2-back	1.0	2025_Nov_04_2021	1.9897430601995438	r	2	179.78247389988974	0.6478911000303924	ss mrs	50.0	2	m	3	48.5	
52	3210		Left Leg	2-back	1.0	2025_Nov_04_2021	1.9892376600764692	r	0	181.78478120011277	0.5810857999604195	ss mrs	62.5	2	m	3	48.5	
53	3210		Left Leg	2-back	1.0	2025_Nov_04_2021	1.9891062600072473	r	2	183.78692189999856	1.08136359998025	ss mrs	75.0	2	m	3	48.5	
54	3210		Left Leg	2-back	1.0	2025_Nov_04_2021	1.9899012597743422	r	2	185.78855259995908	0.6810292999725789	ss mrs	87.5	2	m	3	48.5	
55	3210		Left Leg	2-back	0.0	2025_Nov_04_2021	1.9898845602292567	r	2	187.79061840008944	0.7645927001722157	ss mrs	87.5	2	m	3	48.5	
56	3210	48.0	Left Leg	ScoreReport		2025_Nov_04_2021	5.016602220246568	r		189.80584029993042		ss mrs		2	m	3		
57	3210	8	Left Leg	Post-trial Jitter		2025_Nov_04_2021	8.99995194002986	r		194.86304929992184		ss mrs		2	m	3		
58	3210	20	Left Leg	PainBinary		2025_Nov_04_2021	5.012581320013851	r		203.87226240010932	1.7421542999800295	ss mrs		2	m	3		1.0
59	3210	21	Left Leg	IntensityRating		2025_Nov_04_2021	5.005056119989604	r		208.89783950010315	2.536805700045079	ss mrs		2	m	3		23.76543209876543
60	3210	23	Left Leg	DistractBinary		2025_Nov_04_2021	5.013362220022827	r		213.91547290002927	1.2282866998575628	ss mrs		2	m	3		1.0
61	3210	9	Left Leg	Post-Q-Jitter		2025_Nov_04_2021	9.00361796002835	r		218.92753780004568		ss mrs		2	m	3		
62	3210	51	Left Leg	Expectancy		2025_Nov_04_2021	4.991581620182842	r		228.3748947000131	2.0642247998621315	ss mrs		2	m	3		23.580246913580247
63	3210	44	Left Leg	0-back Instruction		2025_Nov_04_2021	5.0137603401672095	r		233.75262539996766		ss mrs		2	m	3		
64	3210	7	Left Leg	Pre-Trial Jitter		2025_Nov_04_2021	4.9919280600734055	r		238.76833590003662		ss mrs		2	m	3		
65	3210	44.0	Left Leg	pretrialfixation		2025_Nov_04_2021	0.9919691800605506	r		244.05505710002035		ss mrs		2	m	3		
66	3210		Left Leg	0-back	1.0	2025_Nov_04_2021	1.9911222602240741	r	0.0	245.05695009999909	0.42726250016130507	ss mrs	12.5	2	m	3	48.5	
67	3210		Left Leg	0-back	1.0	2025_Nov_04_2021	1.9733233598526567	r	0.0	247.06788789993152	0.4678478001151234	ss mrs	25.0	2	m	3	48.5	
68	3210		Left Leg	0-back	1.0	2025_Nov_04_2021	1.99078205996193	r	0.0	249.05287640006281	0.2971437000669539	ss mrs	37.5	2	m	3	48.5	
69	3210		Left Leg	0-back	1.0	2025_Nov_04_2021	1.9903816599398851	r	0.0	251.05510549992323	0.3342675000894815	ss mrs	50.0	2	m	3	48.5	
70	3210		Left Leg	0-back	1.0	2025_Nov_04_2021	1.9910323598887771	r	0.0	253.05682709999382	0.26754609984345734	ss mrs	62.5	2	m	3	48.5	
71	3210		Left Leg	0-back	1.0	2025_Nov_04_2021	1.9912893599830568	r	0.0	255.0588094999548	0.28075730009004474	ss mrs	75.0	2	m	3	48.5	
72	3210		Left Leg	0-back	0.0	2025_Nov_04_2021	1.9914577601011842	r		257.06100649992004		ss mrs	75.0	2	m	3	48.5	
73	3210		Left Leg	0-back	1.0	2025_Nov_04_2021	1.9905226600822061	r	0	259.06354249990545	0.364199599949643	ss mrs	87.5	2	m	3	48.5	
74	3210	48.0	Left Leg	ScoreReport		2025_Nov_04_2021	5.016408120049164	r		261.0789065998979		ss mrs		2	m	3		
75	3210	8	Left Leg	Post-Trial Jitter		2025_Nov_04_2021	7.007945339893922	r		266.1393498000689		ss mrs		2	m	3		
76	3210	20	Left Leg	PainBinary		2025_Nov_04_2021	5.0127033200114965	r		273.15979860001244	1.542593500111252	ss mrs		2	m	3		1.0
77	3210	21	Left Leg	IntensityRating		2025_Nov_04_2021	5.005102819995955	r		278.18539700005203	2.6201039999723434	ss mrs		2	m	3		25.123456790123456
78	3210	23	Left Leg	DistractBinary		2025_Nov_04_2021	5.014855419984087	r		283.20262029999867	0.9427796001546085	ss mrs		2	m	3		1.0
79	3210	9	Left Leg	Post-Q-Jitter		2025_Nov_04_2021	7.001553159905598	r		288.21541960001923		ss mrs		2	m	3		
80	3210	51	Left Leg	Expectancy		2025_Nov_04_2021	5.02025516028516	r		295.71251199999824	2.7954818999860436	ss mrs		2	m	3		23.88888888888889
81	3210	44	Left Leg	0-back Instruction		2025_Nov_04_2021	5.011251580202952	r		301.0891499000136		ss mrs		2	m	3		
82	3210	7	Left Leg	Pre-Trial Jitter		2025_Nov_04_2021	6.990841260179877	r		306.1054380000569		ss mrs		2	m	3		
83	3210	44.0	Left Leg	pretrialfixation		2025_Nov_04_2021	1.0125075404066592	r		313.39902359992266		ss mrs		2	m	3		
84	3210		Left Leg	0-back	1.0	2025_Nov_04_2021	1.991961759980768	r	0.0	314.41082290001214	0.699727299856022	ss mrs	12.5	2	m	3	48.5	
85	3210		Left Leg	0-back	1.0	2025_Nov_04_2021	1.985350860049948	r	0.0	316.4079497999046	0.43695000000298023	ss mrs	25.0	2	m	3	48.5	
86	3210		Left Leg	0-back	1.0	2025_Nov_04_2021	1.9909965600818396	r	0.0	318.4071639999747	0.2968633999116719	ss mrs	37.5	2	m	3	48.5	
87	3210		Left Leg	0-back	1.0	2025_Nov_04_2021	1.9908396599348634	r	0.0	320.4092063999269	0.3134781999979168	ss mrs	50.0	2	m	3	48.5	
88	3210		Left Leg	0-back	1.0	2025_Nov_04_2021	1.9913364599924535	r	0.0	322.4110435000621	0.29732270003296435	ss mrs	62.5	2	m	3	48.5	
89	3210		Left Leg	0-back	1.0	2025_Nov_04_2021	1.9912651600316167	r	0.0	324.4131495000329	0.2835238000843674	ss mrs	75.0	2	m	3	48.5	
90	3210		Left Leg	0-back	1.0	2025_Nov_04_2021	1.9908131600823253	r	0.0	326.41537360008806	0.3141237001400441	ss mrs	87.5	2	m	3	48.5	
91	3210		Left Leg	0-back	1.0	2025_Nov_04_2021	1.9908414599485695	r	0.0	328.41746619995683	0.38036139984615147	ss mrs	100.0	2	m	3	48.5	
92	3210	48.0	Left Leg	ScoreReport		2025_Nov_04_2021	4.992878260090947	r		330.42830829997547		ss mrs		2	m	3		
93	3210	8	Left Leg	Post-Trial Jitter		2025_Nov_04_2021	5.007547340122983	r		335.4761097000446		ss mrs		2	m	3		
94	3210	20	Left Leg	PainBinary		2025_Nov_04_2021	5.012704620137811	r		340.49567419989035	1.377216599881649	ss mrs		2	m	3		1.0
95	3210	21	Left Leg	IntensityRating		2025_Nov_04_2021	5.003251619869843	r		345.5222565000877	1.8354268001858145	ss mrs		2	m	3		26.358024691358022
96	3210	23	Left Leg	DistractBinary		2025_Nov_04_2021	5.0096163200214505	r		350.5408455999568	1.1240731999278069	ss mrs		2	m	3		1.0
97	3210	9	Left Leg	Post-Q-Jitter		2025_Nov_04_2021	5.000066059874371	r		355.5507324000355		ss mrs		2	m	3		
98	3210	43	Left Leg	2-back Instruction		2025_Nov_04_2021	4.995874719927087	r		360.57439580000937		ss mrs		2	m	3		
99	3210	7	Left Leg	Pre-trial Jitter		2025_Nov_04_2021	8.997051059966907	r		365.5809545998927		ss mrs		2	m	3		
100	3210	44.0	Left Leg	pretrialfixation		2025_Nov_04_2021	0.9915960000362247	r		374.8224375001155		ss mrs		2	m	3		
101	3210		Left Leg	2-back	1.0	2025_Nov_04_2021	1.991101159946993	r		375.82415760005824		ss mrs	12.5	2	m	3	32.0	
102	3210		Left Leg	2-back	1.0	2025_Nov_04_2021	1.9719697600230575	r		377.8357297000475		ss mrs	25.0	2	m	3	32.0	
103	3210		Left Leg	2-back	1.0	2025_Nov_04_2021	1.9896858599968255	r	0	379.8205667999573	0.6181346999946982	ss mrs	37.5	2	m	3	32.0	
104	3210		Left Leg	2-back	1.0	2025_Nov_04_2021	1.9891526598948985	r	2	381.82299149991013	0.6311893998645246	ss mrs	50.0	2	m	3	32.0	
105	3210		Left Leg	2-back	1.0	2025_Nov_04_2021	1.9893481601029634	r	2	383.82488980004564	0.6476406999863684	ss mrs	62.5	2	m	3	32.0	
106	3210		Left Leg	2-back	1.0	2025_Nov_04_2021	1.9892557600978762	r	2	385.8270177000668	0.597700199810788	ss mrs	75.0	2	m	3	32.0	
107	3210		Left Leg	2-back	0.0	2025_Nov_04_2021	1.9899047599174082	r	2	387.8288020999171	0.9648986000102013	ss mrs	75.0	2	m	3	32.0	
108	3210		Left Leg	2-back	1.0	2025_Nov_04_2021	1.9898317602928728	r	2	389.83076929999515	0.6977872999850661	ss mrs	87.5	2	m	3	32.0	
109	3210	48.0	Left Leg	ScoreReport		2025_Nov_04_2021	5.0172674199566245	r		391.8456478000153		ss mrs		2	m	3		
110	3210	8	Left Leg	Post-trial Jitter		2025_Nov_04_2021	9.005219340091571	r		396.90889329998754		ss mrs		2	m	3		
111	3210	43	Left Leg	2-back Instruction		2025_Nov_04_2021	4.998325320193544	r		405.9362242000643		ss mrs		2	m	3		
112	3210	7	Left Leg	Pre-trial Jitter		2025_Nov_04_2021	4.990335959941149	r		410.9453753998969		ss mrs		2	m	3		
113	3210	44.0	Left Leg	pretrialfixation		2025_Nov_04_2021	1.0017676001880318	r		416.1846731000114		ss mrs		2	m	3		
114	3210		Left Leg	2-back	1.0	2025_Nov_04_2021	1.9917041601147503	r		417.19982310011983		ss mrs	12.5	2	m	3	32.0	
115	3210		Left Leg	2-back	1.0	2025_Nov_04_2021	2.0002910597249866	r		419.1975694000721		ss mrs	25.0	2	m	3	32.0	
116	3210		Left Leg	2-back	1.0	2025_Nov_04_2021	1.9856707600411028	r	2	421.19828739995137	0.7170094999019057	ss mrs	37.5	2	m	3	32.0	
117	3210		Left Leg	2-back	1.0	2025_Nov_04_2021	1.9902155599556863	r	2	423.19841920002364	0.7184577998705208	ss mrs	50.0	2	m	3	32.0	
118	3210		Left Leg	2-back	1.0	2025_Nov_04_2021	1.9885581601411104	r	0	425.2012553999666	0.8847720001358539	ss mrs	62.5	2	m	3	32.0	
119	3210		Left Leg	2-back	1.0	2025_Nov_04_2021	1.989748259773478	r	0	427.2024113999214	0.8178878000471741	ss mrs	75.0	2	m	3	32.0	
120	3210		Left Leg	2-back	1.0	2025_Nov_04_2021	1.9894938599318266	r	2	429.2045988999307	0.6476659998297691	ss mrs	87.5	2	m	3	32.0	
121	3210		Left Leg	2-back	1.0	2025_Nov_04_2021	1.9888348600361496	r	2	431.20696819992736	0.6812328998930752	ss mrs	100.0	2	m	3	32.0	
122	3210	48.0	Left Leg	ScoreReport		2025_Nov_04_2021	4.989812359912321	r		433.21837370004505		ss mrs		2	m	3		
123	3210	8	Left Leg	Post-trial Jitter		2025_Nov_04_2021	5.010223840363324	r		438.26341610006057		ss mrs		2	m	3		
124	3210	51	Left Leg	Expectancy		2025_Nov_04_2021	5.009077460505068	r		443.7697302000597	4.558996099978685	ss mrs		2	m	3		23.45679012345679
125	3210	44	Left Leg	0-back Instruction		2025_Nov_04_2021	5.006212580250576	r		449.1433560999576		ss mrs		2	m	3		
126	3210	7	Left Leg	Pre-Trial Jitter		2025_Nov_04_2021	8.995906959986314	r		454.1555890000891		ss mrs		2	m	3		
127	3210	44.0	Left Leg	pretrialfixation		2025_Nov_04_2021	1.0170342402998358	r		463.4504470000975		ss mrs		2	m	3		
128	3210		Left Leg	0-back	1.0	2025_Nov_04_2021	1.9898179599549621	r	0.0	464.46555739990436	0.5600763000547886	ss mrs	12.5	2	m	3	48.5	
129	3210		Left Leg	0-back	1.0	2025_Nov_04_2021	1.9732342599891126	r	0.0	466.47589219990186	0.41770690004341304	ss mrs	25.0	2	m	3	48.5	
130	3210		Left Leg	0-back	1.0	2025_Nov_04_2021	1.9905744600109756	r	0.0	468.4609254000243	0.33082099980674684	ss mrs	37.5	2	m	3	48.5	
131	3210		Left Leg	0-back	1.0	2025_Nov_04_2021	1.990502960048616	r	0.0	470.46297900006175	0.28105450002476573	ss mrs	50.0	2	m	3	48.5	
132	3210		Left Leg	0-back	1.0	2025_Nov_04_2021	1.9901801601517946	r	0.0	472.46523400000297	0.3139635999687016	ss mrs	62.5	2	m	3	48.5	
133	3210		Left Leg	0-back	1.0	2025_Nov_04_2021	1.9902119599282742	r	0.0	474.46721930010244	0.3475734000094235	ss mrs	75.0	2	m	3	48.5	
134	3210		Left Leg	0-back	1.0	2025_Nov_04_2021	1.9906044600065798	r	0.0	476.4691574999597	0.298002100083977	ss mrs	87.5	2	m	3	48.5	
135	3210		Left Leg	0-back	1.0	2025_Nov_04_2021	1.9911931599490345	r	0.0	478.4708396999631	0.36477969982661307	ss mrs	100.0	2	m	3	48.5	
136	3210	48.0	Left Leg	ScoreReport		2025_Nov_04_2021	4.993042160058394	r		480.4819583001081		ss mrs		2	m	3		
137	3210	8	Left Leg	Post-Trial Jitter		2025_Nov_04_2021	5.003457039827481	r		485.531893099891		ss mrs		2	m	3		
138	3210	20	Left Leg	PainBinary		2025_Nov_04_2021	5.007239920087159	r		490.5517223000061	1.389638600172475	ss mrs		2	m	3		1.0
139	3210	21	Left Leg	IntensityRating		2025_Nov_04_2021	5.001883120043203	r		495.576287999982	2.6696293000131845	ss mrs		2	m	3		29.38271604938272
140	3210	23	Left Leg	DistractBinary		2025_Nov_04_2021	5.012154420139268	r		500.59294359991327	1.3751670999918133	ss mrs		2	m	3		1.0
141	3210	9	Left Leg	Post-Q-Jitter		2025_Nov_04_2021	4.998989059822634	r		505.60457569989376		ss mrs		2	m	3		
142	3210	51	Left Leg	Expectancy		2025_Nov_04_2021	5.017677000490949	r		511.0842653999571	2.727225099923089	ss mrs		2	m	3		24.567901234567902
143	3210	44	Left Leg	0-back Instruction		2025_Nov_04_2021	5.0037869804073125	r		516.4634213000536		ss mrs		2	m	3		
144	3210	7	Left Leg	Pre-Trial Jitter		2025_Nov_04_2021	8.993836160050705	r		521.4754957000259		ss mrs		2	m	3		
145	3210	44.0	Left Leg	pretrialfixation		2025_Nov_04_2021	0.9967740199062973	r		530.7465711000841		ss mrs		2	m	3		
146	3210		Left Leg	0-back	1.0	2025_Nov_04_2021	1.992589859990403	r	0.0	531.7502580999862	0.6485388001892716	ss mrs	12.5	2	m	3	48.5	
147	3210		Left Leg	0-back	1.0	2025_Nov_04_2021	1.9903829598333687	r	0.0	533.7612097999081	0.3314572998788208	ss mrs	25.0	2	m	3	48.5	
148	3210		Left Leg	0-back	1.0	2025_Nov_04_2021	1.9744560599792749	r	0.0	535.7627930999734	0.29798470018431544	ss mrs	37.5	2	m	3	48.5	
149	3210		Left Leg	0-back	1.0	2025_Nov_04_2021	1.9911745600402355	r	0.0	537.7482481000479	0.2812693000305444	ss mrs	50.0	2	m	3	48.5	
150	3210		Left Leg	0-back	1.0	2025_Nov_04_2021	1.9909051598515362	r	0.0	539.7503555000294	0.28417729982174933	ss mrs	62.5	2	m	3	48.5	
151	3210		Left Leg	0-back	1.0	2025_Nov_04_2021	1.991135559976101	r	0.0	541.7522716000676	0.2843681999947876	ss mrs	75.0	2	m	3	48.5	
152	3210		Left Leg	0-back	1.0	2025_Nov_04_2021	1.9906501600053161	r	0.0	543.7545757000335	0.36472069984301925	ss mrs	87.5	2	m	3	48.5	
153	3210		Left Leg	0-back	1.0	2025_Nov_04_2021	1.9905002599116415	r	0.0	545.7567358999513	0.3308690001722425	ss mrs	100.0	2	m	3	48.5	
154	3210	48.0	Left Leg	ScoreReport		2025_Nov_04_2021	4.992901160148904	r		547.7674362999387		ss mrs		2	m	3		
155	3210	8	Left Leg	Post-Trial Jitter		2025_Nov_04_2021	5.0024035400711	r		552.8178968001157		ss mrs		2	m	3		
156	3210	20	Left Leg	PainBinary		2025_Nov_04_2021	5.008019519969821	r		557.8368987999856	1.1726233998779207	ss mrs		2	m	3		1.0
157	3210	21	Left Leg	IntensityRating		2025_Nov_04_2021	5.005355320172384	r		562.8599668999668	3.1880839997902513	ss mrs		2	m	3		28.39506172839506
158	3210	23	Left Leg	DistractBinary		2025_Nov_04_2021	5.012916219886392	r		567.8779959999956	1.0428532001096755	ss mrs		2	m	3		1.0
159	3210	9	Left Leg	Post-Q-Jitter		2025_Nov_04_2021	5.016743059968576	r		572.8895709000062		ss mrs		2	m	3		
160	3210	51	Left Leg	Expectancy		2025_Nov_04_2021	5.021187280537561	r		579.1860062000342	3.0958519000560045	ss mrs		2	m	3		26.79012345679012
161	3210	45	Left Leg	2-back Instruction		2025_Nov_04_2021	5.016693840036169	r		584.5773477000184		ss mrs		2	m	3		
162	3210	7	Left Leg	Pre-trial Jitter		2025_Nov_04_2021	8.995525760110468	r		589.5949796999339		ss mrs		2	m	3		
163	3210	44.0	Left Leg	pretrialfixation		2025_Nov_04_2021	1.0073583200573921	r		598.8611204999033		ss mrs		2	m	3		
164	3210		Left Leg	2-back	1.0	2025_Nov_04_2021	1.9929236599709839	r		599.8699499000795		ss mrs	12.5	2	m	3	48.5	
165	3210		Left Leg	2-back	1.0	2025_Nov_04_2021	1.972681760089472	r		601.8821296999231		ss mrs	25.0	2	m	3	48.5	
166	3210		Left Leg	2-back	1.0	2025_Nov_04_2021	1.9894133601337671	r	2	603.8674143000972	0.7342052001040429	ss mrs	37.5	2	m	3	48.5	
167	3210		Left Leg	2-back	1.0	2025_Nov_04_2021	1.989517159992829	r	2	605.8693750998937	0.7011277000419796	ss mrs	50.0	2	m	3	48.5	
168	3210		Left Leg	2-back	1.0	2025_Nov_04_2021	1.9899691599421203	r	0	607.8712460000534	0.5348869999870658	ss mrs	62.5	2	m	3	48.5	
169	3210		Left Leg	2-back	1.0	2025_Nov_04_2021	1.9891343598719686	r	2	609.8736918999348	0.7004982000216842	ss mrs	75.0	2	m	3	48.5	
170	3210		Left Leg	2-back	1.0	2025_Nov_04_2021	1.9893072603736073	r	2	611.8757921999786	1.1342105998191983	ss mrs	87.5	2	m	3	48.5	
171	3210		Left Leg	2-back	1.0	2025_Nov_04_2021	1.990032559959218	r	0	613.8777985998895	0.7338449000380933	ss mrs	100.0	2	m	3	48.5	
172	3210	48.0	Left Leg	ScoreReport		2025_Nov_04_2021	4.990092860069126	r		615.8893504999578		ss mrs		2	m	3		
173	3210	8	Left Leg	Post-trial Jitter		2025_Nov_04_2021	9.001302740070969	r		620.9408607000951		ss mrs		2	m	3		
174	3210	20	Left Leg	PainBinary		2025_Nov_04_2021	5.009926920058206	r		629.9603595000226	1.4396880001295358	ss mrs		2	m	3		1.0
175	3210	21	Left Leg	IntensityRating		2025_Nov_04_2021	5.002133819973096	r		634.9861282999627	1.5528501998633146	ss mrs		2	m	3		23.51851851851852
176	3210	23	Left Leg	DistractBinary		2025_Nov_04_2021	5.011684719938785	r		640.0031721999403	1.124925599899143	ss mrs		2	m	3		1.0
177	3210	9	Left Leg	Post-Q-Jitter		2025_Nov_04_2021	9.004207759862766	r		645.0141074999701		ss mrs		2	m	3		
178	3210	51	Left Leg	Expectancy		2025_Nov_04_2021	4.998044600477442	r		654.5082183000632	3.0514371001627296	ss mrs		2	m	3		23.580246913580247
179	3210	45	Left Leg	2-back Instruction		2025_Nov_04_2021	5.00726102036424	r		659.8673751000315		ss mrs		2	m	3		
180	3210	7	Left Leg	Pre-trial Jitter		2025_Nov_04_2021	4.990628559840843	r		664.8891485000495		ss mrs		2	m	3		
181	3210	44.0	Left Leg	pretrialfixation		2025_Nov_04_2021	1.0135541800409555	r		670.1643970001023		ss mrs		2	m	3		
182	3210		Left Leg	2-back	1.0	2025_Nov_04_2021	1.9920735601335764	r		671.1765690001193		ss mrs	12.5	2	m	3	48.5	
183	3210		Left Leg	2-back	1.0	2025_Nov_04_2021	1.9723817601334304	r		673.1885363999754		ss mrs	25.0	2	m	3	48.5	
184	3210		Left Leg	2-back	1.0	2025_Nov_04_2021	1.9889487600885332	r	0	675.1743411999196	0.601320399902761	ss mrs	37.5	2	m	3	48.5	
185	3210		Left Leg	2-back	0.0	2025_Nov_04_2021	1.9893354601226747	r		677.1757887999993		ss mrs	37.5	2	m	3	48.5	
186	3210		Left Leg	2-back	1.0	2025_Nov_04_2021	1.9901327600236982	r	2	679.1774015000556	0.8475407999940217	ss mrs	50.0	2	m	3	48.5	
187	3210		Left Leg	2-back	1.0	2025_Nov_04_2021	1.9888900599908084	r	2	681.1801287000999	0.6040429000277072	ss mrs	62.5	2	m	3	48.5	
188	3210		Left Leg	2-back	0.0	2025_Nov_04_2021	1.9896972600836307	r	2	683.181827200111	0.7004311000928283	ss mrs	62.5	2	m	3	48.5	
189	3210		Left Leg	2-back	1.0	2025_Nov_04_2021	1.9886013597715646	r	0	685.1843067000154	0.48484629997983575	ss mrs	75.0	2	m	3	48.5	
190	3210	48.0	Left Leg	ScoreReport		2025_Nov_04_2021	5.016729119932279	r		687.1989575999323		ss mrs		2	m	3		
191	3210	8	Left Leg	Post-trial Jitter		2025_Nov_04_2021	4.9973677401430905	r		692.2637501000427		ss mrs		2	m	3		
192	3210	20	Left Leg	PainBinary		2025_Nov_04_2021	5.0022403199691325	r		697.2831133001018	1.8710012999363244	ss mrs		2	m	3		1.0
193	3210	21	Left Leg	IntensityRating		2025_Nov_04_2021	4.997770719928667	r		702.3071675000247	3.1190436999313533	ss mrs		2	m	3		26.296296296296294
194	3210	23	Left Leg	DistractBinary		2025_Nov_04_2021	5.012391319964081	r		707.3216661999468	1.7262061999645084	ss mrs		2	m	3		1.0
195	3210	9	Left Leg	Post-Q-Jitter		2025_Nov_04_2021	5.001764460001141	r		712.3325342999306		ss mrs		2	m	3		
196	3210	26	Left Leg	ComfortRating		2025_Nov_04_2021	4.10231082001701	r		717.3536743998993	4.085735799977556	ss mrs		2	m	3		1.8518518518518334
197	3210	24	Left Leg	ValenceRating		2025_Nov_04_2021	4.113380820257589	r		721.4773844000883	4.087630100082606	ss mrs		2	m	3		31.11111111111111
198	3210	26	Left Leg	IntensityRating		2025_Nov_04_2021	1.5349979200400412	r		725.6112156000454	1.5169702998828143	ss mrs		2	m	3		43.4567901234568
199	3210	27	Left Leg	AvoidanceRating		2025_Nov_04_2021	2.7164364198688418	r		727.1643342999741	2.703098700148985	ss mrs		2	m	3		12.839506172839506
200	3210	28	Left Leg	RelaxationRating		2025_Nov_04_2021	2.3700359200593084	r		729.8984644000884	2.3513166999910027	ss mrs		2	m	3		39.19753086419753
201	3210	29	Left Leg	AttentionRating		2025_Nov_04_2021	2.14458772004582	r		732.2885072999634	2.134265000000596	ss mrs		2	m	3		58.7037037037037
202	3210	30	Left Leg	BoredomRating		2025_Nov_04_2021	1.6036253201309592	r		734.453010499943	1.585208599921316	ss mrs		2	m	3		34.32098765432099
203	3210	31	Left Leg	AlertnessRating		2025_Nov_04_2021	2.253464720211923	r		736.0718392000999	2.2355481998529285	ss mrs		2	m	3		22.222222222222214
204	3210	32	Left Leg	PosThxRating		2025_Nov_04_2021	1.6654194199945778	r		738.3429453000426	1.6518516999203712	ss mrs		2	m	3		-24.19753086419753
205	3210	33	Left Leg	NegThxRating		2025_Nov_04_2021	1.7788297201041132	r		740.0295420999173	1.7674686999525875	ss mrs		2	m	3		15.555555555555571
206	3210	34	Left Leg	SelfRating		2025_Nov_04_2021	2.3980651199817657	r		741.8304558999371	2.369670599931851	ss mrs		2	m	3		17.160493827160494
207	3210	35	Left Leg	OtherRating		2025_Nov_04_2021	1.1000001200009137	r		744.2480999000836	1.086529599968344	ss mrs		2	m	3		-10.987654320987644
208	3210	32	Left Leg	ImageryRating		2025_Nov_04_2021	2.18260962003842	r		745.366830999963	2.1691995998844504	ss mrs		2	m	3		-14.197530864197532
209	3210	37	Left Leg	PresentRating		2025_Nov_04_2021	1.8263180200010538	r		747.571953299921	1.8162605999968946	ss mrs		2	m	3		13.456790123456798
