square,location,corrAns,trials.thisRepN,trials.thisTrialN,trials.thisN,trials.thisIndex,trials_2.thisRepN,trials_2.thisTrialN,trials_2.thisN,trials_2.thisIndex,fixation_1.started,fixation_1.stopped,grid_lines.started,grid_lines.stopped,target_square.started,target_square.stopped,fixation_2.started,fixation_2.stopped,response.corr,response.x,response.y,response.leftButton,response.click_left,response.click_right,response.started,response.stopped,ScoreReportText.started,ScoreReportText.stopped,ScoreReportResponse.keys,ScoreReportResponse.started,ScoreReportResponse.stopped,response_2.x,response_2.y,response_2.leftButton,grid_lines_2.started,grid_lines_2.stopped,target_square_2.started,target_square_2.stopped,fixation_3.started,fixation_3.stopped,response_2.click,response_2.corr,response_2.started,response_2.stopped,BodySiteInstructionText.started,BodySiteImg.started,BodySiteImg.stopped,BodySiteInstructionRead.keys,BodySiteInstructionRead.rt,BodySiteInstructionRead.started,BodySiteInstructionRead.stopped,IntensityRating.response,IntensityRating.rt,IntensityRating.started,IntensityRating.stopped,response.click,response.rt_left,response.rt_right,response_2.rt_left,response_2.rt_right,subject number,gender,distractMap first- or second-half (1 or 2),session,handedness,scanner,date,psychopyVersion,expName,frameRate,body_site_order,
6,"[0.2, 0]",None,0,0,0,0,,,,,183.0366173000075,None,184.06998529983684,None,184.06998529983684,185.06998189957812,185.05329359974712,None,1,0.010185185185185186,0.0824074074074074,"[0, 0, 0]",0,0,184.06998529983684,None,,,,,,,,,,,,,,,,,,,,,,,,,,,,,,,,,,,4,M,1,12,l,CIB,2021_Sep_07_1221,2020.2.10,distractmap1,60.005100374571875,"['Abdomen', 'Right Arm', 'Left Face', 'Left Leg']",
6,"[0.2, 0]",1,0,1,1,1,,,,,,,186.05332219973207,None,186.05332219973207,187.05333399958909,187.0366409998387,188.03669289965183,1,0.010185185185185186,0.0824074074074074,"[0, 0, 0]",0,0,186.05332219973207,None,,,,,,,,,,,,,,,,,,,,,,,,,,,,,,,,,,,4,M,1,12,l,CIB,2021_Sep_07_1221,2020.2.10,distractmap1,60.005100374571875,"['Abdomen', 'Right Arm', 'Left Face', 'Left Leg']",
2,"[0, 0.2]",0,0,2,2,2,,,,,,,188.05333899986,None,188.05333899986,189.0533239999786,189.03661389974877,190.0366885997355,1,0.010185185185185186,0.0824074074074074,"[0, 0, 0]",0,0,188.05333899986,None,,,,,,,,,,,,,,,,,,,,,,,,,,,,,,,,,,,4,M,1,12,l,CIB,2021_Sep_07_1221,2020.2.10,distractmap1,60.005100374571875,"['Abdomen', 'Right Arm', 'Left Face', 'Left Leg']",
9,"[0.2, -0.2]",0,0,3,3,3,,,,,,,190.05322319967672,None,190.05322319967672,191.0533737996593,191.03671279968694,192.03671259991825,0,0.010185185185185186,0.0824074074074074,"[0, 0, 0]",0,0,190.05322319967672,None,,,,,,,,,,,,,,,,,,,,,,,,,,,,,,,,,,,4,M,1,12,l,CIB,2021_Sep_07_1221,2020.2.10,distractmap1,60.005100374571875,"['Abdomen', 'Right Arm', 'Left Face', 'Left Leg']",
9,"[0.2, -0.2]",1,0,4,4,4,,,,,,,192.05336969997734,None,192.05336969997734,193.05338639998809,193.03672139998525,194.03660989971831,1,0.010185185185185186,0.0824074074074074,"[0, 0, 0]",0,0,192.05336969997734,None,,,,,,,,,,,,,,,,,,,,,,,,,,,,,,,,,,,4,M,1,12,l,CIB,2021_Sep_07_1221,2020.2.10,distractmap1,60.005100374571875,"['Abdomen', 'Right Arm', 'Left Face', 'Left Leg']",
6,"[0.2, 0]",0,0,5,5,5,,,,,,,194.05338749988005,None,194.05338749988005,195.05342209991068,195.03674839995801,196.03672919981182,1,0.010185185185185186,0.0824074074074074,"[0, 0, 0]",0,0,194.05338749988005,None,,,,,,,,,,,,,,,,,,,,,,,,,,,,,,,,,,,4,M,1,12,l,CIB,2021_Sep_07_1221,2020.2.10,distractmap1,60.005100374571875,"['Abdomen', 'Right Arm', 'Left Face', 'Left Leg']",
4,"[-0.2, 0]",0,0,6,6,6,,,,,,,196.05340009974316,None,196.05340009974316,197.05340559966862,197.0367270000279,198.0367516996339,1,0.010185185185185186,0.0824074074074074,"[0, 0, 0]",0,0,196.05340009974316,None,,,,,,,,,,,,,,,,,,,,,,,,,,,,,,,,,,,4,M,1,12,l,CIB,2021_Sep_07_1221,2020.2.10,distractmap1,60.005100374571875,"['Abdomen', 'Right Arm', 'Left Face', 'Left Leg']",
3,"[0.2, 0.2]",0,0,7,7,7,,,,,,,198.05340539989993,None,198.05340539989993,199.05339200003073,199.03676439961419,200.03674130002037,1,0.010185185185185186,0.0824074074074074,"[0, 0, 0]",0,0,198.05340539989993,None,,,,,,,,,,,,,,,,,,,,,,,,,,,,,,,,,,,4,M,1,12,l,CIB,2021_Sep_07_1221,2020.2.10,distractmap1,60.005100374571875,"['Abdomen', 'Right Arm', 'Left Face', 'Left Leg']",
3,"[0.2, 0.2]",1,0,8,8,8,,,,,,,200.0533939995803,None,200.0533939995803,201.05340369977057,201.036761299707,202.0367744998075,1,0.010185185185185186,0.0824074074074074,"[0, 0, 0]",0,0,200.0533939995803,None,,,,,,,,,,,,,,,,,,,,,,,,,,,,,,,,,,,4,M,1,12,l,CIB,2021_Sep_07_1221,2020.2.10,distractmap1,60.005100374571875,"['Abdomen', 'Right Arm', 'Left Face', 'Left Leg']",
8,"[0, -0.2]",0,0,9,9,9,,,,,,,202.05341289984062,None,202.05341289984062,203.05341879976913,203.03677789960057,204.03677399968728,1,0.010185185185185186,0.0824074074074074,"[0, 0, 0]",0,0,202.05341289984062,None,,,,,,,,,,,,,,,,,,,,,,,,,,,,,,,,,,,4,M,1,12,l,CIB,2021_Sep_07_1221,2020.2.10,distractmap1,60.005100374571875,"['Abdomen', 'Right Arm', 'Left Face', 'Left Leg']",
1,"[-0.2, 0.2]",0,0,10,10,10,,,,,,,204.05342479981482,None,204.05342479981482,205.05343959992751,205.0366797996685,206.03680759994313,1,0.010185185185185186,0.0824074074074074,"[0, 0, 0]",0,0,204.05342479981482,None,,,,,,,,,,,,,,,,,,,,,,,,,,,,,,,,,,,4,M,1,12,l,CIB,2021_Sep_07_1221,2020.2.10,distractmap1,60.005100374571875,"['Abdomen', 'Right Arm', 'Left Face', 'Left Leg']",
2,"[0, 0.2]",0,0,11,11,11,,,,,,,206.05345009965822,None,206.05345009965822,207.05345639958978,207.03681499976665,208.03681779978797,0,0.010185185185185186,0.0824074074074074,"[0, 0, 0]",0,0,206.05345009965822,None,,,,,,,,,,,,,,,,,,,,,,,,,,,,,,,,,,,4,M,1,12,l,CIB,2021_Sep_07_1221,2020.2.10,distractmap1,60.005100374571875,"['Abdomen', 'Right Arm', 'Left Face', 'Left Leg']",
4,"[-0.2, 0]",0,0,12,12,12,,,,,,,208.0534649998881,None,208.0534649998881,209.05346889980137,209.03683709958568,210.03682929975912,1,0.010185185185185186,0.0824074074074074,"[0, 0, 0]",0,0,208.0534649998881,None,,,,,,,,,,,,,,,,,,,,,,,,,,,,,,,,,,,4,M,1,12,l,CIB,2021_Sep_07_1221,2020.2.10,distractmap1,60.005100374571875,"['Abdomen', 'Right Arm', 'Left Face', 'Left Leg']",
4,"[-0.2, 0]",1,0,13,13,13,,,,,,,210.05346259986982,None,210.05346259986982,211.05349479988217,211.03684369986877,212.03684709966183,1,0.010185185185185186,0.0824074074074074,"[0, 0, 0]",0,0,210.05346259986982,None,,,,,,,,,,,,,,,,,,,,,,,,,,,,,,,,,,,4,M,1,12,l,CIB,2021_Sep_07_1221,2020.2.10,distractmap1,60.005100374571875,"['Abdomen', 'Right Arm', 'Left Face', 'Left Leg']",
8,"[0, -0.2]",0,0,14,14,14,,,,,,,212.05349519988522,None,212.05349519988522,213.05349129997194,213.03685249993578,214.03686089999974,1,0.010185185185185186,0.0824074074074074,"[0, 0, 0]",0,0,212.05349519988522,None,,,,,,,,,,,,,,,,,,,,,,,,,,,,,,,,,,,4,M,1,12,l,CIB,2021_Sep_07_1221,2020.2.10,distractmap1,60.005100374571875,"['Abdomen', 'Right Arm', 'Left Face', 'Left Leg']",
5,"[0, 0]",0,0,15,15,15,,,,,,,214.05350819975138,None,214.05350819975138,215.05351069988683,215.03686459967867,216.0368716996163,1,0.010185185185185186,0.0824074074074074,"[0, 0, 0]",0,0,214.05350819975138,None,,,,,,,,,,,,,,,,,,,,,,,,,,,,,,,,,,,4,M,1,12,l,CIB,2021_Sep_07_1221,2020.2.10,distractmap1,60.005100374571875,"['Abdomen', 'Right Arm', 'Left Face', 'Left Leg']",
5,"[0, 0]",1,0,16,16,16,,,,,,,216.05350689962506,None,216.05350689962506,217.05353229958564,217.03689079964533,218.03687609964982,1,0.010185185185185186,0.0824074074074074,"[0, 0, 0]",0,0,216.05350689962506,None,,,,,,,,,,,,,,,,,,,,,,,,,,,,,,,,,,,4,M,1,12,l,CIB,2021_Sep_07_1221,2020.2.10,distractmap1,60.005100374571875,"['Abdomen', 'Right Arm', 'Left Face', 'Left Leg']",
1,"[-0.2, 0.2]",0,0,17,17,17,,,,,,,218.05352950002998,None,218.05352950002998,219.05353779997677,219.03689569979906,220.03691219957545,1,0.010185185185185186,0.0824074074074074,"[0, 0, 0]",0,0,218.05352950002998,None,,,,,,,,,,,,,,,,,,,,,,,,,,,,,,,,,,,4,M,1,12,l,CIB,2021_Sep_07_1221,2020.2.10,distractmap1,60.005100374571875,"['Abdomen', 'Right Arm', 'Left Face', 'Left Leg']",
3,"[0.2, 0.2]",0,0,18,18,18,,,,,,,220.05351129965857,None,220.05351129965857,221.05357579980046,221.03690829966217,222.03692689957097,1,0.010185185185185186,0.0824074074074074,"[0, 0, 0]",0,0,220.05351129965857,None,,,,,,,,,,,,,,,,,,,,,,,,,,,,,,,,,,,4,M,1,12,l,CIB,2021_Sep_07_1221,2020.2.10,distractmap1,60.005100374571875,"['Abdomen', 'Right Arm', 'Left Face', 'Left Leg']",
6,"[0.2, 0]",0,0,19,19,19,,,,,,,222.05355919990689,None,222.05355919990689,223.05357899982482,223.03693209961057,224.03693039994687,1,0.010185185185185186,0.0824074074074074,"[0, 0, 0]",0,0,222.05355919990689,None,,,,,,,,,,,,,,,,,,,,,,,,,,,,,,,,,,,4,M,1,12,l,CIB,2021_Sep_07_1221,2020.2.10,distractmap1,60.005100374571875,"['Abdomen', 'Right Arm', 'Left Face', 'Left Leg']",
1,"[-0.2, 0.2]",0,0,20,20,20,,,,,,,224.05357009964064,None,224.05357009964064,225.05358009971678,225.03693899977952,226.03695369977504,1,0.010185185185185186,0.0824074074074074,"[0, 0, 0]",0,0,224.05357009964064,None,,,,,,,,,,,,,,,,,,,,,,,,,,,,,,,,,,,4,M,1,12,l,CIB,2021_Sep_07_1221,2020.2.10,distractmap1,60.005100374571875,"['Abdomen', 'Right Arm', 'Left Face', 'Left Leg']",
1,"[-0.2, 0.2]",1,0,21,21,21,,,,,,,226.05359359970316,None,226.05359359970316,227.05359449982643,227.0369480997324,228.03696929989383,1,0.010185185185185186,0.0824074074074074,"[0, 0, 0]",0,0,226.05359359970316,None,,,,,,,,,,,,,,,,,,,,,,,,,,,,,,,,,,,4,M,1,12,l,CIB,2021_Sep_07_1221,2020.2.10,distractmap1,60.005100374571875,"['Abdomen', 'Right Arm', 'Left Face', 'Left Leg']",
1,"[-0.2, 0.2]",1,0,22,22,22,,,,,,,228.0536177996546,None,228.0536177996546,229.05351219978184,229.03698009997606,230.0369731998071,1,0.010185185185185186,0.0824074074074074,"[0, 0, 0]",0,0,228.0536177996546,None,,,,,,,,,,,,,,,,,,,,,,,,,,,,,,,,,,,4,M,1,12,l,CIB,2021_Sep_07_1221,2020.2.10,distractmap1,60.005100374571875,"['Abdomen', 'Right Arm', 'Left Face', 'Left Leg']",
3,"[0.2, 0.2]",0,0,23,23,23,,,,,,,230.0536154997535,None,230.0536154997535,231.05367239983752,231.036991099827,232.0369932996109,1,0.010185185185185186,0.0824074074074074,"[0, 0, 0]",0,0,230.0536154997535,None,,,,,,,,,,,,,,,,,,,,,,,,,,,,,,,,,,,4,M,1,12,l,CIB,2021_Sep_07_1221,2020.2.10,distractmap1,60.005100374571875,"['Abdomen', 'Right Arm', 'Left Face', 'Left Leg']",
2,"[0, 0.2]",0,0,24,24,24,,,,,,,232.05367659963667,None,232.05367659963667,233.05366380000487,233.03698909981176,234.0369977997616,1,0.010185185185185186,0.0824074074074074,"[0, 0, 0]",0,0,232.05367659963667,None,,,,,,,,,,,,,,,,,,,,,,,,,,,,,,,,,,,4,M,1,12,l,CIB,2021_Sep_07_1221,2020.2.10,distractmap1,60.005100374571875,"['Abdomen', 'Right Arm', 'Left Face', 'Left Leg']",
1,"[-0.2, 0.2]",0,0,25,25,25,,,,,,,234.05366919981316,None,234.05366919981316,235.0537036997266,235.03650969965383,236.03701889980584,1,0.010185185185185186,0.0824074074074074,"[0, 0, 0]",0,0,234.05366919981316,None,,,,,,,,,,,,,,,,,,,,,,,,,,,,,,,,,,,4,M,1,12,l,CIB,2021_Sep_07_1221,2020.2.10,distractmap1,60.005100374571875,"['Abdomen', 'Right Arm', 'Left Face', 'Left Leg']",
7,"[-0.2, -0.2]",0,0,26,26,26,,,,,,,236.05366420000792,None,236.05366420000792,237.05319290002808,237.03704059962183,238.03703529993072,1,0.010185185185185186,0.0824074074074074,"[0, 0, 0]",0,0,236.05366420000792,None,,,,,,,,,,,,,,,,,,,,,,,,,,,,,,,,,,,4,M,1,12,l,CIB,2021_Sep_07_1221,2020.2.10,distractmap1,60.005100374571875,"['Abdomen', 'Right Arm', 'Left Face', 'Left Leg']",
7,"[-0.2, -0.2]",1,0,27,27,27,,,,,,,238.05368429981172,None,238.05368429981172,239.05369329964742,239.0370428999886,240.0370628000237,1,0.010185185185185186,0.0824074074074074,"[0, 0, 0]",0,0,238.05368429981172,None,,,,,,,,,,,,,,,,,,,,,,,,,,,,,,,,,,,4,M,1,12,l,CIB,2021_Sep_07_1221,2020.2.10,distractmap1,60.005100374571875,"['Abdomen', 'Right Arm', 'Left Face', 'Left Leg']",
2,"[0, 0.2]",0,0,28,28,28,,,,,,,240.05370729975402,None,240.05370729975402,241.05371569981799,241.03703619958833,242.03697909973562,1,0.010185185185185186,0.0824074074074074,"[0, 0, 0]",0,0,240.05370729975402,None,,,,,,,,,,,,,,,,,,,,,,,,,,,,,,,,,,,4,M,1,12,l,CIB,2021_Sep_07_1221,2020.2.10,distractmap1,60.005100374571875,"['Abdomen', 'Right Arm', 'Left Face', 'Left Leg']",
6,"[0.2, 0]",0,0,29,29,29,,,,,,,242.05371319968253,None,242.05371319968253,243.05374109977856,243.03708569984883,244.03708549961448,1,0.010185185185185186,0.0824074074074074,"[0, 0, 0]",0,0,242.05371319968253,None,,,,,,,,,,,,,,,,,,,,,,,,,,,,,,,,,,,4,M,1,12,l,CIB,2021_Sep_07_1221,2020.2.10,distractmap1,60.005100374571875,"['Abdomen', 'Right Arm', 'Left Face', 'Left Leg']",
,,,,,,,,,,,,,,,,,,,,,,,,,,,244.07040959969163,None,space,244.07040959969163,None,,,,,,,,,,,,,,,,,,,,,,,,,,,,,,4,M,1,12,l,CIB,2021_Sep_07_1221,2020.2.10,distractmap1,60.005100374571875,"['Abdomen', 'Right Arm', 'Left Face', 'Left Leg']",
6,"[0.2, 0]",None,,,,,0,0,0,0,315.12094989977777,None,,,,,,,,,,,,,,,,,,,,None,None,"[0, 0, 0]",316.1542667998001,None,316.1542667998001,317.1542799999006,317.120954899583,318.1209474997595,"[0, 0, 0]",1,316.1542667998001,None,,,,,,,,,,,,,,,,,4,M,1,12,l,CIB,2021_Sep_07_1221,2020.2.10,distractmap1,60.005100374571875,"['Abdomen', 'Right Arm', 'Left Face', 'Left Leg']",
7,"[-0.2, -0.2]",None,,,,,0,1,1,1,,,,,,,,,,,,,,,,,,,,,,None,None,"[0, 0, 0]",318.13759589986876,320.1376249999739,318.13759589986876,319.13760549994186,319.1209738999605,320.12097319960594,"[0, 0, 0]",1,318.13759589986876,320.1376249999739,,,,,,,,,,,,,,,,,4,M,1,12,l,CIB,2021_Sep_07_1221,2020.2.10,distractmap1,60.005100374571875,"['Abdomen', 'Right Arm', 'Left Face', 'Left Leg']",
6,"[0.2, 0]",1,,,,,0,2,2,2,,,,,,,,,,,,,,,,,,,,,,None,None,"[0, 0, 0]",320.1543053998612,322.1542933997698,320.1543053998612,321.1543141999282,321.1376135000028,322.13765669986606,"[0, 0, 0]",1,320.1543053998612,322.1542933997698,,,,,,,,,,,,,,,,,4,M,1,12,l,CIB,2021_Sep_07_1221,2020.2.10,distractmap1,60.005100374571875,"['Abdomen', 'Right Arm', 'Left Face', 'Left Leg']",
2,"[0, 0.2]",0,,,,,0,3,3,3,,,,,,,,,,,,,,,,,,,,,,None,None,"[0, 0, 0]",322.17097829980776,324.1710508996621,322.17097829980776,323.17098559997976,323.15431629959494,324.15431389957666,"[0, 0, 0]",1,322.17097829980776,324.1710508996621,,,,,,,,,,,,,,,,,4,M,1,12,l,CIB,2021_Sep_07_1221,2020.2.10,distractmap1,60.005100374571875,"['Abdomen', 'Right Arm', 'Left Face', 'Left Leg']",
5,"[0, 0]",0,,,,,0,4,4,4,,,,,,,,,,,,,,,,,,,,,,None,None,"[0, 0, 0]",324.18769719963893,326.1876812996343,324.18769719963893,325.18765039974824,325.17099539982155,326.1709954999387,"[0, 0, 0]",1,324.18769719963893,326.1876812996343,,,,,,,,,,,,,,,,,4,M,1,12,l,CIB,2021_Sep_07_1221,2020.2.10,distractmap1,60.005100374571875,"['Abdomen', 'Right Arm', 'Left Face', 'Left Leg']",
4,"[-0.2, 0]",0,,,,,0,5,5,5,,,,,,,,,,,,,,,,,,,,,,None,None,"[0, 0, 0]",326.2043395997025,328.2043862999417,326.2043395997025,327.2213749997318,327.1876962999813,328.1877238997258,"[0, 0, 0]",1,326.2043395997025,328.2043862999417,,,,,,,,,,,,,,,,,4,M,1,12,l,CIB,2021_Sep_07_1221,2020.2.10,distractmap1,60.005100374571875,"['Abdomen', 'Right Arm', 'Left Face', 'Left Leg']",
4,"[-0.2, 0]",0,,,,,0,6,6,6,,,,,,,,,,,,,,,,,,,,,,None,None,"[0, 0, 0]",328.2210305999033,330.22104649990797,328.2210305999033,329.2210501995869,329.2043891996145,330.20438959961757,"[0, 0, 0]",1,328.2210305999033,330.22104649990797,,,,,,,,,,,,,,,,,4,M,1,12,l,CIB,2021_Sep_07_1221,2020.2.10,distractmap1,60.005100374571875,"['Abdomen', 'Right Arm', 'Left Face', 'Left Leg']",
7,"[-0.2, -0.2]",0,,,,,0,7,7,7,,,,,,,,,,,,,,,,,,,,,,None,None,"[0, 0, 0]",330.2377075999975,332.23772069998085,330.2377075999975,331.23771040001884,331.22105709975585,332.22107049962506,"[0, 0, 0]",1,330.2377075999975,332.23772069998085,,,,,,,,,,,,,,,,,4,M,1,12,l,CIB,2021_Sep_07_1221,2020.2.10,distractmap1,60.005100374571875,"['Abdomen', 'Right Arm', 'Left Face', 'Left Leg']",
4,"[-0.2, 0]",1,,,,,0,8,8,8,,,,,,,,,,,,,,,,,,,,,,None,None,"[0, 0, 0]",332.2543984996155,334.25440179975703,332.2543984996155,333.25441199960187,333.2377345999703,334.23772659990937,"[0, 0, 0]",1,332.2543984996155,334.25440179975703,,,,,,,,,,,,,,,,,4,M,1,12,l,CIB,2021_Sep_07_1221,2020.2.10,distractmap1,60.005100374571875,"['Abdomen', 'Right Arm', 'Left Face', 'Left Leg']",
3,"[0.2, 0.2]",0,,,,,0,9,9,9,,,,,,,,,,,,,,,,,,,,,,None,None,"[0, 0, 0]",334.27107959985733,336.2710976996459,334.27107959985733,335.2710821996443,335.2544092996977,336.2544227996841,"[0, 0, 0]",1,334.27107959985733,336.2710976996459,,,,,,,,,,,,,,,,,4,M,1,12,l,CIB,2021_Sep_07_1221,2020.2.10,distractmap1,60.005100374571875,"['Abdomen', 'Right Arm', 'Left Face', 'Left Leg']",
5,"[0, 0]",0,,,,,0,10,10,10,,,,,,,,,,,,,,,,,,,,,,None,None,"[0, 0, 0]",336.28776249988005,338.28775339992717,336.28776249988005,337.28774399962276,337.27109439997,338.2710924996063,"[0, 0, 0]",1,336.28776249988005,338.28775339992717,,,,,,,,,,,,,,,,,4,M,1,12,l,CIB,2021_Sep_07_1221,2020.2.10,distractmap1,60.005100374571875,"['Abdomen', 'Right Arm', 'Left Face', 'Left Leg']",
3,"[0.2, 0.2]",1,,,,,0,11,11,11,,,,,,,,,,,,,,,,,,,,,,None,None,"[0, 0, 0]",338.30440709972754,340.3044364997186,338.30440709972754,339.3044133000076,339.28778339968994,340.28777379961684,"[0, 0, 0]",1,338.30440709972754,340.3044364997186,,,,,,,,,,,,,,,,,4,M,1,12,l,CIB,2021_Sep_07_1221,2020.2.10,distractmap1,60.005100374571875,"['Abdomen', 'Right Arm', 'Left Face', 'Left Leg']",
1,"[-0.2, 0.2]",0,,,,,0,12,12,12,,,,,,,,,,,,,,,,,,,,,,None,None,"[0, 0, 0]",340.32112909993157,342.32113319961354,340.32112909993157,341.32113950001076,341.30444789957255,342.3044368997216,"[0, 0, 0]",1,340.32112909993157,342.32113319961354,,,,,,,,,,,,,,,,,4,M,1,12,l,CIB,2021_Sep_07_1221,2020.2.10,distractmap1,60.005100374571875,"['Abdomen', 'Right Arm', 'Left Face', 'Left Leg']",
9,"[0.2, -0.2]",0,,,,,0,13,13,13,,,,,,,,,,,,,,,,,,,,,,None,None,"[0, 0, 0]",342.3377985996194,344.3378164996393,342.3377985996194,343.3544771997258,343.3381409998983,344.3378164996393,"[0, 0, 0]",1,342.3377985996194,344.3378164996393,,,,,,,,,,,,,,,,,4,M,1,12,l,CIB,2021_Sep_07_1221,2020.2.10,distractmap1,60.005100374571875,"['Abdomen', 'Right Arm', 'Left Face', 'Left Leg']",
9,"[0.2, -0.2]",0,,,,,0,14,14,14,,,,,,,,,,,,,,,,,,,,,,None,None,"[0, 0, 0]",344.35433949995786,346.3544777999632,344.35433949995786,345.35448609991,345.3378250999376,346.3378260997124,"[0, 0, 0]",1,344.35433949995786,346.3544777999632,,,,,,,,,,,,,,,,,4,M,1,12,l,CIB,2021_Sep_07_1221,2020.2.10,distractmap1,60.005100374571875,"['Abdomen', 'Right Arm', 'Left Face', 'Left Leg']",
8,"[0, -0.2]",0,,,,,0,15,15,15,,,,,,,,,,,,,,,,,,,,,,None,None,"[0, 0, 0]",346.37114859977737,348.3711860999465,346.37114859977737,347.3711637998931,347.3544821999967,348.35449619963765,"[0, 0, 0]",1,346.37114859977737,348.3711860999465,,,,,,,,,,,,,,,,,4,M,1,12,l,CIB,2021_Sep_07_1221,2020.2.10,distractmap1,60.005100374571875,"['Abdomen', 'Right Arm', 'Left Face', 'Left Leg']",
6,"[0.2, 0]",0,,,,,0,16,16,16,,,,,,,,,,,,,,,,,,,,,,None,None,"[0, 0, 0]",348.38784509990364,350.3878514999524,348.38784509990364,349.38734079990536,349.38734079990536,350.3878514999524,"[0, 0, 0]",1,348.38784509990364,350.3878514999524,,,,,,,,,,,,,,,,,4,M,1,12,l,CIB,2021_Sep_07_1221,2020.2.10,distractmap1,60.005100374571875,"['Abdomen', 'Right Arm', 'Left Face', 'Left Leg']",
3,"[0.2, 0.2]",0,,,,,0,17,17,17,,,,,,,,,,,,,,,,,,,,,,None,None,"[0, 0, 0]",350.40449869958684,352.40454609971493,350.40449869958684,351.40452149976045,351.387871499639,352.38788079982623,"[0, 0, 0]",1,350.40449869958684,352.40454609971493,,,,,,,,,,,,,,,,,4,M,1,12,l,CIB,2021_Sep_07_1221,2020.2.10,distractmap1,60.005100374571875,"['Abdomen', 'Right Arm', 'Left Face', 'Left Leg']",
6,"[0.2, 0]",1,,,,,0,18,18,18,,,,,,,,,,,,,,,,,,,,,,None,None,"[0, 0, 0]",352.4212239999324,354.42123320000246,352.4212239999324,353.42119030002505,353.40452049998567,354.4045272995718,"[0, 0, 0]",1,352.4212239999324,354.42123320000246,,,,,,,,,,,,,,,,,4,M,1,12,l,CIB,2021_Sep_07_1221,2020.2.10,distractmap1,60.005100374571875,"['Abdomen', 'Right Arm', 'Left Face', 'Left Leg']",
5,"[0, 0]",0,,,,,0,19,19,19,,,,,,,,,,,,,,,,,,,,,,None,None,"[0, 0, 0]",354.4378947997466,356.4379073996097,354.4378947997466,355.4378892998211,355.42123569967225,356.42123879957944,"[0, 0, 0]",1,354.4378947997466,356.4379073996097,,,,,,,,,,,,,,,,,4,M,1,12,l,CIB,2021_Sep_07_1221,2020.2.10,distractmap1,60.005100374571875,"['Abdomen', 'Right Arm', 'Left Face', 'Left Leg']",
7,"[-0.2, -0.2]",0,,,,,0,20,20,20,,,,,,,,,,,,,,,,,,,,,,None,None,"[0, 0, 0]",356.45454369997606,358.454556199722,356.45454369997606,357.4716164995916,357.4379122997634,358.4379146997817,"[0, 0, 0]",1,356.45454369997606,358.454556199722,,,,,,,,,,,,,,,,,4,M,1,12,l,CIB,2021_Sep_07_1221,2020.2.10,distractmap1,60.005100374571875,"['Abdomen', 'Right Arm', 'Left Face', 'Left Leg']",
5,"[0, 0]",1,,,,,0,21,21,21,,,,,,,,,,,,,,,,,,,,,,None,None,"[0, 0, 0]",358.47123589972034,360.4712667996064,358.47123589972034,359.4712368999608,359.4545740997419,360.4545861999504,"[0, 0, 0]",1,358.47123589972034,360.4712667996064,,,,,,,,,,,,,,,,,4,M,1,12,l,CIB,2021_Sep_07_1221,2020.2.10,distractmap1,60.005100374571875,"['Abdomen', 'Right Arm', 'Left Face', 'Left Leg']",
1,"[-0.2, 0.2]",0,,,,,0,22,22,22,,,,,,,,,,,,,,,,,,,,,,None,None,"[0, 0, 0]",360.4879361996427,362.4879354997538,360.4879361996427,361.4879436995834,361.47126719960943,362.47127189999446,"[0, 0, 0]",1,360.4879361996427,362.4879354997538,,,,,,,,,,,,,,,,,4,M,1,12,l,CIB,2021_Sep_07_1221,2020.2.10,distractmap1,60.005100374571875,"['Abdomen', 'Right Arm', 'Left Face', 'Left Leg']",
7,"[-0.2, -0.2]",0,,,,,0,23,23,23,,,,,,,,,,,,,,,,,,,,,,None,None,"[0, 0, 0]",362.504584999755,364.50462479982525,362.504584999755,363.50459519959986,363.48794010002166,364.4879689998925,"[0, 0, 0]",1,362.504584999755,364.50462479982525,,,,,,,,,,,,,,,,,4,M,1,12,l,CIB,2021_Sep_07_1221,2020.2.10,distractmap1,60.005100374571875,"['Abdomen', 'Right Arm', 'Left Face', 'Left Leg']",
9,"[0.2, -0.2]",0,,,,,0,24,24,24,,,,,,,,,,,,,,,,,,,,,,None,None,"[0, 0, 0]",364.5212883995846,366.52130179991946,364.5212883995846,365.52130509959534,365.50460919970647,366.5046236999333,"[0, 0, 0]",1,364.5212883995846,366.52130179991946,,,,,,,,,,,,,,,,,4,M,1,12,l,CIB,2021_Sep_07_1221,2020.2.10,distractmap1,60.005100374571875,"['Abdomen', 'Right Arm', 'Left Face', 'Left Leg']",
3,"[0.2, 0.2]",0,,,,,0,25,25,25,,,,,,,,,,,,,,,,,,,,,,None,None,"[0, 0, 0]",366.53796709980816,368.5379964997992,366.53796709980816,367.53798419982195,367.52130129979923,368.5212086997926,"[0, 0, 0]",1,366.53796709980816,368.5379964997992,,,,,,,,,,,,,,,,,4,M,1,12,l,CIB,2021_Sep_07_1221,2020.2.10,distractmap1,60.005100374571875,"['Abdomen', 'Right Arm', 'Left Face', 'Left Leg']",
9,"[0.2, -0.2]",1,,,,,0,26,26,26,,,,,,,,,,,,,,,,,,,,,,None,None,"[0, 0, 0]",368.5546387997456,370.5546662998386,368.5546387997456,369.55468499986455,369.5379909998737,370.5380082000047,"[0, 0, 0]",1,368.5546387997456,370.5546662998386,,,,,,,,,,,,,,,,,4,M,1,12,l,CIB,2021_Sep_07_1221,2020.2.10,distractmap1,60.005100374571875,"['Abdomen', 'Right Arm', 'Left Face', 'Left Leg']",
6,"[0.2, 0]",0,,,,,0,27,27,27,,,,,,,,,,,,,,,,,,,,,,None,None,"[0, 0, 0]",370.5712349996902,372.5713721998036,370.5712349996902,371.5713340998627,371.55469329981133,372.55470509966835,"[0, 0, 0]",1,370.5712349996902,372.5713721998036,,,,,,,,,,,,,,,,,4,M,1,12,l,CIB,2021_Sep_07_1221,2020.2.10,distractmap1,60.005100374571875,"['Abdomen', 'Right Arm', 'Left Face', 'Left Leg']",
2,"[0, 0.2]",0,,,,,0,28,28,28,,,,,,,,,,,,,,,,,,,,,,None,None,"[0, 0, 0]",372.5880270996131,374.5880394997075,372.5880270996131,373.58790579997003,373.571368499659,374.57134729996324,"[0, 0, 0]",1,372.5880270996131,374.5880394997075,,,,,,,,,,,,,,,,,4,M,1,12,l,CIB,2021_Sep_07_1221,2020.2.10,distractmap1,60.005100374571875,"['Abdomen', 'Right Arm', 'Left Face', 'Left Leg']",
5,"[0, 0]",0,,,,,0,29,29,29,,,,,,,,,,,,,,,,,,,,,,None,None,"[0, 0, 0]",374.60469389986247,376.6047227997333,374.60469389986247,375.60470000002533,375.58804739965126,376.5880649997853,"[0, 0, 0]",1,374.60469389986247,376.6047227997333,,,,,,,,,,,,,,,,,4,M,1,12,l,CIB,2021_Sep_07_1221,2020.2.10,distractmap1,60.005100374571875,"['Abdomen', 'Right Arm', 'Left Face', 'Left Leg']",
,,,,,,,,,,,,,,,,,,,,,,,,,,,376.6380598996766,None,space,376.6380598996766,None,,,,,,,,,,,,,,,,,,,,,,,,,,,,,,4,M,1,12,l,CIB,2021_Sep_07_1221,2020.2.10,distractmap1,60.005100374571875,"['Abdomen', 'Right Arm', 'Left Face', 'Left Leg']",
3,"[0.2, 0.2]",None,,,,,0,0,0,0,615.3734005996957,None,,,,,,,,,,,,,,,,,,,,None,None,"[0, 0, 0]",621.6732296999544,None,621.6732296999544,622.6732243997976,622.6565316999331,623.6565406997688,"[0, 0, 0]",1,621.6732296999544,None,430.9720874996856,430.9720874996856,None,space,129.53383690025657,430.9720874996856,None,,,,,,,,,,4,M,1,12,l,CIB,2021_Sep_07_1221,2020.2.10,distractmap1,60.005100374571875,"['Abdomen', 'Right Arm', 'Left Face', 'Left Leg']",
3,"[0.2, 0.2]",None,,,,,0,1,1,1,,,,,,,,,,,,,,,,,,,,,,None,None,"[0, 0, 0]",623.673230199609,625.6732343998738,623.673230199609,624.6732370997779,624.6565607995726,625.6565475999378,"[0, 0, 0]",1,623.673230199609,625.6732343998738,,,,,,,,,,,,,,,,,4,M,1,12,l,CIB,2021_Sep_07_1221,2020.2.10,distractmap1,60.005100374571875,"['Abdomen', 'Right Arm', 'Left Face', 'Left Leg']",
5,"[0, 0]",0,,,,,0,2,2,2,,,,,,,,,,,,,,,,,,,,,,None,None,"[0, 0, 0]",625.6899134996347,627.6899126996286,625.6899134996347,626.6899209995754,626.6732514998876,627.6732632997446,"[0, 0, 0]",1,625.6899134996347,627.6899126996286,,,,,,,,,,,,,,,,,4,M,1,12,l,CIB,2021_Sep_07_1221,2020.2.10,distractmap1,60.005100374571875,"['Abdomen', 'Right Arm', 'Left Face', 'Left Leg']",
1,"[-0.2, 0.2]",0,,,,,0,3,3,3,,,,,,,,,,,,,,,,,,,,,,None,None,"[0, 0, 0]",627.7065788996406,629.706591299735,627.7065788996406,628.7065844996832,628.6899444996379,629.6899333996698,"[0, 0, 0]",1,627.7065788996406,629.706591299735,,,,,,,,,,,,,,,,,4,M,1,12,l,CIB,2021_Sep_07_1221,2020.2.10,distractmap1,60.005100374571875,"['Abdomen', 'Right Arm', 'Left Face', 'Left Leg']",
5,"[0, 0]",1,,,,,0,4,4,4,,,,,,,,,,,,,,,,,,,,,,None,None,"[0, 0, 0]",629.7570884996094,None,629.7570884996094,630.7565940995701,630.7399434000254,None,"[0, 0, 0]",1,629.7570884996094,None,,,,,,,,,,,,,,,,,4,M,1,12,l,CIB,2021_Sep_07_1221,2020.2.10,distractmap1,60.005100374571875,"['Abdomen', 'Right Arm', 'Left Face', 'Left Leg']",
8,"[0, -0.2]",0,,,,,0,5,5,5,,,,,,,,,,,,,,,,,,,,,,None,None,"[0, 0, 0]",631.7399430996738,633.739971099887,631.7399430996738,632.7399699999951,632.7232917998917,633.7233084999025,"[0, 0, 0]",1,631.7399430996738,633.739971099887,,,,,,,,,,,,,,,,,4,M,1,12,l,CIB,2021_Sep_07_1221,2020.2.10,distractmap1,60.005100374571875,"['Abdomen', 'Right Arm', 'Left Face', 'Left Leg']",
5,"[0, 0]",1,,,,,0,6,6,6,,,,,,,,,,,,,,,,,,,,,,None,None,"[0, 0, 0]",633.7566096996889,635.7566548995674,633.7566096996889,634.756629599724,634.7399817998521,635.7399919996969,"[0, 0, 0]",0,633.7566096996889,635.7566548995674,,,,,,,,,,,,,,,,,4,M,1,12,l,CIB,2021_Sep_07_1221,2020.2.10,distractmap1,60.005100374571875,"['Abdomen', 'Right Arm', 'Left Face', 'Left Leg']",
7,"[-0.2, -0.2]",0,,,,,0,7,7,7,,,,,,,,,,,,,,,,,,,,,,None,None,"[0, 0, 0]",635.773323699832,637.773332499899,635.773323699832,636.773324099835,636.7566899997182,637.7566722999327,"[0, 0, 0]",1,635.773323699832,637.773332499899,,,,,,,,,,,,,,,,,4,M,1,12,l,CIB,2021_Sep_07_1221,2020.2.10,distractmap1,60.005100374571875,"['Abdomen', 'Right Arm', 'Left Face', 'Left Leg']",
5,"[0, 0]",1,,,,,0,8,8,8,,,,,,,,,,,,,,,,,,,,,,None,None,"[0, 0, 0]",637.7900025998242,639.790022299625,637.7900025998242,638.7900043996051,638.7732520997524,639.7733338000253,"[0, 0, 0]",1,637.7900025998242,639.790022299625,,,,,,,,,,,,,,,,,4,M,1,12,l,CIB,2021_Sep_07_1221,2020.2.10,distractmap1,60.005100374571875,"['Abdomen', 'Right Arm', 'Left Face', 'Left Leg']",
7,"[-0.2, -0.2]",1,,,,,0,9,9,9,,,,,,,,,,,,,,,,,,,,,,None,None,"[0, 0, 0]",639.8066814998165,641.8067054999992,639.8066814998165,640.8066928996705,640.7900239997543,641.7900199997239,"[0, 0, 0]",1,639.8066814998165,641.8067054999992,,,,,,,,,,,,,,,,,4,M,1,12,l,CIB,2021_Sep_07_1221,2020.2.10,distractmap1,60.005100374571875,"['Abdomen', 'Right Arm', 'Left Face', 'Left Leg']",
,,,,,,,,,,,641.8233707998879,None,,,,,,,,,,,,,,,,,,,,,,,,,,,,,,,,,,,,,,,,22.037037037037035,630.0568765299395,,,,,,,,4,M,1,12,l,CIB,2021_Sep_07_1221,2020.2.10,distractmap1,60.005100374571875,"['Abdomen', 'Right Arm', 'Left Face', 'Left Leg']",
5,"[0, 0]",None,0,0,0,0,,,,,659.4736674996093,None,661.8902364997193,None,661.8902364997193,662.8901992999017,662.856848299969,663.8568694000132,1,None,None,"[0, 0, 0]",,,661.8902364997193,None,,,,,,,,,,,,,,,,,,,,,,,,,,,,0.014948669821023941,5.012064569629729,"[0, 0, 0]",,,,,4,M,1,12,l,CIB,2021_Sep_07_1221,2020.2.10,distractmap1,60.005100374571875,"['Abdomen', 'Right Arm', 'Left Face', 'Left Leg']",
5,"[0, 0]",1,0,1,1,1,,,,,,,663.8901880998164,None,663.8901880998164,664.8902076999657,664.8735210997984,665.873529699631,1,None,None,"[0, 0, 0]",,,663.8901880998164,None,,,,,,,,,,,,,,,,,,,,,,,,,,,,,,"[0, 0, 0]",,,,,4,M,1,12,l,CIB,2021_Sep_07_1221,2020.2.10,distractmap1,60.005100374571875,"['Abdomen', 'Right Arm', 'Left Face', 'Left Leg']",
4,"[-0.2, 0]",0,0,2,2,2,,,,,,,665.8902176995762,665.8902176995762,665.8902176995762,666.8901876998134,666.8735581999645,667.8735538995825,1,None,None,"[0, 0, 0]",,,665.8902176995762,665.8902176995762,,,,,,,,,,,,,,,,,,,,,,,,,,,,,,"[0, 0, 0]",,,,,4,M,1,12,l,CIB,2021_Sep_07_1221,2020.2.10,distractmap1,60.005100374571875,"['Abdomen', 'Right Arm', 'Left Face', 'Left Leg']",
2,"[0, 0.2]",0,0,3,3,3,,,,,,,667.890107399784,667.890107399784,667.890107399784,668.8902188995853,668.8735460997559,669.8735549999401,1,None,None,"[0, 0, 0]",,,667.890107399784,667.890107399784,,,,,,,,,,,,,,,,,,,,,,,,,,,,,,"[0, 0, 0]",,,,,4,M,1,12,l,CIB,2021_Sep_07_1221,2020.2.10,distractmap1,60.005100374571875,"['Abdomen', 'Right Arm', 'Left Face', 'Left Leg']",
6,"[0.2, 0]",0,0,4,4,4,,,,,,,669.9237597999163,669.9237597999163,669.9237597999163,670.9235663996078,670.906910199672,None,1,None,None,"[0, 0, 0]",,,669.9237597999163,669.9237597999163,,,,,,,,,,,,,,,,,,,,,,,,,,,,,,"[0, 0, 0]",,,,,4,M,1,12,l,CIB,2021_Sep_07_1221,2020.2.10,distractmap1,60.005100374571875,"['Abdomen', 'Right Arm', 'Left Face', 'Left Leg']",
8,"[0, -0.2]",0,0,5,5,5,,,,,,,671.906927799806,None,671.906927799806,672.9069252996705,672.8902404997498,673.8902612999082,1,None,None,"[0, 0, 0]",,,671.906927799806,None,,,,,,,,,,,,,,,,,,,,,,,,,,,,,,"[0, 0, 0]",,,,,4,M,1,12,l,CIB,2021_Sep_07_1221,2020.2.10,distractmap1,60.005100374571875,"['Abdomen', 'Right Arm', 'Left Face', 'Left Leg']",
1,"[-0.2, 0.2]",0,0,6,6,6,,,,,,,673.9069432998076,673.9069432998076,673.9069432998076,674.906955699902,674.8902862998657,675.8902941998094,1,None,None,"[0, 0, 0]",,,673.9069432998076,673.9069432998076,,,,,,,,,,,,,,,,,,,,,,,,,,,,,,"[0, 0, 0]",,,,,4,M,1,12,l,CIB,2021_Sep_07_1221,2020.2.10,distractmap1,60.005100374571875,"['Abdomen', 'Right Arm', 'Left Face', 'Left Leg']",
4,"[-0.2, 0]",0,0,7,7,7,,,,,,,675.906936599873,675.906936599873,675.906936599873,676.90694539994,676.8902836996131,677.8903006999753,1,None,None,"[0, 0, 0]",,,675.906936599873,675.906936599873,,,,,,,,,,,,,,,,,,,,,,,,,,,,,,"[0, 0, 0]",,,,,4,M,1,12,l,CIB,2021_Sep_07_1221,2020.2.10,distractmap1,60.005100374571875,"['Abdomen', 'Right Arm', 'Left Face', 'Left Leg']",
8,"[0, -0.2]",0,0,8,8,8,,,,,,,677.9069677996449,677.9069677996449,677.9069677996449,678.9070144998841,678.8903621998616,679.8902964997105,1,None,None,"[0, 0, 0]",,,677.9069677996449,677.9069677996449,,,,,,,,,,,,,,,,,,,,,,,,,,,,,,"[0, 0, 0]",,,,,4,M,1,12,l,CIB,2021_Sep_07_1221,2020.2.10,distractmap1,60.005100374571875,"['Abdomen', 'Right Arm', 'Left Face', 'Left Leg']",
8,"[0, -0.2]",1,0,9,9,9,,,,,,,679.9069881998003,679.9069881998003,679.9069881998003,680.9069921998307,680.8903299998492,681.8903132998385,1,None,None,"[0, 0, 0]",,,679.9069881998003,679.9069881998003,,,,,,,,,,,,,,,,,,,,,,,,,,,,,,"[0, 0, 0]",,,,,4,M,1,12,l,CIB,2021_Sep_07_1221,2020.2.10,distractmap1,60.005100374571875,"['Abdomen', 'Right Arm', 'Left Face', 'Left Leg']",
,,,,,,,,,,,681.9069824996404,None,,,,,,,,,,,,,,,,,,,,,,,,,,,,,,,,,,,,,,,,22.40740740740741,666.70752832992,,,,,,,,4,M,1,12,l,CIB,2021_Sep_07_1221,2020.2.10,distractmap1,60.005100374571875,"['Abdomen', 'Right Arm', 'Left Face', 'Left Leg']",
6,"[0.2, 0]",None,,,,,0,0,0,0,697.0906233997084,None,,,,,,,,,,,,,,,,,,,,None,None,"[0, 0, 0]",701.9571690997109,None,701.9571690997109,702.957160399761,702.9404706996866,703.9404806997627,"[0, 0, 0]",1,701.9571690997109,None,,,,,,,,,,0.014552670065313578,5.011429870035499,,,,,,4,M,1,12,l,CIB,2021_Sep_07_1221,2020.2.10,distractmap1,60.005100374571875,"['Abdomen', 'Right Arm', 'Left Face', 'Left Leg']",
1,"[-0.2, 0.2]",None,,,,,0,1,1,1,,,,,,,,,,,,,,,,,,,,,,None,None,"[0, 0, 0]",703.9571560998447,705.957177199889,703.9571560998447,704.9571815999225,704.9404845000245,705.9404962998815,"[0, 0, 0]",1,703.9571560998447,705.957177199889,,,,,,,,,,,,,,,,,4,M,1,12,l,CIB,2021_Sep_07_1221,2020.2.10,distractmap1,60.005100374571875,"['Abdomen', 'Right Arm', 'Left Face', 'Left Leg']",
6,"[0.2, 0]",1,,,,,0,2,2,2,,,,,,,,,,,,,,,,,,,,,,None,None,"[0, 0, 0]",705.9738495997153,707.9738511997275,705.9738495997153,706.9738562996499,706.9571932000108,707.9571741996333,"[0, 0, 0]",1,705.9738495997153,707.9738511997275,,,,,,,,,,,,,,,,,4,M,1,12,l,CIB,2021_Sep_07_1221,2020.2.10,distractmap1,60.005100374571875,"['Abdomen', 'Right Arm', 'Left Face', 'Left Leg']",
4,"[-0.2, 0]",0,,,,,0,3,3,3,,,,,,,,,,,,,,,,,,,,,,None,None,"[0, 0, 0]",707.9904950996861,709.9905372997746,707.9904950996861,708.9905079999007,708.9738477999344,709.9739041998982,"[0, 0, 0]",1,707.9904950996861,709.9905372997746,,,,,,,,,,,,,,,,,4,M,1,12,l,CIB,2021_Sep_07_1221,2020.2.10,distractmap1,60.005100374571875,"['Abdomen', 'Right Arm', 'Left Face', 'Left Leg']",
1,"[-0.2, 0.2]",0,,,,,0,4,4,4,,,,,,,,,,,,,,,,,,,,,,None,None,"[0, 0, 0]",710.040840999689,None,710.040840999689,711.040531499777,711.0238830000162,None,"[0, 0, 0]",1,710.040840999689,None,,,,,,,,,,,,,,,,,4,M,1,12,l,CIB,2021_Sep_07_1221,2020.2.10,distractmap1,60.005100374571875,"['Abdomen', 'Right Arm', 'Left Face', 'Left Leg']",
8,"[0, -0.2]",0,,,,,0,5,5,5,,,,,,,,,,,,,,,,,,,,,,None,None,"[0, 0, 0]",712.0238853995688,714.0237858998589,712.0238853995688,713.0239038998261,713.0072324997745,714.0072618997656,"[0, 0, 0]",1,712.0238853995688,714.0237858998589,,,,,,,,,,,,,,,,,4,M,1,12,l,CIB,2021_Sep_07_1221,2020.2.10,distractmap1,60.005100374571875,"['Abdomen', 'Right Arm', 'Left Face', 'Left Leg']",
1,"[-0.2, 0.2]",1,,,,,0,6,6,6,,,,,,,,,,,,,,,,,,,,,,None,None,"[0, 0, 0]",714.0405581998639,716.0405629999004,714.0405581998639,715.040560499765,715.0239104996435,716.0239312998019,"[0, 0, 0]",1,714.0405581998639,716.0405629999004,,,,,,,,,,,,,,,,,4,M,1,12,l,CIB,2021_Sep_07_1221,2020.2.10,distractmap1,60.005100374571875,"['Abdomen', 'Right Arm', 'Left Face', 'Left Leg']",
8,"[0, -0.2]",1,,,,,0,7,7,7,,,,,,,,,,,,,,,,,,,,,,None,None,"[0, 0, 0]",716.0572380996309,718.0572541998699,716.0572380996309,717.057245799806,717.0404604999349,718.0405922997743,"[0, 0, 0]",1,716.0572380996309,718.0572541998699,,,,,,,,,,,,,,,,,4,M,1,12,l,CIB,2021_Sep_07_1221,2020.2.10,distractmap1,60.005100374571875,"['Abdomen', 'Right Arm', 'Left Face', 'Left Leg']",
1,"[-0.2, 0.2]",1,,,,,0,8,8,8,,,,,,,,,,,,,,,,,,,,,,None,None,"[0, 0, 0]",718.0738132996485,720.0739381997846,718.0738132996485,719.0739448997192,719.057263799943,720.0572889996693,"[0, 0, 0]",1,718.0738132996485,720.0739381997846,,,,,,,,,,,,,,,,,4,M,1,12,l,CIB,2021_Sep_07_1221,2020.2.10,distractmap1,60.005100374571875,"['Abdomen', 'Right Arm', 'Left Face', 'Left Leg']",
6,"[0.2, 0]",0,,,,,0,9,9,9,,,,,,,,,,,,,,,,,,,,,,None,None,"[0, 0, 0]",720.0905880997889,722.0906116999686,720.0905880997889,721.0906078997068,721.0739523996599,722.0739778997377,"[0, 0, 0]",1,720.0905880997889,722.0906116999686,,,,,,,,,,,,,,,,,4,M,1,12,l,CIB,2021_Sep_07_1221,2020.2.10,distractmap1,60.005100374571875,"['Abdomen', 'Right Arm', 'Left Face', 'Left Leg']",
,,,,,,,,,,,722.1072979997844,None,,,,,,,,,,,,,,,,,,,,,,,,,,,,,,,,,,,,,,,,17.77777777777778,707.4908925294876,,,,,,,,4,M,1,12,l,CIB,2021_Sep_07_1221,2020.2.10,distractmap1,60.005100374571875,"['Abdomen', 'Right Arm', 'Left Face', 'Left Leg']",
3,"[0.2, 0.2]",None,0,0,0,0,,,,,737.3075900999829,None,742.1741306995973,None,742.1741306995973,743.1741159996018,743.1574265998788,744.1574446996674,1,None,None,"[0, 0, 0]",,,742.1741306995973,None,,,,,,,,,,,,,,,,,,,,,,,,,,,,0.014852170366793871,5.012072870507836,"[0, 0, 0]",,,,,4,M,1,12,l,CIB,2021_Sep_07_1221,2020.2.10,distractmap1,60.005100374571875,"['Abdomen', 'Right Arm', 'Left Face', 'Left Leg']",
4,"[-0.2, 0]",0,0,1,1,1,,,,,,,744.1741185998544,None,744.1741185998544,745.17414549971,745.1574748996645,746.1574521996081,1,None,None,"[0, 0, 0]",,,744.1741185998544,None,,,,,,,,,,,,,,,,,,,,,,,,,,,,,,"[0, 0, 0]",,,,,4,M,1,12,l,CIB,2021_Sep_07_1221,2020.2.10,distractmap1,60.005100374571875,"['Abdomen', 'Right Arm', 'Left Face', 'Left Leg']",
1,"[-0.2, 0.2]",0,0,2,2,2,,,,,,,746.1741441995837,746.1741441995837,746.1741441995837,747.1741496999748,747.157468999736,748.157487699762,1,None,None,"[0, 0, 0]",,,746.1741441995837,746.1741441995837,,,,,,,,,,,,,,,,,,,,,,,,,,,,,,"[0, 0, 0]",,,,,4,M,1,12,l,CIB,2021_Sep_07_1221,2020.2.10,distractmap1,60.005100374571875,"['Abdomen', 'Right Arm', 'Left Face', 'Left Leg']",
2,"[0, 0.2]",0,0,3,3,3,,,,,,,748.1741696000099,748.1741696000099,748.1741696000099,749.1741642998531,749.1574801998213,750.1574824997224,1,None,None,"[0, 0, 0]",,,748.1741696000099,748.1741696000099,,,,,,,,,,,,,,,,,,,,,,,,,,,,,,"[0, 0, 0]",,,,,4,M,1,12,l,CIB,2021_Sep_07_1221,2020.2.10,distractmap1,60.005100374571875,"['Abdomen', 'Right Arm', 'Left Face', 'Left Leg']",
2,"[0, 0.2]",1,0,4,4,4,,,,,,,750.2078208997846,750.2078208997846,750.2078208997846,751.2074907999486,751.1908562998287,None,1,None,None,"[0, 0, 0]",,,750.2078208997846,750.2078208997846,,,,,,,,,,,,,,,,,,,,,,,,,,,,,,"[0, 0, 0]",,,,,4,M,1,12,l,CIB,2021_Sep_07_1221,2020.2.10,distractmap1,60.005100374571875,"['Abdomen', 'Right Arm', 'Left Face', 'Left Leg']",
5,"[0, 0]",0,0,5,5,5,,,,,,,752.1908565997146,None,752.1908565997146,753.1908640996553,753.1742124999873,754.174222199712,1,None,None,"[0, 0, 0]",,,752.1908565997146,None,,,,,,,,,,,,,,,,,,,,,,,,,,,,,,"[0, 0, 0]",,,,,4,M,1,12,l,CIB,2021_Sep_07_1221,2020.2.10,distractmap1,60.005100374571875,"['Abdomen', 'Right Arm', 'Left Face', 'Left Leg']",
1,"[-0.2, 0.2]",0,0,6,6,6,,,,,,,754.1907497998327,754.1907497998327,754.1907497998327,755.1911807996221,755.1742349998094,756.1742245997302,1,None,None,"[0, 0, 0]",,,754.1907497998327,754.1907497998327,,,,,,,,,,,,,,,,,,,,,,,,,,,,,,"[0, 0, 0]",,,,,4,M,1,12,l,CIB,2021_Sep_07_1221,2020.2.10,distractmap1,60.005100374571875,"['Abdomen', 'Right Arm', 'Left Face', 'Left Leg']",
1,"[-0.2, 0.2]",1,0,7,7,7,,,,,,,756.1908785998821,756.1908785998821,756.1908785998821,757.190896899905,757.1742251999676,758.1742417998612,1,None,None,"[0, 0, 0]",,,756.1908785998821,756.1908785998821,,,,,,,,,,,,,,,,,,,,,,,,,,,,,,"[0, 0, 0]",,,,,4,M,1,12,l,CIB,2021_Sep_07_1221,2020.2.10,distractmap1,60.005100374571875,"['Abdomen', 'Right Arm', 'Left Face', 'Left Leg']",
8,"[0, -0.2]",0,0,8,8,8,,,,,,,758.1909113996662,758.1909113996662,758.1909113996662,759.1909165997058,759.1742418999784,760.1742505999282,1,None,None,"[0, 0, 0]",,,758.1909113996662,758.1909113996662,,,,,,,,,,,,,,,,,,,,,,,,,,,,,,"[0, 0, 0]",,,,,4,M,1,12,l,CIB,2021_Sep_07_1221,2020.2.10,distractmap1,60.005100374571875,"['Abdomen', 'Right Arm', 'Left Face', 'Left Leg']",
7,"[-0.2, -0.2]",0,0,9,9,9,,,,,,,760.1909025995992,760.1909025995992,760.1909025995992,761.1909211999737,761.1742957998067,762.1742479996756,1,None,None,"[0, 0, 0]",,,760.1909025995992,760.1909025995992,,,,,,,,,,,,,,,,,,,,,,,,,,,,,,"[0, 0, 0]",,,,,4,M,1,12,l,CIB,2021_Sep_07_1221,2020.2.10,distractmap1,60.005100374571875,"['Abdomen', 'Right Arm', 'Left Face', 'Left Leg']",
,,,,,,,,,,,762.1909356997348,None,,,,,,,,,,,,,,,,,,,,,,,,,,,,,,,,,,,,,,,,20.185185185185183,749.0749587300234,,,,,,,,4,M,1,12,l,CIB,2021_Sep_07_1221,2020.2.10,distractmap1,60.005100374571875,"['Abdomen', 'Right Arm', 'Left Face', 'Left Leg']",
6,"[0.2, 0]",None,0,0,0,0,,,,,779.357775399927,None,782.2410903996788,None,782.2410903996788,783.241088300012,783.2077555996366,784.2077832999639,1,None,None,"[0, 0, 0]",,,782.2410903996788,None,,,,,,,,,,,,,,,,,,,,,,,,,,,,0.014439470134675503,5.011239470448345,"[0, 0, 0]",,,,,4,M,1,12,l,CIB,2021_Sep_07_1221,2020.2.10,distractmap1,60.005100374571875,"['Abdomen', 'Right Arm', 'Left Face', 'Left Leg']",
6,"[0.2, 0]",1,0,1,1,1,,,,,,,784.2410744000226,None,784.2410744000226,785.2411133996211,785.2244287999347,786.2244329997338,1,None,None,"[0, 0, 0]",,,784.2410744000226,None,,,,,,,,,,,,,,,,,,,,,,,,,,,,,,"[0, 0, 0]",,,,,4,M,1,12,l,CIB,2021_Sep_07_1221,2020.2.10,distractmap1,60.005100374571875,"['Abdomen', 'Right Arm', 'Left Face', 'Left Leg']",
1,"[-0.2, 0.2]",0,0,2,2,2,,,,,,,786.2411240995862,786.2411240995862,786.2411240995862,787.2411206997931,787.2244270998053,788.2244361997582,1,None,None,"[0, 0, 0]",,,786.2411240995862,786.2411240995862,,,,,,,,,,,,,,,,,,,,,,,,,,,,,,"[0, 0, 0]",,,,,4,M,1,12,l,CIB,2021_Sep_07_1221,2020.2.10,distractmap1,60.005100374571875,"['Abdomen', 'Right Arm', 'Left Face', 'Left Leg']",
8,"[0, -0.2]",0,0,3,3,3,,,,,,,788.2411213000305,788.2411213000305,788.2411213000305,789.2411381998099,789.2244531000033,790.2244490999728,1,None,None,"[0, 0, 0]",,,788.2411213000305,788.2411213000305,,,,,,,,,,,,,,,,,,,,,,,,,,,,,,"[0, 0, 0]",,,,,4,M,1,12,l,CIB,2021_Sep_07_1221,2020.2.10,distractmap1,60.005100374571875,"['Abdomen', 'Right Arm', 'Left Face', 'Left Leg']",
1,"[-0.2, 0.2]",0,0,4,4,4,,,,,,,790.2749311998487,790.2749311998487,790.2749311998487,791.2744652996771,791.2578249997459,None,1,None,None,"[0, 0, 0]",,,790.2749311998487,790.2749311998487,,,,,,,,,,,,,,,,,,,,,,,,,,,,,,"[0, 0, 0]",,,,,4,M,1,12,l,CIB,2021_Sep_07_1221,2020.2.10,distractmap1,60.005100374571875,"['Abdomen', 'Right Arm', 'Left Face', 'Left Leg']",
4,"[-0.2, 0]",0,0,5,5,5,,,,,,,792.2577257999219,None,792.2577257999219,793.2578431996517,793.2411648998968,794.2411622996442,1,None,None,"[0, 0, 0]",,,792.2577257999219,None,,,,,,,,,,,,,,,,,,,,,,,,,,,,,,"[0, 0, 0]",,,,,4,M,1,12,l,CIB,2021_Sep_07_1221,2020.2.10,distractmap1,60.005100374571875,"['Abdomen', 'Right Arm', 'Left Face', 'Left Leg']",
5,"[0, 0]",0,0,6,6,6,,,,,,,794.2578300000168,794.2578300000168,794.2578300000168,795.2578533999622,795.2411940996535,796.2412023996003,1,None,None,"[0, 0, 0]",,,794.2578300000168,794.2578300000168,,,,,,,,,,,,,,,,,,,,,,,,,,,,,,"[0, 0, 0]",,,,,4,M,1,12,l,CIB,2021_Sep_07_1221,2020.2.10,distractmap1,60.005100374571875,"['Abdomen', 'Right Arm', 'Left Face', 'Left Leg']",
7,"[-0.2, -0.2]",0,0,7,7,7,,,,,,,796.2577329999767,796.2577329999767,796.2577329999767,797.2578652999364,797.2411978999153,798.2411976000294,1,None,None,"[0, 0, 0]",,,796.2577329999767,796.2577329999767,,,,,,,,,,,,,,,,,,,,,,,,,,,,,,"[0, 0, 0]",,,,,4,M,1,12,l,CIB,2021_Sep_07_1221,2020.2.10,distractmap1,60.005100374571875,"['Abdomen', 'Right Arm', 'Left Face', 'Left Leg']",
7,"[-0.2, -0.2]",1,0,8,8,8,,,,,,,798.2578794998117,798.2578794998117,798.2578794998117,799.2578857997432,799.2412335998379,800.2412315998226,1,None,None,"[0, 0, 0]",,,798.2578794998117,798.2578794998117,,,,,,,,,,,,,,,,,,,,,,,,,,,,,,"[0, 0, 0]",,,,,4,M,1,12,l,CIB,2021_Sep_07_1221,2020.2.10,distractmap1,60.005100374571875,"['Abdomen', 'Right Arm', 'Left Face', 'Left Leg']",
7,"[-0.2, -0.2]",1,0,9,9,9,,,,,,,800.2578816995956,800.2578816995956,800.2578816995956,801.2579075996764,801.2412436995655,802.241280999966,1,None,None,"[0, 0, 0]",,,800.2578816995956,800.2578816995956,,,,,,,,,,,,,,,,,,,,,,,,,,,,,,"[0, 0, 0]",,,,,4,M,1,12,l,CIB,2021_Sep_07_1221,2020.2.10,distractmap1,60.005100374571875,"['Abdomen', 'Right Arm', 'Left Face', 'Left Leg']",
,,,,,,,,,,,802.2579015996307,None,,,,,,,,,,,,,,,,,,,,,,,,,,,,,,,,,,,,,,,,24.382716049382715,786.9586306298152,,,,,,,,4,M,1,12,l,CIB,2021_Sep_07_1221,2020.2.10,distractmap1,60.005100374571875,"['Abdomen', 'Right Arm', 'Left Face', 'Left Leg']",
7,"[-0.2, -0.2]",None,,,,,0,0,0,0,818.0246689999476,None,,,,,,,,,,,,,,,,,,,,None,None,"[0, 0, 0]",822.3079439997673,None,822.3079439997673,823.308054599911,823.2913893000223,824.2914040996693,"[0, 0, 0]",1,822.3079439997673,None,,,,,,,,,,0.01437207031995058,5.011081770528108,,,,,,4,M,1,12,l,CIB,2021_Sep_07_1221,2020.2.10,distractmap1,60.005100374571875,"['Abdomen', 'Right Arm', 'Left Face', 'Left Leg']",
7,"[-0.2, -0.2]",None,,,,,0,1,1,1,,,,,,,,,,,,,,,,,,,,,,None,None,"[0, 0, 0]",824.3080640998669,826.3080864995718,824.3080640998669,825.3080543996766,825.2913943999447,826.2914014998823,"[0, 0, 0]",1,824.3080640998669,826.3080864995718,,,,,,,,,,,,,,,,,4,M,1,12,l,CIB,2021_Sep_07_1221,2020.2.10,distractmap1,60.005100374571875,"['Abdomen', 'Right Arm', 'Left Face', 'Left Leg']",
7,"[-0.2, -0.2]",1,,,,,0,2,2,2,,,,,,,,,,,,,,,,,,,,,,None,None,"[0, 0, 0]",826.3247606996447,828.3247654000297,826.3247606996447,827.3247488997877,827.3080996996723,828.3081151996739,"[0, 0, 0]",1,826.3247606996447,828.3247654000297,,,,,,,,,,,,,,,,,4,M,1,12,l,CIB,2021_Sep_07_1221,2020.2.10,distractmap1,60.005100374571875,"['Abdomen', 'Right Arm', 'Left Face', 'Left Leg']",
5,"[0, 0]",0,,,,,0,3,3,3,,,,,,,,,,,,,,,,,,,,,,None,None,"[0, 0, 0]",828.3413829999045,830.3414229997434,828.3413829999045,829.3414243999869,829.3247849997133,830.3247886998579,"[0, 0, 0]",1,828.3413829999045,830.3414229997434,,,,,,,,,,,,,,,,,4,M,1,12,l,CIB,2021_Sep_07_1221,2020.2.10,distractmap1,60.005100374571875,"['Abdomen', 'Right Arm', 'Left Face', 'Left Leg']",
1,"[-0.2, 0.2]",0,,,,,0,4,4,4,,,,,,,,,,,,,,,,,,,,,,None,None,"[0, 0, 0]",830.4084577998146,None,830.4084577998146,831.408008699771,831.3914413996972,None,"[0, 0, 0]",1,830.4084577998146,None,,,,,,,,,,,,,,,,,4,M,1,12,l,CIB,2021_Sep_07_1221,2020.2.10,distractmap1,60.005100374571875,"['Abdomen', 'Right Arm', 'Left Face', 'Left Leg']",
6,"[0.2, 0]",0,,,,,0,5,5,5,,,,,,,,,,,,,,,,,,,,,,None,None,"[0, 0, 0]",832.3747857999988,834.3748240997083,832.3747857999988,833.3748173997737,833.3581638997421,834.3581503997557,"[0, 0, 0]",1,832.3747857999988,834.3748240997083,,,,,,,,,,,,,,,,,4,M,1,12,l,CIB,2021_Sep_07_1221,2020.2.10,distractmap1,60.005100374571875,"['Abdomen', 'Right Arm', 'Left Face', 'Left Leg']",
1,"[-0.2, 0.2]",1,,,,,0,6,6,6,,,,,,,,,,,,,,,,,,,,,,None,None,"[0, 0, 0]",834.3913396997377,836.3914648997597,834.3913396997377,835.3914922997355,835.3748067999259,836.3748230999336,"[0, 0, 0]",1,834.3913396997377,836.3914648997597,,,,,,,,,,,,,,,,,4,M,1,12,l,CIB,2021_Sep_07_1221,2020.2.10,distractmap1,60.005100374571875,"['Abdomen', 'Right Arm', 'Left Face', 'Left Leg']",
7,"[-0.2, -0.2]",0,,,,,0,7,7,7,,,,,,,,,,,,,,,,,,,,,,None,None,"[0, 0, 0]",836.4081530999392,838.4081848999485,836.4081530999392,837.4081748998724,837.3914811997674,838.3914860999212,"[0, 0, 0]",1,836.4081530999392,838.4081848999485,,,,,,,,,,,,,,,,,4,M,1,12,l,CIB,2021_Sep_07_1221,2020.2.10,distractmap1,60.005100374571875,"['Abdomen', 'Right Arm', 'Left Face', 'Left Leg']",
6,"[0.2, 0]",0,,,,,0,8,8,8,,,,,,,,,,,,,,,,,,,,,,None,None,"[0, 0, 0]",838.4248867998831,840.4248515996151,838.4248867998831,839.4248529998586,839.408193399664,840.4082100996748,"[0, 0, 0]",1,838.4248867998831,840.4248515996151,,,,,,,,,,,,,,,,,4,M,1,12,l,CIB,2021_Sep_07_1221,2020.2.10,distractmap1,60.005100374571875,"['Abdomen', 'Right Arm', 'Left Face', 'Left Leg']",
7,"[-0.2, -0.2]",1,,,,,0,9,9,9,,,,,,,,,,,,,,,,,,,,,,None,None,"[0, 0, 0]",840.4415010996163,842.4415215998888,840.4415010996163,841.4415058996528,841.4248742996715,842.42486799974,"[0, 0, 0]",1,840.4415010996163,842.4415215998888,,,,,,,,,,,,,,,,,4,M,1,12,l,CIB,2021_Sep_07_1221,2020.2.10,distractmap1,60.005100374571875,"['Abdomen', 'Right Arm', 'Left Face', 'Left Leg']",
,,,,,,,,,,,842.4582110997289,None,,,,,,,,,,,,,,,,,,,,,,,,,,,,,,,,,,,,,,,,18.703703703703702,826.0919806300662,,,,,,,,4,M,1,12,l,CIB,2021_Sep_07_1221,2020.2.10,distractmap1,60.005100374571875,"['Abdomen', 'Right Arm', 'Left Face', 'Left Leg']",
4,"[-0.2, 0]",None,,,,,0,0,0,0,856.2083393996581,None,,,,,,,,,,,,,,,,,,,,None,None,"[0, 0, 0]",862.5083879996091,None,862.5083879996091,863.5083877998404,863.4917088998482,864.4917039996944,"[0, 0, 0]",1,862.5083879996091,None,,,,,,,,,,0.014642769936472178,5.011527870316058,,,,,,4,M,1,12,l,CIB,2021_Sep_07_1221,2020.2.10,distractmap1,60.005100374571875,"['Abdomen', 'Right Arm', 'Left Face', 'Left Leg']",
5,"[0, 0]",None,,,,,0,1,1,1,,,,,,,,,,,,,,,,,,,,,,None,None,"[0, 0, 0]",864.5082592996769,866.5083916997537,864.5082592996769,865.5083882999606,865.4917130996473,866.4917276999913,"[0, 0, 0]",1,864.5082592996769,866.5083916997537,,,,,,,,,,,,,,,,,4,M,1,12,l,CIB,2021_Sep_07_1221,2020.2.10,distractmap1,60.005100374571875,"['Abdomen', 'Right Arm', 'Left Face', 'Left Leg']",
6,"[0.2, 0]",0,,,,,0,2,2,2,,,,,,,,,,,,,,,,,,,,,,None,None,"[0, 0, 0]",866.5250660995953,868.525062599685,866.5250660995953,867.5250711999834,867.5083885998465,868.5084152999334,"[0, 0, 0]",1,866.5250660995953,868.525062599685,,,,,,,,,,,,,,,,,4,M,1,12,l,CIB,2021_Sep_07_1221,2020.2.10,distractmap1,60.005100374571875,"['Abdomen', 'Right Arm', 'Left Face', 'Left Leg']",
1,"[-0.2, 0.2]",0,,,,,0,3,3,3,,,,,,,,,,,,,,,,,,,,,,None,None,"[0, 0, 0]",868.5417229998857,870.5417603999376,868.5417229998857,869.541745999828,869.5250893998891,870.5250939996913,"[0, 0, 0]",1,868.5417229998857,870.5417603999376,,,,,,,,,,,,,,,,,4,M,1,12,l,CIB,2021_Sep_07_1221,2020.2.10,distractmap1,60.005100374571875,"['Abdomen', 'Right Arm', 'Left Face', 'Left Leg']",
6,"[0.2, 0]",1,,,,,0,4,4,4,,,,,,,,,,,,,,,,,,,,,,None,None,"[0, 0, 0]",870.5918083996512,None,870.5918083996512,871.5917829996906,871.5917829996906,None,"[0, 0, 0]",1,870.5918083996512,None,,,,,,,,,,,,,,,,,4,M,1,12,l,CIB,2021_Sep_07_1221,2020.2.10,distractmap1,60.005100374571875,"['Abdomen', 'Right Arm', 'Left Face', 'Left Leg']",
1,"[-0.2, 0.2]",1,,,,,0,5,5,5,,,,,,,,,,,,,,,,,,,,,,None,None,"[0, 0, 0]",872.5750934998505,874.5751271997578,872.5750934998505,873.5751133998856,873.5584285999648,874.558423999697,"[0, 0, 0]",1,872.5750934998505,874.5751271997578,,,,,,,,,,,,,,,,,4,M,1,12,l,CIB,2021_Sep_07_1221,2020.2.10,distractmap1,60.005100374571875,"['Abdomen', 'Right Arm', 'Left Face', 'Left Leg']",
2,"[0, 0.2]",0,,,,,0,6,6,6,,,,,,,,,,,,,,,,,,,,,,None,None,"[0, 0, 0]",874.5917893997394,876.5917989998125,874.5917893997394,875.5917766997591,875.5751143000089,876.5751437996514,"[0, 0, 0]",1,874.5917893997394,876.5917989998125,,,,,,,,,,,,,,,,,4,M,1,12,l,CIB,2021_Sep_07_1221,2020.2.10,distractmap1,60.005100374571875,"['Abdomen', 'Right Arm', 'Left Face', 'Left Leg']",
3,"[0.2, 0.2]",0,,,,,0,7,7,7,,,,,,,,,,,,,,,,,,,,,,None,None,"[0, 0, 0]",876.6084368997253,878.6084518996067,876.6084368997253,877.6084620999172,877.5918109999038,878.5918304999359,"[0, 0, 0]",1,876.6084368997253,878.6084518996067,,,,,,,,,,,,,,,,,4,M,1,12,l,CIB,2021_Sep_07_1221,2020.2.10,distractmap1,60.005100374571875,"['Abdomen', 'Right Arm', 'Left Face', 'Left Leg']",
6,"[0.2, 0]",0,,,,,0,8,8,8,,,,,,,,,,,,,,,,,,,,,,None,None,"[0, 0, 0]",878.6251289998181,880.6251818998717,878.6251289998181,879.6251573995687,879.6083813998848,880.608481799718,"[0, 0, 0]",1,878.6251289998181,880.6251818998717,,,,,,,,,,,,,,,,,4,M,1,12,l,CIB,2021_Sep_07_1221,2020.2.10,distractmap1,60.005100374571875,"['Abdomen', 'Right Arm', 'Left Face', 'Left Leg']",
3,"[0.2, 0.2]",1,,,,,0,9,9,9,,,,,,,,,,,,,,,,,,,,,,None,None,"[0, 0, 0]",880.6418285998516,882.6418402995914,880.6418285998516,881.6418455997482,881.625176999718,882.6251868000254,"[0, 0, 0]",1,880.6418285998516,882.6418402995914,,,,,,,,,,,,,,,,,4,M,1,12,l,CIB,2021_Sep_07_1221,2020.2.10,distractmap1,60.005100374571875,"['Abdomen', 'Right Arm', 'Left Face', 'Left Leg']",
,,,,,,,,,,,882.6584878996946,None,,,,,,,,,,,,,,,,,,,,,,,,,,,,,,,,,,,,,,,,20.74074074074074,867.3586686290801,,,,,,,,4,M,1,12,l,CIB,2021_Sep_07_1221,2020.2.10,distractmap1,60.005100374571875,"['Abdomen', 'Right Arm', 'Left Face', 'Left Leg']",
8,"[0, -0.2]",None,0,0,0,0,,,,,897.8586185998283,None,902.7253361996263,None,902.7253361996263,903.7253437996842,903.6919816997834,904.6920219999738,1,None,None,"[0, 0, 0]",,,902.7253361996263,None,,,,,,,,,,,,,,,,,,,,,,,,,,,,0.014920870773494244,5.012128270696849,"[0, 0, 0]",,,,,4,M,1,12,l,CIB,2021_Sep_07_1221,2020.2.10,distractmap1,60.005100374571875,"['Abdomen', 'Right Arm', 'Left Face', 'Left Leg']",
6,"[0.2, 0]",0,0,1,1,1,,,,,,,904.7253345996141,None,904.7253345996141,905.7253484996036,905.7087197997607,906.708710799925,1,None,None,"[0, 0, 1]",,,904.7253345996141,None,,,,,,,,,,,,,,,,,,,,,,,,,,,,,,"[0, 0, 1]",0.0,1.8964694999158382,,,4,M,1,12,l,CIB,2021_Sep_07_1221,2020.2.10,distractmap1,60.005100374571875,"['Abdomen', 'Right Arm', 'Left Face', 'Left Leg']",
6,"[0.2, 0]",1,0,2,2,2,,,,,,,906.7253874996677,906.7253874996677,906.7253874996677,907.725369699765,907.7086906996556,908.7087131999433,1,None,None,"[0, 0, 0]",,,906.7253874996677,906.7253874996677,,,,,,,,,,,,,,,,,,,,,,,,,,,,,,"[0, 0, 0]",,,,,4,M,1,12,l,CIB,2021_Sep_07_1221,2020.2.10,distractmap1,60.005100374571875,"['Abdomen', 'Right Arm', 'Left Face', 'Left Leg']",
2,"[0, 0.2]",0,0,3,3,3,,,,,,,908.7253859997727,908.7253859997727,908.7253859997727,909.7253671996295,909.7087312997319,910.7087280997075,1,None,None,"[0, 0, 0]",,,908.7253859997727,908.7253859997727,,,,,,,,,,,,,,,,,,,,,,,,,,,,,,"[0, 0, 0]",,,,,4,M,1,12,l,CIB,2021_Sep_07_1221,2020.2.10,distractmap1,60.005100374571875,"['Abdomen', 'Right Arm', 'Left Face', 'Left Leg']",
1,"[-0.2, 0.2]",0,0,4,4,4,,,,,,,910.7758844997734,910.7758844997734,910.7758844997734,911.7753905998543,911.7587222997099,None,1,None,None,"[0, 0, 0]",,,910.7758844997734,910.7758844997734,,,,,,,,,,,,,,,,,,,,,,,,,,,,,,"[0, 0, 0]",,,,,4,M,1,12,l,CIB,2021_Sep_07_1221,2020.2.10,distractmap1,60.005100374571875,"['Abdomen', 'Right Arm', 'Left Face', 'Left Leg']",
6,"[0.2, 0]",0,0,5,5,5,,,,,,,912.7420820998959,None,912.7420820998959,913.7419570996426,913.7253938997164,914.725399099756,1,None,None,"[0, 0, 0]",,,912.7420820998959,None,,,,,,,,,,,,,,,,,,,,,,,,,,,,,,"[0, 0, 0]",,,,,4,M,1,12,l,CIB,2021_Sep_07_1221,2020.2.10,distractmap1,60.005100374571875,"['Abdomen', 'Right Arm', 'Left Face', 'Left Leg']",
9,"[0.2, -0.2]",0,0,6,6,6,,,,,,,914.7420636997558,914.7420636997558,914.7420636997558,915.7420993000269,915.7254103999585,916.725424699951,1,None,None,"[0, 0, 0]",,,914.7420636997558,914.7420636997558,,,,,,,,,,,,,,,,,,,,,,,,,,,,,,"[0, 0, 0]",,,,,4,M,1,12,l,CIB,2021_Sep_07_1221,2020.2.10,distractmap1,60.005100374571875,"['Abdomen', 'Right Arm', 'Left Face', 'Left Leg']",
1,"[-0.2, 0.2]",0,0,7,7,7,,,,,,,916.7420977000147,916.7420977000147,916.7420977000147,917.7421113997698,917.725448299665,918.7254363996908,1,None,None,"[0, 0, 0]",,,916.7420977000147,916.7420977000147,,,,,,,,,,,,,,,,,,,,,,,,,,,,,,"[0, 0, 0]",,,,,4,M,1,12,l,CIB,2021_Sep_07_1221,2020.2.10,distractmap1,60.005100374571875,"['Abdomen', 'Right Arm', 'Left Face', 'Left Leg']",
6,"[0.2, 0]",0,0,8,8,8,,,,,,,918.742169899866,918.742169899866,918.742169899866,919.7421322995797,919.7254440998659,920.7254412998445,1,None,None,"[0, 0, 0]",,,918.742169899866,918.742169899866,,,,,,,,,,,,,,,,,,,,,,,,,,,,,,"[0, 0, 0]",,,,,4,M,1,12,l,CIB,2021_Sep_07_1221,2020.2.10,distractmap1,60.005100374571875,"['Abdomen', 'Right Arm', 'Left Face', 'Left Leg']",
6,"[0.2, 0]",1,0,9,9,9,,,,,,,920.7421418000013,920.7421418000013,920.7421418000013,921.742149699945,921.7254605996422,922.7254649000242,1,None,None,"[0, 0, 0]",,,920.7421418000013,920.7421418000013,,,,,,,,,,,,,,,,,,,,,,,,,,,,,,"[0, 0, 0]",,,,,4,M,1,12,l,CIB,2021_Sep_07_1221,2020.2.10,distractmap1,60.005100374571875,"['Abdomen', 'Right Arm', 'Left Face', 'Left Leg']",
,,,,,,,,,,,922.7421405999921,None,,,,,,,,,,,,,,,,,,,,,,,,,,,,,,,,,,,,,,,,23.51851851851852,909.2927196300589,,,,,,,,4,M,1,12,l,CIB,2021_Sep_07_1221,2020.2.10,distractmap1,60.005100374571875,"['Abdomen', 'Right Arm', 'Left Face', 'Left Leg']",
9,"[0.2, -0.2]",None,0,0,0,0,,,,,940.0256264996715,None,942.7923171999864,None,942.7923171999864,943.7923100995831,943.7589912000112,944.7589823999442,1,None,None,"[0, 0, 0]",,,942.7923171999864,None,,,,,,,,,,,,,,,,,,,,,,,,,,,,0.014536569826304913,5.011400470044464,"[0, 0, 0]",,,,,4,M,1,12,l,CIB,2021_Sep_07_1221,2020.2.10,distractmap1,60.005100374571875,"['Abdomen', 'Right Arm', 'Left Face', 'Left Leg']",
9,"[0.2, -0.2]",1,0,1,1,1,,,,,,,944.792332299985,None,944.792332299985,945.792314699851,945.7756739999168,946.7756519997492,1,None,None,"[0, 0, 0]",,,944.792332299985,None,,,,,,,,,,,,,,,,,,,,,,,,,,,,,,"[0, 0, 0]",,,,,4,M,1,12,l,CIB,2021_Sep_07_1221,2020.2.10,distractmap1,60.005100374571875,"['Abdomen', 'Right Arm', 'Left Face', 'Left Leg']",
9,"[0.2, -0.2]",1,0,2,2,2,,,,,,,946.792333399877,946.792333399877,946.792333399877,947.7923295996152,947.7757023000158,948.775684399996,1,None,None,"[0, 0, 0]",,,946.792333399877,946.792333399877,,,,,,,,,,,,,,,,,,,,,,,,,,,,,,"[0, 0, 0]",,,,,4,M,1,12,l,CIB,2021_Sep_07_1221,2020.2.10,distractmap1,60.005100374571875,"['Abdomen', 'Right Arm', 'Left Face', 'Left Leg']",
3,"[0.2, 0.2]",0,0,3,3,3,,,,,,,948.7923732995987,948.7923732995987,948.7923732995987,949.7923744996078,949.7757074995898,950.7757394998334,1,None,None,"[0, 0, 0]",,,948.7923732995987,948.7923732995987,,,,,,,,,,,,,,,,,,,,,,,,,,,,,,"[0, 0, 0]",,,,,4,M,1,12,l,CIB,2021_Sep_07_1221,2020.2.10,distractmap1,60.005100374571875,"['Abdomen', 'Right Arm', 'Left Face', 'Left Leg']",
5,"[0, 0]",0,0,4,4,4,,,,,,,950.8260030997917,950.8260030997917,950.8260030997917,951.8257411997765,951.8090333999135,None,1,None,None,"[0, 0, 0]",,,950.8260030997917,950.8260030997917,,,,,,,,,,,,,,,,,,,,,,,,,,,,,,"[0, 0, 0]",,,,,4,M,1,12,l,CIB,2021_Sep_07_1221,2020.2.10,distractmap1,60.005100374571875,"['Abdomen', 'Right Arm', 'Left Face', 'Left Leg']",
4,"[-0.2, 0]",0,0,5,5,5,,,,,,,952.8090548999608,None,952.8090548999608,953.8090603998862,953.7923872997053,954.7923939996399,1,None,None,"[0, 0, 0]",,,952.8090548999608,None,,,,,,,,,,,,,,,,,,,,,,,,,,,,,,"[0, 0, 0]",,,,,4,M,1,12,l,CIB,2021_Sep_07_1221,2020.2.10,distractmap1,60.005100374571875,"['Abdomen', 'Right Arm', 'Left Face', 'Left Leg']",
9,"[0.2, -0.2]",0,0,6,6,6,,,,,,,954.8090679999441,954.8090679999441,954.8090679999441,955.8090814999305,955.7924075997435,956.7924190997146,1,None,None,"[0, 0, 0]",,,954.8090679999441,954.8090679999441,,,,,,,,,,,,,,,,,,,,,,,,,,,,,,"[0, 0, 0]",,,,,4,M,1,12,l,CIB,2021_Sep_07_1221,2020.2.10,distractmap1,60.005100374571875,"['Abdomen', 'Right Arm', 'Left Face', 'Left Leg']",
6,"[0.2, 0]",0,0,7,7,7,,,,,,,956.8090832997113,956.8090832997113,956.8090832997113,957.8090784996748,957.7923918999732,958.7924025999382,1,None,None,"[0, 0, 0]",,,956.8090832997113,956.8090832997113,,,,,,,,,,,,,,,,,,,,,,,,,,,,,,"[0, 0, 0]",,,,,4,M,1,12,l,CIB,2021_Sep_07_1221,2020.2.10,distractmap1,60.005100374571875,"['Abdomen', 'Right Arm', 'Left Face', 'Left Leg']",
2,"[0, 0.2]",0,0,8,8,8,,,,,,,958.8091023997404,958.8091023997404,958.8091023997404,959.8091005999595,959.7924294997938,960.7924165995792,1,None,None,"[0, 0, 0]",,,958.8091023997404,958.8091023997404,,,,,,,,,,,,,,,,,,,,,,,,,,,,,,"[0, 0, 0]",,,,,4,M,1,12,l,CIB,2021_Sep_07_1221,2020.2.10,distractmap1,60.005100374571875,"['Abdomen', 'Right Arm', 'Left Face', 'Left Leg']",
2,"[0, 0.2]",1,0,9,9,9,,,,,,,960.8091827998869,960.8091827998869,960.8091827998869,961.8091792999767,961.7924251998775,962.7924311999232,1,None,None,"[0, 0, 0]",,,960.8091827998869,960.8091827998869,,,,,,,,,,,,,,,,,,,,,,,,,,,,,,"[0, 0, 0]",,,,,4,M,1,12,l,CIB,2021_Sep_07_1221,2020.2.10,distractmap1,60.005100374571875,"['Abdomen', 'Right Arm', 'Left Face', 'Left Leg']",
,,,,,,,,,,,962.809123700019,None,,,,,,,,,,,,,,,,,,,,,,,,,,,,,,,,,,,,,,,,27.098765432098766,949.9099481296726,,,,,,,,4,M,1,12,l,CIB,2021_Sep_07_1221,2020.2.10,distractmap1,60.005100374571875,"['Abdomen', 'Right Arm', 'Left Face', 'Left Leg']",
2,"[0, 0.2]",None,,,,,0,0,0,0,980.6926733995788,None,,,,,,,,,,,,,,,,,,,,None,None,"[0, 0, 0]",982.8759535998106,None,982.8759535998106,983.8759555998258,983.8592967996374,984.8592975996435,"[0, 0, 0]",1,982.8759535998106,None,,,,,,,,,,0.014377270359545946,5.011161170434207,,,,,,4,M,1,12,l,CIB,2021_Sep_07_1221,2020.2.10,distractmap1,60.005100374571875,"['Abdomen', 'Right Arm', 'Left Face', 'Left Leg']",
5,"[0, 0]",None,,,,,0,1,1,1,,,,,,,,,,,,,,,,,,,,,,None,None,"[0, 0, 0]",984.8759543998167,986.8759720996022,984.8759543998167,985.8759561995976,985.859303899575,986.8593163997866,"[0, 0, 0]",1,984.8759543998167,986.8759720996022,,,,,,,,,,,,,,,,,4,M,1,12,l,CIB,2021_Sep_07_1221,2020.2.10,distractmap1,60.005100374571875,"['Abdomen', 'Right Arm', 'Left Face', 'Left Leg']",
6,"[0.2, 0]",0,,,,,0,2,2,2,,,,,,,,,,,,,,,,,,,,,,None,None,"[0, 0, 0]",986.8926224997267,988.8926624995656,986.8926224997267,987.8926698998548,987.8759757997468,988.8759978995658,"[0, 0, 0]",1,986.8926224997267,988.8926624995656,,,,,,,,,,,,,,,,,4,M,1,12,l,CIB,2021_Sep_07_1221,2020.2.10,distractmap1,60.005100374571875,"['Abdomen', 'Right Arm', 'Left Face', 'Left Leg']",
1,"[-0.2, 0.2]",0,,,,,0,3,3,3,,,,,,,,,,,,,,,,,,,,,,None,None,"[0, 0, 0]",988.9093093997799,990.9093214999884,988.9093093997799,989.9093336998485,989.8926949999295,990.8926835996099,"[0, 0, 0]",1,988.9093093997799,990.9093214999884,,,,,,,,,,,,,,,,,4,M,1,12,l,CIB,2021_Sep_07_1221,2020.2.10,distractmap1,60.005100374571875,"['Abdomen', 'Right Arm', 'Left Face', 'Left Leg']",
6,"[0.2, 0]",1,,,,,0,4,4,4,,,,,,,,,,,,,,,,,,,,,,None,None,"[0, 0, 0]",990.976342599839,None,990.976342599839,991.9760707998648,991.9593372996897,None,"[0, 0, 0]",1,990.976342599839,None,,,,,,,,,,,,,,,,,4,M,1,12,l,CIB,2021_Sep_07_1221,2020.2.10,distractmap1,60.005100374571875,"['Abdomen', 'Right Arm', 'Left Face', 'Left Leg']",
6,"[0.2, 0]",0,,,,,0,5,5,5,,,,,,,,,,,,,,,,,,,,,,None,None,"[0, 0, 0]",992.9426631997339,994.9426839998923,992.9426631997339,993.9427227997221,993.9260320998728,994.9260475998744,"[0, 0, 0]",1,992.9426631997339,994.9426839998923,,,,,,,,,,,,,,,,,4,M,1,12,l,CIB,2021_Sep_07_1221,2020.2.10,distractmap1,60.005100374571875,"['Abdomen', 'Right Arm', 'Left Face', 'Left Leg']",
9,"[0.2, -0.2]",0,,,,,0,6,6,6,,,,,,,,,,,,,,,,,,,,,,None,None,"[0, 0, 0]",994.9593863999471,996.9594056997448,994.9593863999471,995.9593908996321,995.9427332999185,996.942604099866,"[0, 0, 0]",1,994.9593863999471,996.9594056997448,,,,,,,,,,,,,,,,,4,M,1,12,l,CIB,2021_Sep_07_1221,2020.2.10,distractmap1,60.005100374571875,"['Abdomen', 'Right Arm', 'Left Face', 'Left Leg']",
6,"[0.2, 0]",1,,,,,0,7,7,7,,,,,,,,,,,,,,,,,,,,,,None,None,"[0, 0, 0]",996.9760549999774,998.9760456997901,996.9760549999774,997.9760515997186,997.9593977998011,998.9593793000095,"[0, 0, 0]",1,996.9760549999774,998.9760456997901,,,,,,,,,,,,,,,,,4,M,1,12,l,CIB,2021_Sep_07_1221,2020.2.10,distractmap1,60.005100374571875,"['Abdomen', 'Right Arm', 'Left Face', 'Left Leg']",
3,"[0.2, 0.2]",0,,,,,0,8,8,8,,,,,,,,,,,,,,,,,,,,,,None,None,"[0, 0, 0]",998.992710699793,1000.9927453999408,998.992710699793,999.9927411000244,999.9760880996473,1000.9760850998573,"[0, 0, 0]",1,998.992710699793,1000.9927453999408,,,,,,,,,,,,,,,,,4,M,1,12,l,CIB,2021_Sep_07_1221,2020.2.10,distractmap1,60.005100374571875,"['Abdomen', 'Right Arm', 'Left Face', 'Left Leg']",
9,"[0.2, -0.2]",0,,,,,0,9,9,9,,,,,,,,,,,,,,,,,,,,,,None,None,"[0, 0, 0]",1001.0093964999542,1003.0094073996879,1001.0093964999542,1002.0093491999432,1001.992743499577,1002.9927711999044,"[0, 0, 0]",1,1001.0093964999542,1003.0094073996879,,,,,,,,,,,,,,,,,4,M,1,12,l,CIB,2021_Sep_07_1221,2020.2.10,distractmap1,60.005100374571875,"['Abdomen', 'Right Arm', 'Left Face', 'Left Leg']",
,,,,,,,,,,,1003.026104899589,None,,,,,,,,,,,,,,,,,,,,,,,,,,,,,,,,,,,,,,,,27.59259259259259,987.810138930101,,,,,,,,4,M,1,12,l,CIB,2021_Sep_07_1221,2020.2.10,distractmap1,60.005100374571875,"['Abdomen', 'Right Arm', 'Left Face', 'Left Leg']",
3,"[0.2, 0.2]",None,,,,,0,0,0,0,1018.3428956000134,None,,,,,,,,,,,,,,,,,,,,None,None,"[0, 0, 0]",1023.0762559999712,None,1023.0762559999712,1024.0762443998829,1024.0595703995787,1025.0595760997385,"[0, 0, 0]",1,1023.0762559999712,None,,,,,,,,,,0.014358569867908955,5.011110870167613,,,,,,4,M,1,12,l,CIB,2021_Sep_07_1221,2020.2.10,distractmap1,60.005100374571875,"['Abdomen', 'Right Arm', 'Left Face', 'Left Leg']",
9,"[0.2, -0.2]",None,,,,,0,1,1,1,,,,,,,,,,,,,,,,,,,,,,None,None,"[0, 0, 0]",1025.0762675995938,1027.07627459988,1025.0762675995938,1026.0762777999043,1026.059530599974,1027.0595978000201,"[0, 0, 0]",1,1025.0762675995938,1027.07627459988,,,,,,,,,,,,,,,,,4,M,1,12,l,CIB,2021_Sep_07_1221,2020.2.10,distractmap1,60.005100374571875,"['Abdomen', 'Right Arm', 'Left Face', 'Left Leg']",
3,"[0.2, 0.2]",1,,,,,0,2,2,2,,,,,,,,,,,,,,,,,,,,,,None,None,"[0, 0, 0]",1027.09295489965,1029.092962199822,1027.09295489965,1028.0929633998312,1028.076285699848,1029.0763002997264,"[0, 0, 0]",1,1027.09295489965,1029.092962199822,,,,,,,,,,,,,,,,,4,M,1,12,l,CIB,2021_Sep_07_1221,2020.2.10,distractmap1,60.005100374571875,"['Abdomen', 'Right Arm', 'Left Face', 'Left Leg']",
7,"[-0.2, -0.2]",0,,,,,0,3,3,3,,,,,,,,,,,,,,,,,,,,,,None,None,"[0, 0, 0]",1029.109611899592,1031.1096549998038,1029.109611899592,1030.1096421997063,1030.0929653998464,1031.0929600996897,"[0, 0, 0]",1,1029.109611899592,1031.1096549998038,,,,,,,,,,,,,,,,,4,M,1,12,l,CIB,2021_Sep_07_1221,2020.2.10,distractmap1,60.005100374571875,"['Abdomen', 'Right Arm', 'Left Face', 'Left Leg']",
8,"[0, -0.2]",0,,,,,0,4,4,4,,,,,,,,,,,,,,,,,,,,,,None,None,"[0, 0, 0]",1031.1765238996595,None,1031.1765238996595,1032.1763211996295,1032.159665599931,None,"[0, 0, 0]",1,1031.1765238996595,None,,,,,,,,,,,,,,,,,4,M,1,12,l,CIB,2021_Sep_07_1221,2020.2.10,distractmap1,60.005100374571875,"['Abdomen', 'Right Arm', 'Left Face', 'Left Leg']",
4,"[-0.2, 0]",0,,,,,0,5,5,5,,,,,,,,,,,,,,,,,,,,,,None,None,"[0, 0, 0]",1033.1429808000103,1035.1430143998004,1033.1429808000103,1034.1430009999312,1034.1263949996792,1035.126337299589,"[0, 0, 0]",1,1033.1429808000103,1035.1430143998004,,,,,,,,,,,,,,,,,4,M,1,12,l,CIB,2021_Sep_07_1221,2020.2.10,distractmap1,60.005100374571875,"['Abdomen', 'Right Arm', 'Left Face', 'Left Leg']",
4,"[-0.2, 0]",0,,,,,0,6,6,6,,,,,,,,,,,,,,,,,,,,,,None,None,"[0, 0, 0]",1035.15970259998,1037.159716699738,1035.15970259998,1036.1596947996877,1036.1429097997025,1037.143032899592,"[0, 0, 0]",1,1035.15970259998,1037.159716699738,,,,,,,,,,,,,,,,,4,M,1,12,l,CIB,2021_Sep_07_1221,2020.2.10,distractmap1,60.005100374571875,"['Abdomen', 'Right Arm', 'Left Face', 'Left Leg']",
1,"[-0.2, 0.2]",0,,,,,0,7,7,7,,,,,,,,,,,,,,,,,,,,,,None,None,"[0, 0, 0]",1037.176372599788,1039.176390599925,1037.176372599788,1038.1763827996328,1038.159727299586,1039.159657199867,"[0, 0, 0]",1,1037.176372599788,1039.176390599925,,,,,,,,,,,,,,,,,4,M,1,12,l,CIB,2021_Sep_07_1221,2020.2.10,distractmap1,60.005100374571875,"['Abdomen', 'Right Arm', 'Left Face', 'Left Leg']",
4,"[-0.2, 0]",1,,,,,0,8,8,8,,,,,,,,,,,,,,,,,,,,,,None,None,"[0, 0, 0]",1039.1930285999551,1041.1930661997758,1039.1930285999551,1040.1930434997194,1040.1763911996968,1041.1764063998125,"[0, 0, 0]",1,1039.1930285999551,1041.1930661997758,,,,,,,,,,,,,,,,,4,M,1,12,l,CIB,2021_Sep_07_1221,2020.2.10,distractmap1,60.005100374571875,"['Abdomen', 'Right Arm', 'Left Face', 'Left Leg']",
8,"[0, -0.2]",0,,,,,0,9,9,9,,,,,,,,,,,,,,,,,,,,,,None,None,"[0, 0, 0]",1041.2097123996355,1043.209741699975,1041.2097123996355,1042.2092212997377,1042.1930581997149,1043.1930680000223,"[0, 0, 0]",1,1041.2097123996355,1043.209741699975,,,,,,,,,,,,,,,,,4,M,1,12,l,CIB,2021_Sep_07_1221,2020.2.10,distractmap1,60.005100374571875,"['Abdomen', 'Right Arm', 'Left Face', 'Left Leg']",
,,,,,,,,,,,1043.2264084997587,None,,,,,,,,,,,,,,,,,,,,,,,,,,,,,,,,,,,,,,,,30.123456790123456,1029.99355853023,,,,,,,,4,M,1,12,l,CIB,2021_Sep_07_1221,2020.2.10,distractmap1,60.005100374571875,"['Abdomen', 'Right Arm', 'Left Face', 'Left Leg']",
2,"[0, 0.2]",None,,,,,0,0,0,0,1060.9932373999618,None,,,,,,,,,,,,,,,,,,,,None,None,"[0, 0, 0]",1063.2765425997786,None,1063.2765425997786,1064.2765426998958,1064.2599035999738,1065.2599175996147,"[0, 0, 0]",1,1063.2765425997786,None,,,,,,,,,,0.014653269667178392,5.011725170072168,,,,,,4,M,1,12,l,CIB,2021_Sep_07_1221,2020.2.10,distractmap1,60.005100374571875,"['Abdomen', 'Right Arm', 'Left Face', 'Left Leg']",
5,"[0, 0]",None,,,,,0,1,1,1,,,,,,,,,,,,,,,,,,,,,,None,None,"[0, 0, 0]",1065.2765679997392,1067.276575199794,1065.2765679997392,1066.2765624998137,1066.2599394000135,1067.2599361999892,"[0, 0, 0]",1,1065.2765679997392,1067.276575199794,,,,,,,,,,,,,,,,,4,M,1,12,l,CIB,2021_Sep_07_1221,2020.2.10,distractmap1,60.005100374571875,"['Abdomen', 'Right Arm', 'Left Face', 'Left Leg']",
3,"[0.2, 0.2]",0,,,,,0,2,2,2,,,,,,,,,,,,,,,,,,,,,,None,None,"[0, 0, 0]",1067.2932617999613,1069.2932641999796,1067.2932617999613,1068.293267800007,1068.2765907999128,1069.2765898997895,"[0, 0, 0]",1,1067.2932617999613,1069.2932641999796,,,,,,,,,,,,,,,,,4,M,1,12,l,CIB,2021_Sep_07_1221,2020.2.10,distractmap1,60.005100374571875,"['Abdomen', 'Right Arm', 'Left Face', 'Left Leg']",
5,"[0, 0]",1,,,,,0,3,3,3,,,,,,,,,,,,,,,,,,,,,,None,None,"[0, 0, 0]",1069.3099363995716,1071.3099630996585,1069.3099363995716,1070.3094524997286,1070.2931896997616,1071.293288799934,"[0, 0, 0]",1,1069.3099363995716,1071.3099630996585,,,,,,,,,,,,,,,,,4,M,1,12,l,CIB,2021_Sep_07_1221,2020.2.10,distractmap1,60.005100374571875,"['Abdomen', 'Right Arm', 'Left Face', 'Left Leg']",
2,"[0, 0.2]",0,,,,,0,4,4,4,,,,,,,,,,,,,,,,,,,,,,None,None,"[0, 0, 0]",1071.3602191000246,None,1071.3602191000246,1072.359966099728,1072.3432967998087,None,"[0, 0, 0]",1,1071.3602191000246,None,,,,,,,,,,,,,,,,,4,M,1,12,l,CIB,2021_Sep_07_1221,2020.2.10,distractmap1,60.005100374571875,"['Abdomen', 'Right Arm', 'Left Face', 'Left Leg']",
8,"[0, -0.2]",0,,,,,0,5,5,5,,,,,,,,,,,,,,,,,,,,,,None,None,"[0, 0, 0]",1073.3432860998437,1075.3433253997937,1073.3432860998437,1074.3433192996308,1074.3266300996765,1075.3266922999173,"[0, 0, 0]",1,1073.3432860998437,1075.3433253997937,,,,,,,,,,,,,,,,,4,M,1,12,l,CIB,2021_Sep_07_1221,2020.2.10,distractmap1,60.005100374571875,"['Abdomen', 'Right Arm', 'Left Face', 'Left Leg']",
4,"[-0.2, 0]",0,,,,,0,6,6,6,,,,,,,,,,,,,,,,,,,,,,None,None,"[0, 0, 0]",1075.3599971998483,1077.360002900008,1075.3599971998483,1076.3600013996474,1076.3433133997023,1077.343340399675,"[0, 0, 0]",1,1075.3599971998483,1077.360002900008,,,,,,,,,,,,,,,,,4,M,1,12,l,CIB,2021_Sep_07_1221,2020.2.10,distractmap1,60.005100374571875,"['Abdomen', 'Right Arm', 'Left Face', 'Left Leg']",
8,"[0, -0.2]",1,,,,,0,7,7,7,,,,,,,,,,,,,,,,,,,,,,None,None,"[0, 0, 0]",1077.3766883998178,1079.3767037997022,1077.3766883998178,1078.3767080996186,1078.3600128996186,1079.3600188996643,"[0, 0, 0]",1,1077.3766883998178,1079.3767037997022,,,,,,,,,,,,,,,,,4,M,1,12,l,CIB,2021_Sep_07_1221,2020.2.10,distractmap1,60.005100374571875,"['Abdomen', 'Right Arm', 'Left Face', 'Left Leg']",
7,"[-0.2, -0.2]",0,,,,,0,8,8,8,,,,,,,,,,,,,,,,,,,,,,None,None,"[0, 0, 0]",1079.3933673999272,1081.3933833995834,1079.3933673999272,1080.3933709999546,1080.3767039999366,1081.3767011999153,"[0, 0, 0]",1,1079.3933673999272,1081.3933833995834,,,,,,,,,,,,,,,,,4,M,1,12,l,CIB,2021_Sep_07_1221,2020.2.10,distractmap1,60.005100374571875,"['Abdomen', 'Right Arm', 'Left Face', 'Left Leg']",
8,"[0, -0.2]",1,,,,,0,9,9,9,,,,,,,,,,,,,,,,,,,,,,None,None,"[0, 0, 0]",1081.410036899615,1083.4100472996943,1081.410036899615,1082.410051799845,1082.3933731997386,1083.3933919998817,"[0, 0, 0]",0,1081.410036899615,1083.4100472996943,,,,,,,,,,,,,,,,,4,M,1,12,l,CIB,2021_Sep_07_1221,2020.2.10,distractmap1,60.005100374571875,"['Abdomen', 'Right Arm', 'Left Face', 'Left Leg']",
,,,,,,,,,,,1083.4267010996118,None,,,,,,,,,,,,,,,,,,,,,,,,,,,,,,,,,,,,,,,,29.506172839506174,1068.3935251301154,,,,,,,,4,M,1,12,l,CIB,2021_Sep_07_1221,2020.2.10,distractmap1,60.005100374571875,"['Abdomen', 'Right Arm', 'Left Face', 'Left Leg']",
2,"[0, 0.2]",None,0,0,0,0,,,,,1098.760517699644,None,1103.4935152996331,None,1103.4935152996331,1104.493519899901,1104.476858599577,1105.4768954999745,1,None,None,"[0, 0, 0]",,,1103.4935152996331,None,,,,,,,,,,,,,,,,,,,,,,,,,,,,0.01493996987119317,5.012278669513762,"[0, 0, 0]",,,,,4,M,1,12,l,CIB,2021_Sep_07_1221,2020.2.10,distractmap1,60.005100374571875,"['Abdomen', 'Right Arm', 'Left Face', 'Left Leg']",
8,"[0, -0.2]",0,0,1,1,1,,,,,,,1105.4935280997306,None,1105.4935280997306,1106.4935343000107,1106.4768976997584,1107.4768958999775,0,None,None,"[0, 0, 0]",,,1105.4935280997306,None,,,,,,,,,,,,,,,,,,,,,,,,,,,,,,"[0, 0, 0]",,,,,4,M,1,12,l,CIB,2021_Sep_07_1221,2020.2.10,distractmap1,60.005100374571875,"['Abdomen', 'Right Arm', 'Left Face', 'Left Leg']",
1,"[-0.2, 0.2]",0,0,2,2,2,,,,,,,1107.4935684995726,1107.4935684995726,1107.4935684995726,1108.493550799787,1108.4769233996049,1109.4769246997312,1,None,None,"[0, 0, 0]",,,1107.4935684995726,1107.4935684995726,,,,,,,,,,,,,,,,,,,,,,,,,,,,,,"[0, 0, 0]",,,,,4,M,1,12,l,CIB,2021_Sep_07_1221,2020.2.10,distractmap1,60.005100374571875,"['Abdomen', 'Right Arm', 'Left Face', 'Left Leg']",
2,"[0, 0.2]",0,0,3,3,3,,,,,,,1109.4935645996593,1109.4935645996593,1109.4935645996593,1110.4935633996502,1110.476906299591,1111.4769456996582,1,None,None,"[0, 0, 0]",,,1109.4935645996593,1109.4935645996593,,,,,,,,,,,,,,,,,,,,,,,,,,,,,,"[0, 0, 0]",,,,,4,M,1,12,l,CIB,2021_Sep_07_1221,2020.2.10,distractmap1,60.005100374571875,"['Abdomen', 'Right Arm', 'Left Face', 'Left Leg']",
2,"[0, 0.2]",1,0,4,4,4,,,,,,,1111.510556599591,1111.510556599591,1111.510556599591,1112.5102773997933,1112.493586699944,1113.4936004998162,0,None,None,"[0, 0, 0]",,,1111.510556599591,1111.510556599591,,,,,,,,,,,,,,,,,,,,,,,,,,,,,,"[0, 0, 0]",,,,,4,M,1,12,l,CIB,2021_Sep_07_1221,2020.2.10,distractmap1,60.005100374571875,"['Abdomen', 'Right Arm', 'Left Face', 'Left Leg']",
7,"[-0.2, -0.2]",0,0,5,5,5,,,,,,,1113.5102637996897,None,1113.5102637996897,1114.510294099804,1114.4936020998284,1115.493618299719,1,None,None,"[0, 0, 0]",,,1113.5102637996897,None,,,,,,,,,,,,,,,,,,,,,,,,,,,,,,"[0, 0, 0]",,,,,4,M,1,12,l,CIB,2021_Sep_07_1221,2020.2.10,distractmap1,60.005100374571875,"['Abdomen', 'Right Arm', 'Left Face', 'Left Leg']",
9,"[0.2, -0.2]",0,0,6,6,6,,,,,,,1115.5102992998436,1115.5102992998436,1115.5102992998436,1116.5103214997798,1116.493646999821,1117.493624499999,1,None,None,"[0, 0, 0]",,,1115.5102992998436,1115.5102992998436,,,,,,,,,,,,,,,,,,,,,,,,,,,,,,"[0, 0, 0]",,,,,4,M,1,12,l,CIB,2021_Sep_07_1221,2020.2.10,distractmap1,60.005100374571875,"['Abdomen', 'Right Arm', 'Left Face', 'Left Leg']",
9,"[0.2, -0.2]",1,0,7,7,7,,,,,,,1117.5103125995956,1117.5103125995956,1117.5103125995956,1118.5103233000264,1118.4936669999734,1119.493667199742,0,None,None,"[0, 0, 0]",,,1117.5103125995956,1117.5103125995956,,,,,,,,,,,,,,,,,,,,,,,,,,,,,,"[0, 0, 0]",,,,,4,M,1,12,l,CIB,2021_Sep_07_1221,2020.2.10,distractmap1,60.005100374571875,"['Abdomen', 'Right Arm', 'Left Face', 'Left Leg']",
4,"[-0.2, 0]",0,0,8,8,8,,,,,,,1119.510313499719,1119.510313499719,1119.510313499719,1120.5103394999169,1120.4936792999506,1121.4936893000267,1,None,None,"[0, 0, 0]",,,1119.510313499719,1119.510313499719,,,,,,,,,,,,,,,,,,,,,,,,,,,,,,"[0, 0, 0]",,,,,4,M,1,12,l,CIB,2021_Sep_07_1221,2020.2.10,distractmap1,60.005100374571875,"['Abdomen', 'Right Arm', 'Left Face', 'Left Leg']",
5,"[0, 0]",0,0,9,9,9,,,,,,,1121.510343299713,1121.510343299713,1121.510343299713,1122.5098502999172,1122.4936142996885,1123.493695099838,1,None,None,"[0, 0, 0]",,,1121.510343299713,1121.510343299713,,,,,,,,,,,,,,,,,,,,,,,,,,,,,,"[0, 0, 0]",,,,,4,M,1,12,l,CIB,2021_Sep_07_1221,2020.2.10,distractmap1,60.005100374571875,"['Abdomen', 'Right Arm', 'Left Face', 'Left Leg']",
,,,,,,,,,,,1123.5103732999414,None,,,,,,,,,,,,,,,,,,,,,,,,,,,,,,,,,,,,,,,,22.71604938271605,1111.29431542987,,,,,,,,4,M,1,12,l,CIB,2021_Sep_07_1221,2020.2.10,distractmap1,60.005100374571875,"['Abdomen', 'Right Arm', 'Left Face', 'Left Leg']",
2,"[0, 0.2]",None,,,,,0,0,0,0,1140.8438354996033,None,,,,,,,,,,,,,,,,,,,,None,None,"[0, 0, 0]",1143.5771874999627,None,1143.5771874999627,1144.5771911996417,1144.5604872996919,1145.560499199666,"[0, 0, 0]",1,1143.5771874999627,None,,,,,,,,,,0.014490770176053047,5.011410670354962,,,,,,4,M,1,12,l,CIB,2021_Sep_07_1221,2020.2.10,distractmap1,60.005100374571875,"['Abdomen', 'Right Arm', 'Left Face', 'Left Leg']",
2,"[0, 0.2]",None,,,,,0,1,1,1,,,,,,,,,,,,,,,,,,,,,,None,None,"[0, 0, 0]",1145.5771919996478,1147.5772429998033,1145.5771919996478,1146.5772090996616,1146.5605077999644,1147.5605672998354,"[0, 0, 0]",1,1145.5771919996478,1147.5772429998033,,,,,,,,,,,,,,,,,4,M,1,12,l,CIB,2021_Sep_07_1221,2020.2.10,distractmap1,60.005100374571875,"['Abdomen', 'Right Arm', 'Left Face', 'Left Leg']",
2,"[0, 0.2]",1,,,,,0,2,2,2,,,,,,,,,,,,,,,,,,,,,,None,None,"[0, 0, 0]",1147.593869399745,1149.5938939996995,1147.593869399745,1148.5939771998674,1148.5771937998943,1149.577243599575,"[0, 0, 0]",1,1147.593869399745,1149.5938939996995,,,,,,,,,,,,,,,,,4,M,1,12,l,CIB,2021_Sep_07_1221,2020.2.10,distractmap1,60.005100374571875,"['Abdomen', 'Right Arm', 'Left Face', 'Left Leg']",
8,"[0, -0.2]",0,,,,,0,3,3,3,,,,,,,,,,,,,,,,,,,,,,None,None,"[0, 0, 0]",1149.6105422996916,1151.6105566998012,1149.6105422996916,1150.6105533996597,1150.5938915996812,1151.5939110997133,"[0, 0, 0]",1,1149.6105422996916,1151.6105566998012,,,,,,,,,,,,,,,,,4,M,1,12,l,CIB,2021_Sep_07_1221,2020.2.10,distractmap1,60.005100374571875,"['Abdomen', 'Right Arm', 'Left Face', 'Left Leg']",
2,"[0, 0.2]",1,,,,,0,4,4,4,,,,,,,,,,,,,,,,,,,,,,None,None,"[0, 0, 0]",1151.6772540998645,None,1151.6772540998645,1152.6772353998385,1152.6605692999437,None,"[0, 0, 0]",1,1151.6772540998645,None,,,,,,,,,,,,,,,,,4,M,1,12,l,CIB,2021_Sep_07_1221,2020.2.10,distractmap1,60.005100374571875,"['Abdomen', 'Right Arm', 'Left Face', 'Left Leg']",
5,"[0, 0]",0,,,,,0,5,5,5,,,,,,,,,,,,,,,,,,,,,,None,None,"[0, 0, 0]",1153.643928699661,1155.6439425996505,1153.643928699661,1154.6439201999456,1154.6272614998743,1155.6272603999823,"[0, 0, 0]",1,1153.643928699661,1155.6439425996505,,,,,,,,,,,,,,,,,4,M,1,12,l,CIB,2021_Sep_07_1221,2020.2.10,distractmap1,60.005100374571875,"['Abdomen', 'Right Arm', 'Left Face', 'Left Leg']",
1,"[-0.2, 0.2]",0,,,,,0,6,6,6,,,,,,,,,,,,,,,,,,,,,,None,None,"[0, 0, 0]",1155.6604867000133,1157.6604822999798,1155.6604867000133,1156.6605504998006,1156.6439505997114,1157.6439495999366,"[0, 0, 0]",1,1155.6604867000133,1157.6604822999798,,,,,,,,,,,,,,,,,4,M,1,12,l,CIB,2021_Sep_07_1221,2020.2.10,distractmap1,60.005100374571875,"['Abdomen', 'Right Arm', 'Left Face', 'Left Leg']",
1,"[-0.2, 0.2]",0,,,,,0,7,7,7,,,,,,,,,,,,,,,,,,,,,,None,None,"[0, 0, 0]",1157.67727179965,1159.6773092998192,1157.67727179965,1158.6773031000048,1158.660600299947,1159.6606114995666,"[0, 0, 0]",1,1157.67727179965,1159.6773092998192,,,,,,,,,,,,,,,,,4,M,1,12,l,CIB,2021_Sep_07_1221,2020.2.10,distractmap1,60.005100374571875,"['Abdomen', 'Right Arm', 'Left Face', 'Left Leg']",
6,"[0.2, 0]",0,,,,,0,8,8,8,,,,,,,,,,,,,,,,,,,,,,None,None,"[0, 0, 0]",1159.6939606997184,1161.693984999787,1159.6939606997184,1160.6939804996364,1160.6773109999485,1161.6773092998192,"[0, 0, 0]",1,1159.6939606997184,1161.693984999787,,,,,,,,,,,,,,,,,4,M,1,12,l,CIB,2021_Sep_07_1221,2020.2.10,distractmap1,60.005100374571875,"['Abdomen', 'Right Arm', 'Left Face', 'Left Leg']",
1,"[-0.2, 0.2]",1,,,,,0,9,9,9,,,,,,,,,,,,,,,,,,,,,,None,None,"[0, 0, 0]",1161.7106676995754,1163.710678299889,1161.7106676995754,1162.7106532999314,1162.694002899807,1163.693983799778,"[0, 0, 0]",0,1161.7106676995754,1163.710678299889,,,,,,,,,,,,,,,,,4,M,1,12,l,CIB,2021_Sep_07_1221,2020.2.10,distractmap1,60.005100374571875,"['Abdomen', 'Right Arm', 'Left Face', 'Left Leg']",
,,,,,,,,,,,1163.7273112996481,None,,,,,,,,,,,,,,,,,,,,,,,,,,,,,,,,,,,,,,,,31.35802469135803,1150.744732329622,,,,,,,,4,M,1,12,l,CIB,2021_Sep_07_1221,2020.2.10,distractmap1,60.005100374571875,"['Abdomen', 'Right Arm', 'Left Face', 'Left Leg']",
2,"[0, 0.2]",None,0,0,0,0,,,,,1181.0441341996193,None,1183.7941604997031,None,1183.7941604997031,1184.79415089963,1184.7608427996747,1185.760842199903,1,None,None,"[0, 0, 0]",,,1183.7941604997031,None,,,,,,,,,,,,,,,,,,,,,,,,,,,,0.014387470204383135,5.011163670103997,"[0, 0, 0]",,,,,4,M,1,12,l,CIB,2021_Sep_07_1221,2020.2.10,distractmap1,60.005100374571875,"['Abdomen', 'Right Arm', 'Left Face', 'Left Leg']",
2,"[0, 0.2]",1,0,1,1,1,,,,,,,1185.794168099761,None,1185.794168099761,1186.7941913995892,1186.777493499685,1187.777500399854,1,None,None,"[0, 0, 0]",,,1185.794168099761,None,,,,,,,,,,,,,,,,,,,,,,,,,,,,,,"[0, 0, 0]",,,,,4,M,1,12,l,CIB,2021_Sep_07_1221,2020.2.10,distractmap1,60.005100374571875,"['Abdomen', 'Right Arm', 'Left Face', 'Left Leg']",
1,"[-0.2, 0.2]",0,0,2,2,2,,,,,,,1187.794113099575,1187.794113099575,1187.794113099575,1188.7941980999894,1188.7775035998784,1189.7774100997485,1,None,None,"[0, 0, 0]",,,1187.794113099575,1187.794113099575,,,,,,,,,,,,,,,,,,,,,,,,,,,,,,"[0, 0, 0]",,,,,4,M,1,12,l,CIB,2021_Sep_07_1221,2020.2.10,distractmap1,60.005100374571875,"['Abdomen', 'Right Arm', 'Left Face', 'Left Leg']",
2,"[0, 0.2]",0,0,3,3,3,,,,,,,1189.7942072995938,1189.7942072995938,1189.7942072995938,1190.7942152996548,1190.7775224000216,1191.7775291996077,1,None,None,"[0, 0, 0]",,,1189.7942072995938,1189.7942072995938,,,,,,,,,,,,,,,,,,,,,,,,,,,,,,"[0, 0, 0]",,,,,4,M,1,12,l,CIB,2021_Sep_07_1221,2020.2.10,distractmap1,60.005100374571875,"['Abdomen', 'Right Arm', 'Left Face', 'Left Leg']",
2,"[0, 0.2]",1,0,4,4,4,,,,,,,1191.8612055997364,1191.8612055997364,1191.8612055997364,1192.860907400027,1192.8442351999693,None,1,None,None,"[0, 0, 0]",,,1191.8612055997364,1191.8612055997364,,,,,,,,,,,,,,,,,,,,,,,,,,,,,,"[0, 0, 0]",,,,,4,M,1,12,l,CIB,2021_Sep_07_1221,2020.2.10,distractmap1,60.005100374571875,"['Abdomen', 'Right Arm', 'Left Face', 'Left Leg']",
4,"[-0.2, 0]",0,0,5,5,5,,,,,,,1193.8109064996243,None,1193.8109064996243,1194.81091869995,1194.794223799836,1195.7941284999251,1,None,None,"[0, 0, 0]",,,1193.8109064996243,None,,,,,,,,,,,,,,,,,,,,,,,,,,,,,,"[0, 0, 0]",,,,,4,M,1,12,l,CIB,2021_Sep_07_1221,2020.2.10,distractmap1,60.005100374571875,"['Abdomen', 'Right Arm', 'Left Face', 'Left Leg']",
6,"[0.2, 0]",0,0,6,6,6,,,,,,,1195.8109073997475,1195.8109073997475,1195.8109073997475,1196.8109283996746,1196.7942492999136,1197.7942647999153,1,None,None,"[0, 0, 0]",,,1195.8109073997475,1195.8109073997475,,,,,,,,,,,,,,,,,,,,,,,,,,,,,,"[0, 0, 0]",,,,,4,M,1,12,l,CIB,2021_Sep_07_1221,2020.2.10,distractmap1,60.005100374571875,"['Abdomen', 'Right Arm', 'Left Face', 'Left Leg']",
8,"[0, -0.2]",0,0,7,7,7,,,,,,,1197.8109351997264,1197.8109351997264,1197.8109351997264,1198.8109372998588,1198.794274199754,1199.794263499789,1,None,None,"[0, 0, 0]",,,1197.8109351997264,1197.8109351997264,,,,,,,,,,,,,,,,,,,,,,,,,,,,,,"[0, 0, 0]",,,,,4,M,1,12,l,CIB,2021_Sep_07_1221,2020.2.10,distractmap1,60.005100374571875,"['Abdomen', 'Right Arm', 'Left Face', 'Left Leg']",
9,"[0.2, -0.2]",0,0,8,8,8,,,,,,,1199.8110034996644,1199.8110034996644,1199.8110034996644,1200.8109354996122,1200.7942880997434,1201.7942955996841,1,None,None,"[0, 0, 0]",,,1199.8110034996644,1199.8110034996644,,,,,,,,,,,,,,,,,,,,,,,,,,,,,,"[0, 0, 0]",,,,,4,M,1,12,l,CIB,2021_Sep_07_1221,2020.2.10,distractmap1,60.005100374571875,"['Abdomen', 'Right Arm', 'Left Face', 'Left Leg']",
9,"[0.2, -0.2]",1,0,9,9,9,,,,,,,1201.8109509996139,1201.8109509996139,1201.8109509996139,1202.8109672996216,1202.794304299634,1203.794312799815,1,None,None,"[0, 0, 0]",,,1201.8109509996139,1201.8109509996139,,,,,,,,,,,,,,,,,,,,,,,,,,,,,,"[0, 0, 0]",,,,,4,M,1,12,l,CIB,2021_Sep_07_1221,2020.2.10,distractmap1,60.005100374571875,"['Abdomen', 'Right Arm', 'Left Face', 'Left Leg']",
,,,,,,,,,,,1203.8108584997244,None,,,,,,,,,,,,,,,,,,,,,,,,,,,,,,,,,,,,,,,,31.48148148148148,1191.1620000293478,,,,,,,,4,M,1,12,l,CIB,2021_Sep_07_1221,2020.2.10,distractmap1,60.005100374571875,"['Abdomen', 'Right Arm', 'Left Face', 'Left Leg']",
4,"[-0.2, 0]",None,0,0,0,0,,,,,1221.6944255996495,None,1223.8611395996995,None,1223.8611395996995,1224.8611465999857,1224.8444415000267,1225.8444611998275,1,None,None,"[0, 0, 0]",,,1223.8611395996995,None,,,,,,,,,,,,,,,,,,,,,,,,,,,,0.014088570605963469,5.010572970379144,"[0, 0, 0]",,,,,4,M,1,12,l,CIB,2021_Sep_07_1221,2020.2.10,distractmap1,60.005100374571875,"['Abdomen', 'Right Arm', 'Left Face', 'Left Leg']",
7,"[-0.2, -0.2]",0,0,1,1,1,,,,,,,1225.861134799663,None,1225.861134799663,1226.8611473999918,1226.8444327996112,1227.8444821997546,1,None,None,"[0, 0, 0]",,,1225.861134799663,None,,,,,,,,,,,,,,,,,,,,,,,,,,,,,,"[0, 0, 0]",,,,,4,M,1,12,l,CIB,2021_Sep_07_1221,2020.2.10,distractmap1,60.005100374571875,"['Abdomen', 'Right Arm', 'Left Face', 'Left Leg']",
7,"[-0.2, -0.2]",1,0,2,2,2,,,,,,,1227.8611659999005,1227.8611659999005,1227.8611659999005,1228.8611651998945,1228.8444961998612,1229.8444800996222,1,None,None,"[0, 0, 0]",,,1227.8611659999005,1227.8611659999005,,,,,,,,,,,,,,,,,,,,,,,,,,,,,,"[0, 0, 0]",,,,,4,M,1,12,l,CIB,2021_Sep_07_1221,2020.2.10,distractmap1,60.005100374571875,"['Abdomen', 'Right Arm', 'Left Face', 'Left Leg']",
4,"[-0.2, 0]",0,0,3,3,3,,,,,,,1229.8611801997758,1229.8611801997758,1229.8611801997758,1230.861192499753,1230.844512999989,1231.8444948997349,1,None,None,"[0, 0, 0]",,,1229.8611801997758,1229.8611801997758,,,,,,,,,,,,,,,,,,,,,,,,,,,,,,"[0, 0, 0]",,,,,4,M,1,12,l,CIB,2021_Sep_07_1221,2020.2.10,distractmap1,60.005100374571875,"['Abdomen', 'Right Arm', 'Left Face', 'Left Leg']",
8,"[0, -0.2]",0,0,4,4,4,,,,,,,1231.877686499618,1231.877686499618,1231.877686499618,1232.8778706998564,1232.8612059997395,1233.8612331999466,1,None,None,"[0, 0, 0]",,,1231.877686499618,1231.877686499618,,,,,,,,,,,,,,,,,,,,,,,,,,,,,,"[0, 0, 0]",,,,,4,M,1,12,l,CIB,2021_Sep_07_1221,2020.2.10,distractmap1,60.005100374571875,"['Abdomen', 'Right Arm', 'Left Face', 'Left Leg']",
4,"[-0.2, 0]",0,0,5,5,5,,,,,,,1233.8779060998932,None,1233.8779060998932,1234.8778915996663,1234.8612175998278,1235.8612533998676,1,None,None,"[0, 0, 0]",,,1233.8779060998932,None,,,,,,,,,,,,,,,,,,,,,,,,,,,,,,"[0, 0, 0]",,,,,4,M,1,12,l,CIB,2021_Sep_07_1221,2020.2.10,distractmap1,60.005100374571875,"['Abdomen', 'Right Arm', 'Left Face', 'Left Leg']",
7,"[-0.2, -0.2]",0,0,6,6,6,,,,,,,1235.8778789998032,1235.8778789998032,1235.8778789998032,1236.8778940998018,1236.8612350998446,1237.8612361997366,1,None,None,"[0, 0, 0]",,,1235.8778789998032,1235.8778789998032,,,,,,,,,,,,,,,,,,,,,,,,,,,,,,"[0, 0, 0]",,,,,4,M,1,12,l,CIB,2021_Sep_07_1221,2020.2.10,distractmap1,60.005100374571875,"['Abdomen', 'Right Arm', 'Left Face', 'Left Leg']",
6,"[0.2, 0]",0,0,7,7,7,,,,,,,1237.8779141996056,1237.8779141996056,1237.8779141996056,1238.8779141996056,1238.861230299808,1239.8611282999627,1,None,None,"[0, 0, 0]",,,1237.8779141996056,1237.8779141996056,,,,,,,,,,,,,,,,,,,,,,,,,,,,,,"[0, 0, 0]",,,,,4,M,1,12,l,CIB,2021_Sep_07_1221,2020.2.10,distractmap1,60.005100374571875,"['Abdomen', 'Right Arm', 'Left Face', 'Left Leg']",
6,"[0.2, 0]",1,0,8,8,8,,,,,,,1239.8779301997274,1239.8779301997274,1239.8779301997274,1240.8779403995723,1240.8612635997124,1241.8612816999666,1,None,None,"[0, 0, 0]",,,1239.8779301997274,1239.8779301997274,,,,,,,,,,,,,,,,,,,,,,,,,,,,,,"[0, 0, 0]",,,,,4,M,1,12,l,CIB,2021_Sep_07_1221,2020.2.10,distractmap1,60.005100374571875,"['Abdomen', 'Right Arm', 'Left Face', 'Left Leg']",
1,"[-0.2, 0.2]",0,0,9,9,9,,,,,,,1241.8779365997761,1241.8779365997761,1241.8779365997761,1242.8779409998097,1242.8612836999819,1243.861277599819,1,None,None,"[0, 0, 0]",,,1241.8779365997761,1241.8779365997761,,,,,,,,,,,,,,,,,,,,,,,,,,,,,,"[0, 0, 0]",,,,,4,M,1,12,l,CIB,2021_Sep_07_1221,2020.2.10,distractmap1,60.005100374571875,"['Abdomen', 'Right Arm', 'Left Face', 'Left Leg']",
,,,,,,,,,,,1243.8779325997457,None,,,,,,,,,,,,,,,,,,,,,,,,,,,,,,,,,,,,,,,,35.37037037037037,1226.4623652300797,,,,,,,,4,M,1,12,l,CIB,2021_Sep_07_1221,2020.2.10,distractmap1,60.005100374571875,"['Abdomen', 'Right Arm', 'Left Face', 'Left Leg']",
3,"[0.2, 0.2]",None,,,,,0,0,0,0,1522.963796899654,None,,,,,,,,,,,,,,,,,,,,None,None,"[0, 0, 0]",1527.6801597997546,None,1527.6801597997546,1528.6801587999798,1528.6634731995873,1529.6634855000302,"[0, 0, 0]",1,1527.6801597997546,None,1266.6448202999309,1266.6448202999309,None,space,224.63732850039378,1266.6448202999309,None,,,0.014014869928359985,5.0104860700666904,,,,,,4,M,1,12,l,CIB,2021_Sep_07_1221,2020.2.10,distractmap1,60.005100374571875,"['Abdomen', 'Right Arm', 'Left Face', 'Left Leg']",
3,"[0.2, 0.2]",None,,,,,0,1,1,1,,,,,,,,,,,,,,,,,,,,,,None,None,"[0, 0, 0]",1529.68015309982,1531.6801661998034,1529.68015309982,1530.680190199986,1530.6634782999754,1531.663494599983,"[0, 0, 0]",1,1529.68015309982,1531.6801661998034,,,,,,,,,,,,,,,,,4,M,1,12,l,CIB,2021_Sep_07_1221,2020.2.10,distractmap1,60.005100374571875,"['Abdomen', 'Right Arm', 'Left Face', 'Left Leg']",
5,"[0, 0]",0,,,,,0,2,2,2,,,,,,,,,,,,,,,,,,,,,,None,None,"[0, 0, 0]",1531.696847599931,1533.696870399639,1531.696847599931,1532.6968586998992,1532.6801967998035,1533.6802124995738,"[0, 0, 0]",0,1531.696847599931,1533.696870399639,,,,,,,,,,,,,,,,,4,M,1,12,l,CIB,2021_Sep_07_1221,2020.2.10,distractmap1,60.005100374571875,"['Abdomen', 'Right Arm', 'Left Face', 'Left Leg']",
1,"[-0.2, 0.2]",0,,,,,0,3,3,3,,,,,,,,,,,,,,,,,,,,,,None,None,"[0, 0, 0]",1533.7135196998715,1535.7135209999979,1533.7135196998715,1534.7135286997072,1534.6968844998628,1535.6969067999162,"[0, 0, 0]",1,1533.7135196998715,1535.7135209999979,,,,,,,,,,,,,,,,,4,M,1,12,l,CIB,2021_Sep_07_1221,2020.2.10,distractmap1,60.005100374571875,"['Abdomen', 'Right Arm', 'Left Face', 'Left Leg']",
5,"[0, 0]",1,,,,,0,4,4,4,,,,,,,,,,,,,,,,,,,,,,None,None,"[0, 0, 0]",1535.7638459997252,None,1535.7638459997252,1536.7635369999334,1536.7468859995715,None,"[0, 0, 0]",1,1535.7638459997252,None,,,,,,,,,,,,,,,,,4,M,1,12,l,CIB,2021_Sep_07_1221,2020.2.10,distractmap1,60.005100374571875,"['Abdomen', 'Right Arm', 'Left Face', 'Left Leg']",
8,"[0, -0.2]",0,,,,,0,5,5,5,,,,,,,,,,,,,,,,,,,,,,None,None,"[0, 0, 0]",1537.7468981998973,1539.7469012998044,1537.7468981998973,1538.7469168999232,1538.7302469997667,1539.7302488000132,"[0, 0, 0]",1,1537.7468981998973,1539.7469012998044,,,,,,,,,,,,,,,,,4,M,1,12,l,CIB,2021_Sep_07_1221,2020.2.10,distractmap1,60.005100374571875,"['Abdomen', 'Right Arm', 'Left Face', 'Left Leg']",
5,"[0, 0]",1,,,,,0,6,6,6,,,,,,,,,,,,,,,,,,,,,,None,None,"[0, 0, 0]",1539.7635529995896,1541.7635659999214,1539.7635529995896,1540.7635696996003,1540.746918299701,1541.7469401997514,"[0, 0, 0]",1,1539.7635529995896,1541.7635659999214,,,,,,,,,,,,,,,,,4,M,1,12,l,CIB,2021_Sep_07_1221,2020.2.10,distractmap1,60.005100374571875,"['Abdomen', 'Right Arm', 'Left Face', 'Left Leg']",
7,"[-0.2, -0.2]",0,,,,,0,7,7,7,,,,,,,,,,,,,,,,,,,,,,None,None,"[0, 0, 0]",1541.7802661997266,1543.780266799964,1541.7802661997266,1542.7802581996657,1542.7635972998105,1543.7635837998241,"[0, 0, 0]",1,1541.7802661997266,1543.780266799964,,,,,,,,,,,,,,,,,4,M,1,12,l,CIB,2021_Sep_07_1221,2020.2.10,distractmap1,60.005100374571875,"['Abdomen', 'Right Arm', 'Left Face', 'Left Leg']",
5,"[0, 0]",1,,,,,0,8,8,8,,,,,,,,,,,,,,,,,,,,,,None,None,"[0, 0, 0]",1543.7969464999624,1545.796954699792,1543.7969464999624,1544.7969407998025,1544.7802741997875,1545.7802896997891,"[0, 0, 0]",1,1543.7969464999624,1545.796954699792,,,,,,,,,,,,,,,,,4,M,1,12,l,CIB,2021_Sep_07_1221,2020.2.10,distractmap1,60.005100374571875,"['Abdomen', 'Right Arm', 'Left Face', 'Left Leg']",
7,"[-0.2, -0.2]",1,,,,,0,9,9,9,,,,,,,,,,,,,,,,,,,,,,None,None,"[0, 0, 0]",1545.8135992996395,1547.8136230995879,1545.8135992996395,1546.8136184997857,1546.7969720996916,1547.7969798999839,"[0, 0, 0]",1,1545.8135992996395,1547.8136230995879,,,,,,,,,,,,,,,,,4,M,1,12,l,CIB,2021_Sep_07_1221,2020.2.10,distractmap1,60.005100374571875,"['Abdomen', 'Right Arm', 'Left Face', 'Left Leg']",
,,,,,,,,,,,1547.8303104997613,None,,,,,,,,,,,,,,,,,,,,,,,,,,,,,,,,,,,,,,,,22.65432098765432,1535.547180229798,,,,,,,,4,M,1,12,l,CIB,2021_Sep_07_1221,2020.2.10,distractmap1,60.005100374571875,"['Abdomen', 'Right Arm', 'Left Face', 'Left Leg']",
5,"[0, 0]",None,0,0,0,0,,,,,1565.5304383998737,None,1567.8971353997476,None,1567.8971353997476,1568.897129799705,1568.8638155995868,1569.8638172997162,1,None,None,"[0, 0, 0]",,,1567.8971353997476,None,,,,,,,,,,,,,,,,,,,,,,,,,,,,0.014928170014172792,5.012200170196593,"[0, 0, 0]",,,,,4,M,1,12,l,CIB,2021_Sep_07_1221,2020.2.10,distractmap1,60.005100374571875,"['Abdomen', 'Right Arm', 'Left Face', 'Left Leg']",
5,"[0, 0]",1,0,1,1,1,,,,,,,1569.8971483996138,None,1569.8971483996138,1570.8971665999852,1570.8804683997296,1571.8804677999578,1,None,None,"[0, 0, 0]",,,1569.8971483996138,None,,,,,,,,,,,,,,,,,,,,,,,,,,,,,,"[0, 0, 0]",,,,,4,M,1,12,l,CIB,2021_Sep_07_1221,2020.2.10,distractmap1,60.005100374571875,"['Abdomen', 'Right Arm', 'Left Face', 'Left Leg']",
4,"[-0.2, 0]",0,0,2,2,2,,,,,,,1571.8971452997066,1571.8971452997066,1571.8971452997066,1572.8971751998179,1572.8804870997556,1573.8805015999824,1,None,None,"[0, 0, 0]",,,1571.8971452997066,1571.8971452997066,,,,,,,,,,,,,,,,,,,,,,,,,,,,,,"[0, 0, 0]",,,,,4,M,1,12,l,CIB,2021_Sep_07_1221,2020.2.10,distractmap1,60.005100374571875,"['Abdomen', 'Right Arm', 'Left Face', 'Left Leg']",
2,"[0, 0.2]",0,0,3,3,3,,,,,,,1573.897167999763,1573.897167999763,1573.897167999763,1574.8971928996034,1574.8804925000295,1575.8805098999292,1,None,None,"[0, 0, 0]",,,1573.897167999763,1573.897167999763,,,,,,,,,,,,,,,,,,,,,,,,,,,,,,"[0, 0, 0]",,,,,4,M,1,12,l,CIB,2021_Sep_07_1221,2020.2.10,distractmap1,60.005100374571875,"['Abdomen', 'Right Arm', 'Left Face', 'Left Leg']",
6,"[0.2, 0]",0,0,4,4,4,,,,,,,1575.9308432997204,1575.9308432997204,1575.9308432997204,1576.9305266998708,1576.9138737996109,None,1,None,None,"[0, 0, 0]",,,1575.9308432997204,1575.9308432997204,,,,,,,,,,,,,,,,,,,,,,,,,,,,,,"[0, 0, 0]",,,,,4,M,1,12,l,CIB,2021_Sep_07_1221,2020.2.10,distractmap1,60.005100374571875,"['Abdomen', 'Right Arm', 'Left Face', 'Left Leg']",
8,"[0, -0.2]",0,0,5,5,5,,,,,,,1577.9138614996336,None,1577.9138614996336,1578.913873899728,1578.8972289999947,1579.897295799572,1,None,None,"[0, 0, 0]",,,1577.9138614996336,None,,,,,,,,,,,,,,,,,,,,,,,,,,,,,,"[0, 0, 0]",,,,,4,M,1,12,l,CIB,2021_Sep_07_1221,2020.2.10,distractmap1,60.005100374571875,"['Abdomen', 'Right Arm', 'Left Face', 'Left Leg']",
1,"[-0.2, 0.2]",0,0,6,6,6,,,,,,,1579.9138901997358,1579.9138901997358,1579.9138901997358,1580.9139042999595,1580.8972388999537,1581.897237399593,1,None,None,"[0, 0, 0]",,,1579.9138901997358,1579.9138901997358,,,,,,,,,,,,,,,,,,,,,,,,,,,,,,"[0, 0, 0]",,,,,4,M,1,12,l,CIB,2021_Sep_07_1221,2020.2.10,distractmap1,60.005100374571875,"['Abdomen', 'Right Arm', 'Left Face', 'Left Leg']",
4,"[-0.2, 0]",0,0,7,7,7,,,,,,,1581.913918599952,1581.913918599952,1581.913918599952,1582.9139191997238,1582.8972552996129,1583.8972616996616,1,None,None,"[0, 0, 0]",,,1581.913918599952,1581.913918599952,,,,,,,,,,,,,,,,,,,,,,,,,,,,,,"[0, 0, 0]",,,,,4,M,1,12,l,CIB,2021_Sep_07_1221,2020.2.10,distractmap1,60.005100374571875,"['Abdomen', 'Right Arm', 'Left Face', 'Left Leg']",
8,"[0, -0.2]",0,0,8,8,8,,,,,,,1583.9139241999947,1583.9139241999947,1583.9139241999947,1584.9139323998243,1584.8972582998686,1585.8972673998214,1,None,None,"[0, 0, 0]",,,1583.9139241999947,1583.9139241999947,,,,,,,,,,,,,,,,,,,,,,,,,,,,,,"[0, 0, 0]",,,,,4,M,1,12,l,CIB,2021_Sep_07_1221,2020.2.10,distractmap1,60.005100374571875,"['Abdomen', 'Right Arm', 'Left Face', 'Left Leg']",
8,"[0, -0.2]",1,0,9,9,9,,,,,,,1585.9139521997422,1585.9139521997422,1585.9139521997422,1586.9139478998259,1586.897271099966,1587.897285899613,1,None,None,"[0, 0, 0]",,,1585.9139521997422,1585.9139521997422,,,,,,,,,,,,,,,,,,,,,,,,,,,,,,"[0, 0, 0]",,,,,4,M,1,12,l,CIB,2021_Sep_07_1221,2020.2.10,distractmap1,60.005100374571875,"['Abdomen', 'Right Arm', 'Left Face', 'Left Leg']",
,,,,,,,,,,,1587.9139566998929,None,,,,,,,,,,,,,,,,,,,,,,,,,,,,,,,,,,,,,,,,19.50617283950617,1571.0312464293092,,,,,,,,4,M,1,12,l,CIB,2021_Sep_07_1221,2020.2.10,distractmap1,60.005100374571875,"['Abdomen', 'Right Arm', 'Left Face', 'Left Leg']",
6,"[0.2, 0]",None,,,,,0,0,0,0,1601.0972732999362,None,,,,,,,,,,,,,,,,,,,,None,None,"[0, 0, 0]",1607.9807896995917,None,1607.9807896995917,1608.9807893997058,1608.9641264998354,1609.9641153998673,"[0, 0, 0]",1,1607.9807896995917,None,,,,,,,,,,0.014485870487987995,5.011339070741087,,,,,,4,M,1,12,l,CIB,2021_Sep_07_1221,2020.2.10,distractmap1,60.005100374571875,"['Abdomen', 'Right Arm', 'Left Face', 'Left Leg']",
1,"[-0.2, 0.2]",None,,,,,0,1,1,1,,,,,,,,,,,,,,,,,,,,,,None,None,"[0, 0, 0]",1609.9807933997363,1611.9809189997613,1609.9807933997363,1610.9808093998581,1610.9641350000165,1611.9642101000063,"[0, 0, 0]",1,1609.9807933997363,1611.9809189997613,,,,,,,,,,,,,,,,,4,M,1,12,l,CIB,2021_Sep_07_1221,2020.2.10,distractmap1,60.005100374571875,"['Abdomen', 'Right Arm', 'Left Face', 'Left Leg']",
6,"[0.2, 0]",1,,,,,0,2,2,2,,,,,,,,,,,,,,,,,,,,,,None,None,"[0, 0, 0]",1611.9974503996782,1613.9974612998776,1611.9974503996782,1612.9974654996768,1612.9808260998689,1613.980836499948,"[0, 0, 0]",1,1611.9974503996782,1613.9974612998776,,,,,,,,,,,,,,,,,4,M,1,12,l,CIB,2021_Sep_07_1221,2020.2.10,distractmap1,60.005100374571875,"['Abdomen', 'Right Arm', 'Left Face', 'Left Leg']",
4,"[-0.2, 0]",0,,,,,0,3,3,3,,,,,,,,,,,,,,,,,,,,,,None,None,"[0, 0, 0]",1614.014163099695,1616.0141661996022,1614.014163099695,1615.0141702997498,1614.9974903999828,1615.9973905999213,"[0, 0, 0]",1,1614.014163099695,1616.0141661996022,,,,,,,,,,,,,,,,,4,M,1,12,l,CIB,2021_Sep_07_1221,2020.2.10,distractmap1,60.005100374571875,"['Abdomen', 'Right Arm', 'Left Face', 'Left Leg']",
1,"[-0.2, 0.2]",0,,,,,0,4,4,4,,,,,,,,,,,,,,,,,,,,,,None,None,"[0, 0, 0]",1616.064490399789,None,1616.064490399789,1617.0641859997995,1617.0475150998682,None,"[0, 0, 0]",1,1616.064490399789,None,,,,,,,,,,,,,,,,,4,M,1,12,l,CIB,2021_Sep_07_1221,2020.2.10,distractmap1,60.005100374571875,"['Abdomen', 'Right Arm', 'Left Face', 'Left Leg']",
8,"[0, -0.2]",0,,,,,0,5,5,5,,,,,,,,,,,,,,,,,,,,,,None,None,"[0, 0, 0]",1618.047494399827,1620.0475220996886,1618.047494399827,1619.0475184000097,1619.030875899829,1620.0308744995855,"[0, 0, 0]",1,1618.047494399827,1620.0475220996886,,,,,,,,,,,,,,,,,4,M,1,12,l,CIB,2021_Sep_07_1221,2020.2.10,distractmap1,60.005100374571875,"['Abdomen', 'Right Arm', 'Left Face', 'Left Leg']",
1,"[-0.2, 0.2]",1,,,,,0,6,6,6,,,,,,,,,,,,,,,,,,,,,,None,None,"[0, 0, 0]",1620.064084999729,1622.0642255996354,1620.064084999729,1621.0640888996422,1621.0475172000006,1622.0475243995897,"[0, 0, 0]",1,1620.064084999729,1622.0642255996354,,,,,,,,,,,,,,,,,4,M,1,12,l,CIB,2021_Sep_07_1221,2020.2.10,distractmap1,60.005100374571875,"['Abdomen', 'Right Arm', 'Left Face', 'Left Leg']",
8,"[0, -0.2]",1,,,,,0,7,7,7,,,,,,,,,,,,,,,,,,,,,,None,None,"[0, 0, 0]",1622.0808810996823,1624.0809024996124,1622.0808810996823,1623.0808941996656,1623.064233099576,1624.0642303000204,"[0, 0, 0]",1,1622.0808810996823,1624.0809024996124,,,,,,,,,,,,,,,,,4,M,1,12,l,CIB,2021_Sep_07_1221,2020.2.10,distractmap1,60.005100374571875,"['Abdomen', 'Right Arm', 'Left Face', 'Left Leg']",
1,"[-0.2, 0.2]",1,,,,,0,8,8,8,,,,,,,,,,,,,,,,,,,,,,None,None,"[0, 0, 0]",1624.0975575996563,1626.09756249981,1624.0975575996563,1625.0975417997688,1625.0809176997282,1626.0809243996628,"[0, 0, 0]",1,1624.0975575996563,1626.09756249981,,,,,,,,,,,,,,,,,4,M,1,12,l,CIB,2021_Sep_07_1221,2020.2.10,distractmap1,60.005100374571875,"['Abdomen', 'Right Arm', 'Left Face', 'Left Leg']",
6,"[0.2, 0]",0,,,,,0,9,9,9,,,,,,,,,,,,,,,,,,,,,,None,None,"[0, 0, 0]",1626.1142358998768,1628.1142635997385,1626.1142358998768,1627.114259899594,1627.0975787998177,1628.097604099661,"[0, 0, 0]",1,1626.1142358998768,1628.1142635997385,,,,,,,,,,,,,,,,,4,M,1,12,l,CIB,2021_Sep_07_1221,2020.2.10,distractmap1,60.005100374571875,"['Abdomen', 'Right Arm', 'Left Face', 'Left Leg']",
