RestT1,TaskT1,square,location,corrAns,counterbalancer.thisRepN,counterbalancer.thisTrialN,counterbalancer.thisN,counterbalancer.thisIndex,RestT1Loop.thisRepN,RestT1Loop.thisTrialN,RestT1Loop.thisN,RestT1Loop.thisIndex,TaskT1Loop.thisRepN,TaskT1Loop.thisTrialN,TaskT1Loop.thisN,TaskT1Loop.thisIndex,trials_2.thisRepN,trials_2.thisTrialN,trials_2.thisN,trials_2.thisIndex,fixation_1.started,fixation_1.stopped,NbackInstructions.started,NbackInstructions.stopped,NbackStart.keys,NbackStart.rt,NbackStart.started,NbackStart.stopped,fixation_2.started,fixation_2.stopped,response_2.x,response_2.y,response_2.leftButton,grid_lines_2.started,grid_lines_2.stopped,target_square_2.started,target_square_2.stopped,fixation_3.started,fixation_3.stopped,response_2.click,response_2.corr,response_2.started,response_2.stopped,subject number,gender,session,handedness,scanner,date,expName,psychopyVersion,frameRate,
1,0,,,,0,0,0,0,0,0,0,0,,,,,,,,,46.504990899935365,None,,,,,,,,,,,,,,,,,,,,,,1,m,11,r,CIB,2021_Jun_04_1340,WASABI Nback,2020.2.10,60.01017766390794,
0,1,,,,0,1,1,1,,,,,0,0,0,0,,,,,,,323.7740075998008,None,space,57.51854469999671,323.7740075998008,None,,,,,,,,,,,,,,,,1,m,11,r,CIB,2021_Jun_04_1340,WASABI Nback,2020.2.10,60.01017766390794,
0,1,5,"[0, 0]",None,0,1,1,1,,,,,0,0,0,0,0,0,0,0,,,,,,,,,None,None,None,None,0,383.02450979989953,None,383.02450979989953,384.0245504998602,384.0079039998818,None,0,1,383.02450979989953,None,1,m,11,r,CIB,2021_Jun_04_1340,WASABI Nback,2020.2.10,60.01017766390794,
0,1,2,"[0, 0.2]",None,0,1,1,1,,,,,0,0,0,0,0,1,1,1,,,,,,,,,,,None,None,0,384.3411929998547,None,384.3411929998547,385.3412074998487,385.32456139987335,386.32455389993265,0,1,384.3411929998547,None,1,m,11,r,CIB,2021_Jun_04_1340,WASABI Nback,2020.2.10,60.01017766390794,
0,1,6,"[0.2, 0]",None,0,1,1,1,,,,,0,0,0,0,0,2,2,2,,,,,,,,,,,None,None,0,386.3412197998259,None,386.3412197998259,387.3412171998061,387.32458699983545,388.32458759984,0,1,386.3412197998259,None,1,m,11,r,CIB,2021_Jun_04_1340,WASABI Nback,2020.2.10,60.01017766390794,
0,1,9,"[0.2, -0.2]",None,0,1,1,1,,,,,0,0,0,0,0,3,3,3,,,,,,,,,,,None,None,0,388.3412470999174,None,388.3412470999174,389.3412557998672,389.3245896999724,390.3246052998584,0,1,388.3412470999174,None,1,m,11,r,CIB,2021_Jun_04_1340,WASABI Nback,2020.2.10,60.01017766390794,
0,1,3,"[0.2, 0.2]",None,0,1,1,1,,,,,0,0,0,0,0,4,4,4,,,,,,,,,,,None,None,0,390.3412557998672,None,390.3412557998672,391.3412648998201,391.32461339980364,392.3246072998736,0,1,390.3412557998672,None,1,m,11,r,CIB,2021_Jun_04_1340,WASABI Nback,2020.2.10,60.01017766390794,
0,1,9,"[0.2, -0.2]",1,0,1,1,1,,,,,0,0,0,0,0,5,5,5,,,,,,,,,,,None,None,0,392.3412744998932,None,392.3412744998932,393.3412790999282,393.3246347999666,394.3246318998281,0,1,392.3412744998932,None,1,m,11,r,CIB,2021_Jun_04_1340,WASABI Nback,2020.2.10,60.01017766390794,
0,1,7,"[-0.2, -0.2]",None,0,1,1,1,,,,,0,0,0,0,0,6,6,6,,,,,,,,,,,None,None,0,394.3413129998371,None,394.3413129998371,395.34129729983397,395.32463179994375,396.3246559998952,0,1,394.3413129998371,None,1,m,11,r,CIB,2021_Jun_04_1340,WASABI Nback,2020.2.10,60.01017766390794,
0,1,1,"[-0.2, 0.2]",None,0,1,1,1,,,,,0,0,0,0,0,7,7,7,,,,,,,,,,,None,None,0,396.3413119998295,None,396.3413119998295,397.3413140999619,397.32466879999265,398.32465710002,0,1,396.3413119998295,None,1,m,11,r,CIB,2021_Jun_04_1340,WASABI Nback,2020.2.10,60.01017766390794,
0,1,5,"[0, 0]",None,0,1,1,1,,,,,0,0,0,0,0,8,8,8,,,,,,,,,,,None,None,0,398.34132289979607,None,398.34132289979607,399.34131959988736,399.3246828999836,400.3246782999486,0,1,398.34132289979607,None,1,m,11,r,CIB,2021_Jun_04_1340,WASABI Nback,2020.2.10,60.01017766390794,
0,1,7,"[-0.2, -0.2]",None,0,1,1,1,,,,,0,0,0,0,0,9,9,9,,,,,,,,,,,None,None,0,400.34134939988144,None,400.34134939988144,401.3413421998266,401.32468459988013,402.32470969995484,0,1,400.34134939988144,None,1,m,11,r,CIB,2021_Jun_04_1340,WASABI Nback,2020.2.10,60.01017766390794,
0,1,5,"[0, 0]",1,0,1,1,1,,,,,0,0,0,0,0,10,10,10,,,,,,,,,,,None,None,0,402.34136600000784,None,402.34136600000784,403.3413584998343,403.32470529992133,404.32470939983614,0,1,402.34136600000784,None,1,m,11,r,CIB,2021_Jun_04_1340,WASABI Nback,2020.2.10,60.01017766390794,
0,1,6,"[0.2, 0]",None,0,1,1,1,,,,,0,0,0,0,0,11,11,11,,,,,,,,,,,None,None,0,404.3413703998085,None,404.3413703998085,405.3413861999288,405.32473569992,406.3247263999656,0,1,404.3413703998085,None,1,m,11,r,CIB,2021_Jun_04_1340,WASABI Nback,2020.2.10,60.01017766390794,
0,1,3,"[0.2, 0.2]",None,0,1,1,1,,,,,0,0,0,0,0,12,12,12,,,,,,,,,,,None,None,0,406.341383199906,None,406.341383199906,407.34139829990454,407.32473579980433,408.3247536998242,0,1,406.341383199906,None,1,m,11,r,CIB,2021_Jun_04_1340,WASABI Nback,2020.2.10,60.01017766390794,
0,1,6,"[0.2, 0]",1,0,1,1,1,,,,,0,0,0,0,0,13,13,13,,,,,,,,,,,None,None,0,408.34141789982095,None,408.34141789982095,409.34146319981664,409.32475259993225,410.3247591999825,0,1,408.34141789982095,None,1,m,11,r,CIB,2021_Jun_04_1340,WASABI Nback,2020.2.10,60.01017766390794,
0,1,8,"[0, -0.2]",None,0,1,1,1,,,,,0,0,0,0,0,14,14,14,,,,,,,,,,,None,None,0,410.3417122999672,None,410.3417122999672,411.341431299923,411.32478519994766,412.32480979990214,0,1,410.3417122999672,None,1,m,11,r,CIB,2021_Jun_04_1340,WASABI Nback,2020.2.10,60.01017766390794,
0,1,9,"[0.2, -0.2]",None,0,1,1,1,,,,,0,0,0,0,0,15,15,15,,,,,,,,,,,None,None,0,412.34143339982256,None,412.34143339982256,413.3414594999049,413.3247845999431,414.3248034999706,0,1,412.34143339982256,None,1,m,11,r,CIB,2021_Jun_04_1340,WASABI Nback,2020.2.10,60.01017766390794,
0,1,9,"[0.2, -0.2]",None,0,1,1,1,,,,,0,0,0,0,0,16,16,16,,,,,,,,,,,None,None,0,414.3414588999003,None,414.3414588999003,415.3414593997877,415.324802899966,416.32481679995544,0,1,414.3414588999003,None,1,m,11,r,CIB,2021_Jun_04_1340,WASABI Nback,2020.2.10,60.01017766390794,
0,1,1,"[-0.2, 0.2]",None,0,1,1,1,,,,,0,0,0,0,0,17,17,17,,,,,,,,,,,None,None,0,416.3414746997878,None,416.3414746997878,417.3414935998153,417.3248179999646,418.3248254999053,0,1,416.3414746997878,None,1,m,11,r,CIB,2021_Jun_04_1340,WASABI Nback,2020.2.10,60.01017766390794,
0,1,3,"[0.2, 0.2]",None,0,1,1,1,,,,,0,0,0,0,0,18,18,18,,,,,,,,,,,None,None,0,418.3414847999811,None,418.3414847999811,419.34149369993247,419.3248368999921,420.3248554999009,0,1,418.3414847999811,None,1,m,11,r,CIB,2021_Jun_04_1340,WASABI Nback,2020.2.10,60.01017766390794,
0,1,5,"[0, 0]",None,0,1,1,1,,,,,0,0,0,0,0,19,19,19,,,,,,,,,,,None,None,0,420.34152239980176,None,420.34152239980176,421.3415255998261,421.32484939997084,422.3248383998871,0,1,420.34152239980176,None,1,m,11,r,CIB,2021_Jun_04_1340,WASABI Nback,2020.2.10,60.01017766390794,
0,1,3,"[0.2, 0.2]",1,0,1,1,1,,,,,0,0,0,0,0,20,20,20,,,,,,,,,,,None,None,0,422.34153539990075,None,422.34153539990075,423.34153699991293,423.32488329987973,424.32487259991467,0,1,422.34153539990075,None,1,m,11,r,CIB,2021_Jun_04_1340,WASABI Nback,2020.2.10,60.01017766390794,
0,1,4,"[-0.2, 0]",None,0,1,1,1,,,,,0,0,0,0,0,21,21,21,,,,,,,,,,,None,None,0,424.3415345000103,None,424.3415345000103,425.34153539990075,425.3249140998814,426.32489129994065,0,1,424.3415345000103,None,1,m,11,r,CIB,2021_Jun_04_1340,WASABI Nback,2020.2.10,60.01017766390794,
0,1,7,"[-0.2, -0.2]",None,0,1,1,1,,,,,0,0,0,0,0,22,22,22,,,,,,,,,,,None,None,0,426.3415589998476,None,426.3415589998476,427.34156949981116,427.32489849999547,428.3249210999347,0,1,426.3415589998476,None,1,m,11,r,CIB,2021_Jun_04_1340,WASABI Nback,2020.2.10,60.01017766390794,
0,1,4,"[-0.2, 0]",1,0,1,1,1,,,,,0,0,0,0,0,23,23,23,,,,,,,,,,,None,None,0,428.3415955998935,None,428.3415955998935,429.34156459989026,429.3249205998145,430.3249231998343,0,1,428.3415955998935,None,1,m,11,r,CIB,2021_Jun_04_1340,WASABI Nback,2020.2.10,60.01017766390794,
0,1,4,"[-0.2, 0]",None,0,1,1,1,,,,,0,0,0,0,0,24,24,24,,,,,,,,,,,None,None,0,430.3415905998554,None,430.3415905998554,431.3415982997976,431.32502170000225,432.3249366998207,0,1,430.3415905998554,None,1,m,11,r,CIB,2021_Jun_04_1340,WASABI Nback,2020.2.10,60.01017766390794,
0,1,5,"[0, 0]",None,0,1,1,1,,,,,0,0,0,0,0,25,25,25,,,,,,,,,,,None,None,0,432.34149369993247,None,432.34149369993247,433.3416011999361,433.3249374998268,434.324966999935,0,1,432.34149369993247,None,1,m,11,r,CIB,2021_Jun_04_1340,WASABI Nback,2020.2.10,60.01017766390794,
0,1,2,"[0, 0.2]",None,0,1,1,1,,,,,0,0,0,0,0,26,26,26,,,,,,,,,,,None,None,0,434.3416315999348,None,434.3416315999348,435.3416312998161,435.3249858999625,436.32497439999133,0,1,434.3416315999348,None,1,m,11,r,CIB,2021_Jun_04_1340,WASABI Nback,2020.2.10,60.01017766390794,
0,1,6,"[0.2, 0]",None,0,1,1,1,,,,,0,0,0,0,0,27,27,27,,,,,,,,,,,None,None,0,436.3416422000155,None,436.3416422000155,437.3416938998271,437.3249904999975,438.3249940997921,0,1,436.3416422000155,None,1,m,11,r,CIB,2021_Jun_04_1340,WASABI Nback,2020.2.10,60.01017766390794,
0,1,7,"[-0.2, -0.2]",None,0,1,1,1,,,,,0,0,0,0,0,28,28,28,,,,,,,,,,,None,None,0,438.3416513998527,None,438.3416513998527,439.34165799990296,439.3250362998806,440.32502009999007,0,1,438.3416513998527,None,1,m,11,r,CIB,2021_Jun_04_1340,WASABI Nback,2020.2.10,60.01017766390794,
0,1,6,"[0.2, 0]",1,0,1,1,1,,,,,0,0,0,0,0,29,29,29,,,,,,,,,,,None,None,0,440.34168549999595,None,440.34168549999595,441.3417558998335,441.32502250000834,442.32503669988364,0,1,440.34168549999595,None,1,m,11,r,CIB,2021_Jun_04_1340,WASABI Nback,2020.2.10,60.01017766390794,
0,1,6,"[0.2, 0]",None,0,1,1,1,,,,,0,0,0,0,0,30,30,30,,,,,,,,,,,None,None,0,442.34168929979205,None,442.34168929979205,443.34171439986676,443.32504879985936,444.3250406999141,0,1,442.34168929979205,None,1,m,11,r,CIB,2021_Jun_04_1340,WASABI Nback,2020.2.10,60.01017766390794,
0,1,7,"[-0.2, -0.2]",None,0,1,1,1,,,,,0,0,0,0,0,31,31,31,,,,,,,,,,,None,None,0,444.3417093998287,None,444.3417093998287,445.3417085998226,445.32506179995835,446.325058599934,0,1,444.3417093998287,None,1,m,11,r,CIB,2021_Jun_04_1340,WASABI Nback,2020.2.10,60.01017766390794,
0,1,6,"[0.2, 0]",1,0,1,1,1,,,,,0,0,0,0,0,32,32,32,,,,,,,,,,,None,None,0,446.3417349997908,None,446.3417349997908,447.3417342999019,447.32507619983517,448.325089099817,0,1,446.3417349997908,None,1,m,11,r,CIB,2021_Jun_04_1340,WASABI Nback,2020.2.10,60.01017766390794,
0,1,2,"[0, 0.2]",None,0,1,1,1,,,,,0,0,0,0,0,33,33,33,,,,,,,,,,,None,None,0,448.34174269996583,None,448.34174269996583,449.3417608998716,449.32508169999346,450.32511149998754,0,1,448.34174269996583,None,1,m,11,r,CIB,2021_Jun_04_1340,WASABI Nback,2020.2.10,60.01017766390794,
0,1,5,"[0, 0]",None,0,1,1,1,,,,,0,0,0,0,0,34,34,34,,,,,,,,,,,None,None,0,450.3417551999446,None,450.3417551999446,451.34177159983665,451.3251126999967,452.3251172997989,0,1,450.3417551999446,None,1,m,11,r,CIB,2021_Jun_04_1340,WASABI Nback,2020.2.10,60.01017766390794,
0,1,4,"[-0.2, 0]",None,0,1,1,1,,,,,0,0,0,0,0,35,35,35,,,,,,,,,,,None,None,0,452.3417611999903,None,452.3417611999903,453.3418038999662,453.32512249983847,454.325140299974,0,1,452.3417611999903,None,1,m,11,r,CIB,2021_Jun_04_1340,WASABI Nback,2020.2.10,60.01017766390794,
0,1,4,"[-0.2, 0]",None,0,1,1,1,,,,,0,0,0,0,0,36,36,36,,,,,,,,,,,None,None,0,454.34179819980636,None,454.34179819980636,455.3417967997957,455.3250191998668,456.32514479989186,0,1,454.34179819980636,None,1,m,11,r,CIB,2021_Jun_04_1340,WASABI Nback,2020.2.10,60.01017766390794,
0,1,7,"[-0.2, -0.2]",None,0,1,1,1,,,,,0,0,0,0,0,37,37,37,,,,,,,,,,,None,None,0,456.3418205999769,None,456.3418205999769,457.3418265997898,457.32516579981893,458.3251544998493,0,1,456.3418205999769,None,1,m,11,r,CIB,2021_Jun_04_1340,WASABI Nback,2020.2.10,60.01017766390794,
0,1,4,"[-0.2, 0]",1,0,1,1,1,,,,,0,0,0,0,0,38,38,38,,,,,,,,,,,None,None,0,458.3418183999602,None,458.3418183999602,459.34183319984004,459.3250535998959,460.3251891999971,0,1,458.3418183999602,None,1,m,11,r,CIB,2021_Jun_04_1340,WASABI Nback,2020.2.10,60.01017766390794,
0,1,3,"[0.2, 0.2]",None,0,1,1,1,,,,,0,0,0,0,0,39,39,39,,,,,,,,,,,None,None,0,460.34184199990705,None,460.34184199990705,461.3418498998508,461.32519349991344,462.3251880998723,0,1,460.34184199990705,None,1,m,11,r,CIB,2021_Jun_04_1340,WASABI Nback,2020.2.10,60.01017766390794,
0,1,5,"[0, 0]",None,0,1,1,1,,,,,0,0,0,0,0,40,40,40,,,,,,,,,,,None,None,0,462.3418469999451,None,462.3418469999451,463.3418715998996,463.3252065000124,464.325212799944,0,1,462.3418469999451,None,1,m,11,r,CIB,2021_Jun_04_1340,WASABI Nback,2020.2.10,60.01017766390794,
0,1,3,"[0.2, 0.2]",1,0,1,1,1,,,,,0,0,0,0,0,41,41,41,,,,,,,,,,,None,None,0,464.3418798998464,None,464.3418798998464,465.34188829991035,465.325231899973,466.325223099906,0,1,464.3418798998464,None,1,m,11,r,CIB,2021_Jun_04_1340,WASABI Nback,2020.2.10,60.01017766390794,
0,1,1,"[-0.2, 0.2]",None,0,1,1,1,,,,,0,0,0,0,0,42,42,42,,,,,,,,,,,None,None,0,466.341893899953,None,466.341893899953,467.34190210001543,467.3252414998133,468.3252625998575,0,1,466.341893899953,None,1,m,11,r,CIB,2021_Jun_04_1340,WASABI Nback,2020.2.10,60.01017766390794,
0,1,9,"[0.2, -0.2]",None,0,1,1,1,,,,,0,0,0,0,0,43,43,43,,,,,,,,,,,None,None,0,468.3419199998025,None,468.3419199998025,469.34192509995773,469.32527049980126,470.325257799821,0,1,468.3419199998025,None,1,m,11,r,CIB,2021_Jun_04_1340,WASABI Nback,2020.2.10,60.01017766390794,
0,1,9,"[0.2, -0.2]",None,0,1,1,1,,,,,0,0,0,0,0,44,44,44,,,,,,,,,,,None,None,0,470.3419237998314,None,470.3419237998314,471.3419248999562,471.32516549993306,472.3252766998485,0,0,470.3419237998314,None,1,m,11,r,CIB,2021_Jun_04_1340,WASABI Nback,2020.2.10,60.01017766390794,
0,1,8,"[0, -0.2]",None,0,1,1,1,,,,,0,0,0,0,0,45,45,45,,,,,,,,,,,None,None,0,472.34194549988024,None,472.34194549988024,473.3419509998057,473.3252879998181,474.32532910001464,0,1,472.34194549988024,None,1,m,11,r,CIB,2021_Jun_04_1340,WASABI Nback,2020.2.10,60.01017766390794,
0,1,6,"[0.2, 0]",None,0,1,1,1,,,,,0,0,0,0,0,46,46,46,,,,,,,,,,,None,None,0,474.34197049983777,None,474.34197049983777,475.3419688998256,475.32530519994907,476.32532569998875,0,1,474.34197049983777,None,1,m,11,r,CIB,2021_Jun_04_1340,WASABI Nback,2020.2.10,60.01017766390794,
0,1,3,"[0.2, 0.2]",None,0,1,1,1,,,,,0,0,0,0,0,47,47,47,,,,,,,,,,,None,None,0,476.34199390001595,None,476.34199390001595,477.34198869997635,477.3253370998427,478.32533369981684,0,1,476.34199390001595,None,1,m,11,r,CIB,2021_Jun_04_1340,WASABI Nback,2020.2.10,60.01017766390794,
0,1,6,"[0.2, 0]",1,0,1,1,1,,,,,0,0,0,0,0,48,48,48,,,,,,,,,,,None,None,0,478.3419840999413,None,478.3419840999413,479.34200569987297,479.3253293999005,480.3253652998246,0,1,478.3419840999413,None,1,m,11,r,CIB,2021_Jun_04_1340,WASABI Nback,2020.2.10,60.01017766390794,
0,1,5,"[0, 0]",None,0,1,1,1,,,,,0,0,0,0,0,49,49,49,,,,,,,,,,,None,None,0,480.3420211998746,None,480.3420211998746,481.3420125998091,481.32534919981845,482.32536709983833,0,1,480.3420211998746,None,1,m,11,r,CIB,2021_Jun_04_1340,WASABI Nback,2020.2.10,60.01017766390794,
0,1,7,"[-0.2, -0.2]",None,0,1,1,1,,,,,0,0,0,0,0,50,50,50,,,,,,,,,,,None,None,0,482.34202509978786,None,482.34202509978786,483.34203920001164,483.3253909999039,484.32541779987514,0,1,482.34202509978786,None,1,m,11,r,CIB,2021_Jun_04_1340,WASABI Nback,2020.2.10,60.01017766390794,
0,1,5,"[0, 0]",1,0,1,1,1,,,,,0,0,0,0,0,51,51,51,,,,,,,,,,,None,None,0,484.3420498999767,None,484.3420498999767,485.34206709987484,485.3253925999161,486.3254149998538,0,1,484.3420498999767,None,1,m,11,r,CIB,2021_Jun_04_1340,WASABI Nback,2020.2.10,60.01017766390794,
0,1,1,"[-0.2, 0.2]",None,0,1,1,1,,,,,0,0,0,0,0,52,52,52,,,,,,,,,,,None,None,0,486.34206789988093,None,486.34206789988093,487.342077099951,487.32546149985865,488.32541369996034,0,1,486.34206789988093,None,1,m,11,r,CIB,2021_Jun_04_1340,WASABI Nback,2020.2.10,60.01017766390794,
0,1,7,"[-0.2, -0.2]",None,0,1,1,1,,,,,0,0,0,0,0,53,53,53,,,,,,,,,,,None,None,0,488.3420925999526,None,488.3420925999526,489.34209759999067,489.32544419984333,490.32544389995746,0,1,488.3420925999526,None,1,m,11,r,CIB,2021_Jun_04_1340,WASABI Nback,2020.2.10,60.01017766390794,
0,1,9,"[0.2, -0.2]",None,0,1,1,1,,,,,0,0,0,0,0,54,54,54,,,,,,,,,,,None,None,0,490.34208749979734,None,490.34208749979734,491.34212009981275,491.32544829999097,492.32546309987083,0,1,490.34208749979734,None,1,m,11,r,CIB,2021_Jun_04_1340,WASABI Nback,2020.2.10,60.01017766390794,
0,1,3,"[0.2, 0.2]",None,0,1,1,1,,,,,0,0,0,0,0,55,55,55,,,,,,,,,,,None,None,0,492.3420901999343,None,492.3420901999343,493.3421165999025,493.32546669989824,494.32546429987997,0,1,492.3420901999343,None,1,m,11,r,CIB,2021_Jun_04_1340,WASABI Nback,2020.2.10,60.01017766390794,
0,1,9,"[0.2, -0.2]",1,0,1,1,1,,,,,0,0,0,0,0,56,56,56,,,,,,,,,,,None,None,0,494.342131299898,None,494.342131299898,495.34214699990116,495.3254934998695,496.32549079996534,0,1,494.342131299898,None,1,m,11,r,CIB,2021_Jun_04_1340,WASABI Nback,2020.2.10,60.01017766390794,
0,1,6,"[0.2, 0]",None,0,1,1,1,,,,,0,0,0,0,0,57,57,57,,,,,,,,,,,None,None,0,496.34213719982654,None,496.34213719982654,497.3421488997992,497.3255009998102,498.3254419998266,0,1,496.34213719982654,None,1,m,11,r,CIB,2021_Jun_04_1340,WASABI Nback,2020.2.10,60.01017766390794,
0,1,2,"[0, 0.2]",None,0,1,1,1,,,,,0,0,0,0,0,58,58,58,,,,,,,,,,,None,None,0,498.34217530000024,None,498.34217530000024,499.34218009980395,499.32550239982083,500.32551139988936,0,1,498.34217530000024,None,1,m,11,r,CIB,2021_Jun_04_1340,WASABI Nback,2020.2.10,60.01017766390794,
0,1,5,"[0, 0]",None,0,1,1,1,,,,,0,0,0,0,0,59,59,59,,,,,,,,,,,None,None,0,500.3421928999014,None,500.3421928999014,501.34219799982384,501.3255245999899,502.3255476998165,0,1,500.3421928999014,None,1,m,11,r,CIB,2021_Jun_04_1340,WASABI Nback,2020.2.10,60.01017766390794,
0,1,5,"[0, 0]",None,0,1,1,1,,,,,0,0,0,0,0,60,60,60,,,,,,,,,,,None,None,0,502.3421895999927,None,502.3421895999927,503.3422230000142,503.32554639992304,504.3255451999139,0,1,502.3421895999927,None,1,m,11,r,CIB,2021_Jun_04_1340,WASABI Nback,2020.2.10,60.01017766390794,
0,1,2,"[0, 0.2]",None,0,1,1,1,,,,,0,0,0,0,0,61,61,61,,,,,,,,,,,None,None,0,504.3420968998689,None,504.3420968998689,505.34221379994415,505.32554399990477,506.3255697998684,0,1,504.3420968998689,None,1,m,11,r,CIB,2021_Jun_04_1340,WASABI Nback,2020.2.10,60.01017766390794,
0,1,6,"[0.2, 0]",None,0,1,1,1,,,,,0,0,0,0,0,62,62,62,,,,,,,,,,,None,None,0,506.34224479994737,None,506.34224479994737,507.34225049987435,507.3255612999201,508.32554119988345,0,0,506.34224479994737,None,1,m,11,r,CIB,2021_Jun_04_1340,WASABI Nback,2020.2.10,60.01017766390794,
0,1,9,"[0.2, -0.2]",None,0,1,1,1,,,,,0,0,0,0,0,63,63,63,,,,,,,,,,,None,None,0,508.3422501999885,None,508.3422501999885,509.3422547997907,509.3256170998793,510.325618899893,0,1,508.3422501999885,None,1,m,11,r,CIB,2021_Jun_04_1340,WASABI Nback,2020.2.10,60.01017766390794,
0,1,3,"[0.2, 0.2]",None,0,1,1,1,,,,,0,0,0,0,0,64,64,64,,,,,,,,,,,None,None,0,510.3422528000083,None,510.3422528000083,511.3422748998273,511.32561729988083,512.3256304999813,0,1,510.3422528000083,None,1,m,11,r,CIB,2021_Jun_04_1340,WASABI Nback,2020.2.10,60.01017766390794,
0,1,9,"[0.2, -0.2]",1,0,1,1,1,,,,,0,0,0,0,0,65,65,65,,,,,,,,,,,None,None,0,512.3422974999994,None,512.3422974999994,513.3422951998655,513.3256335998885,514.3256412998307,0,0,512.3422974999994,None,1,m,11,r,CIB,2021_Jun_04_1340,WASABI Nback,2020.2.10,60.01017766390794,
0,1,7,"[-0.2, -0.2]",None,0,1,1,1,,,,,0,0,0,0,0,66,66,66,,,,,,,,,,,None,None,0,514.3422985998914,None,514.3422985998914,515.3423795998096,515.3256771999877,516.325668499805,0,1,514.3422985998914,None,1,m,11,r,CIB,2021_Jun_04_1340,WASABI Nback,2020.2.10,60.01017766390794,
0,1,1,"[-0.2, 0.2]",None,0,1,1,1,,,,,0,0,0,0,0,67,67,67,,,,,,,,,,,None,None,0,516.3423132998869,None,516.3423132998869,517.3423338998109,517.3256762998644,518.3256723999511,0,1,516.3423132998869,None,1,m,11,r,CIB,2021_Jun_04_1340,WASABI Nback,2020.2.10,60.01017766390794,
0,1,5,"[0, 0]",None,0,1,1,1,,,,,0,0,0,0,0,68,68,68,,,,,,,,,,,None,None,0,518.3423444998916,None,518.3423444998916,519.3423461997882,519.325682599796,520.3257357999682,0,1,518.3423444998916,None,1,m,11,r,CIB,2021_Jun_04_1340,WASABI Nback,2020.2.10,60.01017766390794,
0,1,7,"[-0.2, -0.2]",None,0,1,1,1,,,,,0,0,0,0,0,69,69,69,,,,,,,,,,,None,None,0,520.3423591000028,None,520.3423591000028,521.3423570999876,521.3256900999695,522.325686099939,0,1,520.3423591000028,None,1,m,11,r,CIB,2021_Jun_04_1340,WASABI Nback,2020.2.10,60.01017766390794,
0,1,5,"[0, 0]",1,0,1,1,1,,,,,0,0,0,0,0,70,70,70,,,,,,,,,,,None,None,0,522.3423549998552,None,522.3423549998552,523.3423846999649,523.3257226999849,524.3257247000001,0,1,522.3423549998552,None,1,m,11,r,CIB,2021_Jun_04_1340,WASABI Nback,2020.2.10,60.01017766390794,
0,1,6,"[0.2, 0]",None,0,1,1,1,,,,,0,0,0,0,0,71,71,71,,,,,,,,,,,None,None,0,524.3423825998325,None,524.3423825998325,525.3423923999071,525.3257457998116,526.32574559981,0,1,524.3423825998325,None,1,m,11,r,CIB,2021_Jun_04_1340,WASABI Nback,2020.2.10,60.01017766390794,
0,1,3,"[0.2, 0.2]",None,0,1,1,1,,,,,0,0,0,0,0,72,72,72,,,,,,,,,,,None,None,0,526.3424093998037,None,526.3424093998037,527.3424073997885,527.3257271999028,528.3257545998786,0,1,526.3424093998037,None,1,m,11,r,CIB,2021_Jun_04_1340,WASABI Nback,2020.2.10,60.01017766390794,
0,1,6,"[0.2, 0]",1,0,1,1,1,,,,,0,0,0,0,0,73,73,73,,,,,,,,,,,None,None,0,528.342430899851,None,528.342430899851,529.3424419998191,529.3257575999014,530.3258004998788,0,1,528.342430899851,None,1,m,11,r,CIB,2021_Jun_04_1340,WASABI Nback,2020.2.10,60.01017766390794,
0,1,8,"[0, -0.2]",None,0,1,1,1,,,,,0,0,0,0,0,74,74,74,,,,,,,,,,,None,None,0,530.3424483998679,None,530.3424483998679,531.3424521000125,531.3257934998255,532.3257964998484,0,1,530.3424483998679,None,1,m,11,r,CIB,2021_Jun_04_1340,WASABI Nback,2020.2.10,60.01017766390794,
0,1,9,"[0.2, -0.2]",None,0,1,1,1,,,,,0,0,0,0,0,75,75,75,,,,,,,,,,,None,None,0,532.3424612998497,None,532.3424612998497,533.3424610998482,533.325802499894,534.3258169000037,0,1,532.3424612998497,None,1,m,11,r,CIB,2021_Jun_04_1340,WASABI Nback,2020.2.10,60.01017766390794,
0,1,9,"[0.2, -0.2]",None,0,1,1,1,,,,,0,0,0,0,0,76,76,76,,,,,,,,,,,None,None,0,534.3424753998406,None,534.3424753998406,535.3424729998223,535.3258301999886,536.325825799955,0,1,534.3424753998406,None,1,m,11,r,CIB,2021_Jun_04_1340,WASABI Nback,2020.2.10,60.01017766390794,
0,1,1,"[-0.2, 0.2]",None,0,1,1,1,,,,,0,0,0,0,0,77,77,77,,,,,,,,,,,None,None,0,536.3424740999471,None,536.3424740999471,537.3425036999397,537.3258203999139,538.3258464999963,0,1,536.3424740999471,None,1,m,11,r,CIB,2021_Jun_04_1340,WASABI Nback,2020.2.10,60.01017766390794,
0,1,3,"[0.2, 0.2]",None,0,1,1,1,,,,,0,0,0,0,0,78,78,78,,,,,,,,,,,None,None,0,538.3424950998742,None,538.3424950998742,539.3425227999687,539.3258485000115,540.3258744999766,0,1,538.3424950998742,None,1,m,11,r,CIB,2021_Jun_04_1340,WASABI Nback,2020.2.10,60.01017766390794,
0,1,5,"[0, 0]",None,0,1,1,1,,,,,0,0,0,0,0,79,79,79,,,,,,,,,,,None,None,0,540.3425464997999,None,540.3425464997999,541.3425213999581,541.3258431998547,542.3258799999021,0,1,540.3425464997999,None,1,m,11,r,CIB,2021_Jun_04_1340,WASABI Nback,2020.2.10,60.01017766390794,
0,1,3,"[0.2, 0.2]",1,0,1,1,1,,,,,0,0,0,0,0,80,80,80,,,,,,,,,,,None,None,0,542.3425433000084,None,542.3425433000084,543.3425554998685,543.3258781998884,544.3258999998216,0,0,542.3425433000084,None,1,m,11,r,CIB,2021_Jun_04_1340,WASABI Nback,2020.2.10,60.01017766390794,
0,1,4,"[-0.2, 0]",None,0,1,1,1,,,,,0,0,0,0,0,81,81,81,,,,,,,,,,,None,None,0,544.3425512998365,None,544.3425512998365,545.3426309998613,545.3259578999132,546.3259571997914,0,1,544.3425512998365,None,1,m,11,r,CIB,2021_Jun_04_1340,WASABI Nback,2020.2.10,60.01017766390794,
0,1,7,"[-0.2, -0.2]",None,0,1,1,1,,,,,0,0,0,0,0,82,82,82,,,,,,,,,,,None,None,0,546.3425749000162,None,546.3425749000162,547.3425950999372,547.3259134998079,548.3259292999282,0,1,546.3425749000162,None,1,m,11,r,CIB,2021_Jun_04_1340,WASABI Nback,2020.2.10,60.01017766390794,
0,1,4,"[-0.2, 0]",1,0,1,1,1,,,,,0,0,0,0,0,83,83,83,,,,,,,,,,,None,None,0,548.3425965998322,None,548.3425965998322,549.3425867999904,549.3259304999374,550.3258611999918,0,1,548.3425965998322,None,1,m,11,r,CIB,2021_Jun_04_1340,WASABI Nback,2020.2.10,60.01017766390794,
0,1,4,"[-0.2, 0]",None,0,1,1,1,,,,,0,0,0,0,0,84,84,84,,,,,,,,,,,None,None,0,550.3426089999266,None,550.3426089999266,551.3426260999404,551.3259826998692,552.3259409000166,0,1,550.3426089999266,None,1,m,11,r,CIB,2021_Jun_04_1340,WASABI Nback,2020.2.10,60.01017766390794,
0,1,5,"[0, 0]",None,0,1,1,1,,,,,0,0,0,0,0,85,85,85,,,,,,,,,,,None,None,0,552.3426420998294,None,552.3426420998294,553.3426260999404,553.3259705000091,554.3259758998174,0,1,552.3426420998294,None,1,m,11,r,CIB,2021_Jun_04_1340,WASABI Nback,2020.2.10,60.01017766390794,
0,1,2,"[0, 0.2]",None,0,1,1,1,,,,,0,0,0,0,0,86,86,86,,,,,,,,,,,None,None,0,554.3426477999892,None,554.3426477999892,555.3426487999968,555.3259815999772,556.3259994999971,0,1,554.3426477999892,None,1,m,11,r,CIB,2021_Jun_04_1340,WASABI Nback,2020.2.10,60.01017766390794,
0,1,6,"[0.2, 0]",None,0,1,1,1,,,,,0,0,0,0,0,87,87,87,,,,,,,,,,,None,None,0,556.3426592999604,None,556.3426592999604,557.3426534999162,557.3259926999453,558.3260011998937,0,1,556.3426592999604,None,1,m,11,r,CIB,2021_Jun_04_1340,WASABI Nback,2020.2.10,60.01017766390794,
0,1,7,"[-0.2, -0.2]",None,0,1,1,1,,,,,0,0,0,0,0,88,88,88,,,,,,,,,,,None,None,0,558.3426558999345,None,558.3426558999345,559.3426785999909,559.3260231998283,560.3260298999958,0,1,558.3426558999345,None,1,m,11,r,CIB,2021_Jun_04_1340,WASABI Nback,2020.2.10,60.01017766390794,
0,1,6,"[0.2, 0]",1,0,1,1,1,,,,,0,0,0,0,0,89,89,89,,,,,,,,,,,None,None,0,560.3425855999812,None,560.3425855999812,561.3426969998982,561.3260361999273,562.3260515998118,0,1,560.3425855999812,None,1,m,11,r,CIB,2021_Jun_04_1340,WASABI Nback,2020.2.10,60.01017766390794,
0,1,6,"[0.2, 0]",None,0,1,1,1,,,,,0,0,0,0,0,90,90,90,,,,,,,,,,,None,None,0,562.3427160999272,None,562.3427160999272,563.3427306998055,563.3260409999639,564.326056699967,0,1,562.3427160999272,None,1,m,11,r,CIB,2021_Jun_04_1340,WASABI Nback,2020.2.10,60.01017766390794,
0,1,7,"[-0.2, -0.2]",None,0,1,1,1,,,,,0,0,0,0,0,91,91,91,,,,,,,,,,,None,None,0,564.3427301999182,None,564.3427301999182,565.3427360998467,565.3260790999047,566.3260770998895,0,1,564.3427301999182,None,1,m,11,r,CIB,2021_Jun_04_1340,WASABI Nback,2020.2.10,60.01017766390794,
0,1,6,"[0.2, 0]",1,0,1,1,1,,,,,0,0,0,0,0,92,92,92,,,,,,,,,,,None,None,0,566.3427426998969,None,566.3427426998969,567.3427529998589,567.3262000000104,568.3260914999992,0,1,566.3427426998969,None,1,m,11,r,CIB,2021_Jun_04_1340,WASABI Nback,2020.2.10,60.01017766390794,
0,1,2,"[0, 0.2]",None,0,1,1,1,,,,,0,0,0,0,0,93,93,93,,,,,,,,,,,None,None,0,568.3427662998438,None,568.3427662998438,569.3427631999366,569.3261063999962,570.3261218999978,0,1,568.3427662998438,None,1,m,11,r,CIB,2021_Jun_04_1340,WASABI Nback,2020.2.10,60.01017766390794,
0,1,5,"[0, 0]",None,0,1,1,1,,,,,0,0,0,0,0,94,94,94,,,,,,,,,,,None,None,0,570.3427772999275,None,570.3427772999275,571.3427050998434,571.3261193998624,572.3261290998198,0,1,570.3427772999275,None,1,m,11,r,CIB,2021_Jun_04_1340,WASABI Nback,2020.2.10,60.01017766390794,
0,1,4,"[-0.2, 0]",None,0,1,1,1,,,,,0,0,0,0,0,95,95,95,,,,,,,,,,,None,None,0,572.3427877998911,None,572.3427877998911,573.342787399888,573.3261474999599,574.3261392998975,0,1,572.3427877998911,None,1,m,11,r,CIB,2021_Jun_04_1340,WASABI Nback,2020.2.10,60.01017766390794,
0,1,4,"[-0.2, 0]",None,0,1,1,1,,,,,0,0,0,0,0,96,96,96,,,,,,,,,,,None,None,0,574.3428189000115,None,574.3428189000115,575.3428151998669,575.3261572998017,576.3261724999174,0,1,574.3428189000115,None,1,m,11,r,CIB,2021_Jun_04_1340,WASABI Nback,2020.2.10,60.01017766390794,
0,1,7,"[-0.2, -0.2]",None,0,1,1,1,,,,,0,0,0,0,0,97,97,97,,,,,,,,,,,None,None,0,576.3428342000116,None,576.3428342000116,577.3429146998096,577.3261904998217,578.3261684000026,0,1,576.3428342000116,None,1,m,11,r,CIB,2021_Jun_04_1340,WASABI Nback,2020.2.10,60.01017766390794,
0,1,4,"[-0.2, 0]",1,0,1,1,1,,,,,0,0,0,0,0,98,98,98,,,,,,,,,,,None,None,0,578.3428425998427,None,578.3428425998427,579.3428558998276,579.3261964998674,580.3262057998218,0,1,578.3428425998427,None,1,m,11,r,CIB,2021_Jun_04_1340,WASABI Nback,2020.2.10,60.01017766390794,
0,1,3,"[0.2, 0.2]",None,0,1,1,1,,,,,0,0,0,0,0,99,99,99,,,,,,,,,,,None,None,0,580.3428507999051,None,580.3428507999051,581.3428799000103,581.3261926998384,582.3262280998752,0,1,580.3428507999051,None,1,m,11,r,CIB,2021_Jun_04_1340,WASABI Nback,2020.2.10,60.01017766390794,
0,1,5,"[0, 0]",None,0,1,1,1,,,,,0,0,0,0,0,100,100,100,,,,,,,,,,,None,None,0,582.3429011998232,None,582.3429011998232,583.3428839999251,583.3262285999954,584.3262298000045,0,1,582.3429011998232,None,1,m,11,r,CIB,2021_Jun_04_1340,WASABI Nback,2020.2.10,60.01017766390794,
0,1,3,"[0.2, 0.2]",1,0,1,1,1,,,,,0,0,0,0,0,101,101,101,,,,,,,,,,,None,None,0,584.3429078999907,None,584.3429078999907,585.3429038999602,585.3262517999392,586.3262498998083,0,1,584.3429078999907,None,1,m,11,r,CIB,2021_Jun_04_1340,WASABI Nback,2020.2.10,60.01017766390794,
0,1,1,"[-0.2, 0.2]",None,0,1,1,1,,,,,0,0,0,0,0,102,102,102,,,,,,,,,,,None,None,0,586.3429057998583,None,586.3429057998583,587.342917499831,587.3262598000001,588.3262584998738,0,1,586.3429057998583,None,1,m,11,r,CIB,2021_Jun_04_1340,WASABI Nback,2020.2.10,60.01017766390794,
0,1,9,"[0.2, -0.2]",None,0,1,1,1,,,,,0,0,0,0,0,103,103,103,,,,,,,,,,,None,None,0,588.342946899822,None,588.342946899822,589.3429335998371,589.3262724999804,590.3262784997933,0,1,588.342946899822,None,1,m,11,r,CIB,2021_Jun_04_1340,WASABI Nback,2020.2.10,60.01017766390794,
0,1,9,"[0.2, -0.2]",None,0,1,1,1,,,,,0,0,0,0,0,104,104,104,,,,,,,,,,,None,None,0,590.3429685998708,None,590.3429685998708,591.3429597998038,591.3262974999379,592.3262876998633,0,1,590.3429685998708,None,1,m,11,r,CIB,2021_Jun_04_1340,WASABI Nback,2020.2.10,60.01017766390794,
0,1,8,"[0, -0.2]",None,0,1,1,1,,,,,0,0,0,0,0,105,105,105,,,,,,,,,,,None,None,0,592.3429576000199,None,592.3429576000199,593.342956099892,593.3263189999852,594.3263149999548,0,1,592.3429576000199,None,1,m,11,r,CIB,2021_Jun_04_1340,WASABI Nback,2020.2.10,60.01017766390794,
0,1,6,"[0.2, 0]",None,0,1,1,1,,,,,0,0,0,0,0,106,106,106,,,,,,,,,,,None,None,0,594.342987400014,None,594.342987400014,595.3429787999485,595.326324599795,596.3263284999412,0,1,594.342987400014,None,1,m,11,r,CIB,2021_Jun_04_1340,WASABI Nback,2020.2.10,60.01017766390794,
0,1,3,"[0.2, 0.2]",None,0,1,1,1,,,,,0,0,0,0,0,107,107,107,,,,,,,,,,,None,None,0,596.3430035999045,None,596.3430035999045,597.3430120998528,597.326343299821,598.3263754998334,0,1,596.3430035999045,None,1,m,11,r,CIB,2021_Jun_04_1340,WASABI Nback,2020.2.10,60.01017766390794,
0,1,6,"[0.2, 0]",1,0,1,1,1,,,,,0,0,0,0,0,108,108,108,,,,,,,,,,,None,None,0,598.3430063999258,None,598.3430063999258,599.3430304999929,599.3263593998272,600.3263551997952,0,1,598.3430063999258,None,1,m,11,r,CIB,2021_Jun_04_1340,WASABI Nback,2020.2.10,60.01017766390794,
0,1,5,"[0, 0]",None,0,1,1,1,,,,,0,0,0,0,0,109,109,109,,,,,,,,,,,None,None,0,600.3430398998316,None,600.3430398998316,601.3430422998499,601.32638340001,602.3264140000101,0,1,600.3430398998316,None,1,m,11,r,CIB,2021_Jun_04_1340,WASABI Nback,2020.2.10,60.01017766390794,
0,1,7,"[-0.2, -0.2]",None,0,1,1,1,,,,,0,0,0,0,0,110,110,110,,,,,,,,,,,None,None,0,602.3430616999976,None,602.3430616999976,603.3430526999291,603.3263874999247,604.3264095999766,0,1,602.3430616999976,None,1,m,11,r,CIB,2021_Jun_04_1340,WASABI Nback,2020.2.10,60.01017766390794,
0,1,5,"[0, 0]",1,0,1,1,1,,,,,0,0,0,0,0,111,111,111,,,,,,,,,,,None,None,0,604.3430535998195,None,604.3430535998195,605.3430873998441,605.326408999972,606.3264091999736,0,0,604.3430535998195,None,1,m,11,r,CIB,2021_Jun_04_1340,WASABI Nback,2020.2.10,60.01017766390794,
0,1,1,"[-0.2, 0.2]",None,0,1,1,1,,,,,0,0,0,0,0,112,112,112,,,,,,,,,,,None,None,0,606.3430828999262,None,606.3430828999262,607.3430828999262,607.3264364998322,608.3264319999143,0,1,606.3430828999262,None,1,m,11,r,CIB,2021_Jun_04_1340,WASABI Nback,2020.2.10,60.01017766390794,
0,1,7,"[-0.2, -0.2]",None,0,1,1,1,,,,,0,0,0,0,0,113,113,113,,,,,,,,,,,None,None,0,608.3431094000116,None,608.3431094000116,609.3431029999629,609.3264549998567,610.3264580999967,0,1,608.3431094000116,None,1,m,11,r,CIB,2021_Jun_04_1340,WASABI Nback,2020.2.10,60.01017766390794,
0,1,9,"[0.2, -0.2]",None,0,1,1,1,,,,,0,0,0,0,0,114,114,114,,,,,,,,,,,None,None,0,610.3431243000086,None,610.3431243000086,611.3431351999752,611.3264643999282,612.3264792999253,0,1,610.3431243000086,None,1,m,11,r,CIB,2021_Jun_04_1340,WASABI Nback,2020.2.10,60.01017766390794,
0,1,3,"[0.2, 0.2]",None,0,1,1,1,,,,,0,0,0,0,0,115,115,115,,,,,,,,,,,None,None,0,612.3431328998413,None,612.3431328998413,613.3431406000163,613.3263538000174,614.3264842999633,0,1,612.3431328998413,None,1,m,11,r,CIB,2021_Jun_04_1340,WASABI Nback,2020.2.10,60.01017766390794,
0,1,9,"[0.2, -0.2]",1,0,1,1,1,,,,,0,0,0,0,0,116,116,116,,,,,,,,,,,None,None,0,614.343159899814,None,614.343159899814,615.3431549998932,615.3265099998098,616.3265091998037,0,0,614.343159899814,None,1,m,11,r,CIB,2021_Jun_04_1340,WASABI Nback,2020.2.10,60.01017766390794,
0,1,6,"[0.2, 0]",None,0,1,1,1,,,,,0,0,0,0,0,117,117,117,,,,,,,,,,,None,None,0,616.3431694998872,None,616.3431694998872,617.3431708998978,617.326391399838,618.3265129998326,0,1,616.3431694998872,None,1,m,11,r,CIB,2021_Jun_04_1340,WASABI Nback,2020.2.10,60.01017766390794,
0,1,2,"[0, 0.2]",None,0,1,1,1,,,,,0,0,0,0,0,118,118,118,,,,,,,,,,,None,None,0,618.343185500009,None,618.343185500009,619.3431929999497,619.3265358998906,620.3265410999302,0,1,618.343185500009,None,1,m,11,r,CIB,2021_Jun_04_1340,WASABI Nback,2020.2.10,60.01017766390794,
0,1,5,"[0, 0]",None,0,1,1,1,,,,,0,0,0,0,0,119,119,119,,,,,,,,,,,None,None,0,620.3431942998432,None,620.3431942998432,621.3431962998584,621.3265609999653,622.3265525999013,0,1,620.3431942998432,None,1,m,11,r,CIB,2021_Jun_04_1340,WASABI Nback,2020.2.10,60.01017766390794,
