	SID	date	sex	session	handedness	scanner	onset	duration	repetition	rating	body_site	keys	temperature	conditionrt	mouseclick	biopac_channel	condition	rt	value
0	3007	2024_Jul_27_1335	f	1	r	SS MRS	2.774699100002181	5.00244741991628								19	Instructions		
1	3007	2024_Jul_27_1335	f	1	r	SS MRS	9.135379799990915	2.0007035799790174								6	Cue		
2	3007	2024_Jul_27_1335	f	1	r	SS MRS	11.151959999988321	8.001207540015457								7	Pre-Jitter		
3	3007	2024_Jul_27_1335	f	1	r	SS MRS	19.226124800014077	15.003137899999274			Left Leg		48.0			15	Heat-Stimulation		
4	3007	2024_Jul_27_1335	f	1	r	SS MRS	34.30688910000026	5.008503639983246								8	Mid-Jitter		
5	3007	2024_Jul_27_1335	f	1	r	SS MRS	39.33116830000654	5.010174780007219								20	PainBinary		1.0
6	3007	2024_Jul_27_1335	f	1	r	SS MRS	44.36435980000533	5.01059307999094								21	IntensityRating		46.17283950617284
7	3007	2024_Jul_27_1335	f	1	r	SS MRS	49.396598199993605	4.996233380021295								22	ToleranceRating		1.0
8	3007	2024_Jul_27_1335	f	1	r	SS MRS	54.398891599994386	5.008263239986263								9	Post-Q-Jitter		
9	3007	2024_Jul_27_1335	f	1	r	SS MRS	61.76515379999182	2.0088305799872614								6	Cue		
10	3007	2024_Jul_27_1335	f	1	r	SS MRS	63.779329899989534	5.997633240040159								7	Pre-Jitter		
11	3007	2024_Jul_27_1335	f	1	r	SS MRS	69.82200389998616	15.012493360001827			Left Leg		48.5			15	Heat-Stimulation		
12	3007	2024_Jul_27_1335	f	1	r	SS MRS	84.90275380000821	7.001250100031029								8	Mid-Jitter		
13	3007	2024_Jul_27_1335	f	1	r	SS MRS	91.93143409999902	5.010807380022015								20	PainBinary		1.0
14	3007	2024_Jul_27_1335	f	1	r	SS MRS	96.96428079999168	5.011911780020455								21	IntensityRating		47.46913580246914
15	3007	2024_Jul_27_1335	f	1	r	SS MRS	101.99552070000209	4.999561780015938								22	ToleranceRating		1.0
16	3007	2024_Jul_27_1335	f	1	r	SS MRS	106.9992923999962	6.992031040019356								9	Post-Q-Jitter		
17	3007	2024_Jul_27_1335	f	1	r	SS MRS	114.9134536999918	2.0136799399915617								6	Cue		
18	3007	2024_Jul_27_1335	f	1	r	SS MRS	116.93009849998634	3.997258340008557								7	Pre-Jitter		
19	3007	2024_Jul_27_1335	f	1	r	SS MRS	120.97128590001375	15.015094159985892			Left Leg		48.5			15	Heat-Stimulation		
20	3007	2024_Jul_27_1335	f	1	r	SS MRS	136.06067690000054	7.0032193399674725								8	Mid-Jitter		
21	3007	2024_Jul_27_1335	f	1	r	SS MRS	143.08908380000503	5.013327120017493								20	PainBinary		1.0
22	3007	2024_Jul_27_1335	f	1	r	SS MRS	148.114686099987	5.012251780019142								21	IntensityRating		42.839506172839506
23	3007	2024_Jul_27_1335	f	1	r	SS MRS	153.14631909999298	4.999082880007336								22	ToleranceRating		1.0
24	3007	2024_Jul_27_1335	f	1	r	SS MRS	158.15028420000453	7.007831239985535								9	Post-Q-Jitter		
25	3007	2024_Jul_27_1335	f	1	r	SS MRS	167.6864510999876	2.001910279970616								6	Cue		
26	3007	2024_Jul_27_1335	f	1	r	SS MRS	169.6971942000091	5.997565140016377								7	Pre-Jitter		
27	3007	2024_Jul_27_1335	f	1	r	SS MRS	175.733444100013	15.0086506200023			Left Leg		48.5			15	Heat-Stimulation		
28	3007	2024_Jul_27_1335	f	1	r	SS MRS	190.82178769999882	5.015527440002188								8	Mid-Jitter		
29	3007	2024_Jul_27_1335	f	1	r	SS MRS	195.84952829999384	5.01029108001967								20	PainBinary		1.0
30	3007	2024_Jul_27_1335	f	1	r	SS MRS	200.88153710000915	5.0130800799815916								21	IntensityRating		45.925925925925924
31	3007	2024_Jul_27_1335	f	1	r	SS MRS	205.91356479999376	4.999177480029175								22	ToleranceRating		1.0
32	3007	2024_Jul_27_1335	f	1	r	SS MRS	210.91705089999596	5.024559240002418								9	Post-Q-Jitter		
33	3007	2024_Jul_27_1335	f	1	r	SS MRS	218.4424977999879	2.006709939974826								6	Cue		
34	3007	2024_Jul_27_1335	f	1	r	SS MRS	220.4482549999957	7.996579640021082								7	Pre-Jitter		
35	3007	2024_Jul_27_1335	f	1	r	SS MRS	228.4870957999956	15.002529919991503			Left Leg		48.5			15	Heat-Stimulation		
36	3007	2024_Jul_27_1335	f	1	r	SS MRS	243.57517779999762	9.009995639993576								8	Mid-Jitter		
37	3007	2024_Jul_27_1335	f	1	r	SS MRS	252.60144699999364	5.007765380025376								20	PainBinary		1.0
38	3007	2024_Jul_27_1335	f	1	r	SS MRS	257.63246130000334	5.01254758000141								21	IntensityRating		48.02469135802469
39	3007	2024_Jul_27_1335	f	1	r	SS MRS	262.6637413999997	5.000070779991802								22	ToleranceRating		1.0
40	3007	2024_Jul_27_1335	f	1	r	SS MRS	267.66810189999524	9.008025640039705								9	Post-Q-Jitter		
41	3007	2024_Jul_27_1335	f	1	r	SS MRS	279.19047319999663	2.013085479993606								6	Cue		
42	3007	2024_Jul_27_1335	f	1	r	SS MRS	281.1984528999892	3.997561839991249								7	Pre-Jitter		
43	3007	2024_Jul_27_1335	f	1	r	SS MRS	285.2355002000113	15.00701411999762			Left Leg		48.5			15	Heat-Stimulation		
44	3007	2024_Jul_27_1335	f	1	r	SS MRS	300.3239781000011	7.013645239989273								8	Mid-Jitter		
45	3007	2024_Jul_27_1335	f	1	r	SS MRS	307.35128010000335	5.009293380018789								20	PainBinary		1.0
46	3007	2024_Jul_27_1335	f	1	r	SS MRS	312.3836736000085	5.011309980007354								21	IntensityRating		52.160493827160494
47	3007	2024_Jul_27_1335	f	1	r	SS MRS	317.41383619999397	5.001084780029487								22	ToleranceRating		1.0
48	3007	2024_Jul_27_1335	f	1	r	SS MRS	322.41858619998675	7.00827253999887								9	Post-Q-Jitter		
49	3007	2024_Jul_27_1335	f	1	r	SS MRS	331.69907450000755	2.013826779992087								6	Cue		
50	3007	2024_Jul_27_1335	f	1	r	SS MRS	333.7167683999869	6.028853239986347								7	Pre-Jitter		
51	3007	2024_Jul_27_1335	f	1	r	SS MRS	339.80418669999926	15.004254859988578			Left Leg		48.5			15	Heat-Stimulation		
52	3007	2024_Jul_27_1335	f	1	r	SS MRS	354.89097390000825	9.01419314002851								8	Mid-Jitter		
53	3007	2024_Jul_27_1335	f	1	r	SS MRS	363.9187294000003	5.00897178001469								20	PainBinary		1.0
54	3007	2024_Jul_27_1335	f	1	r	SS MRS	368.94997749998583	5.013322479993803								21	IntensityRating		51.60493827160494
55	3007	2024_Jul_27_1335	f	1	r	SS MRS	373.9820032000134	4.999364079994848								22	ToleranceRating		1.0
56	3007	2024_Jul_27_1335	f	1	r	SS MRS	378.9859568999964	9.008178140007658								9	Post-Q-Jitter		
57	3007	2024_Jul_27_1335	f	1	r	SS MRS	388.0257266999979	36.212590920040384								26	ComfortRating	36.184032999997726	-14.814814814814824
58	3007	2024_Jul_27_1335	f	1	r	SS MRS	424.25764240001445	15.066014819982229								24	ValenceRating	15.033839699986856	69.38271604938272
59	3007	2024_Jul_27_1335	f	1	r	SS MRS	439.33304319999297	4.465465979999863								26	IntensityRating	4.450402699992992	64.93827160493827
60	3007	2024_Jul_27_1335	f	1	r	SS MRS	443.8193908999965	7.97623258002568								27	AvoidanceRating	7.950272500020219	38.765432098765444
61	3007	2024_Jul_27_1335	f	1	r	SS MRS	451.8151746999938	5.684811479994096								28	RelaxationRating	5.667031599994516	35.37037037037037
62	3007	2024_Jul_27_1335	f	1	r	SS MRS	457.5192483999999	9.610187979997136								29	AttentionRating	9.583500000007916	86.41975308641975
63	3007	2024_Jul_27_1335	f	1	r	SS MRS	467.14827080001123	10.63569547998486								30	BoredomRating	10.617118299996946	36.60493827160494
64	3007	2024_Jul_27_1335	f	1	r	SS MRS	477.80028950000997	7.415245279989904								31	AlertnessRating	7.400337200000649	25.925925925925924
65	3007	2024_Jul_27_1335	f	1	r	SS MRS	485.23456529999385	5.430112980044214								32	PosThxRating	5.400069900002563	-31.604938271604937
66	3007	2024_Jul_27_1335	f	1	r	SS MRS	490.6839850000106	3.41465647998848								33	NegThxRating	3.4004864000016823	27.53086419753086
67	3007	2024_Jul_27_1335	f	1	r	SS MRS	494.11652760001016	8.049780980014475								34	SelfRating	8.033714399993187	24.320987654320987
68	3007	2024_Jul_27_1335	f	1	r	SS MRS	502.183901899989	5.248506179981632								35	OtherRating	5.219615000009071	-12.345679012345684
69	3007	2024_Jul_27_1335	f	1	r	SS MRS	507.4517088000139	6.696383480011718								32	ImageryRating	6.666895600006683	-35.308641975308646
70	3007	2024_Jul_27_1335	f	1	r	SS MRS	514.170999599999	5.474601980007719								37	PresentRating	5.450210699986201	53.0864197530864
