	SID	date	sex	session	handedness	scanner	onset	duration	repetition	rating	body_site	keys	temperature	conditionrt	mouseclick	biopac_channel	condition	rt	value
0	1102	2023_Jan_28_1201	M	01	R	MH BG	2.7745795999653637	5.000120728975162								19	Instructions		
1	1102	2023_Jan_28_1201	M	01	R	MH BG	8.684381200000644	2.0140060598496348								6	Cue		
2	1102	2023_Jan_28_1201	M	01	R	MH BG	10.698448800016195	8.002726559760049								7	Pre-Jitter		
3	1102	2023_Jan_28_1201	M	01	R	MH BG	18.756073100026697	15.004314639838412			Right Leg		48.0			16	Heat-Stimulation		
4	1102	2023_Jan_28_1201	M	01	R	MH BG	33.83664210001007	7.010070760268718								8	Mid-Jitter		
5	1102	2023_Jan_28_1201	M	01	R	MH BG	40.86209070007317	5.009305119980127								20	PainBinary	3.969059000024572	1.0
6	1102	2023_Jan_28_1201	M	01	R	MH BG	45.894684500060976	5.010967319831252								21	IntensityRating		38.51851851851851
7	1102	2023_Jan_28_1201	M	01	R	MH BG	50.92535280017182	4.999619419919327								22	ToleranceRating	2.8003446999937296	1.0
8	1102	2023_Jan_28_1201	M	01	R	MH BG	55.92979099997319	7.0075131598860025								9	Post-Q-Jitter		
9	1102	2023_Jan_28_1201	M	01	R	MH BG	64.44949769997038	2.001544959144667								6	Cue		
10	1102	2023_Jan_28_1201	M	01	R	MH BG	66.45991940004751	7.997456960147247								7	Pre-Jitter		
11	1102	2023_Jan_28_1201	M	01	R	MH BG	74.48924900009297	15.005681780166924			Right Leg		48.5			16	Heat-Stimulation		
12	1102	2023_Jan_28_1201	M	01	R	MH BG	89.56565720005892	5.0030698999762535								8	Mid-Jitter		
13	1102	2023_Jan_28_1201	M	01	R	MH BG	94.59534160001203	5.010489420033991								20	PainBinary	4.266756300115958	1.0
14	1102	2023_Jan_28_1201	M	01	R	MH BG	99.62824540003203	5.011495020007715								21	IntensityRating	4.433410200057551	41.04938271604938
15	1102	2023_Jan_28_1201	M	01	R	MH BG	104.65860419999808	5.000856620026752								22	ToleranceRating	2.566988999955356	1.0
16	1102	2023_Jan_28_1201	M	01	R	MH BG	109.66419879999012	5.006404760060832								9	Post-Q-Jitter		
17	1102	2023_Jan_28_1201	M	01	R	MH BG	115.3186401000712	2.014282799558714								6	Cue		
18	1102	2023_Jan_28_1201	M	01	R	MH BG	117.32699139998294	5.997611359925941								7	Pre-Jitter		
19	1102	2023_Jan_28_1201	M	01	R	MH BG	123.38148490013555	15.005500139901415			Right Leg		48.5			16	Heat-Stimulation		
20	1102	2023_Jan_28_1201	M	01	R	MH BG	138.46712930011563	5.000995900016278								8	Mid-Jitter		
21	1102	2023_Jan_28_1201	M	01	R	MH BG	143.49707030015998	5.0078815198503435								20	PainBinary	2.0334121000487357	1.0
22	1102	2023_Jan_28_1201	M	01	R	MH BG	148.5281078000553	5.012681919848546								21	IntensityRating	4.468885000096634	43.08641975308642
23	1102	2023_Jan_28_1201	M	01	R	MH BG	153.55923330015503	5.000532920006663								22	ToleranceRating	2.1669987000059336	1.0
24	1102	2023_Jan_28_1201	M	01	R	MH BG	158.5642719999887	5.007214659824967								9	Post-Q-Jitter		
25	1102	2023_Jan_28_1201	M	01	R	MH BG	164.22113010007888	2.01026039943099								6	Cue		
26	1102	2023_Jan_28_1201	M	01	R	MH BG	166.2280049000401	7.996624760096893								7	Pre-Jitter		
27	1102	2023_Jan_28_1201	M	01	R	MH BG	174.26747920014895	15.001235080184415			Right Leg		48.5			16	Heat-Stimulation		
28	1102	2023_Jan_28_1201	M	01	R	MH BG	189.35100920009427	9.001057000132278								8	Mid-Jitter		
29	1102	2023_Jan_28_1201	M	01	R	MH BG	198.3801738000475	5.009487919975072								20	PainBinary	2.450096699874848	1.0
30	1102	2023_Jan_28_1201	M	01	R	MH BG	203.41200880007818	5.012705619912595								21	IntensityRating		62.65432098765432
31	1102	2023_Jan_28_1201	M	01	R	MH BG	208.44356020004489	4.999618320027366								22	ToleranceRating	3.9337722999043763	1.0
32	1102	2023_Jan_28_1201	M	01	R	MH BG	213.44807790010236	9.007359659764916								9	Post-Q-Jitter		
33	1102	2023_Jan_28_1201	M	01	R	MH BG	223.93814950017259	2.010721199447289								6	Cue		
34	1102	2023_Jan_28_1201	M	01	R	MH BG	225.94525520014577	5.99660146003589								7	Pre-Jitter		
35	1102	2023_Jan_28_1201	M	01	R	MH BG	231.98467270005494	15.001299979863688			Right Leg		48.5			16	Heat-Stimulation		
36	1102	2023_Jan_28_1201	M	01	R	MH BG	247.06913230009377	5.015895560150966								8	Mid-Jitter		
37	1102	2023_Jan_28_1201	M	01	R	MH BG	252.0971862000879	5.00991271995008								20	PainBinary	1.900071500102058	1.0
38	1102	2023_Jan_28_1201	M	01	R	MH BG	257.1293920001481	5.0122610200196505								21	IntensityRating	3.6668074999470264	43.333333333333336
39	1102	2023_Jan_28_1201	M	01	R	MH BG	262.1596619000193	5.001872319960967								22	ToleranceRating	1.5029370998963714	1.0
40	1102	2023_Jan_28_1201	M	01	R	MH BG	267.165358300088	5.0072541600093246								9	Post-Q-Jitter		
41	1102	2023_Jan_28_1201	M	01	R	MH BG	272.83005600003526	2.0112015998456627								6	Cue		
42	1102	2023_Jan_28_1201	M	01	R	MH BG	274.84539719996974	5.997234360082075								7	Pre-Jitter		
43	1102	2023_Jan_28_1201	M	01	R	MH BG	280.8881382001564	15.011981939896941			Right Leg		48.5			16	Heat-Stimulation		
44	1102	2023_Jan_28_1201	M	01	R	MH BG	295.96991099999286	5.015291359974071								8	Mid-Jitter		
45	1102	2023_Jan_28_1201	M	01	R	MH BG	300.99777720007114	5.009624419966713								20	PainBinary	2.0334756998345256	1.0
46	1102	2023_Jan_28_1201	M	01	R	MH BG	306.03038660017774	5.011228219838813								21	IntensityRating	3.2000714999157935	48.148148148148145
47	1102	2023_Jan_28_1201	M	01	R	MH BG	311.06057910015807	5.000921519938856								22	ToleranceRating	1.86698539997451	1.0
48	1102	2023_Jan_28_1201	M	01	R	MH BG	316.0661534999963	5.006532860221341								9	Post-Q-Jitter		
49	1102	2023_Jan_28_1201	M	01	R	MH BG	322.5727049000561	2.010243059368804								6	Cue		
50	1102	2023_Jan_28_1201	M	01	R	MH BG	324.57963870000094	7.996476159896702								7	Pre-Jitter		
51	1102	2023_Jan_28_1201	M	01	R	MH BG	332.6145385999698	15.01024958002381			Right Leg		48.5			16	Heat-Stimulation		
52	1102	2023_Jan_28_1201	M	01	R	MH BG	347.70350030018017	5.015866260044277								8	Mid-Jitter		
53	1102	2023_Jan_28_1201	M	01	R	MH BG	352.7325285000261	5.007875120034441								20	PainBinary	2.6834625999908894	1.0
54	1102	2023_Jan_28_1201	M	01	R	MH BG	357.7632553000003	4.9965226200874895								21	IntensityRating	3.167505799792707	41.2962962962963
55	1102	2023_Jan_28_1201	M	01	R	MH BG	362.77775990008377	5.000973620219156								22	ToleranceRating	1.5336404000408947	1.0
56	1102	2023_Jan_28_1201	M	01	R	MH BG	367.78328269999474	5.006688560126349								9	Post-Q-Jitter		
57	1102	2023_Jan_28_1201	M	01	R	MH BG	372.8222243001219	10.779029479948804								26	ComfortRating	10.750338100129738	4.074074074074076
58	1102	2023_Jan_28_1201	M	01	R	MH BG	383.619589000009	11.267853120109066								24	ValenceRating	11.250398600008339	54.1358024691358
59	1102	2023_Jan_28_1201	M	01	R	MH BG	394.91215240000747	5.79961952008307								26	IntensityRating	5.7837038999423385	62.77777777777778
60	1102	2023_Jan_28_1201	M	01	R	MH BG	400.7315597999841	7.8442429199349135								27	AvoidanceRating	7.802938899956644	-18.518518518518505
61	1102	2023_Jan_28_1201	M	01	R	MH BG	408.59357760008425	5.2036785199306905								28	RelaxationRating	5.169826099881902	35.55555555555556
62	1102	2023_Jan_28_1201	M	01	R	MH BG	413.8141913001891	7.0958961197175086								29	AttentionRating	7.066840199986473	66.48148148148148
63	1102	2023_Jan_28_1201	M	01	R	MH BG	420.92847990011796	4.267443320015445								30	BoredomRating	4.250349400099367	35.8641975308642
64	1102	2023_Jan_28_1201	M	01	R	MH BG	425.2120902000461	7.683674820000306								31	AlertnessRating	7.667031699791551	52.09876543209876
65	1102	2023_Jan_28_1201	M	01	R	MH BG	432.91267570015043	8.066008519846946								32	PosThxRating	8.05040860013105	1.481481481481481
66	1102	2023_Jan_28_1201	M	01	R	MH BG	440.9959786001127	3.7828765201848								33	NegThxRating	3.7671229999978095	-0.49382716049382225
67	1102	2023_Jan_28_1201	M	01	R	MH BG	444.7958470999729	6.449893619865179								34	SelfRating	6.433749200077727	9.876543209876544
68	1102	2023_Jan_28_1201	M	01	R	MH BG	451.26272200001404	8.832979619968683								35	OtherRating	8.80272340006195	-11.23456790123457
69	1102	2023_Jan_28_1201	M	01	R	MH BG	460.1138000001665	10.080993520095944								32	ImageryRating	10.067928500007838	-11.604938271604937
70	1102	2023_Jan_28_1201	M	01	R	MH BG	470.2162908001337	7.892840120010078								37	PresentRating	7.8526101999450475	59.382716049382736
