	onset	duration	rt	response	correct	bodySite	temperature	condition	pretrial-jitter
0	9.760153900133446	20.00005859020166				Left Face	49.0	Rest-Stim	7.0
1	29.76034709997475	6.999893889995292				Left Face		PostTrialFixation	
2	36.760772899957374	5.016136290039867		46.48148148148148		Left Face	49.0	Rest-Stim Rating	7.0
3	44.777135600103065	20.00003808992915				Left Face	49.0	Rest-Stim	3.0
4	64.77732780016959	3.016526689985767				Left Face		PostTrialFixation	
5	67.77898439997807	5.013608189998195		46.35802469135803		Left Face	49.0	Rest-Stim Rating	3.0
6	79.79411070002243	20.000117890071124				Left Face	49.0	Rest-Stim	7.0
7	99.79431220004335	5.016522289952263				Left Face		PostTrialFixation	
8	104.79625050001778	5.013030790025368		44.44444444444444		Left Face	49.0	Rest-Stim Rating	5.0
9	109.80300100008026	114.81132460013032				Left Face	49.0	2back Instructions	
10	119.82141410000622	1.9960048899520189			1.0	Left Face	32.0	2back-nostim	
11	121.83112820005044	2.0099583899136633			1.0	Left Face	32.0	2back-nostim	5.0
12	123.84734770003706	2.010836790082976	0.5335752000100911	0.0	1.0	Left Face	32.0	2back-nostim	
13	125.86408860003576	2.010746290208772	0.0	2.0	1.0	Left Face	32.0	2back-nostim	
14	127.88083080016077	2.0106691899709404	0.0	2.0	1.0	Left Face	32.0	2back-nostim	
15	129.8974347000476	2.010810590116307	0.0	2.0	1.0	Left Face	32.0	2back-nostim	
16	131.91418860014528	2.010665290057659	0.43355710012838244	0.0	1.0	Left Face	32.0	2back-nostim	
17	133.93095290008932	2.010538389906287	0.0	2.0	1.0	Left Face	32.0	2back-nostim	
18	135.94809780013748	2.009586689993739	0.0	2.0	1.0	Left Face	32.0	2back-nostim	
19	137.96426460007206	2.0106338900513947	0.4168777000159025	0.0	1.0	Left Face	32.0	2back-nostim	
20	144.98855310003273	149.99469160009176				Left Face	49.0	2back Instructions	
21	155.00276790000498	2.00058019021526			1.0	Left Face	32.0	2back-nostim	
22	157.01490980014205	2.0096821901388466			1.0	Left Face	32.0	2back-nostim	5.0
23	159.03101480007172	2.0108431898988783	0.0	2.0	1.0	Left Face	32.0	2back-nostim	
24	161.0476331000682	2.0109634899999946	0.0	2.0	1.0	Left Face	32.0	2back-nostim	
25	163.06484610005282	2.009943990036845	0.41933370009064674	0.0	1.0	Left Face	32.0	2back-nostim	
26	165.08100900007412	2.010916589992121	0.4669032001402229	0.0	1.0	Left Face	32.0	2back-nostim	
27	167.0978163999971	2.010722989914939	0.0	2.0	1.0	Left Face	32.0	2back-nostim	
28	169.11458280007355	2.010548389982432	0.0	2.0	1.0	Left Face	32.0	2back-nostim	
29	171.13118500006385	2.0107070899102837	0.0	2.0	1.0	Left Face	32.0	2back-nostim	
30	173.1477582999505	2.0108465899247676	0.45282420003786683	0.0	1.0	Left Face	32.0	2back-nostim	
31	180.17195610003546	185.1783328000456				Left Face	49.0	2back Instructions	
32	190.1867963001132	1.999844090314582			1.0	Left Face	32.0	2back-nostim	
33	192.19834910007194	2.010009789839387			1.0	Left Face	32.0	2back-nostim	5.0
34	194.21470500016585	2.0107578900642693	0.0	2.0	1.0	Left Face	32.0	2back-nostim	
35	196.2312998000998	2.0109412900637835	0.0	2.0	1.0	Left Face	32.0	2back-nostim	
36	198.24811689998023	2.0106405899859965	0.4835474998690188	0.0	1.0	Left Face	32.0	2back-nostim	
37	200.26469169999473	2.01090028998442	0.0	2.0	1.0	Left Face	32.0	2back-nostim	
38	202.28170370007865	2.010211689863354	0.0	2.0	1.0	Left Face	32.0	2back-nostim	
39	204.29811990004964	2.0107746897265315	0.8169003999792039	0.0	1.0	Left Face	32.0	2back-nostim	
40	206.3149986001663	2.010413190117106	0.0	2.0	1.0	Left Face	32.0	2back-nostim	
41	208.33141040010378	2.0109269900713116	0.0	2.0	1.0	Left Face	32.0	2back-nostim	
42	215.35527759999968	220.3618596000597				Left Face	32.0	2back Instructions	
43	225.37021780014038	2.000283290166408			1.0	Left Face	49.0	2back-stim	
44	227.3821147000417	2.009882190031931			1.0	Left Face	49.0	2back-stim	5.0
45	229.39827000000514	2.0109191900119185	0.8002207998652011	0.0	1.0	Left Face	49.0	2back-stim	
46	231.4150742001366	2.010735590243712	0.0	2.0	1.0	Left Face	49.0	2back-stim	
47	233.500215300126	1.9404525498393923	0.0	2.0	1.0	Left Face	49.0	2back-stim	
48	235.44845310016535	2.010641389992088	0.0	2.0	1.0	Left Face	49.0	2back-stim	
49	237.465068400139	2.0107976901344955	0.0	2.0	1.0	Left Face	49.0	2back-stim	
50	239.48177670012228	2.0107885899487883	0.0	2.0	1.0	Left Face	49.0	2back-stim	
51	241.4990575001575	2.009514190023765	0.6835394999943674	0.0	1.0	Left Face	49.0	2back-stim	
52	243.51510660001077	2.0108336901757866	0.0	2.0	1.0	Left Face	49.0	2back-stim	
53	250.5330513000954	5.008751889923587		35.98765432098765		Left Face	49.0	2back-stim Rating	5.0
54	255.53880350012332	260.54590860009193				Left Face	32.0	2back Instructions	
55	265.57059650006704	1.9835766900796443			1.0	Left Face	49.0	2back-stim	
56	267.5659874000121	2.0094946899916977			1.0	Left Face	49.0	2back-stim	5.0
57	269.5820473001804	2.0107505896594375	0.0	2.0	1.0	Left Face	49.0	2back-stim	
58	271.59859460010193	2.011058289790526	0.0	2.0	0.0	Left Face	49.0	2back-stim	
59	273.65517370007	1.9645552700385451	0.0	2.0	1.0	Left Face	49.0	2back-stim	
60	275.6321857001167	2.0105855900328606	0.0	2.0	1.0	Left Face	49.0	2back-stim	
61	277.6487648000475	2.0108062899671495	0.0	2.0	1.0	Left Face	49.0	2back-stim	
62	279.6653462999966	2.0109866899438202	0.41686049988493323	0.0	1.0	Left Face	49.0	2back-stim	
63	281.6820592000149	2.0109428900759667	0.0	2.0	1.0	Left Face	49.0	2back-stim	
64	283.6987712001428	2.010909690055996	0.5002378998324275	0.0	1.0	Left Face	49.0	2back-stim	
65	292.7162632001564	5.009740289999172		35.123456790123456		Left Face	49.0	2back-stim Rating	7.0
66	297.72120700008236	302.7296951999888				Left Face	32.0	2back Instructions	
67	305.7543656001799	2.000085690058768			1.0	Left Face	49.0	2back-stim	
68	307.76647160016	2.0092698901426047			1.0	Left Face	49.0	2back-stim	3.0
69	309.78226330014877	2.011031090049073	0.6168881999328732	0.0	1.0	Left Face	49.0	2back-stim	
70	311.79918740014546	2.0104620901402086	0.0	2.0	1.0	Left Face	49.0	2back-stim	
71	313.86681980011053	1.9586436601821333	0.6168150000739843	0.0	1.0	Left Face	49.0	2back-stim	
72	315.8325441000052	2.010628790128976	0.0	2.0	1.0	Left Face	49.0	2back-stim	
73	317.8491517000366	2.0107307902071625	0.0	2.0	1.0	Left Face	49.0	2back-stim	
74	319.8657929999754	2.0108251902274787	0.0	2.0	1.0	Left Face	49.0	2back-stim	
75	321.8824724999722	2.010833589825779	0.0	2.0	1.0	Left Face	49.0	2back-stim	
76	323.8991909001488	2.010782590135932	0.583557500038296	0.0	1.0	Left Face	49.0	2back-stim	
77	330.91684730001725	5.009258989710361		30.74074074074074		Left Face	49.0	2back-stim Rating	5.0
78	340.9145394000225	20.01382029009983				Left Face	32.0	Rest-NoStim	5.0
79	360.91471250006	5.0137028901372105				Left Face		PostTrialFixation	
80	370.91583589999937	20.011832890100777				Left Face	32.0	Rest-NoStim	5.0
81	390.915668200003	5.012273190077394				Left Face		PostTrialFixation	
82	400.9157947001513	20.01245988998562				Left Face	32.0	Rest-NoStim	5.0
83	420.9155970001593	3.0130562901031226				Left Face		PostTrialFixation	
84	423.9220934000332	428.93216209998354				Left Face	32.0	2back Instructions	
85	435.9557821000926	1.9828835900407284			1.0	Left Face	49.0	2back-stim	
86	437.9506447999738	2.009905789978802			1.0	Left Face	49.0	2back-stim	7.0
87	439.96692020003684	2.0107670901343226	0.0	2.0	1.0	Left Face	49.0	2back-stim	
88	441.98353560012765	2.010855090105906	0.0	2.0	1.0	Left Face	49.0	2back-stim	
89	444.0359479000326	1.9727293699979782	0.4998890000861138	0.0	1.0	Left Face	49.0	2back-stim	
90	446.0170752000995	2.010616790270433	0.0	2.0	1.0	Left Face	49.0	2back-stim	
91	448.03361509996466	2.010782190132886	0.7502132998779416	0.0	1.0	Left Face	49.0	2back-stim	
92	450.0504654000979	2.0104830900672823	0.0	2.0	1.0	Left Face	49.0	2back-stim	
93	452.0669033001177	2.0109814901370555	0.4835682001430541	0.0	1.0	Left Face	49.0	2back-stim	
94	454.08366390015	2.010825389996171	0.9168993998318911	0.0	1.0	Left Face	49.0	2back-stim	
95	463.1013845000416	5.0092363900039345		32.77777777777778		Left Face	49.0	2back-stim Rating	7.0
96	468.1070894000586	473.11456550005823				Left Face	32.0	2back Instructions	
97	476.13900350010954	1.9838168900460005			1.0	Left Face	49.0	2back-stim	
98	478.13437770004384	2.0098343901336193			1.0	Left Face	49.0	2back-stim	3.0
99	480.1505102000665	2.010913989972323	0.8501987000927329	0.0	1.0	Left Face	49.0	2back-stim	
100	482.1672299001366	2.0108535902108997	0.0	2.0	1.0	Left Face	49.0	2back-stim	
101	484.2302586999722	1.9515212699770927	0.0	2.0	1.0	Left Face	49.0	2back-stim	
102	486.200631899992	2.010799289913848	0.0	2.0	1.0	Left Face	49.0	2back-stim	
103	488.21735380007885	2.0107196900062263	0.4502156001981348	0.0	1.0	Left Face	49.0	2back-stim	
104	490.2340188000817	2.010716989869252	0.4528119000606239	0.0	1.0	Left Face	49.0	2back-stim	
105	492.2507227000315	2.0106380900833756	1.100263100117445	0.0	1.0	Left Face	49.0	2back-stim	
106	494.26758450013585	2.01037758984603	0.0	2.0	1.0	Left Face	49.0	2back-stim	
107	501.2850769001525	5.009196389932185		33.02469135802469		Left Face	49.0	2back-stim Rating	5.0
108	506.2899303000886	511.2982370001264				Left Face	32.0	2back Instructions	
109	516.3231357999612	1.9829662900883704			1.0	Left Face	49.0	2back-stim	
110	518.3181752001401	2.0096229899208993			1.0	Left Face	49.0	2back-stim	5.0
111	520.3344599001575	2.0103974901139736	0.4501936000306159	0.0	1.0	Left Face	49.0	2back-stim	
112	522.3513071001507	2.0101036899723113	0.0	2.0	1.0	Left Face	49.0	2back-stim	
113	524.403018400073	1.9732948699966073	0.0	2.0	1.0	Left Face	49.0	2back-stim	
114	526.3847370999865	2.0100314901210368	0.0	2.0	1.0	Left Face	49.0	2back-stim	
115	528.40132179996	2.0101981898769736	0.4002332999370992	0.0	1.0	Left Face	49.0	2back-stim	
116	530.4176495999563	2.0108874898869544	0.0	2.0	1.0	Left Face	49.0	2back-stim	
117	532.4345215000212	2.0105200898833573	0.0	2.0	1.0	Left Face	49.0	2back-stim	
118	534.4510026001371	2.010918390005827	0.7335286000743508	0.0	1.0	Left Face	49.0	2back-stim	
119	539.4681989999954	5.0103310900740325		32.77777777777778		Left Face	49.0	2back-stim Rating	3.0
120	551.4816701000091	20.000005590030923				Left Face	49.0	Rest-Stim	7.0
121	571.4818659999873	5.01654549036175				Left Face		PostTrialFixation	
122	576.4846672001295	5.011403789976612		38.02469135802469		Left Face	49.0	Rest-Stim Rating	5.0
123	586.4986437000334	20.000046089990065				Left Face	49.0	Rest-Stim	5.0
124	606.498831700068	3.0165375901851803				Left Face		PostTrialFixation	
125	609.5014077001251	5.011817489983514		43.39506172839506		Left Face	49.0	Rest-Stim Rating	3.0
126	621.5156221000943	20.000053990166634				Left Face	49.0	Rest-Stim	7.0
127	641.5158208999783	6.999895990127698				Left Face		PostTrialFixation	
128	648.5162450000644	5.016169290291145		42.59259259259259		Left Face	49.0	Rest-Stim Rating	7.0
