RestT1,TaskT1,square,location,corrAns,counterbalancer.thisRepN,counterbalancer.thisTrialN,counterbalancer.thisN,counterbalancer.thisIndex,RestT1Loop.thisRepN,RestT1Loop.thisTrialN,RestT1Loop.thisN,RestT1Loop.thisIndex,TaskT1Loop.thisRepN,TaskT1Loop.thisTrialN,TaskT1Loop.thisN,TaskT1Loop.thisIndex,trials_2.thisRepN,trials_2.thisTrialN,trials_2.thisN,trials_2.thisIndex,NbackInstructions.started,NbackInstructions.stopped,NbackStart.keys,NbackStart.rt,NbackStart.started,NbackStart.stopped,fixation_2.started,fixation_2.stopped,response_2.x,response_2.y,response_2.leftButton,grid_lines_2.started,grid_lines_2.stopped,target_square_2.started,target_square_2.stopped,fixation_3.started,fixation_3.stopped,response_2.click,response_2.corr,response_2.started,response_2.stopped,fixation_1.started,fixation_1.stopped,subject number,gender,session,handedness,scanner,date,expName,psychopyVersion,frameRate,
0,1,,,,0,0,0,0,,,,,0,0,0,0,,,,,29.266858299961314,None,space,58.2760438999976,29.266858299961314,None,,,,,,,,,,,,,,,,,,1002,m,5,r,SK,2022_Jan_21_2013,WASABI Nback,2020.2.10,59.99131326153367,
0,1,5,"[0, 0]",None,0,0,0,0,,,,,0,0,0,0,0,0,0,0,,,,,,,None,None,None,None,[],None,None,None,None,None,None,[],[],None,None,,,1002,m,5,r,SK,2022_Jan_21_2013,WASABI Nback,2020.2.10,59.99131326153367,
0,1,2,"[0, 0.2]",None,0,0,0,0,,,,,0,0,0,0,0,1,1,1,,,,,,,,,None,None,[],None,None,None,None,None,None,[],[],None,None,,,1002,m,5,r,SK,2022_Jan_21_2013,WASABI Nback,2020.2.10,59.99131326153367,
0,1,6,"[0.2, 0]",None,0,0,0,0,,,,,0,0,0,0,0,2,2,2,,,,,,,,,None,None,[],None,None,None,None,None,None,[],[],None,None,,,1002,m,5,r,SK,2022_Jan_21_2013,WASABI Nback,2020.2.10,59.99131326153367,
0,1,9,"[0.2, -0.2]",None,0,0,0,0,,,,,0,0,0,0,0,3,3,3,,,,,,,,,None,None,[],None,None,None,None,None,None,[],[],None,None,,,1002,m,5,r,SK,2022_Jan_21_2013,WASABI Nback,2020.2.10,59.99131326153367,
0,1,3,"[0.2, 0.2]",None,0,0,0,0,,,,,0,0,0,0,0,4,4,4,,,,,,,,,None,None,[],None,None,None,None,None,None,[],[],None,None,,,1002,m,5,r,SK,2022_Jan_21_2013,WASABI Nback,2020.2.10,59.99131326153367,
0,1,9,"[0.2, -0.2]",1,0,0,0,0,,,,,0,0,0,0,0,5,5,5,,,,,,,,,None,None,[],None,None,None,None,None,None,[],[],None,None,,,1002,m,5,r,SK,2022_Jan_21_2013,WASABI Nback,2020.2.10,59.99131326153367,
0,1,7,"[-0.2, -0.2]",None,0,0,0,0,,,,,0,0,0,0,0,6,6,6,,,,,,,,,None,None,[],None,None,None,None,None,None,[],[],None,None,,,1002,m,5,r,SK,2022_Jan_21_2013,WASABI Nback,2020.2.10,59.99131326153367,
0,1,1,"[-0.2, 0.2]",None,0,0,0,0,,,,,0,0,0,0,0,7,7,7,,,,,,,,,None,None,[],None,None,None,None,None,None,[],[],None,None,,,1002,m,5,r,SK,2022_Jan_21_2013,WASABI Nback,2020.2.10,59.99131326153367,
0,1,5,"[0, 0]",None,0,0,0,0,,,,,0,0,0,0,0,8,8,8,,,,,,,,,None,None,[],None,None,None,None,None,None,[],[],None,None,,,1002,m,5,r,SK,2022_Jan_21_2013,WASABI Nback,2020.2.10,59.99131326153367,
0,1,7,"[-0.2, -0.2]",None,0,0,0,0,,,,,0,0,0,0,0,9,9,9,,,,,,,,,None,None,[],None,None,None,None,None,None,[],[],None,None,,,1002,m,5,r,SK,2022_Jan_21_2013,WASABI Nback,2020.2.10,59.99131326153367,
0,1,5,"[0, 0]",1,0,0,0,0,,,,,0,0,0,0,0,10,10,10,,,,,,,,,None,None,[],None,None,None,None,None,None,[],[],None,None,,,1002,m,5,r,SK,2022_Jan_21_2013,WASABI Nback,2020.2.10,59.99131326153367,
0,1,6,"[0.2, 0]",None,0,0,0,0,,,,,0,0,0,0,0,11,11,11,,,,,,,,,None,None,[],None,None,None,None,None,None,[],[],None,None,,,1002,m,5,r,SK,2022_Jan_21_2013,WASABI Nback,2020.2.10,59.99131326153367,
0,1,3,"[0.2, 0.2]",None,0,0,0,0,,,,,0,0,0,0,0,12,12,12,,,,,,,,,None,None,[],None,None,None,None,None,None,[],[],None,None,,,1002,m,5,r,SK,2022_Jan_21_2013,WASABI Nback,2020.2.10,59.99131326153367,
0,1,6,"[0.2, 0]",1,0,0,0,0,,,,,0,0,0,0,0,13,13,13,,,,,,,,,None,None,[],None,None,None,None,None,None,[],[],None,None,,,1002,m,5,r,SK,2022_Jan_21_2013,WASABI Nback,2020.2.10,59.99131326153367,
0,1,8,"[0, -0.2]",None,0,0,0,0,,,,,0,0,0,0,0,14,14,14,,,,,,,,,None,None,[],None,None,None,None,None,None,[],[],None,None,,,1002,m,5,r,SK,2022_Jan_21_2013,WASABI Nback,2020.2.10,59.99131326153367,
0,1,9,"[0.2, -0.2]",None,0,0,0,0,,,,,0,0,0,0,0,15,15,15,,,,,,,,,None,None,[],None,None,None,None,None,None,[],[],None,None,,,1002,m,5,r,SK,2022_Jan_21_2013,WASABI Nback,2020.2.10,59.99131326153367,
0,1,9,"[0.2, -0.2]",None,0,0,0,0,,,,,0,0,0,0,0,16,16,16,,,,,,,,,None,None,[],None,None,None,None,None,None,[],[],None,None,,,1002,m,5,r,SK,2022_Jan_21_2013,WASABI Nback,2020.2.10,59.99131326153367,
0,1,1,"[-0.2, 0.2]",None,0,0,0,0,,,,,0,0,0,0,0,17,17,17,,,,,,,,,None,None,[],None,None,None,None,None,None,[],[],None,None,,,1002,m,5,r,SK,2022_Jan_21_2013,WASABI Nback,2020.2.10,59.99131326153367,
0,1,3,"[0.2, 0.2]",None,0,0,0,0,,,,,0,0,0,0,0,18,18,18,,,,,,,,,None,None,[],None,None,None,None,None,None,[],[],None,None,,,1002,m,5,r,SK,2022_Jan_21_2013,WASABI Nback,2020.2.10,59.99131326153367,
0,1,5,"[0, 0]",None,0,0,0,0,,,,,0,0,0,0,0,19,19,19,,,,,,,,,None,None,0,126.8700502999709,None,126.8700502999709,127.8700559999561,127.8533846999635,None,0,1,126.8700502999709,None,,,1002,m,5,r,SK,2022_Jan_21_2013,WASABI Nback,2020.2.10,59.99131326153367,
0,1,3,"[0.2, 0.2]",1,0,0,0,0,,,,,0,0,0,0,0,20,20,20,,,,,,,,,None,None,0,128.58670649997657,None,128.58670649997657,129.58673390001059,129.57006729999557,130.57007660000818,0,0,128.58670649997657,None,,,1002,m,5,r,SK,2022_Jan_21_2013,WASABI Nback,2020.2.10,59.99131326153367,
0,1,4,"[-0.2, 0]",None,0,0,0,0,,,,,0,0,0,0,0,21,21,21,,,,,,,,,None,None,0,130.5867486000061,None,130.5867486000061,131.58671479998156,131.57006890000775,132.57009579997975,0,1,130.5867486000061,None,,,1002,m,5,r,SK,2022_Jan_21_2013,WASABI Nback,2020.2.10,59.99131326153367,
0,1,7,"[-0.2, -0.2]",None,0,0,0,0,,,,,0,0,0,0,0,22,22,22,,,,,,,,,None,None,0,132.5867645999533,None,132.5867645999533,133.58676769997692,133.57009479997214,134.570101899968,0,1,132.5867645999533,None,,,1002,m,5,r,SK,2022_Jan_21_2013,WASABI Nback,2020.2.10,59.99131326153367,
0,1,4,"[-0.2, 0]",1,0,0,0,0,,,,,0,0,0,0,0,23,23,23,,,,,,,,,None,None,0,134.58678239997244,None,134.58678239997244,135.58677950000856,135.57010609999998,136.57012379996013,0,1,134.58678239997244,None,,,1002,m,5,r,SK,2022_Jan_21_2013,WASABI Nback,2020.2.10,59.99131326153367,
0,1,4,"[-0.2, 0]",None,0,0,0,0,,,,,0,0,0,0,0,24,24,24,,,,,,,,,None,None,0,136.586778900004,None,136.586778900004,137.58670210000128,137.57011709996732,138.57014709996292,0,1,136.586778900004,None,,,1002,m,5,r,SK,2022_Jan_21_2013,WASABI Nback,2020.2.10,59.99131326153367,
0,1,5,"[0, 0]",None,0,0,0,0,,,,,0,0,0,0,0,25,25,25,,,,,,,,,None,None,0,138.586782999977,None,138.586782999977,139.58680589997675,139.57014500000514,140.57014399999753,0,1,138.586782999977,None,,,1002,m,5,r,SK,2022_Jan_21_2013,WASABI Nback,2020.2.10,59.99131326153367,
0,1,2,"[0, 0.2]",None,0,0,0,0,,,,,0,0,0,0,0,26,26,26,,,,,,,,,None,None,0,140.58681780000916,None,140.58681780000916,141.58683609997388,141.57017319998704,142.57016020000447,0,1,140.58681780000916,None,,,1002,m,5,r,SK,2022_Jan_21_2013,WASABI Nback,2020.2.10,59.99131326153367,
0,1,6,"[0.2, 0]",None,0,0,0,0,,,,,0,0,0,0,0,27,27,27,,,,,,,,,None,None,0,142.58683859999292,None,142.58683859999292,143.58685099997092,143.57017399999313,144.57019419997232,0,1,142.58683859999292,None,,,1002,m,5,r,SK,2022_Jan_21_2013,WASABI Nback,2020.2.10,59.99131326153367,
0,1,7,"[-0.2, -0.2]",None,0,0,0,0,,,,,0,0,0,0,0,28,28,28,,,,,,,,,None,None,0,144.58683210000163,None,144.58683210000163,145.58687969995663,145.5702050999971,146.57021309999982,0,1,144.58683210000163,None,,,1002,m,5,r,SK,2022_Jan_21_2013,WASABI Nback,2020.2.10,59.99131326153367,
0,1,6,"[0.2, 0]",1,0,0,0,0,,,,,0,0,0,0,0,29,29,29,,,,,,,,,None,None,0,146.58686999999918,None,146.58686999999918,147.5868960999651,147.57022639998468,148.57022649998544,0,1,146.58686999999918,None,,,1002,m,5,r,SK,2022_Jan_21_2013,WASABI Nback,2020.2.10,59.99131326153367,
0,1,6,"[0.2, 0]",None,0,0,0,0,,,,,0,0,0,0,0,30,30,30,,,,,,,,,None,None,0,148.58682589995442,None,148.58682589995442,149.5867234999896,149.57023499999195,150.57024659996387,0,1,148.58682589995442,None,,,1002,m,5,r,SK,2022_Jan_21_2013,WASABI Nback,2020.2.10,59.99131326153367,
0,1,7,"[-0.2, -0.2]",None,0,0,0,0,,,,,0,0,0,0,0,31,31,31,,,,,,,,,None,None,0,150.58689370000502,None,150.58689370000502,151.58690009999555,151.570237500011,152.5702495999867,0,0,150.58689370000502,None,,,1002,m,5,r,SK,2022_Jan_21_2013,WASABI Nback,2020.2.10,59.99131326153367,
0,1,6,"[0.2, 0]",1,0,0,0,0,,,,,0,0,0,0,0,32,32,32,,,,,,,,,None,None,0,152.5869428999722,None,152.5869428999722,153.58695279998938,153.57027719996404,154.57028059998993,0,1,152.5869428999722,None,,,1002,m,5,r,SK,2022_Jan_21_2013,WASABI Nback,2020.2.10,59.99131326153367,
0,1,2,"[0, 0.2]",None,0,0,0,0,,,,,0,0,0,0,0,33,33,33,,,,,,,,,None,None,0,154.5869749999838,None,154.5869749999838,155.5869669999811,155.57027490000473,156.5702971999999,0,1,154.5869749999838,None,,,1002,m,5,r,SK,2022_Jan_21_2013,WASABI Nback,2020.2.10,59.99131326153367,
0,1,5,"[0, 0]",None,0,0,0,0,,,,,0,0,0,0,0,34,34,34,,,,,,,,,None,None,0,156.58696889999555,None,156.58696889999555,157.5869842999964,157.57030299998587,158.57029889995465,0,1,156.58696889999555,None,,,1002,m,5,r,SK,2022_Jan_21_2013,WASABI Nback,2020.2.10,59.99131326153367,
0,1,4,"[-0.2, 0]",None,0,0,0,0,,,,,0,0,0,0,0,35,35,35,,,,,,,,,None,None,0,158.58695500000613,None,158.58695500000613,159.58699069998693,159.57032209995668,160.57031270000152,0,1,158.58695500000613,None,,,1002,m,5,r,SK,2022_Jan_21_2013,WASABI Nback,2020.2.10,59.99131326153367,
0,1,4,"[-0.2, 0]",None,0,0,0,0,,,,,0,0,0,0,0,36,36,36,,,,,,,,,None,None,0,160.5869896999793,None,160.5869896999793,161.58698829996865,161.57032009999966,162.5702459999593,0,1,160.5869896999793,None,,,1002,m,5,r,SK,2022_Jan_21_2013,WASABI Nback,2020.2.10,59.99131326153367,
0,1,7,"[-0.2, -0.2]",None,0,0,0,0,,,,,0,0,0,0,0,37,37,37,,,,,,,,,None,None,0,162.58701279998058,None,162.58701279998058,163.58703389996663,163.57035669998731,164.57035729999188,0,1,162.58701279998058,None,,,1002,m,5,r,SK,2022_Jan_21_2013,WASABI Nback,2020.2.10,59.99131326153367,
0,1,4,"[-0.2, 0]",1,0,0,0,0,,,,,0,0,0,0,0,38,38,38,,,,,,,,,None,None,0,164.5870389000047,None,164.5870389000047,165.58697780000512,165.570362199971,166.5703671000083,0,1,164.5870389000047,None,,,1002,m,5,r,SK,2022_Jan_21_2013,WASABI Nback,2020.2.10,59.99131326153367,
0,1,3,"[0.2, 0.2]",None,0,0,0,0,,,,,0,0,0,0,0,39,39,39,,,,,,,,,None,None,0,166.58704469999066,None,166.58704469999066,167.58704569999827,167.57039199996507,168.57039989996701,0,1,166.58704469999066,None,,,1002,m,5,r,SK,2022_Jan_21_2013,WASABI Nback,2020.2.10,59.99131326153367,
0,1,5,"[0, 0]",None,0,0,0,0,,,,,0,0,0,0,0,40,40,40,,,,,,,,,None,None,0,168.58707129996037,None,168.58707129996037,169.58707519999007,169.57040560001042,170.5704049000051,0,1,168.58707129996037,None,,,1002,m,5,r,SK,2022_Jan_21_2013,WASABI Nback,2020.2.10,59.99131326153367,
0,1,3,"[0.2, 0.2]",1,0,0,0,0,,,,,0,0,0,0,0,41,41,41,,,,,,,,,None,None,0,170.5870706999558,None,170.5870706999558,171.58701660000952,171.5704190999968,172.57041330001084,0,1,170.5870706999558,None,,,1002,m,5,r,SK,2022_Jan_21_2013,WASABI Nback,2020.2.10,59.99131326153367,
0,1,1,"[-0.2, 0.2]",None,0,0,0,0,,,,,0,0,0,0,0,42,42,42,,,,,,,,,None,None,0,172.5870859999559,None,172.5870859999559,173.58710419997806,173.5704319999786,174.5704349000007,0,1,172.5870859999559,None,,,1002,m,5,r,SK,2022_Jan_21_2013,WASABI Nback,2020.2.10,59.99131326153367,
0,1,9,"[0.2, -0.2]",None,0,0,0,0,,,,,0,0,0,0,0,43,43,43,,,,,,,,,None,None,0,174.58711319998838,None,174.58711319998838,175.58711219998077,175.57044360000873,176.5704485999886,0,1,174.58711319998838,None,,,1002,m,5,r,SK,2022_Jan_21_2013,WASABI Nback,2020.2.10,59.99131326153367,
0,1,9,"[0.2, -0.2]",None,0,0,0,0,,,,,0,0,0,0,0,44,44,44,,,,,,,,,None,None,0,176.58711229998153,None,176.58711229998153,177.58713890000945,177.57048049999867,178.57047719997354,0,1,176.58711229998153,None,,,1002,m,5,r,SK,2022_Jan_21_2013,WASABI Nback,2020.2.10,59.99131326153367,
0,1,8,"[0, -0.2]",None,0,0,0,0,,,,,0,0,0,0,0,45,45,45,,,,,,,,,None,None,0,178.58713729999727,None,178.58713729999727,179.58714560000226,179.5705636999919,180.57048150000628,0,1,178.58713729999727,None,,,1002,m,5,r,SK,2022_Jan_21_2013,WASABI Nback,2020.2.10,59.99131326153367,
0,1,6,"[0.2, 0]",None,0,0,0,0,,,,,0,0,0,0,0,46,46,46,,,,,,,,,None,None,0,180.58714719995623,None,180.58714719995623,181.58717590000015,181.5705072999699,182.57051519997185,0,1,180.58714719995623,None,,,1002,m,5,r,SK,2022_Jan_21_2013,WASABI Nback,2020.2.10,59.99131326153367,
0,1,3,"[0.2, 0.2]",None,0,0,0,0,,,,,0,0,0,0,0,47,47,47,,,,,,,,,None,None,0,182.58708239998668,None,182.58708239998668,183.5871793999686,183.57053039997118,184.57050619996153,0,1,182.58708239998668,None,,,1002,m,5,r,SK,2022_Jan_21_2013,WASABI Nback,2020.2.10,59.99131326153367,
0,1,6,"[0.2, 0]",1,0,0,0,0,,,,,0,0,0,0,0,48,48,48,,,,,,,,,None,None,0,184.58718799997587,None,184.58718799997587,185.58719759999076,185.5705345000024,186.5705495000002,0,1,184.58718799997587,None,,,1002,m,5,r,SK,2022_Jan_21_2013,WASABI Nback,2020.2.10,59.99131326153367,
0,1,5,"[0, 0]",None,0,0,0,0,,,,,0,0,0,0,0,49,49,49,,,,,,,,,None,None,0,186.5872151000076,None,186.5872151000076,187.58720969996648,187.5705297999666,188.57056979998015,0,1,186.5872151000076,None,,,1002,m,5,r,SK,2022_Jan_21_2013,WASABI Nback,2020.2.10,59.99131326153367,
0,1,7,"[-0.2, -0.2]",None,0,0,0,0,,,,,0,0,0,0,0,50,50,50,,,,,,,,,None,None,0,188.58723469998222,None,188.58723469998222,189.58722729998408,189.57055149995722,190.57056469999952,0,1,188.58723469998222,None,,,1002,m,5,r,SK,2022_Jan_21_2013,WASABI Nback,2020.2.10,59.99131326153367,
0,1,5,"[0, 0]",1,0,0,0,0,,,,,0,0,0,0,0,51,51,51,,,,,,,,,None,None,0,190.58724259998417,None,190.58724259998417,191.5872595999972,191.57058850000612,192.57058939995477,0,1,190.58724259998417,None,,,1002,m,5,r,SK,2022_Jan_21_2013,WASABI Nback,2020.2.10,59.99131326153367,
0,1,1,"[-0.2, 0.2]",None,0,0,0,0,,,,,0,0,0,0,0,52,52,52,,,,,,,,,None,None,0,192.58726120000938,None,192.58726120000938,193.5872621999588,193.57060440001078,194.5705859999871,0,1,192.58726120000938,None,,,1002,m,5,r,SK,2022_Jan_21_2013,WASABI Nback,2020.2.10,59.99131326153367,
0,1,7,"[-0.2, -0.2]",None,0,0,0,0,,,,,0,0,0,0,0,53,53,53,,,,,,,,,None,None,0,194.58728249999695,None,194.58728249999695,195.58730749995448,195.57065650000004,196.5706469999859,0,1,194.58728249999695,None,,,1002,m,5,r,SK,2022_Jan_21_2013,WASABI Nback,2020.2.10,59.99131326153367,
0,1,9,"[0.2, -0.2]",None,0,0,0,0,,,,,0,0,0,0,0,54,54,54,,,,,,,,,None,None,0,196.5872949999757,None,196.5872949999757,197.5873050999944,197.57061689998955,198.57064449996687,0,1,196.5872949999757,None,,,1002,m,5,r,SK,2022_Jan_21_2013,WASABI Nback,2020.2.10,59.99131326153367,
0,1,3,"[0.2, 0.2]",None,0,0,0,0,,,,,0,0,0,0,0,55,55,55,,,,,,,,,None,None,0,198.58731430000626,None,198.58731430000626,199.5873286999995,199.57068509998498,200.570691299974,0,1,198.58731430000626,None,,,1002,m,5,r,SK,2022_Jan_21_2013,WASABI Nback,2020.2.10,59.99131326153367,
0,1,9,"[0.2, -0.2]",1,0,0,0,0,,,,,0,0,0,0,0,56,56,56,,,,,,,,,None,None,0,200.58731709996937,None,200.58731709996937,201.58733169996412,201.57069219998084,202.5706544999848,0,1,200.58731709996937,None,,,1002,m,5,r,SK,2022_Jan_21_2013,WASABI Nback,2020.2.10,59.99131326153367,
0,1,6,"[0.2, 0]",None,0,0,0,0,,,,,0,0,0,0,0,57,57,57,,,,,,,,,None,None,0,202.58735539996997,None,202.58735539996997,203.58734969998477,203.57067609997466,204.5707005999866,0,1,202.58735539996997,None,,,1002,m,5,r,SK,2022_Jan_21_2013,WASABI Nback,2020.2.10,59.99131326153367,
0,1,2,"[0, 0.2]",None,0,0,0,0,,,,,0,0,0,0,0,58,58,58,,,,,,,,,None,None,0,204.58742719999282,None,204.58742719999282,205.58737739996286,205.5707075999817,206.5707225999795,0,1,204.58742719999282,None,,,1002,m,5,r,SK,2022_Jan_21_2013,WASABI Nback,2020.2.10,59.99131326153367,
0,1,5,"[0, 0]",None,0,0,0,0,,,,,0,0,0,0,0,59,59,59,,,,,,,,,None,None,0,206.58735769998748,None,206.58735769998748,207.5873855999671,207.5707357999636,208.57069469999988,0,1,206.58735769998748,None,,,1002,m,5,r,SK,2022_Jan_21_2013,WASABI Nback,2020.2.10,59.99131326153367,
0,1,5,"[0, 0]",None,0,0,0,0,,,,,0,0,0,0,0,60,60,60,,,,,,,,,None,None,0,208.58740689995466,None,208.58740689995466,209.5873865999747,209.57075509999413,210.5707478999975,0,1,208.58740689995466,None,,,1002,m,5,r,SK,2022_Jan_21_2013,WASABI Nback,2020.2.10,59.99131326153367,
0,1,2,"[0, 0.2]",None,0,0,0,0,,,,,0,0,0,0,0,61,61,61,,,,,,,,,None,None,0,210.58741719997488,None,210.58741719997488,211.58743670000695,211.5707720000064,212.57073390000733,0,1,210.58741719997488,None,,,1002,m,5,r,SK,2022_Jan_21_2013,WASABI Nback,2020.2.10,59.99131326153367,
0,1,6,"[0.2, 0]",None,0,0,0,0,,,,,0,0,0,0,0,62,62,62,,,,,,,,,None,None,0,212.58741449995432,None,212.58741449995432,213.58744420000585,213.57078579999506,214.5707804999547,0,1,212.58741449995432,None,,,1002,m,5,r,SK,2022_Jan_21_2013,WASABI Nback,2020.2.10,59.99131326153367,
0,1,9,"[0.2, -0.2]",None,0,0,0,0,,,,,0,0,0,0,0,63,63,63,,,,,,,,,None,None,0,214.5874427999952,None,214.5874427999952,215.58744059997844,215.5708001999883,216.57078859995818,0,1,214.5874427999952,None,,,1002,m,5,r,SK,2022_Jan_21_2013,WASABI Nback,2020.2.10,59.99131326153367,
0,1,3,"[0.2, 0.2]",None,0,0,0,0,,,,,0,0,0,0,0,64,64,64,,,,,,,,,None,None,0,216.58746640000027,None,216.58746640000027,217.58746249997057,217.57080940000014,218.57080310001038,0,1,216.58746640000027,None,,,1002,m,5,r,SK,2022_Jan_21_2013,WASABI Nback,2020.2.10,59.99131326153367,
0,1,9,"[0.2, -0.2]",1,0,0,0,0,,,,,0,0,0,0,0,65,65,65,,,,,,,,,None,None,0,218.58746349997818,None,218.58746349997818,219.5874949999852,219.57080449996283,220.57081359997392,0,1,218.58746349997818,None,,,1002,m,5,r,SK,2022_Jan_21_2013,WASABI Nback,2020.2.10,59.99131326153367,
0,1,7,"[-0.2, -0.2]",None,0,0,0,0,,,,,0,0,0,0,0,66,66,66,,,,,,,,,None,None,0,220.58748889999697,None,220.58748889999697,221.5874944999814,221.57084000000032,222.57083219999913,0,1,220.58748889999697,None,,,1002,m,5,r,SK,2022_Jan_21_2013,WASABI Nback,2020.2.10,59.99131326153367,
0,1,1,"[-0.2, 0.2]",None,0,0,0,0,,,,,0,0,0,0,0,67,67,67,,,,,,,,,None,None,0,222.58751579996897,None,222.58751579996897,223.58753779996186,223.57084850000683,224.57085059996461,0,1,222.58751579996897,None,,,1002,m,5,r,SK,2022_Jan_21_2013,WASABI Nback,2020.2.10,59.99131326153367,
0,1,5,"[0, 0]",None,0,0,0,0,,,,,0,0,0,0,0,68,68,68,,,,,,,,,None,None,0,224.5875397999771,None,224.5875397999771,225.58753259998048,225.5708591999719,226.57086479995633,0,1,224.5875397999771,None,,,1002,m,5,r,SK,2022_Jan_21_2013,WASABI Nback,2020.2.10,59.99131326153367,
0,1,7,"[-0.2, -0.2]",None,0,0,0,0,,,,,0,0,0,0,0,69,69,69,,,,,,,,,None,None,0,226.58754279999994,None,226.58754279999994,227.5875322999782,227.57088959997054,228.5709150999901,0,1,226.58754279999994,None,,,1002,m,5,r,SK,2022_Jan_21_2013,WASABI Nback,2020.2.10,59.99131326153367,
0,1,5,"[0, 0]",1,0,0,0,0,,,,,0,0,0,0,0,70,70,70,,,,,,,,,None,None,0,228.58754069998395,None,228.58754069998395,229.58756789995823,229.5708888999652,230.57095159997698,0,0,228.58754069998395,None,,,1002,m,5,r,SK,2022_Jan_21_2013,WASABI Nback,2020.2.10,59.99131326153367,
0,1,6,"[0.2, 0]",None,0,0,0,0,,,,,0,0,0,0,0,71,71,71,,,,,,,,,None,None,0,230.5875972000067,None,230.5875972000067,231.58757440000772,231.5709072999889,232.57094859995414,0,1,230.5875972000067,None,,,1002,m,5,r,SK,2022_Jan_21_2013,WASABI Nback,2020.2.10,59.99131326153367,
0,1,3,"[0.2, 0.2]",None,0,0,0,0,,,,,0,0,0,0,0,72,72,72,,,,,,,,,None,None,0,232.587607799971,None,232.587607799971,233.58762790000765,233.57082249998348,234.57095550000668,0,1,232.587607799971,None,,,1002,m,5,r,SK,2022_Jan_21_2013,WASABI Nback,2020.2.10,59.99131326153367,
0,1,6,"[0.2, 0]",1,0,0,0,0,,,,,0,0,0,0,0,73,73,73,,,,,,,,,None,None,0,234.58762189996196,None,234.58762189996196,235.58762209996348,235.57097189995693,236.5709833999863,0,1,234.58762189996196,None,,,1002,m,5,r,SK,2022_Jan_21_2013,WASABI Nback,2020.2.10,59.99131326153367,
0,1,8,"[0, -0.2]",None,0,0,0,0,,,,,0,0,0,0,0,74,74,74,,,,,,,,,None,None,0,236.58763059997,None,236.58763059997,237.58764709997922,237.57096489996184,238.57098809996387,0,1,236.58763059997,None,,,1002,m,5,r,SK,2022_Jan_21_2013,WASABI Nback,2020.2.10,59.99131326153367,
0,1,9,"[0.2, -0.2]",None,0,0,0,0,,,,,0,0,0,0,0,75,75,75,,,,,,,,,None,None,0,238.5876428000047,None,238.5876428000047,239.58767979999539,239.57098679995397,240.57099049998214,0,1,238.5876428000047,None,,,1002,m,5,r,SK,2022_Jan_21_2013,WASABI Nback,2020.2.10,59.99131326153367,
0,1,9,"[0.2, -0.2]",None,0,0,0,0,,,,,0,0,0,0,0,76,76,76,,,,,,,,,None,None,0,240.58765870000934,None,240.58765870000934,241.58765539998421,241.57089869998163,242.57101720001083,0,0,240.58765870000934,None,,,1002,m,5,r,SK,2022_Jan_21_2013,WASABI Nback,2020.2.10,59.99131326153367,
0,1,1,"[-0.2, 0.2]",None,0,0,0,0,,,,,0,0,0,0,0,77,77,77,,,,,,,,,None,None,0,242.58765969995875,None,242.58765969995875,243.58765760000097,243.57103829999687,244.57103990000905,0,1,242.58765969995875,None,,,1002,m,5,r,SK,2022_Jan_21_2013,WASABI Nback,2020.2.10,59.99131326153367,
0,1,3,"[0.2, 0.2]",None,0,0,0,0,,,,,0,0,0,0,0,78,78,78,,,,,,,,,None,None,0,244.58773029997246,None,244.58773029997246,245.58770539995749,245.57104640000034,246.57105149998097,0,1,244.58773029997246,None,,,1002,m,5,r,SK,2022_Jan_21_2013,WASABI Nback,2020.2.10,59.99131326153367,
0,1,5,"[0, 0]",None,0,0,0,0,,,,,0,0,0,0,0,79,79,79,,,,,,,,,None,None,0,246.58770430000732,None,246.58770430000732,247.5877188000013,247.57106649997877,248.57106839999324,0,0,246.58770430000732,None,,,1002,m,5,r,SK,2022_Jan_21_2013,WASABI Nback,2020.2.10,59.99131326153367,
0,1,3,"[0.2, 0.2]",1,0,0,0,0,,,,,0,0,0,0,0,80,80,80,,,,,,,,,None,None,0,248.58771529997466,None,248.58771529997466,249.587736699963,249.57103369996184,250.57108419999713,0,0,248.58771529997466,None,,,1002,m,5,r,SK,2022_Jan_21_2013,WASABI Nback,2020.2.10,59.99131326153367,
0,1,4,"[-0.2, 0]",None,0,0,0,0,,,,,0,0,0,0,0,81,81,81,,,,,,,,,None,None,0,250.58773739996832,None,250.58773739996832,251.58773609995842,251.571097499982,252.57109969999874,0,1,250.58773739996832,None,,,1002,m,5,r,SK,2022_Jan_21_2013,WASABI Nback,2020.2.10,59.99131326153367,
0,1,7,"[-0.2, -0.2]",None,0,0,0,0,,,,,0,0,0,0,0,82,82,82,,,,,,,,,None,None,0,252.5877381999744,None,252.5877381999744,253.58779959997628,253.57111540000187,254.57111650001025,0,1,252.5877381999744,None,,,1002,m,5,r,SK,2022_Jan_21_2013,WASABI Nback,2020.2.10,59.99131326153367,
0,1,4,"[-0.2, 0]",1,0,0,0,0,,,,,0,0,0,0,0,83,83,83,,,,,,,,,None,None,0,254.5877697999822,None,254.5877697999822,255.5877901999629,255.57113719999325,256.57112859998597,0,1,254.5877697999822,None,,,1002,m,5,r,SK,2022_Jan_21_2013,WASABI Nback,2020.2.10,59.99131326153367,
0,1,4,"[-0.2, 0]",None,0,0,0,0,,,,,0,0,0,0,0,84,84,84,,,,,,,,,None,None,0,256.587776499975,None,256.587776499975,257.5878225999768,257.5712216999964,258.5711667999858,0,1,256.587776499975,None,,,1002,m,5,r,SK,2022_Jan_21_2013,WASABI Nback,2020.2.10,59.99131326153367,
0,1,5,"[0, 0]",None,0,0,0,0,,,,,0,0,0,0,0,85,85,85,,,,,,,,,None,None,0,258.58782139996765,None,258.58782139996765,259.58779789996333,259.5711652999744,260.5711735999794,0,1,258.58782139996765,None,,,1002,m,5,r,SK,2022_Jan_21_2013,WASABI Nback,2020.2.10,59.99131326153367,
0,1,2,"[0, 0.2]",None,0,0,0,0,,,,,0,0,0,0,0,86,86,86,,,,,,,,,None,None,0,260.5878145999741,None,260.5878145999741,261.58787319995463,261.5711852000095,262.5711921000038,0,1,260.5878145999741,None,,,1002,m,5,r,SK,2022_Jan_21_2013,WASABI Nback,2020.2.10,59.99131326153367,
0,1,6,"[0.2, 0]",None,0,0,0,0,,,,,0,0,0,0,0,87,87,87,,,,,,,,,None,None,0,262.5878594999667,None,262.5878594999667,263.5878610999789,263.57118999998784,264.57119899999816,0,1,262.5878594999667,None,,,1002,m,5,r,SK,2022_Jan_21_2013,WASABI Nback,2020.2.10,59.99131326153367,
0,1,7,"[-0.2, -0.2]",None,0,0,0,0,,,,,0,0,0,0,0,88,88,88,,,,,,,,,None,None,0,264.58785809995607,None,264.58785809995607,265.5877968999557,265.5712017999613,266.57121560000814,0,1,264.58785809995607,None,,,1002,m,5,r,SK,2022_Jan_21_2013,WASABI Nback,2020.2.10,59.99131326153367,
0,1,6,"[0.2, 0]",1,0,0,0,0,,,,,0,0,0,0,0,89,89,89,,,,,,,,,None,None,0,266.58788509998703,None,266.58788509998703,267.58787129999837,267.57121819996973,268.5712259999709,0,0,266.58788509998703,None,,,1002,m,5,r,SK,2022_Jan_21_2013,WASABI Nback,2020.2.10,59.99131326153367,
0,1,6,"[0.2, 0]",None,0,0,0,0,,,,,0,0,0,0,0,90,90,90,,,,,,,,,None,None,0,268.5878745999653,None,268.5878745999653,269.5878848999855,269.5712345999782,270.571255799965,0,0,268.5878745999653,None,,,1002,m,5,r,SK,2022_Jan_21_2013,WASABI Nback,2020.2.10,59.99131326153367,
0,1,7,"[-0.2, -0.2]",None,0,0,0,0,,,,,0,0,0,0,0,91,91,91,,,,,,,,,None,None,0,270.5878918999806,None,270.5878918999806,271.58794349996606,271.5712399999611,272.5712642999715,0,1,270.5878918999806,None,,,1002,m,5,r,SK,2022_Jan_21_2013,WASABI Nback,2020.2.10,59.99131326153367,
0,1,6,"[0.2, 0]",1,0,0,0,0,,,,,0,0,0,0,0,92,92,92,,,,,,,,,None,None,0,272.5879811999621,None,272.5879811999621,273.5879585999646,273.5712521999958,274.5712850999553,0,1,272.5879811999621,None,,,1002,m,5,r,SK,2022_Jan_21_2013,WASABI Nback,2020.2.10,59.99131326153367,
0,1,2,"[0, 0.2]",None,0,0,0,0,,,,,0,0,0,0,0,93,93,93,,,,,,,,,None,None,0,274.5879684999818,None,274.5879684999818,275.5879799000104,275.57129759999225,276.57130740000866,0,1,274.5879684999818,None,,,1002,m,5,r,SK,2022_Jan_21_2013,WASABI Nback,2020.2.10,59.99131326153367,
0,1,5,"[0, 0]",None,0,0,0,0,,,,,0,0,0,0,0,94,94,94,,,,,,,,,None,None,0,276.58798959996784,None,276.58798959996784,277.588001600001,277.5713028999744,278.57131420000223,0,0,276.58798959996784,None,,,1002,m,5,r,SK,2022_Jan_21_2013,WASABI Nback,2020.2.10,59.99131326153367,
0,1,4,"[-0.2, 0]",None,0,0,0,0,,,,,0,0,0,0,0,95,95,95,,,,,,,,,None,None,0,278.5879735999624,None,278.5879735999624,279.58799729996826,279.5713330999715,280.57134490000317,0,1,278.5879735999624,None,,,1002,m,5,r,SK,2022_Jan_21_2013,WASABI Nback,2020.2.10,59.99131326153367,
0,1,4,"[-0.2, 0]",None,0,0,0,0,,,,,0,0,0,0,0,96,96,96,,,,,,,,,None,None,0,280.5880005999934,None,280.5880005999934,281.5880204999703,281.5713517999975,282.57136179995723,0,1,280.5880005999934,None,,,1002,m,5,r,SK,2022_Jan_21_2013,WASABI Nback,2020.2.10,59.99131326153367,
0,1,7,"[-0.2, -0.2]",None,0,0,0,0,,,,,0,0,0,0,0,97,97,97,,,,,,,,,None,None,0,282.5880338999559,None,282.5880338999559,283.5880370999803,283.57135139999446,284.57136199995875,0,1,282.5880338999559,None,,,1002,m,5,r,SK,2022_Jan_21_2013,WASABI Nback,2020.2.10,59.99131326153367,
0,1,4,"[-0.2, 0]",1,0,0,0,0,,,,,0,0,0,0,0,98,98,98,,,,,,,,,None,None,0,284.5880453999853,None,284.5880453999853,285.58805709995795,285.5713825999992,286.57137729995884,0,1,284.5880453999853,None,,,1002,m,5,r,SK,2022_Jan_21_2013,WASABI Nback,2020.2.10,59.99131326153367,
0,1,3,"[0.2, 0.2]",None,0,0,0,0,,,,,0,0,0,0,0,99,99,99,,,,,,,,,None,None,0,286.5880607999861,None,286.5880607999861,287.5880683999858,287.5714006999624,288.57138969999505,0,1,286.5880607999861,None,,,1002,m,5,r,SK,2022_Jan_21_2013,WASABI Nback,2020.2.10,59.99131326153367,
0,1,5,"[0, 0]",None,0,0,0,0,,,,,0,0,0,0,0,100,100,100,,,,,,,,,None,None,0,288.58808029996,None,288.58808029996,289.5881004999974,289.57140159996925,290.57132729998557,0,1,288.58808029996,None,,,1002,m,5,r,SK,2022_Jan_21_2013,WASABI Nback,2020.2.10,59.99131326153367,
0,1,3,"[0.2, 0.2]",1,0,0,0,0,,,,,0,0,0,0,0,101,101,101,,,,,,,,,None,None,0,290.58809689996997,None,290.58809689996997,291.58810679998714,291.5714745000005,292.5714452000102,0,1,290.58809689996997,None,,,1002,m,5,r,SK,2022_Jan_21_2013,WASABI Nback,2020.2.10,59.99131326153367,
0,1,1,"[-0.2, 0.2]",None,0,0,0,0,,,,,0,0,0,0,0,102,102,102,,,,,,,,,None,None,0,292.5881213999819,None,292.5881213999819,293.58812199998647,293.57144629996037,294.57144759997027,0,1,292.5881213999819,None,,,1002,m,5,r,SK,2022_Jan_21_2013,WASABI Nback,2020.2.10,59.99131326153367,
0,1,9,"[0.2, -0.2]",None,0,0,0,0,,,,,0,0,0,0,0,103,103,103,,,,,,,,,None,None,0,294.58812949998537,None,294.58812949998537,295.588139200001,295.5714573999867,296.57147689996054,0,1,294.58812949998537,None,,,1002,m,5,r,SK,2022_Jan_21_2013,WASABI Nback,2020.2.10,59.99131326153367,
0,1,9,"[0.2, -0.2]",None,0,0,0,0,,,,,0,0,0,0,0,104,104,104,,,,,,,,,None,None,0,296.58814720000373,None,296.58814720000373,297.5881565999589,297.5714758000104,298.5714868999785,0,1,296.58814720000373,None,,,1002,m,5,r,SK,2022_Jan_21_2013,WASABI Nback,2020.2.10,59.99131326153367,
0,1,8,"[0, -0.2]",None,0,0,0,0,,,,,0,0,0,0,0,105,105,105,,,,,,,,,None,None,0,298.5881673999829,None,298.5881673999829,299.5881784000085,299.5714902000036,300.57151029998204,0,1,298.5881673999829,None,,,1002,m,5,r,SK,2022_Jan_21_2013,WASABI Nback,2020.2.10,59.99131326153367,
0,1,6,"[0.2, 0]",None,0,0,0,0,,,,,0,0,0,0,0,106,106,106,,,,,,,,,None,None,0,300.58817299996736,None,300.58817299996736,301.5881940999534,301.5715188999893,302.57151439995505,0,1,300.58817299996736,None,,,1002,m,5,r,SK,2022_Jan_21_2013,WASABI Nback,2020.2.10,59.99131326153367,
0,1,3,"[0.2, 0.2]",None,0,0,0,0,,,,,0,0,0,0,0,107,107,107,,,,,,,,,None,None,0,302.58820739999646,None,302.58820739999646,303.5881987999892,303.5715144999558,304.5715253999806,0,1,302.58820739999646,None,,,1002,m,5,r,SK,2022_Jan_21_2013,WASABI Nback,2020.2.10,59.99131326153367,
0,1,6,"[0.2, 0]",1,0,0,0,0,,,,,0,0,0,0,0,108,108,108,,,,,,,,,None,None,0,304.5882207999821,None,304.5882207999821,305.5882239000057,305.5715295999544,306.57157420000294,0,1,304.5882207999821,None,,,1002,m,5,r,SK,2022_Jan_21_2013,WASABI Nback,2020.2.10,59.99131326153367,
0,1,5,"[0, 0]",None,0,0,0,0,,,,,0,0,0,0,0,109,109,109,,,,,,,,,None,None,0,306.58822609996423,None,306.58822609996423,307.5882469000062,307.57155549997697,308.5715899000061,0,1,306.58822609996423,None,,,1002,m,5,r,SK,2022_Jan_21_2013,WASABI Nback,2020.2.10,59.99131326153367,
0,1,7,"[-0.2, -0.2]",None,0,0,0,0,,,,,0,0,0,0,0,110,110,110,,,,,,,,,None,None,0,308.58822629996575,None,308.58822629996575,309.58827499998733,309.57149339996977,310.5715794999851,0,1,308.58822629996575,None,,,1002,m,5,r,SK,2022_Jan_21_2013,WASABI Nback,2020.2.10,59.99131326153367,
0,1,5,"[0, 0]",1,0,0,0,0,,,,,0,0,0,0,0,111,111,111,,,,,,,,,None,None,0,310.58830649999436,None,310.58830649999436,311.5882539000013,311.5715783999767,312.571684799972,0,1,310.58830649999436,None,,,1002,m,5,r,SK,2022_Jan_21_2013,WASABI Nback,2020.2.10,59.99131326153367,
0,1,1,"[-0.2, 0.2]",None,0,0,0,0,,,,,0,0,0,0,0,112,112,112,,,,,,,,,None,None,0,312.58823900000425,None,312.58823900000425,313.58829129999503,313.5715918999631,314.5716287000105,0,1,312.58823900000425,None,,,1002,m,5,r,SK,2022_Jan_21_2013,WASABI Nback,2020.2.10,59.99131326153367,
0,1,7,"[-0.2, -0.2]",None,0,0,0,0,,,,,0,0,0,0,0,113,113,113,,,,,,,,,None,None,0,314.5882796999649,None,314.5882796999649,315.5882983999909,315.5716177999857,316.57166339998366,0,0,314.5882796999649,None,,,1002,m,5,r,SK,2022_Jan_21_2013,WASABI Nback,2020.2.10,59.99131326153367,
0,1,9,"[0.2, -0.2]",None,0,0,0,0,,,,,0,0,0,0,0,114,114,114,,,,,,,,,None,None,0,316.588320299983,None,316.588320299983,317.58830319996923,317.57167689997004,318.57169599999906,0,1,316.588320299983,None,,,1002,m,5,r,SK,2022_Jan_21_2013,WASABI Nback,2020.2.10,59.99131326153367,
0,1,3,"[0.2, 0.2]",None,0,0,0,0,,,,,0,0,0,0,0,115,115,115,,,,,,,,,None,None,0,318.5883267999743,None,318.5883267999743,319.58832489995984,319.5716456999653,320.5715846999665,0,1,318.5883267999743,None,,,1002,m,5,r,SK,2022_Jan_21_2013,WASABI Nback,2020.2.10,59.99131326153367,
0,1,9,"[0.2, -0.2]",1,0,0,0,0,,,,,0,0,0,0,0,116,116,116,,,,,,,,,None,None,0,320.5883355999831,None,320.5883355999831,321.5883612000034,321.5717069999664,322.5716822000104,0,1,320.5883355999831,None,,,1002,m,5,r,SK,2022_Jan_21_2013,WASABI Nback,2020.2.10,59.99131326153367,
0,1,6,"[0.2, 0]",None,0,0,0,0,,,,,0,0,0,0,0,117,117,117,,,,,,,,,None,None,0,322.58835649996763,None,322.58835649996763,323.5883567999699,323.5717175999889,324.571787199995,0,1,322.58835649996763,None,,,1002,m,5,r,SK,2022_Jan_21_2013,WASABI Nback,2020.2.10,59.99131326153367,
0,1,2,"[0, 0.2]",None,0,0,0,0,,,,,0,0,0,0,0,118,118,118,,,,,,,,,None,None,0,324.5883780999575,None,324.5883780999575,325.58843689999776,325.5717023999896,326.57174980000127,0,1,324.5883780999575,None,,,1002,m,5,r,SK,2022_Jan_21_2013,WASABI Nback,2020.2.10,59.99131326153367,
0,1,5,"[0, 0]",None,0,0,0,0,,,,,0,0,0,0,0,119,119,119,,,,,,,,,None,None,0,326.5884038999793,None,326.5884038999793,327.5884051999892,327.5717202000087,328.5717387999757,0,1,326.5884038999793,None,,,1002,m,5,r,SK,2022_Jan_21_2013,WASABI Nback,2020.2.10,59.99131326153367,
1,0,,,,0,1,1,1,0,0,0,0,,,,,,,,,,,,,,,,,,,,,,,,,,,,,,394.15563509997446,None,1002,m,5,r,SK,2022_Jan_21_2013,WASABI Nback,2020.2.10,59.99131326153367,
