	SID	date	sex	session	handedness	scanner	onset	duration	repetition	rating	body_site	keys	temperature	conditionrt	mouseclick	biopac_channel	condition	rt	value
0	2928	2024_Apr_14_1655	F	01	R	SK	2.7839903999702074	5.004342302272562								19	Instructions		
1	2928	2024_Apr_14_1655	F	01	R	SK	8.349764499987941	2.0066549500334077								6	Cue		
2	2928	2024_Apr_14_1655	F	01	R	SK	10.361114799976349	8.000717849994544								7	Pre-Jitter		
3	2928	2024_Apr_14_1655	F	01	R	SK	18.405877099954523	15.011446749966126			Abdomen		48.0			18	Heat-Stimulation		
4	2928	2024_Apr_14_1655	F	01	R	SK	33.51330669998424	5.0134797500795685								8	Mid-Jitter		
5	2928	2024_Apr_14_1655	F	01	R	SK	38.55244119995041	5.002031349984463								20	PainBinary	1.433741300017573	1.0
6	2928	2024_Apr_14_1655	F	01	R	SK	43.587550800002646	4.9986048500286415								21	IntensityRating	2.4509825999848545	49.135802469135804
7	2928	2024_Apr_14_1655	F	01	R	SK	48.617276199976914	5.005824149993714								22	ToleranceRating	1.7508260000031441	-1.0
8	2928	2024_Apr_14_1655	F	01	R	SK	53.63225769996643	5.009283800027333								9	Post-Q-Jitter		
9	2928	2024_Apr_14_1655	F	01	R	SK	59.2036276999861	2.0167396501637995								6	Cue		
10	2928	2024_Apr_14_1655	F	01	R	SK	61.228528999956325	8.000423150020652								7	Pre-Jitter		
11	2928	2024_Apr_14_1655	F	01	R	SK	69.27290939999511	14.99527685000794			Abdomen		47.5			18	Heat-Stimulation		
12	2928	2024_Apr_14_1655	F	01	R	SK	84.36290019995067	7.015537750034127								8	Mid-Jitter		
13	2928	2024_Apr_14_1655	F	01	R	SK	91.4050238999771	4.9981203499482945								20	PainBinary	1.1512788000400178	1.0
14	2928	2024_Apr_14_1655	F	01	R	SK	96.43739629996708	5.000106749939732								21	IntensityRating	2.0366954999626614	48.76543209876543
15	2928	2024_Apr_14_1655	F	01	R	SK	101.46722589997808	5.007221849984489								22	ToleranceRating	1.2504765000194311	-1.0
16	2928	2024_Apr_14_1655	F	01	R	SK	106.48399869998684	7.007127300079446								9	Post-Q-Jitter		
17	2928	2024_Apr_14_1655	F	01	R	SK	114.0602412999724	2.004754950059578								6	Cue		
18	2928	2024_Apr_14_1655	F	01	R	SK	116.07938709994778	8.016600499977358								7	Pre-Jitter		
19	2928	2024_Apr_14_1655	F	01	R	SK	124.14310659997864	15.006119299971033			Abdomen		47.0			18	Heat-Stimulation		
20	2928	2024_Apr_14_1655	F	01	R	SK	139.2507035000017	5.0078008500277065								8	Mid-Jitter		
21	2928	2024_Apr_14_1655	F	01	R	SK	144.28833479998866	4.9993135500117205								20	PainBinary	1.0837825000053272	1.0
22	2928	2024_Apr_14_1655	F	01	R	SK	149.32018609996885	5.0024059499264695								21	IntensityRating	2.68379310000455	48.086419753086425
23	2928	2024_Apr_14_1655	F	01	R	SK	154.35108579997905	5.0073847500025295								22	ToleranceRating	2.350413199979812	1.0
24	2928	2024_Apr_14_1655	F	01	R	SK	159.3677429999807	5.007495200028643								9	Post-Q-Jitter		
25	2928	2024_Apr_14_1655	F	01	R	SK	164.94195339997532	2.0092017500428483								6	Cue		
26	2928	2024_Apr_14_1655	F	01	R	SK	166.96393989998614	6.015299600025173								7	Pre-Jitter		
27	2928	2024_Apr_14_1655	F	01	R	SK	173.00802199996542	15.010723949992098			Abdomen		47.0			18	Heat-Stimulation		
28	2928	2024_Apr_14_1655	F	01	R	SK	188.11350259999745	7.016668850032147								8	Mid-Jitter		
29	2928	2024_Apr_14_1655	F	01	R	SK	195.15636779996566	4.997738049947657								20	PainBinary	1.1176075999974273	1.0
30	2928	2024_Apr_14_1655	F	01	R	SK	200.18831439997302	5.000627350003924								21	IntensityRating	1.5671849999926053	47.160493827160494
31	2928	2024_Apr_14_1655	F	01	R	SK	205.21844440000132	5.007159950037021								22	ToleranceRating	3.067102300003171	-1.0
32	2928	2024_Apr_14_1655	F	01	R	SK	210.23510159994476	7.007331000058912								9	Post-Q-Jitter		
33	2928	2024_Apr_14_1655	F	01	R	SK	217.79433309996966	2.00563280005008								6	Cue		
34	2928	2024_Apr_14_1655	F	01	R	SK	219.8148703999468	6.014654500002507								7	Pre-Jitter		
35	2928	2024_Apr_14_1655	F	01	R	SK	225.85920159996022	15.009561149927322			Abdomen		46.5			18	Heat-Stimulation		
36	2928	2024_Apr_14_1655	F	01	R	SK	240.9661937999772	7.012485150014982								8	Mid-Jitter		
37	2928	2024_Apr_14_1655	F	01	R	SK	248.00607939995825	4.999516949930694								20	PainBinary	0.9002929999842308	1.0
38	2928	2024_Apr_14_1655	F	01	R	SK	253.0391729999683	5.000119249976706								21	IntensityRating	2.73389390000375	44.629629629629626
39	2928	2024_Apr_14_1655	F	01	R	SK	258.0705404999899	5.00416175002465								22	ToleranceRating	1.4337535999948159	1.0
40	2928	2024_Apr_14_1655	F	01	R	SK	263.08599449996836	7.006724500039127								9	Post-Q-Jitter		
41	2928	2024_Apr_14_1655	F	01	R	SK	270.6778941999655	2.006351300107781								6	Cue		
42	2928	2024_Apr_14_1655	F	01	R	SK	272.6984317000024	4.0153784999856725								7	Pre-Jitter		
43	2928	2024_Apr_14_1655	F	01	R	SK	276.76709129998926	15.011598350014538			Abdomen		46.5			18	Heat-Stimulation		
44	2928	2024_Apr_14_1655	F	01	R	SK	291.8642956999829	5.000667400076054								8	Mid-Jitter		
45	2928	2024_Apr_14_1655	F	01	R	SK	296.90654609998455	4.999643749964889								20	PainBinary	1.4028791000018828	1.0
46	2928	2024_Apr_14_1655	F	01	R	SK	301.93888659996446	5.0018213499570265								21	IntensityRating	2.3504643999622203	43.641975308641975
47	2928	2024_Apr_14_1655	F	01	R	SK	306.96986889996333	5.006654349970631								22	ToleranceRating	1.2504292000085115	1.0
48	2928	2024_Apr_14_1655	F	01	R	SK	311.985332799959	5.009176499966998								9	Post-Q-Jitter		
49	2928	2024_Apr_14_1655	F	01	R	SK	317.6127785999561	2.0043158000917174								6	Cue		
50	2928	2024_Apr_14_1655	F	01	R	SK	319.6320659999619	4.0158286999794655								7	Pre-Jitter		
51	2928	2024_Apr_14_1655	F	01	R	SK	323.6989742000005	15.015566350019071			Abdomen		46.5			18	Heat-Stimulation		
52	2928	2024_Apr_14_1655	F	01	R	SK	338.8058338999981	9.002134450071026								8	Mid-Jitter		
53	2928	2024_Apr_14_1655	F	01	R	SK	347.8410737999948	4.9984893500222825								20	PainBinary	0.7678644999978133	1.0
54	2928	2024_Apr_14_1655	F	01	R	SK	352.8735137999756	5.000407949904911								21	IntensityRating	2.7196532000089064	44.19753086419753
55	2928	2024_Apr_14_1655	F	01	R	SK	357.9045589999878	5.005088749981951								22	ToleranceRating	2.200442800007295	1.0
56	2928	2024_Apr_14_1655	F	01	R	SK	362.9201699999976	9.007359499984886								9	Post-Q-Jitter		
57	2928	2024_Apr_14_1655	F	01	R	SK	371.96938709996175	2.3592281999299303								26	ComfortRating	2.3193752000224777	-1.8518518518518476
58	2928	2024_Apr_14_1655	F	01	R	SK	374.363767199975	4.153866149892565								24	ValenceRating	4.133814300002996	58.0246913580247
59	2928	2024_Apr_14_1655	F	01	R	SK	378.554501799983	2.3891401499859057								26	IntensityRating	2.367123099975288	57.839506172839506
60	2928	2024_Apr_14_1655	F	01	R	SK	380.9751446999726	3.1145663499482907								27	AvoidanceRating	3.0837015999713913	44.19753086419752
61	2928	2024_Apr_14_1655	F	01	R	SK	384.11775089998264	3.296089950017631								28	RelaxationRating	3.267137599992566	43.2716049382716
62	2928	2024_Apr_14_1655	F	01	R	SK	387.44204959995113	3.280911349982489								29	AttentionRating	3.2503748000017367	70.49382716049382
63	2928	2024_Apr_14_1655	F	01	R	SK	390.7532066999702	1.9919981499551795								30	BoredomRating	1.9671119000413455	50.0
64	2928	2024_Apr_14_1655	F	01	R	SK	392.7723283999949	2.870483150007203								31	AlertnessRating	2.850459899986163	54.81481481481481
65	2928	2024_Apr_14_1655	F	01	R	SK	395.67305829998804	3.852438850037288								32	PosThxRating	3.820494299987331	13.333333333333329
66	2928	2024_Apr_14_1655	F	01	R	SK	399.5569473999785	1.751378049957566								33	NegThxRating	1.7337124000187032	-15.18518518518519
67	2928	2024_Apr_14_1655	F	01	R	SK	401.34095179999713	2.350085450045299								34	SelfRating	2.3170641000033356	-14.444444444444443
68	2928	2024_Apr_14_1655	F	01	R	SK	403.7233363999985	2.26868254999863								35	OtherRating	2.2505320999771357	-25.18518518518519
69	2928	2024_Apr_14_1655	F	01	R	SK	406.02537809999194	2.1813001499976963								32	ImageryRating	2.150261099974159	23.456790123456784
70	2928	2024_Apr_14_1655	F	01	R	SK	408.24643099994864	2.222581449954305								37	PresentRating	2.186860900023021	53.827160493827165
