BodySiteInstructionText.started,BodySiteImg.started,BodySiteImg.stopped,BodySiteInstructionRead.keys,BodySiteInstructionRead.rt,BodySiteInstructionRead.started,BodySiteInstructionRead.stopped,fixation.started,fixation.stopped,IntensityRating.response,IntensityRating.rt,IntensityRating.started,IntensityRating.stopped,ComfortRating.response,ComfortRating.rt,ComfortRating.started,ComfortRating.stopped,ValenceRating.response,ValenceRating.rt,ValenceRating.started,ValenceRating.stopped,AvoidRating.response,AvoidRating.rt,AvoidRating.started,AvoidRating.stopped,RelaxRating.response,RelaxRating.rt,RelaxRating.started,RelaxRating.stopped,TaskAttentionRating.response,TaskAttentionRating.rt,TaskAttentionRating.started,TaskAttentionRating.stopped,BoredomRating.response,BoredomRating.rt,BoredomRating.started,BoredomRating.stopped,AlertnessRating.response,AlertnessRating.rt,AlertnessRating.started,AlertnessRating.stopped,PosThxRating.response,PosThxRating.rt,PosThxRating.started,PosThxRating.stopped,NegThxRating.response,NegThxRating.rt,NegThxRating.started,NegThxRating.stopped,SelfRating.response,SelfRating.rt,SelfRating.started,SelfRating.stopped,OtherRating.response,OtherRating.rt,OtherRating.started,OtherRating.stopped,ImageryRating.response,ImageryRating.rt,ImageryRating.started,ImageryRating.stopped,PresentRating.response,PresentRating.rt,PresentRating.started,PresentRating.stopped,subject number,gender,session,handedness,scanner,run,experience(1) or regulate(2),date,psychopyVersion,expName,body_site_order,frameRate,
64.88977140000497,64.88977140000497,None,space,134.24419219999982,64.88977140000497,None,242.2412791000097,None,32.03703703703704,192.97671365000133,,,,,,,,,,,,,,,,,,,,,,,,,,,,,,,,,,,,,,,,,,,,,,,,,,,,,,,4,M,24,l,ARB,,1,2022_Mar_08_1243,2020.2.10,acceptmap-experience,"['Left Face', 'Right Arm', 'Left Face', 'Right Arm']",59.991097323206674,
,,,,,,,270.25817500000994,None,42.283950617283956,220.66122814999835,0.015393649999168701,5.013108250001096,,,,,,,,,,,,,,,,,,,,,,,,,,,,,,,,,,,,,,,,,,,,,,,,,,,,,4,M,24,l,ARB,,1,2022_Mar_08_1243,2020.2.10,acceptmap-experience,"['Left Face', 'Right Arm', 'Left Face', 'Right Arm']",59.991097323206674,
,,,,,,,298.29172700000345,None,43.14814814814815,248.27798055000312,0.014441749997786246,5.011350950007909,,,,,,,,,,,,,,,,,,,,,,,,,,,,,,,,,,,,,,,,,,,,,,,,,,,,,4,M,24,l,ARB,,1,2022_Mar_08_1243,2020.2.10,acceptmap-experience,"['Left Face', 'Right Arm', 'Left Face', 'Right Arm']",59.991097323206674,
,,,,,,,326.30863820000377,None,42.71604938271605,276.5281321499933,0.014590049991966225,5.011611249996349,,,,,,,,,,,,,,,,,,,,,,,,,,,,,,,,,,,,,,,,,,,,,,,,,,,,,4,M,24,l,ARB,,1,2022_Mar_08_1243,2020.2.10,acceptmap-experience,"['Left Face', 'Right Arm', 'Left Face', 'Right Arm']",59.991097323206674,
,,,,,,,354.3255427999975,None,45.370370370370374,304.50970894999045,0.014686950002214871,5.011944450001465,,,,,,,,,,,,,,,,,,,,,,,,,,,,,,,,,,,,,,,,,,,,,,,,,,,,,4,M,24,l,ARB,,1,2022_Mar_08_1243,2020.2.10,acceptmap-experience,"['Left Face', 'Right Arm', 'Left Face', 'Right Arm']",59.991097323206674,
,,,,,,,382.3424597999983,None,45.24691358024691,330.31126914999913,0.016685750015312806,5.015844550012844,,,,,,,,,,,,,,,,,,,,,,,,,,,,,,,,,,,,,,,,,,,,,,,,,,,,,4,M,24,l,ARB,,1,2022_Mar_08_1243,2020.2.10,acceptmap-experience,"['Left Face', 'Right Arm', 'Left Face', 'Right Arm']",59.991097323206674,
,,,,,,,410.35936400000355,None,46.48148148148148,360.19537525001215,0.015340750003815629,5.013142950003385,,,,,,,,,,,,,,,,,,,,,,,,,,,,,,,,,,,,,,,,,,,,,,,,,,,,,4,M,24,l,ARB,,1,2022_Mar_08_1243,2020.2.10,acceptmap-experience,"['Left Face', 'Right Arm', 'Left Face', 'Right Arm']",59.991097323206674,
,,,,,,,438.3762720000086,None,45.67901234567901,386.945655049989,0.014831449996563606,5.012104050008929,,,,,,,,,,,,,,,,,,,,,,,,,,,,,,,,,,,,,,,,,,,,,,,,,,,,,4,M,24,l,ARB,,1,2022_Mar_08_1243,2020.2.10,acceptmap-experience,"['Left Face', 'Right Arm', 'Left Face', 'Right Arm']",59.991097323206674,
,,,,,,,466.3931738000101,None,45.98765432098765,412.6455936499988,0.01475905001279898,5.011933050016523,,,,,,,,,,,,,,,,,,,,,,,,,,,,,,,,,,,,,,,,,,,,,,,,,,,,,4,M,24,l,ARB,,1,2022_Mar_08_1243,2020.2.10,acceptmap-experience,"['Left Face', 'Right Arm', 'Left Face', 'Right Arm']",59.991097323206674,
,,,,,,,494.4100267000031,None,47.40740740740741,444.62987255000917,0.015074449998792261,5.012607149998075,,,,,,,,,,,,,,,,,,,,,,,,,,,,,,,,,,,,,,,,,,,,,,,,,,,,,4,M,24,l,ARB,,1,2022_Mar_08_1243,2020.2.10,acceptmap-experience,"['Left Face', 'Right Arm', 'Left Face', 'Right Arm']",59.991097323206674,
,,,,,,,522.4269925000117,None,47.71604938271605,470.57987614999,0.014378549996763468,5.01122805000341,,,,,,,,,,,,,,,,,,,,,,,,,,,,,,,,,,,,,,,,,,,,,,,,,,,,,4,M,24,l,ARB,,1,2022_Mar_08_1243,2020.2.10,acceptmap-experience,"['Left Face', 'Right Arm', 'Left Face', 'Right Arm']",59.991097323206674,
,,,,,,,550.4438936000079,None,47.28395061728395,496.5461511499889,0.014506050007184967,5.011478350003017,,,,,,,,,,,,,,,,,,,,,,,,,,,,,,,,,,,,,,,,,,,,,,,,,,,,,4,M,24,l,ARB,,1,2022_Mar_08_1243,2020.2.10,acceptmap-experience,"['Left Face', 'Right Arm', 'Left Face', 'Right Arm']",59.991097323206674,
,,,,,,,578.477478300003,None,47.22222222222223,524.6307517499954,0.015219250009977259,5.012848750004196,,,,,,,,,,,,,,,,,,,,,,,,,,,,,,,,,,,,,,,,,,,,,,,,,,,,,4,M,24,l,ARB,,1,2022_Mar_08_1243,2020.2.10,acceptmap-experience,"['Left Face', 'Right Arm', 'Left Face', 'Right Arm']",59.991097323206674,
,,,,,,,606.4943896000041,None,46.79012345679012,554.4139055500127,0.014183150007738732,5.010819650007761,,,,,,,,,,,,,,,,,,,,,,,,,,,,,,,,,,,,,,,,,,,,,,,,,,,,,4,M,24,l,ARB,,1,2022_Mar_08_1243,2020.2.10,acceptmap-experience,"['Left Face', 'Right Arm', 'Left Face', 'Right Arm']",59.991097323206674,
,,,,,,,634.5112910000025,None,48.20987654320987,584.2307833499799,0.014616649990784936,5.011680650000926,,,,,,,,,,,,,,,,,,,,,,,,,,,,,,,,,,,,,,,,,,,,,,,,,,,,,4,M,24,l,ARB,,1,2022_Mar_08_1243,2020.2.10,acceptmap-experience,"['Left Face', 'Right Arm', 'Left Face', 'Right Arm']",59.991097323206674,
,,,,,,,662.5282036999997,None,47.96296296296296,608.6315063499933,0.014665650014649145,5.011781150009483,,,,,,,,,,,,,,,,,,,,,,,,,,,,,,,,,,,,,,,,,,,,,,,,,,,,,4,M,24,l,ARB,,1,2022_Mar_08_1243,2020.2.10,acceptmap-experience,"['Left Face', 'Right Arm', 'Left Face', 'Right Arm']",59.991097323206674,
,,,,,,,,,,,0.01416715000232216,5.010797850001836,34.93827160493828,618.3823006500024,,,,,,,,,,,,,,,,,,,,,,,,,,,,,,,,,,,,,,,,,,,,,,,,,,,4,M,24,l,ARB,,1,2022_Mar_08_1243,2020.2.10,acceptmap-experience,"['Left Face', 'Right Arm', 'Left Face', 'Right Arm']",59.991097323206674,
,,,,,,,,,,,,,,,0.01347755000460893,None,33.827160493827165,624.865808949995,,,,,,,,,,,,,,,,,,,,,,,,,,,,,,,,,,,,,,,,,,,,,,,4,M,24,l,ARB,,1,2022_Mar_08_1243,2020.2.10,acceptmap-experience,"['Left Face', 'Right Arm', 'Left Face', 'Right Arm']",59.991097323206674,
,,,,,,,,,82.90123456790123,628.6431526999804,,,,,,,,,0.013354350012377836,None,,,,,,,,,,,,,,,,,,,,,,,,,,,,,,,,,,,,,,,,,,,,,4,M,24,l,ARB,,1,2022_Mar_08_1243,2020.2.10,acceptmap-experience,"['Left Face', 'Right Arm', 'Left Face', 'Right Arm']",59.991097323206674,
,,,,,,,,,,,0.002688100023078732,None,,,,,,,,,100.0,632.7993117499718,,,,,,,,,,,,,,,,,,,,,,,,,,,,,,,,,,,,,,,,,,,4,M,24,l,ARB,,1,2022_Mar_08_1243,2020.2.10,acceptmap-experience,"['Left Face', 'Right Arm', 'Left Face', 'Right Arm']",59.991097323206674,
,,,,,,,,,,,,,,,,,,,,,,,0.013283450025483035,None,58.14814814814815,636.4165667500056,,,,,,,,,,,,,,,,,,,,,,,,,,,,,,,,,,,,,,,4,M,24,l,ARB,,1,2022_Mar_08_1243,2020.2.10,acceptmap-experience,"['Left Face', 'Right Arm', 'Left Face', 'Right Arm']",59.991097323206674,
,,,,,,,,,,,,,,,,,,,,,,,,,,,0.012709349990473129,None,100.0,641.6993055499915,,,,,,,,,,,,,,,,,,,,,,,,,,,,,,,,,,,4,M,24,l,ARB,,1,2022_Mar_08_1243,2020.2.10,acceptmap-experience,"['Left Face', 'Right Arm', 'Left Face', 'Right Arm']",59.991097323206674,
,,,,,,,,,,,,,,,,,,,,,,,,,,,,,,,0.013347550004255027,None,3.7037037037037055,646.3653193499922,,,,,,,,,,,,,,,,,,,,,,,,,,,,,,,4,M,24,l,ARB,,1,2022_Mar_08_1243,2020.2.10,acceptmap-experience,"['Left Face', 'Right Arm', 'Left Face', 'Right Arm']",59.991097323206674,
,,,,,,,,,,,,,,,,,,,,,,,,,,,,,,,,,,,0.014025350013980642,None,74.19753086419755,653.3322510499856,,,,,,,,,,,,,,,,,,,,,,,,,,,4,M,24,l,ARB,,1,2022_Mar_08_1243,2020.2.10,acceptmap-experience,"['Left Face', 'Right Arm', 'Left Face', 'Right Arm']",59.991097323206674,
,,,,,,,,,,,,,,,,,,,,,,,,,,,,,,,,,,,,,,,0.013855750017683022,None,-23.4567901234568,666.1329431499762,,,,,,,,,,,,,,,,,,,,,,,4,M,24,l,ARB,,1,2022_Mar_08_1243,2020.2.10,acceptmap-experience,"['Left Face', 'Right Arm', 'Left Face', 'Right Arm']",59.991097323206674,
,,,,,,,,,,,,,,,,,,,,,,,,,,,,,,,,,,,,,,,,,,,0.013250450021587312,None,27.28395061728395,671.4994857500133,,,,,,,,,,,,,,,,,,,4,M,24,l,ARB,,1,2022_Mar_08_1243,2020.2.10,acceptmap-experience,"['Left Face', 'Right Arm', 'Left Face', 'Right Arm']",59.991097323206674,
,,,,,,,,,,,,,,,,,,,,,,,,,,,,,,,,,,,,,,,,,,,,,,,0.013500849992851727,None,38.39506172839506,680.0329796500009,,,,,,,,,,,,,,,4,M,24,l,ARB,,1,2022_Mar_08_1243,2020.2.10,acceptmap-experience,"['Left Face', 'Right Arm', 'Left Face', 'Right Arm']",59.991097323206674,
,,,,,,,,,,,,,,,,,,,,,,,,,,,,,,,,,,,,,,,,,,,,,,,,,,,0.013359350006794557,None,-56.91358024691358,686.0162049500068,,,,,,,,,,,4,M,24,l,ARB,,1,2022_Mar_08_1243,2020.2.10,acceptmap-experience,"['Left Face', 'Right Arm', 'Left Face', 'Right Arm']",59.991097323206674,
,,,,,,,,,,,,,,,,,,,,,,,,,,,,,,,,,,,,,,,,,,,,,,,,,,,,,,,0.013507750001735985,None,89.87654320987656,693.4166363499971,,,,,,,4,M,24,l,ARB,,1,2022_Mar_08_1243,2020.2.10,acceptmap-experience,"['Left Face', 'Right Arm', 'Left Face', 'Right Arm']",59.991097323206674,
,,,,,,,,,,,,,,,,,,,,,,,,,,,,,,,,,,,,,,,,,,,,,,,,,,,,,,,,,,,0.013152350002201274,None,95.06172839506172,699.216629350005,,,4,M,24,l,ARB,,1,2022_Mar_08_1243,2020.2.10,acceptmap-experience,"['Left Face', 'Right Arm', 'Left Face', 'Right Arm']",59.991097323206674,
792.66268210001,792.66268210001,None,space,170.23253350000596,792.66268210001,None,998.4644598000014,None,93.88888888888887,951.0319676500076,,,,,,,,,,,,,,,,,,,,,,,,,,,,,,,,,,,,,,,,,,,,,,,,,,,,,0.013102850003633648,None,4,M,24,l,ARB,,1,2022_Mar_08_1243,2020.2.10,acceptmap-experience,"['Left Face', 'Right Arm', 'Left Face', 'Right Arm']",59.991097323206674,
,,,,,,,1026.4980510000023,None,100.0,974.1506619499996,0.016685249996953644,5.01573034998728,,,,,,,,,,,,,,,,,,,,,,,,,,,,,,,,,,,,,,,,,,,,,,,,,,,,,4,M,24,l,ARB,,1,2022_Mar_08_1243,2020.2.10,acceptmap-experience,"['Left Face', 'Right Arm', 'Left Face', 'Right Arm']",59.991097323206674,
,,,,,,,1054.514950900004,None,99.93827160493828,1003.2846026500047,0.014853350003249943,5.012172849994386,,,,,,,,,,,,,,,,,,,,,,,,,,,,,,,,,,,,,,,,,,,,,,,,,,,,,4,M,24,l,ARB,,1,2022_Mar_08_1243,2020.2.10,acceptmap-experience,"['Left Face', 'Right Arm', 'Left Face', 'Right Arm']",59.991097323206674,
,,,,,,,1082.5318549000076,None,100.0,1033.551337849989,0.014520850003464147,5.011506449998706,,,,,,,,,,,,,,,,,,,,,,,,,,,,,,,,,,,,,,,,,,,,,,,,,,,,,4,M,24,l,ARB,,1,2022_Mar_08_1243,2020.2.10,acceptmap-experience,"['Left Face', 'Right Arm', 'Left Face', 'Right Arm']",59.991097323206674,
,,,,,,,1110.5487775000074,None,100.0,1057.184733950009,0.014719450016855262,5.011919550015591,,,,,,,,,,,,,,,,,,,,,,,,,,,,,,,,,,,,,,,,,,,,,,,,,,,,,4,M,24,l,ARB,,1,2022_Mar_08_1243,2020.2.10,acceptmap-experience,"['Left Face', 'Right Arm', 'Left Face', 'Right Arm']",59.991097323206674,
,,,,,,,1138.5656833000103,None,100.0,1085.585568850016,0.014850949999527074,5.012126949994126,,,,,,,,,,,,,,,,,,,,,,,,,,,,,,,,,,,,,,,,,,,,,,,,,,,,,4,M,24,l,ARB,,1,2022_Mar_08_1243,2020.2.10,acceptmap-experience,"['Left Face', 'Right Arm', 'Left Face', 'Right Arm']",59.991097323206674,
,,,,,,,1166.5826089000038,None,100.0,1115.4018638499838,0.014268349987105466,5.010988949987222,,,,,,,,,,,,,,,,,,,,,,,,,,,,,,,,,,,,,,,,,,,,,,,,,,,,,4,M,24,l,ARB,,1,2022_Mar_08_1243,2020.2.10,acceptmap-experience,"['Left Face', 'Right Arm', 'Left Face', 'Right Arm']",59.991097323206674,
,,,,,,,1194.5995144000044,None,100.0,1145.4857616500085,0.01492045001941733,5.012314050007262,,,,,,,,,,,,,,,,,,,,,,,,,,,,,,,,,,,,,,,,,,,,,,,,,,,,,4,M,24,l,ARB,,1,2022_Mar_08_1243,2020.2.10,acceptmap-experience,"['Left Face', 'Right Arm', 'Left Face', 'Right Arm']",59.991097323206674,
,,,,,,,1222.6164131000114,None,100.0,1173.8364293500053,0.014623549999669194,5.011634649999905,,,,,,,,,,,,,,,,,,,,,,,,,,,,,,,,,,,,,,,,,,,,,,,,,,,,,4,M,24,l,ARB,,1,2022_Mar_08_1243,2020.2.10,acceptmap-experience,"['Left Face', 'Right Arm', 'Left Face', 'Right Arm']",59.991097323206674,
,,,,,,,1250.6333518000029,None,100.0,1199.7030089499895,0.01419375000114087,5.01080695001292,,,,,,,,,,,,,,,,,,,,,,,,,,,,,,,,,,,,,,,,,,,,,,,,,,,,,4,M,24,l,ARB,,1,2022_Mar_08_1243,2020.2.10,acceptmap-experience,"['Left Face', 'Right Arm', 'Left Face', 'Right Arm']",59.991097323206674,
,,,,,,,1278.6502600000094,None,100.0,1229.9028515499958,0.014505850005662069,5.011459750006907,,,,,,,,,,,,,,,,,,,,,,,,,,,,,,,,,,,,,,,,,,,,,,,,,,,,,4,M,24,l,ARB,,1,2022_Mar_08_1243,2020.2.10,acceptmap-experience,"['Left Face', 'Right Arm', 'Left Face', 'Right Arm']",59.991097323206674,
,,,,,,,1306.6670603000093,None,100.0,1256.0028871499962,0.015006950008682907,5.0124747500085505,,,,,,,,,,,,,,,,,,,,,,,,,,,,,,,,,,,,,,,,,,,,,,,,,,,,,4,M,24,l,ARB,,1,2022_Mar_08_1243,2020.2.10,acceptmap-experience,"['Left Face', 'Right Arm', 'Left Face', 'Right Arm']",59.991097323206674,
,,,,,,,1334.6840738000028,None,100.0,1283.9367933500034,0.015108150008018129,5.0126900500035845,,,,,,,,,,,,,,,,,,,,,,,,,,,,,,,,,,,,,,,,,,,,,,,,,,,,,4,M,24,l,ARB,,1,2022_Mar_08_1243,2020.2.10,acceptmap-experience,"['Left Face', 'Right Arm', 'Left Face', 'Right Arm']",59.991097323206674,
,,,,,,,1362.7009821000102,None,98.88888888888889,1311.9208300499886,0.014786050000111572,5.011983549993602,,,,,,,,,,,,,,,,,,,,,,,,,,,,,,,,,,,,,,,,,,,,,,,,,,,,,4,M,24,l,ARB,,1,2022_Mar_08_1243,2020.2.10,acceptmap-experience,"['Left Face', 'Right Arm', 'Left Face', 'Right Arm']",59.991097323206674,
,,,,,,,1390.7179681999987,None,100.0,1341.904120649997,0.014336950014694594,5.011141150011099,,,,,,,,,,,,,,,,,,,,,,,,,,,,,,,,,,,,,,,,,,,,,,,,,,,,,4,M,24,l,ARB,,1,2022_Mar_08_1243,2020.2.10,acceptmap-experience,"['Left Face', 'Right Arm', 'Left Face', 'Right Arm']",59.991097323206674,
,,,,,,,1418.7348275999975,None,100.0,1367.904725750006,0.014653450009063818,5.011770149998483,,,,,,,,,,,,,,,,,,,,,,,,,,,,,,,,,,,,,,,,,,,,,,,,,,,,,4,M,24,l,ARB,,1,2022_Mar_08_1243,2020.2.10,acceptmap-experience,"['Left Face', 'Right Arm', 'Left Face', 'Right Arm']",59.991097323206674,
,,,,,,,,,,,0.014280949995736592,5.01098644999729,-61.23456790123456,1378.8224227499886,,,,,,,,,,,,,,,,,,,,,,,,,,,,,,,,,,,,,,,,,,,,,,,,,,,4,M,24,l,ARB,,1,2022_Mar_08_1243,2020.2.10,acceptmap-experience,"['Left Face', 'Right Arm', 'Left Face', 'Right Arm']",59.991097323206674,
,,,,,,,,,,,,,,,0.013363050005864352,None,93.45679012345681,1381.8554205499822,,,,,,,,,,,,,,,,,,,,,,,,,,,,,,,,,,,,,,,,,,,,,,,4,M,24,l,ARB,,1,2022_Mar_08_1243,2020.2.10,acceptmap-experience,"['Left Face', 'Right Arm', 'Left Face', 'Right Arm']",59.991097323206674,
,,,,,,,,,99.81481481481481,1385.020176999984,,,,,,,,,0.013723650015890598,None,,,,,,,,,,,,,,,,,,,,,,,,,,,,,,,,,,,,,,,,,,,,,4,M,24,l,ARB,,1,2022_Mar_08_1243,2020.2.10,acceptmap-experience,"['Left Face', 'Right Arm', 'Left Face', 'Right Arm']",59.991097323206674,
,,,,,,,,,,,0.015655700015486218,None,,,,,,,,,100.0,1388.0723885500047,,,,,,,,,,,,,,,,,,,,,,,,,,,,,,,,,,,,,,,,,,,4,M,24,l,ARB,,1,2022_Mar_08_1243,2020.2.10,acceptmap-experience,"['Left Face', 'Right Arm', 'Left Face', 'Right Arm']",59.991097323206674,
,,,,,,,,,,,,,,,,,,,,,,,0.013481949994456954,None,0.0,1391.7891276500013,,,,,,,,,,,,,,,,,,,,,,,,,,,,,,,,,,,,,,,4,M,24,l,ARB,,1,2022_Mar_08_1243,2020.2.10,acceptmap-experience,"['Left Face', 'Right Arm', 'Left Face', 'Right Arm']",59.991097323206674,
,,,,,,,,,,,,,,,,,,,,,,,,,,,0.013447749995975755,None,100.0,1395.7894189500075,,,,,,,,,,,,,,,,,,,,,,,,,,,,,,,,,,,4,M,24,l,ARB,,1,2022_Mar_08_1243,2020.2.10,acceptmap-experience,"['Left Face', 'Right Arm', 'Left Face', 'Right Arm']",59.991097323206674,
,,,,,,,,,,,,,,,,,,,,,,,,,,,,,,,0.013196050000260584,None,1.296296296296299,1400.2891780499922,,,,,,,,,,,,,,,,,,,,,,,,,,,,,,,4,M,24,l,ARB,,1,2022_Mar_08_1243,2020.2.10,acceptmap-experience,"['Left Face', 'Right Arm', 'Left Face', 'Right Arm']",59.991097323206674,
,,,,,,,,,,,,,,,,,,,,,,,,,,,,,,,,,,,0.013461550013744272,None,100.0,1403.7557408499997,,,,,,,,,,,,,,,,,,,,,,,,,,,4,M,24,l,ARB,,1,2022_Mar_08_1243,2020.2.10,acceptmap-experience,"['Left Face', 'Right Arm', 'Left Face', 'Right Arm']",59.991097323206674,
,,,,,,,,,,,,,,,,,,,,,,,,,,,,,,,,,,,,,,,0.013613750008516945,None,-91.60493827160494,1409.706083149984,,,,,,,,,,,,,,,,,,,,,,,4,M,24,l,ARB,,1,2022_Mar_08_1243,2020.2.10,acceptmap-experience,"['Left Face', 'Right Arm', 'Left Face', 'Right Arm']",59.991097323206674,
,,,,,,,,,,,,,,,,,,,,,,,,,,,,,,,,,,,,,,,,,,,0.013305650019901805,None,99.87654320987656,1412.4564475499938,,,,,,,,,,,,,,,,,,,4,M,24,l,ARB,,1,2022_Mar_08_1243,2020.2.10,acceptmap-experience,"['Left Face', 'Right Arm', 'Left Face', 'Right Arm']",59.991097323206674,
,,,,,,,,,,,,,,,,,,,,,,,,,,,,,,,,,,,,,,,,,,,,,,,0.012991950003197417,None,100.0,1416.9061200499855,,,,,,,,,,,,,,,4,M,24,l,ARB,,1,2022_Mar_08_1243,2020.2.10,acceptmap-experience,"['Left Face', 'Right Arm', 'Left Face', 'Right Arm']",59.991097323206674,
,,,,,,,,,,,,,,,,,,,,,,,,,,,,,,,,,,,,,,,,,,,,,,,,,,,0.013358750016777776,None,-90.98765432098766,1419.7394143499987,,,,,,,,,,,4,M,24,l,ARB,,1,2022_Mar_08_1243,2020.2.10,acceptmap-experience,"['Left Face', 'Right Arm', 'Left Face', 'Right Arm']",59.991097323206674,
,,,,,,,,,,,,,,,,,,,,,,,,,,,,,,,,,,,,,,,,,,,,,,,,,,,,,,,0.013401350006461143,None,100.0,1425.939308150002,,,,,,,4,M,24,l,ARB,,1,2022_Mar_08_1243,2020.2.10,acceptmap-experience,"['Left Face', 'Right Arm', 'Left Face', 'Right Arm']",59.991097323206674,
,,,,,,,,,,,,,,,,,,,,,,,,,,,,,,,,,,,,,,,,,,,,,,,,,,,,,,,,,,,0.013588150002760813,None,100.0,1430.1726658499974,,,4,M,24,l,ARB,,1,2022_Mar_08_1243,2020.2.10,acceptmap-experience,"['Left Face', 'Right Arm', 'Left Face', 'Right Arm']",59.991097323206674,
1590.5363594000082,1590.5363594000082,None,space,195.24813110000105,1590.5363594000082,None,1832.905138000002,None,89.62962962962963,1783.2243685499998,,,,,,,,,,,,,,,,,,,,,,,,,,,,,,,,,,,,,,,,,,,,,,,,,,,,,0.013595349999377504,None,4,M,24,l,ARB,,1,2022_Mar_08_1243,2020.2.10,acceptmap-experience,"['Left Face', 'Right Arm', 'Left Face', 'Right Arm']",59.991097323206674,
,,,,,,,1860.9220755999995,None,92.28395061728395,1809.9248693499976,0.014968150004278868,5.012462350001442,,,,,,,,,,,,,,,,,,,,,,,,,,,,,,,,,,,,,,,,,,,,,,,,,,,,,4,M,24,l,ARB,,1,2022_Mar_08_1243,2020.2.10,acceptmap-experience,"['Left Face', 'Right Arm', 'Left Face', 'Right Arm']",59.991097323206674,
,,,,,,,1888.9389989000047,None,90.92592592592594,1835.9081096499867,0.014705250010592863,5.011874950010679,,,,,,,,,,,,,,,,,,,,,,,,,,,,,,,,,,,,,,,,,,,,,,,,,,,,,4,M,24,l,ARB,,1,2022_Mar_08_1243,2020.2.10,acceptmap-experience,"['Left Face', 'Right Arm', 'Left Face', 'Right Arm']",59.991097323206674,
,,,,,,,1916.9558866000007,None,93.58024691358024,1868.209139249986,0.0150108500092756,5.012519149997388,,,,,,,,,,,,,,,,,,,,,,,,,,,,,,,,,,,,,,,,,,,,,,,,,,,,,4,M,24,l,ARB,,1,2022_Mar_08_1243,2020.2.10,acceptmap-experience,"['Left Face', 'Right Arm', 'Left Face', 'Right Arm']",59.991097323206674,
,,,,,,,1944.9728058000037,None,93.33333333333333,1893.9084899499867,0.014290750012150966,5.011031350004487,,,,,,,,,,,,,,,,,,,,,,,,,,,,,,,,,,,,,,,,,,,,,,,,,,,,,4,M,24,l,ARB,,1,2022_Mar_08_1243,2020.2.10,acceptmap-experience,"['Left Face', 'Right Arm', 'Left Face', 'Right Arm']",59.991097323206674,
,,,,,,,1972.9897102000104,None,93.14814814814815,1922.258830849998,0.01514865001081489,5.0127689500077395,,,,,,,,,,,,,,,,,,,,,,,,,,,,,,,,,,,,,,,,,,,,,,,,,,,,,4,M,24,l,ARB,,1,2022_Mar_08_1243,2020.2.10,acceptmap-experience,"['Left Face', 'Right Arm', 'Left Face', 'Right Arm']",59.991097323206674,
,,,,,,,2001.0066224000038,None,93.64197530864197,1950.4424493499973,0.014959749998524785,5.012358150008367,,,,,,,,,,,,,,,,,,,,,,,,,,,,,,,,,,,,,,,,,,,,,,,,,,,,,4,M,24,l,ARB,,1,2022_Mar_08_1243,2020.2.10,acceptmap-experience,"['Left Face', 'Right Arm', 'Left Face', 'Right Arm']",59.991097323206674,
,,,,,,,2029.0235465000005,None,93.39506172839506,1980.5577153499908,0.015014450007583946,5.01243925000017,,,,,,,,,,,,,,,,,,,,,,,,,,,,,,,,,,,,,,,,,,,,,,,,,,,,,4,M,24,l,ARB,,1,2022_Mar_08_1243,2020.2.10,acceptmap-experience,"['Left Face', 'Right Arm', 'Left Face', 'Right Arm']",59.991097323206674,
,,,,,,,2057.0404680000065,None,94.5679012345679,2004.493342050002,0.016698250008630566,5.015857350008446,,,,,,,,,,,,,,,,,,,,,,,,,,,,,,,,,,,,,,,,,,,,,,,,,,,,,4,M,24,l,ARB,,1,2022_Mar_08_1243,2020.2.10,acceptmap-experience,"['Left Face', 'Right Arm', 'Left Face', 'Right Arm']",59.991097323206674,
,,,,,,,2085.057384400003,None,97.34567901234567,2032.6440690500021,0.014638749998994172,5.011757150001358,,,,,,,,,,,,,,,,,,,,,,,,,,,,,,,,,,,,,,,,,,,,,,,,,,,,,4,M,24,l,ARB,,1,2022_Mar_08_1243,2020.2.10,acceptmap-experience,"['Left Face', 'Right Arm', 'Left Face', 'Right Arm']",59.991097323206674,
,,,,,,,2113.0742967000115,None,94.62962962962962,2065.627364150001,0.014125350004178472,5.010732350012404,,,,,,,,,,,,,,,,,,,,,,,,,,,,,,,,,,,,,,,,,,,,,,,,,,,,,4,M,24,l,ARB,,1,2022_Mar_08_1243,2020.2.10,acceptmap-experience,"['Left Face', 'Right Arm', 'Left Face', 'Right Arm']",59.991097323206674,
,,,,,,,2141.091213000007,None,94.50617283950619,2092.3105743500055,0.014461250000749715,5.011394550005207,,,,,,,,,,,,,,,,,,,,,,,,,,,,,,,,,,,,,,,,,,,,,,,,,,,,,4,M,24,l,ARB,,1,2022_Mar_08_1243,2020.2.10,acceptmap-experience,"['Left Face', 'Right Arm', 'Left Face', 'Right Arm']",59.991097323206674,
,,,,,,,2169.1081180000037,None,96.35802469135803,2119.7941944500053,0.014838050003163517,5.012134149990743,,,,,,,,,,,,,,,,,,,,,,,,,,,,,,,,,,,,,,,,,,,,,,,,,,,,,4,M,24,l,ARB,,1,2022_Mar_08_1243,2020.2.10,acceptmap-experience,"['Left Face', 'Right Arm', 'Left Face', 'Right Arm']",59.991097323206674,
,,,,,,,2197.1250291000033,None,95.80246913580247,2146.3783678499894,0.014787849999265745,5.012026450000121,,,,,,,,,,,,,,,,,,,,,,,,,,,,,,,,,,,,,,,,,,,,,,,,,,,,,4,M,24,l,ARB,,1,2022_Mar_08_1243,2020.2.10,acceptmap-experience,"['Left Face', 'Right Arm', 'Left Face', 'Right Arm']",59.991097323206674,
,,,,,,,2225.1419459000026,None,97.71604938271605,2171.7445151499996,0.014186750006047077,5.010840250004549,,,,,,,,,,,,,,,,,,,,,,,,,,,,,,,,,,,,,,,,,,,,,,,,,,,,,4,M,24,l,ARB,,1,2022_Mar_08_1243,2020.2.10,acceptmap-experience,"['Left Face', 'Right Arm', 'Left Face', 'Right Arm']",59.991097323206674,
,,,,,,,2253.158858499999,None,96.48148148148148,2204.94508065001,0.01491455000359565,5.012299450012506,,,,,,,,,,,,,,,,,,,,,,,,,,,,,,,,,,,,,,,,,,,,,,,,,,,,,4,M,24,l,ARB,,1,2022_Mar_08_1243,2020.2.10,acceptmap-experience,"['Left Face', 'Right Arm', 'Left Face', 'Right Arm']",59.991097323206674,
,,,,,,,,,,,0.014647949996287934,5.011780949993408,-42.592592592592595,2211.6299807500036,,,,,,,,,,,,,,,,,,,,,,,,,,,,,,,,,,,,,,,,,,,,,,,,,,,4,M,24,l,ARB,,1,2022_Mar_08_1243,2020.2.10,acceptmap-experience,"['Left Face', 'Right Arm', 'Left Face', 'Right Arm']",59.991097323206674,
,,,,,,,,,,,,,,,0.013171850005164742,None,100.0,2215.512806349987,,,,,,,,,,,,,,,,,,,,,,,,,,,,,,,,,,,,,,,,,,,,,,,4,M,24,l,ARB,,1,2022_Mar_08_1243,2020.2.10,acceptmap-experience,"['Left Face', 'Right Arm', 'Left Face', 'Right Arm']",59.991097323206674,
,,,,,,,,,100.0,2218.5948699,,,,,,,,,0.013706550016649999,None,,,,,,,,,,,,,,,,,,,,,,,,,,,,,,,,,,,,,,,,,,,,,4,M,24,l,ARB,,1,2022_Mar_08_1243,2020.2.10,acceptmap-experience,"['Left Face', 'Right Arm', 'Left Face', 'Right Arm']",59.991097323206674,
,,,,,,,,,,,0.014980399995693006,None,,,,,,,,,98.64197530864197,2221.729981550001,,,,,,,,,,,,,,,,,,,,,,,,,,,,,,,,,,,,,,,,,,,4,M,24,l,ARB,,1,2022_Mar_08_1243,2020.2.10,acceptmap-experience,"['Left Face', 'Right Arm', 'Left Face', 'Right Arm']",59.991097323206674,
,,,,,,,,,,,,,,,,,,,,,,,0.013268750000861473,None,14.50617283950617,2225.563180550016,,,,,,,,,,,,,,,,,,,,,,,,,,,,,,,,,,,,,,,4,M,24,l,ARB,,1,2022_Mar_08_1243,2020.2.10,acceptmap-experience,"['Left Face', 'Right Arm', 'Left Face', 'Right Arm']",59.991097323206674,
,,,,,,,,,,,,,,,,,,,,,,,,,,,0.013416949979728088,None,100.0,2230.3803286500042,,,,,,,,,,,,,,,,,,,,,,,,,,,,,,,,,,,4,M,24,l,ARB,,1,2022_Mar_08_1243,2020.2.10,acceptmap-experience,"['Left Face', 'Right Arm', 'Left Face', 'Right Arm']",59.991097323206674,
,,,,,,,,,,,,,,,,,,,,,,,,,,,,,,,0.012991750001674518,None,6.666666666666665,2234.2463327499863,,,,,,,,,,,,,,,,,,,,,,,,,,,,,,,4,M,24,l,ARB,,1,2022_Mar_08_1243,2020.2.10,acceptmap-experience,"['Left Face', 'Right Arm', 'Left Face', 'Right Arm']",59.991097323206674,
,,,,,,,,,,,,,,,,,,,,,,,,,,,,,,,,,,,0.013707450008951128,None,100.0,2240.5132716499793,,,,,,,,,,,,,,,,,,,,,,,,,,,4,M,24,l,ARB,,1,2022_Mar_08_1243,2020.2.10,acceptmap-experience,"['Left Face', 'Right Arm', 'Left Face', 'Right Arm']",59.991097323206674,
,,,,,,,,,,,,,,,,,,,,,,,,,,,,,,,,,,,,,,,0.01348855001560878,None,-96.54320987654322,2244.496959549986,,,,,,,,,,,,,,,,,,,,,,,4,M,24,l,ARB,,1,2022_Mar_08_1243,2020.2.10,acceptmap-experience,"['Left Face', 'Right Arm', 'Left Face', 'Right Arm']",59.991097323206674,
,,,,,,,,,,,,,,,,,,,,,,,,,,,,,,,,,,,,,,,,,,,0.013142450014129281,None,100.0,2246.646614549987,,,,,,,,,,,,,,,,,,,4,M,24,l,ARB,,1,2022_Mar_08_1243,2020.2.10,acceptmap-experience,"['Left Face', 'Right Arm', 'Left Face', 'Right Arm']",59.991097323206674,
,,,,,,,,,,,,,,,,,,,,,,,,,,,,,,,,,,,,,,,,,,,,,,,0.013536350015783682,None,87.65432098765433,2259.530330849986,,,,,,,,,,,,,,,4,M,24,l,ARB,,1,2022_Mar_08_1243,2020.2.10,acceptmap-experience,"['Left Face', 'Right Arm', 'Left Face', 'Right Arm']",59.991097323206674,
,,,,,,,,,,,,,,,,,,,,,,,,,,,,,,,,,,,,,,,,,,,,,,,,,,,0.013260750012705103,None,-100.0,2262.2631958499987,,,,,,,,,,,4,M,24,l,ARB,,1,2022_Mar_08_1243,2020.2.10,acceptmap-experience,"['Left Face', 'Right Arm', 'Left Face', 'Right Arm']",59.991097323206674,
,,,,,,,,,,,,,,,,,,,,,,,,,,,,,,,,,,,,,,,,,,,,,,,,,,,,,,,0.013735350003116764,None,96.9135802469136,2265.380603450001,,,,,,,4,M,24,l,ARB,,1,2022_Mar_08_1243,2020.2.10,acceptmap-experience,"['Left Face', 'Right Arm', 'Left Face', 'Right Arm']",59.991097323206674,
,,,,,,,,,,,,,,,,,,,,,,,,,,,,,,,,,,,,,,,,,,,,,,,,,,,,,,,,,,,0.013043150000157766,None,100.0,2268.4307646499947,,,4,M,24,l,ARB,,1,2022_Mar_08_1243,2020.2.10,acceptmap-experience,"['Left Face', 'Right Arm', 'Left Face', 'Right Arm']",59.991097323206674,
2429.777104400011,2429.777104400011,None,space,140.38404930000252,2429.777104400011,None,2617.7787519999983,None,100.0,2567.4479765499855,,,,,,,,,,,,,,,,,,,,,,,,,,,,,,,,,,,,,,,,,,,,,,,,,,,,,0.01289875000657048,None,4,M,24,l,ARB,,1,2022_Mar_08_1243,2020.2.10,acceptmap-experience,"['Left Face', 'Right Arm', 'Left Face', 'Right Arm']",59.991097323206674,
,,,,,,,2645.7956609000103,None,100.0,2592.9987852499908,0.0149597500130767,5.0123740500130225,,,,,,,,,,,,,,,,,,,,,,,,,,,,,,,,,,,,,,,,,,,,,,,,,,,,,4,M,24,l,ARB,,1,2022_Mar_08_1243,2020.2.10,acceptmap-experience,"['Left Face', 'Right Arm', 'Left Face', 'Right Arm']",59.991097323206674,
,,,,,,,2673.8125946000073,None,100.0,2624.5153242499946,0.014385650007170625,5.011221150009078,,,,,,,,,,,,,,,,,,,,,,,,,,,,,,,,,,,,,,,,,,,,,,,,,,,,,4,M,24,l,ARB,,1,2022_Mar_08_1243,2020.2.10,acceptmap-experience,"['Left Face', 'Right Arm', 'Left Face', 'Right Arm']",59.991097323206674,
,,,,,,,2701.8295107000013,None,100.0,2652.3821568500134,0.014778150012716651,5.012120150000555,,,,,,,,,,,,,,,,,,,,,,,,,,,,,,,,,,,,,,,,,,,,,,,,,,,,,4,M,24,l,ARB,,1,2022_Mar_08_1243,2020.2.10,acceptmap-experience,"['Left Face', 'Right Arm', 'Left Face', 'Right Arm']",59.991097323206674,
,,,,,,,2729.863074699999,None,100.0,2676.7493993499957,0.014861449992167763,5.012229749991093,,,,,,,,,,,,,,,,,,,,,,,,,,,,,,,,,,,,,,,,,,,,,,,,,,,,,4,M,24,l,ARB,,1,2022_Mar_08_1243,2020.2.10,acceptmap-experience,"['Left Face', 'Right Arm', 'Left Face', 'Right Arm']",59.991097323206674,
,,,,,,,2757.8799937000003,None,99.87654320987653,2708.9141353500017,0.014399450010387227,5.011288550012978,,,,,,,,,,,,,,,,,,,,,,,,,,,,,,,,,,,,,,,,,,,,,,,,,,,,,4,M,24,l,ARB,,1,2022_Mar_08_1243,2020.2.10,acceptmap-experience,"['Left Face', 'Right Arm', 'Left Face', 'Right Arm']",59.991097323206674,
,,,,,,,2785.8969374000008,None,100.0,2734.9827995499945,0.016706750000594184,5.015867950001848,,,,,,,,,,,,,,,,,,,,,,,,,,,,,,,,,,,,,,,,,,,,,,,,,,,,,4,M,24,l,ARB,,1,2022_Mar_08_1243,2020.2.10,acceptmap-experience,"['Left Face', 'Right Arm', 'Left Face', 'Right Arm']",59.991097323206674,
,,,,,,,2813.9138219000015,None,100.0,2762.299611149996,0.014963050009100698,5.012407650006935,,,,,,,,,,,,,,,,,,,,,,,,,,,,,,,,,,,,,,,,,,,,,,,,,,,,,4,M,24,l,ARB,,1,2022_Mar_08_1243,2020.2.10,acceptmap-experience,"['Left Face', 'Right Arm', 'Left Face', 'Right Arm']",59.991097323206674,
,,,,,,,2841.930736399998,None,99.93827160493828,2790.5829715500004,0.015055150011903606,5.012590149999596,,,,,,,,,,,,,,,,,,,,,,,,,,,,,,,,,,,,,,,,,,,,,,,,,,,,,4,M,24,l,ARB,,1,2022_Mar_08_1243,2020.2.10,acceptmap-experience,"['Left Face', 'Right Arm', 'Left Face', 'Right Arm']",59.991097323206674,
,,,,,,,2869.9476580000046,None,99.87654320987654,2818.3002229500125,0.015248950003297068,5.01299884999753,,,,,,,,,,,,,,,,,,,,,,,,,,,,,,,,,,,,,,,,,,,,,,,,,,,,,4,M,24,l,ARB,,1,2022_Mar_08_1243,2020.2.10,acceptmap-experience,"['Left Face', 'Right Arm', 'Left Face', 'Right Arm']",59.991097323206674,
,,,,,,,2897.964586700007,None,100.0,2846.2669201499957,0.014924749993951991,5.012318549997872,,,,,,,,,,,,,,,,,,,,,,,,,,,,,,,,,,,,,,,,,,,,,,,,,,,,,4,M,24,l,ARB,,1,2022_Mar_08_1243,2020.2.10,acceptmap-experience,"['Left Face', 'Right Arm', 'Left Face', 'Right Arm']",59.991097323206674,
,,,,,,,2925.9814818000013,None,100.0,2873.317558849987,0.015152350009884685,5.012787350016879,,,,,,,,,,,,,,,,,,,,,,,,,,,,,,,,,,,,,,,,,,,,,,,,,,,,,4,M,24,l,ARB,,1,2022_Mar_08_1243,2020.2.10,acceptmap-experience,"['Left Face', 'Right Arm', 'Left Face', 'Right Arm']",59.991097323206674,
,,,,,,,2953.9983969000023,None,100.0,2903.067704849993,0.01460945000872016,5.0116829500038875,,,,,,,,,,,,,,,,,,,,,,,,,,,,,,,,,,,,,,,,,,,,,,,,,,,,,4,M,24,l,ARB,,1,2022_Mar_08_1243,2020.2.10,acceptmap-experience,"['Left Face', 'Right Arm', 'Left Face', 'Right Arm']",59.991097323206674,
,,,,,,,2982.0153242000088,None,100.0,2932.30156995001,0.014851950007141568,5.012088949995814,,,,,,,,,,,,,,,,,,,,,,,,,,,,,,,,,,,,,,,,,,,,,,,,,,,,,4,M,24,l,ARB,,1,2022_Mar_08_1243,2020.2.10,acceptmap-experience,"['Left Face', 'Right Arm', 'Left Face', 'Right Arm']",59.991097323206674,
,,,,,,,3010.032233100006,None,100.0,2958.701893849997,0.01460784999653697,5.011690350002027,,,,,,,,,,,,,,,,,,,,,,,,,,,,,,,,,,,,,,,,,,,,,,,,,,,,,4,M,24,l,ARB,,1,2022_Mar_08_1243,2020.2.10,acceptmap-experience,"['Left Face', 'Right Arm', 'Left Face', 'Right Arm']",59.991097323206674,
,,,,,,,3038.0491507000115,None,100.0,2988.3188628500066,0.014492450005491264,5.01140745000157,,,,,,,,,,,,,,,,,,,,,,,,,,,,,,,,,,,,,,,,,,,,,,,,,,,,,4,M,24,l,ARB,,1,2022_Mar_08_1243,2020.2.10,acceptmap-experience,"['Left Face', 'Right Arm', 'Left Face', 'Right Arm']",59.991097323206674,
,,,,,,,,,,,0.014462349994573742,5.011366849998012,-50.864197530864196,2997.9363695500215,,,,,,,,,,,,,,,,,,,,,,,,,,,,,,,,,,,,,,,,,,,,,,,,,,,4,M,24,l,ARB,,1,2022_Mar_08_1243,2020.2.10,acceptmap-experience,"['Left Face', 'Right Arm', 'Left Face', 'Right Arm']",59.991097323206674,
,,,,,,,,,,,,,,,0.013734849984757602,None,100.0,3001.4196292499983,,,,,,,,,,,,,,,,,,,,,,,,,,,,,,,,,,,,,,,,,,,,,,,4,M,24,l,ARB,,1,2022_Mar_08_1243,2020.2.10,acceptmap-experience,"['Left Face', 'Right Arm', 'Left Face', 'Right Arm']",59.991097323206674,
,,,,,,,,,100.0,3004.0522727999924,,,,,,,,,0.013850250004907139,None,,,,,,,,,,,,,,,,,,,,,,,,,,,,,,,,,,,,,,,,,,,,,4,M,24,l,ARB,,1,2022_Mar_08_1243,2020.2.10,acceptmap-experience,"['Left Face', 'Right Arm', 'Left Face', 'Right Arm']",59.991097323206674,
,,,,,,,,,,,0.014529300009598956,None,,,,,,,,,100.0,3006.8369705499936,,,,,,,,,,,,,,,,,,,,,,,,,,,,,,,,,,,,,,,,,,,4,M,24,l,ARB,,1,2022_Mar_08_1243,2020.2.10,acceptmap-experience,"['Left Face', 'Right Arm', 'Left Face', 'Right Arm']",59.991097323206674,
,,,,,,,,,,,,,,,,,,,,,,,0.01327155000763014,None,2.592592592592591,3010.720758950003,,,,,,,,,,,,,,,,,,,,,,,,,,,,,,,,,,,,,,,4,M,24,l,ARB,,1,2022_Mar_08_1243,2020.2.10,acceptmap-experience,"['Left Face', 'Right Arm', 'Left Face', 'Right Arm']",59.991097323206674,
,,,,,,,,,,,,,,,,,,,,,,,,,,,0.012791450004442595,None,100.0,3014.7039233499963,,,,,,,,,,,,,,,,,,,,,,,,,,,,,,,,,,,4,M,24,l,ARB,,1,2022_Mar_08_1243,2020.2.10,acceptmap-experience,"['Left Face', 'Right Arm', 'Left Face', 'Right Arm']",59.991097323206674,
,,,,,,,,,,,,,,,,,,,,,,,,,,,,,,,0.013018450001254678,None,2.777777777777775,3018.7700220499974,,,,,,,,,,,,,,,,,,,,,,,,,,,,,,,4,M,24,l,ARB,,1,2022_Mar_08_1243,2020.2.10,acceptmap-experience,"['Left Face', 'Right Arm', 'Left Face', 'Right Arm']",59.991097323206674,
,,,,,,,,,,,,,,,,,,,,,,,,,,,,,,,,,,,0.01360125000064727,None,100.0,3021.870444950022,,,,,,,,,,,,,,,,,,,,,,,,,,,4,M,24,l,ARB,,1,2022_Mar_08_1243,2020.2.10,acceptmap-experience,"['Left Face', 'Right Arm', 'Left Face', 'Right Arm']",59.991097323206674,
,,,,,,,,,,,,,,,,,,,,,,,,,,,,,,,,,,,,,,,0.013209149983595125,None,-96.66666666666666,3025.953582849994,,,,,,,,,,,,,,,,,,,,,,,4,M,24,l,ARB,,1,2022_Mar_08_1243,2020.2.10,acceptmap-experience,"['Left Face', 'Right Arm', 'Left Face', 'Right Arm']",59.991097323206674,
,,,,,,,,,,,,,,,,,,,,,,,,,,,,,,,,,,,,,,,,,,,0.013427050012978725,None,100.0,3027.753475449994,,,,,,,,,,,,,,,,,,,4,M,24,l,ARB,,1,2022_Mar_08_1243,2020.2.10,acceptmap-experience,"['Left Face', 'Right Arm', 'Left Face', 'Right Arm']",59.991097323206674,
,,,,,,,,,,,,,,,,,,,,,,,,,,,,,,,,,,,,,,,,,,,,,,,0.013577250007074326,None,100.0,3030.3532503499882,,,,,,,,,,,,,,,4,M,24,l,ARB,,1,2022_Mar_08_1243,2020.2.10,acceptmap-experience,"['Left Face', 'Right Arm', 'Left Face', 'Right Arm']",59.991097323206674,
,,,,,,,,,,,,,,,,,,,,,,,,,,,,,,,,,,,,,,,,,,,,,,,,,,,0.013809150012093596,None,-100.0,3033.170271549985,,,,,,,,,,,4,M,24,l,ARB,,1,2022_Mar_08_1243,2020.2.10,acceptmap-experience,"['Left Face', 'Right Arm', 'Left Face', 'Right Arm']",59.991097323206674,
,,,,,,,,,,,,,,,,,,,,,,,,,,,,,,,,,,,,,,,,,,,,,,,,,,,,,,,0.013478250009939075,None,100.0,3037.0205160500045,,,,,,,4,M,24,l,ARB,,1,2022_Mar_08_1243,2020.2.10,acceptmap-experience,"['Left Face', 'Right Arm', 'Left Face', 'Right Arm']",59.991097323206674,
,,,,,,,,,,,,,,,,,,,,,,,,,,,,,,,,,,,,,,,,,,,,,,,,,,,,,,,,,,,0.013288549991557375,None,100.0,3040.7873197499866,,,4,M,24,l,ARB,,1,2022_Mar_08_1243,2020.2.10,acceptmap-experience,"['Left Face', 'Right Arm', 'Left Face', 'Right Arm']",59.991097323206674,
,,,,,,,,,,,,,,,,,,,,,,,,,,,,,,,,,,,,,,,,,,,,,,,,,,,,,,,,,,,,,,,0.013194050014135428,None,,,,,,,,,,,,,
