	onset	duration	rt	response	correct	bodySite	temperature	condition	pretrial-jitter
0	9.763597699988168	19.999935779953375				Left Face	49.0	Rest-Stim	7.0
1	29.763759599998593	4.999869280029088				Left Face		PostTrialFixation	
2	34.7641843999736	5.016054880048614		32.839506172839506		Left Face	49.0	Rest-Stim Rating	5.0
3	44.78044609999051	20.000072879949585				Left Face	49.0	Rest-Stim	5.0
4	64.78073810000205	4.999816380033735				Left Face		PostTrialFixation	
5	69.78114320000168	5.016129679977894		23.271604938271608		Left Face	49.0	Rest-Stim Rating	5.0
6	79.79751399997622	19.999963479989674				Left Face	49.0	Rest-Stim	5.0
7	99.7977544000023	5.016424680012278				Left Face		PostTrialFixation	
8	104.79993490001652	5.012595079955645		25.246913580246915		Left Face	49.0	Rest-Stim Rating	5.0
9	109.80706379999174	114.81449069996597				Left Face	49.0	2back Instructions	
10	119.82515009999042	1.995273280015681			1.0	Left Face	32.0	2back-nostim	
11	121.83457870001439	2.0098249799921177			1.0	Left Face	32.0	2back-nostim	5.0
12	123.85078799998155	2.010749279987067	0.6168977000052109	0.0	1.0	Left Face	32.0	2back-nostim	
13	125.86757439997746	2.0105809799861163	0.0	2.0	1.0	Left Face	32.0	2back-nostim	
14	127.88418240001192	2.0106843799585477	0.0	2.0	1.0	Left Face	32.0	2back-nostim	
15	129.90084810002008	2.0107400799752213	0.0	2.0	1.0	Left Face	32.0	2back-nostim	
16	131.91748459998053	2.010844179952983	0.6860233000479639	0.0	1.0	Left Face	32.0	2back-nostim	
17	133.9344006999745	2.0103571800282225	0.0	2.0	1.0	Left Face	32.0	2back-nostim	
18	135.95097639999585	2.0105812799884006	0.0	2.0	1.0	Left Face	32.0	2back-nostim	
19	137.9678133999696	2.010231180000119	0.6502789999940433	0.0	1.0	Left Face	32.0	2back-nostim	
20	146.99173650000012	151.9980959999957				Left Face	49.0	2back Instructions	
21	155.00663979997626	1.999626380042173			1.0	Left Face	32.0	2back-nostim	
22	157.0181596999755	2.0099619799875654			1.0	Left Face	32.0	2back-nostim	3.0
23	159.03447979997145	2.0107573799905367	0.0	2.0	1.0	Left Face	32.0	2back-nostim	
24	161.05138079996686	2.010221479984466	0.0	2.0	1.0	Left Face	32.0	2back-nostim	
25	163.06775960000232	2.010844080010429	0.6169442999525927	0.0	1.0	Left Face	32.0	2back-nostim	
26	165.08439410000574	2.010940979991574	0.7336136000230908	0.0	1.0	Left Face	32.0	2back-nostim	
27	167.1011749000172	2.0107497799908742	0.0	2.0	1.0	Left Face	32.0	2back-nostim	
28	169.11793379997835	2.0106056799413636	0.0	2.0	1.0	Left Face	32.0	2back-nostim	
29	171.13491550000617	2.0100057799718343	0.0	2.0	1.0	Left Face	32.0	2back-nostim	
30	173.1512179999845	2.0107501799357124	0.6168486999813467	0.0	1.0	Left Face	32.0	2back-nostim	
31	182.1750563000096	187.18169220001437				Left Face	49.0	2back Instructions	
32	190.19005319999997	2.000055879994761			1.0	Left Face	32.0	2back-nostim	
33	192.2017865999951	2.0099536800407805			1.0	Left Face	32.0	2back-nostim	3.0
34	194.218097999983	2.0107892800006084	0.0	2.0	1.0	Left Face	32.0	2back-nostim	
35	196.23481880000327	2.010664879984688	0.0	2.0	1.0	Left Face	32.0	2back-nostim	
36	198.25140549999196	2.01086367998505	0.516891699982807	0.0	1.0	Left Face	32.0	2back-nostim	
37	200.2681164999958	2.010808880033437	0.0	2.0	1.0	Left Face	32.0	2back-nostim	
38	202.28476000000956	2.0108912799623795	0.0	2.0	1.0	Left Face	32.0	2back-nostim	
39	204.30158709996613	2.0105902799405158	0.7835613000206649	0.0	1.0	Left Face	32.0	2back-nostim	
40	206.3182620999869	2.01060957997106	0.0	2.0	1.0	Left Face	32.0	2back-nostim	
41	208.33476100000553	2.0109304799698293	0.0	2.0	1.0	Left Face	32.0	2back-nostim	
42	213.3585823000176	218.3653600999969				Left Face	32.0	2back Instructions	
43	225.3739029999706	1.9996965799946338			1.0	Left Face	49.0	2back-stim	
44	227.38563919998705	2.009493379970081			1.0	Left Face	49.0	2back-stim	7.0
45	229.401694900007	2.0108189799939282	0.5335348999942653	0.0	1.0	Left Face	49.0	2back-stim	
46	231.41820169996936	2.011081380012911	0.0	2.0	1.0	Left Face	49.0	2back-stim	
47	233.4753188000177	1.9635120400926098	0.0	2.0	1.0	Left Face	49.0	2back-stim	
48	235.45202480000444	2.010277280001901	0.0	2.0	1.0	Left Face	49.0	2back-stim	
49	237.4684738999931	2.0107450800132938	0.0	2.0	1.0	Left Face	49.0	2back-stim	
50	239.48511219996726	2.010782779951114	0.0	2.0	1.0	Left Face	49.0	2back-stim	
51	241.5018868999905	2.010627979936544	0.8501913999789394	0.0	1.0	Left Face	49.0	2back-stim	
52	243.51856399996905	2.010662980028428	0.0	2.0	1.0	Left Face	49.0	2back-stim	
53	250.53583629999775	5.009905879967846		16.85185185185185		Left Face	49.0	2back-stim Rating	5.0
54	255.54092130000936	260.54933790001087				Left Face	32.0	2back Instructions	
55	265.5740160999703	2.0001700799912214			1.0	Left Face	49.0	2back-stim	
56	267.58576300001005	2.009989579964895			1.0	Left Face	49.0	2back-stim	5.0
57	269.6022277000011	2.010448480024934	0.0	2.0	1.0	Left Face	49.0	2back-stim	
58	271.61882769997464	2.010569080011919	0.7835620000259951	0.0	1.0	Left Face	49.0	2back-stim	
59	273.6730695000151	1.9687611400149763	0.0	2.0	1.0	Left Face	49.0	2back-stim	
60	275.65229240001645	2.0104376799426973	0.0	2.0	1.0	Left Face	49.0	2back-stim	
61	277.66998020000756	2.008413780014962	0.0	2.0	1.0	Left Face	49.0	2back-stim	
62	279.68575170001714	2.010258279973641	0.6168131000013091	0.0	1.0	Left Face	49.0	2back-stim	
63	281.70226380001986	2.010601579968352	0.0	2.0	1.0	Left Face	49.0	2back-stim	
64	283.7188364000176	2.010822679963894	0.6835447999765165	0.0	1.0	Left Face	49.0	2back-stim	
65	290.73697819997324	5.00836337992223		15.123456790123457		Left Face	49.0	2back-stim Rating	5.0
66	295.7420479999855	300.7494818000123				Left Face	32.0	2back Instructions	
67	305.7743184000137	2.0002584799658507			1.0	Left Face	49.0	2back-stim	
68	307.78629530000035	2.009773280005902			1.0	Left Face	49.0	2back-stim	5.0
69	309.8023935999954	2.0108541800291277	0.7523417999618687	0.0	1.0	Left Face	49.0	2back-stim	
70	311.81912250001915	2.0108015799196437	0.0	2.0	1.0	Left Face	49.0	2back-stim	
71	313.8845673999749	1.9631110199843533	0.7499056999804452	0.0	1.0	Left Face	49.0	2back-stim	
72	315.8526669999701	2.010404779925011	0.0	2.0	1.0	Left Face	49.0	2back-stim	
73	317.86926700000186	2.010560180002358	0.0	2.0	1.0	Left Face	49.0	2back-stim	
74	319.8858850999968	2.010734279989265	0.0	2.0	1.0	Left Face	49.0	2back-stim	
75	321.9026461999747	2.010558179987129	0.0	2.0	1.0	Left Face	49.0	2back-stim	
76	323.91922239999985	2.010777679970488	0.5668698000372387	0.0	1.0	Left Face	49.0	2back-stim	
77	330.936825199984	5.009317380026914		14.259259259259252		Left Face	49.0	2back-stim Rating	5.0
78	340.93489919998683	20.01320147997467				Left Face	32.0	Rest-NoStim	5.0
79	360.9348708000034	7.013502179994248				Left Face		PostTrialFixation	
80	370.93473609996727	20.014059780049138				Left Face	32.0	Rest-NoStim	3.0
81	390.9360260000103	3.01169007999124				Left Face		PostTrialFixation	
82	400.93597390002105	20.012129679962527				Left Face	32.0	Rest-NoStim	7.0
83	420.9357776999823	3.0127338799647987				Left Face		PostTrialFixation	
84	423.94236180000007	428.9527174999821				Left Face	32.0	2back Instructions	
85	435.9757971999934	1.9996304800733924			1.0	Left Face	49.0	2back-stim	
86	437.98732919996837	2.0100060799741186			1.0	Left Face	49.0	2back-stim	7.0
87	440.00367299997015	2.0106340799247846	0.0	2.0	1.0	Left Face	49.0	2back-stim	
88	442.0204535999801	2.0104178799665533	0.0	2.0	1.0	Left Face	49.0	2back-stim	
89	444.1099501000135	1.931241299957037	0.6499951000441797	0.0	1.0	Left Face	49.0	2back-stim	
90	446.05393080000067	2.0102163800038397	0.0	2.0	1.0	Left Face	49.0	2back-stim	
91	448.0702798999846	2.0108681799611077	0.6669327999697998	0.0	1.0	Left Face	49.0	2back-stim	
92	450.0869834999903	2.010839979921002	0.0	2.0	1.0	Left Face	49.0	2back-stim	
93	452.1037353000138	2.0107182799838483	0.5501932000042871	0.0	1.0	Left Face	49.0	2back-stim	
94	454.12030299997423	2.0109089799807407	0.7168814999749884	0.0	1.0	Left Face	49.0	2back-stim	
95	463.13875039998675	5.007889379980043		14.074074074074074		Left Face	49.0	2back-stim Rating	7.0
96	468.14444240002194	473.15182049997384				Left Face	32.0	2back Instructions	
97	476.1757288000081	2.000478279951494			1.0	Left Face	49.0	2back-stim	
98	478.18775649997406	2.009858979959972			1.0	Left Face	49.0	2back-stim	3.0
99	480.20401950000087	2.0106616800185293	0.6502086999826133	0.0	1.0	Left Face	49.0	2back-stim	
100	482.2206278999802	2.0107806799933314	0.0	2.0	1.0	Left Face	49.0	2back-stim	
101	484.2936165999854	1.948011719970964	0.0	2.0	1.0	Left Face	49.0	2back-stim	
102	486.2541451000143	2.0104752799961716	0.0	2.0	1.0	Left Face	49.0	2back-stim	
103	488.2705621999921	2.0109922800329514	0.5528321000165306	0.0	1.0	Left Face	49.0	2back-stim	
104	490.28741400002036	2.0106956799863838	0.7024412999744527	0.0	1.0	Left Face	49.0	2back-stim	
105	492.30423780001	2.0104060799931176	0.9003310999833047	0.0	1.0	Left Face	49.0	2back-stim	
106	494.32067869999446	2.0109261800535023	0.0	2.0	1.0	Left Face	49.0	2back-stim	
107	499.3377475999878	5.010424279957078		17.222222222222225		Left Face	49.0	2back-stim Rating	3.0
108	504.34380500001134	509.351406199974				Left Face	32.0	2back Instructions	
109	516.3761631000089	2.0003204800304957			1.0	Left Face	49.0	2back-stim	
110	518.3880111000035	2.009950379957445			1.0	Left Face	49.0	2back-stim	7.0
111	520.4046060999972	2.0101828800397925	0.8501396999927238	0.0	1.0	Left Face	49.0	2back-stim	
112	522.4211263000034	2.010512579989154	0.0	2.0	1.0	Left Face	49.0	2back-stim	
113	524.5057391999871	1.9411132000386715	0.0	2.0	1.0	Left Face	49.0	2back-stim	
114	526.4544417000143	2.0106257799779996	0.0	2.0	1.0	Left Face	49.0	2back-stim	
115	528.4710394999711	2.010800480027683	0.6169126000022516	0.0	1.0	Left Face	49.0	2back-stim	
116	530.4876794000156	2.010876879969146	0.0	2.0	1.0	Left Face	49.0	2back-stim	
117	532.504363199987	2.010922879970167	0.0	2.0	1.0	Left Face	49.0	2back-stim	
118	534.5211618000176	2.0106719799223356	0.5669130999594927	0.0	1.0	Left Face	49.0	2back-stim	
119	539.5383852999657	5.009974579967093		17.77777777777778		Left Face	49.0	2back-stim Rating	3.0
120	551.5517229000106	19.99997398001142				Left Face	49.0	Rest-Stim	7.0
121	571.5519267999916	5.016486979962792				Left Face		PostTrialFixation	
122	576.5541711999686	5.0123856799909845		31.11111111111111		Left Face	49.0	Rest-Stim Rating	5.0
123	586.5686965999776	20.000037380028516				Left Face	49.0	Rest-Stim	5.0
124	606.5689037999837	3.0164661799790338				Left Face		PostTrialFixation	
125	609.5711761999992	5.012317279935814		34.50617283950617		Left Face	49.0	Rest-Stim Rating	3.0
126	621.5856656999676	20.000008779985365				Left Face	49.0	Rest-Stim	7.0
127	641.5858888999792	3.016448379959911				Left Face		PostTrialFixation	
128	644.5884151000064	5.011806379945483		36.97530864197531		Left Face	49.0	Rest-Stim Rating	3.0
