RestT1,TaskT1,square,location,corrAns,counterbalancer.thisRepN,counterbalancer.thisTrialN,counterbalancer.thisN,counterbalancer.thisIndex,RestT1Loop.thisRepN,RestT1Loop.thisTrialN,RestT1Loop.thisN,RestT1Loop.thisIndex,TaskT1Loop.thisRepN,TaskT1Loop.thisTrialN,TaskT1Loop.thisN,TaskT1Loop.thisIndex,trials_2.thisRepN,trials_2.thisTrialN,trials_2.thisN,trials_2.thisIndex,fixation_1.started,fixation_1.stopped,NbackInstructions.started,NbackInstructions.stopped,NbackStart.keys,NbackStart.rt,NbackStart.started,NbackStart.stopped,fixation_2.started,fixation_2.stopped,response_2.x,response_2.y,response_2.leftButton,grid_lines_2.started,grid_lines_2.stopped,target_square_2.started,target_square_2.stopped,fixation_3.started,fixation_3.stopped,response_2.click,response_2.corr,response_2.started,response_2.stopped,subject number,gender,session,handedness,scanner,date,expName,psychopyVersion,frameRate,
1,0,,,,0,0,0,0,0,0,0,0,,,,,,,,,10.266433699987829,None,,,,,,,,,,,,,,,,,,,,,,99,m,99,r,MS,2021_Jun_04_1024,WASABI Nback,2020.2.10,59.90746687763815,
0,1,,,,0,1,1,1,,,,,0,0,0,0,,,,,,,390.0864494999405,None,space,0.7616421999409795,390.0864494999405,None,,,,,,,,,,,,,,,,99,m,99,r,MS,2021_Jun_04_1024,WASABI Nback,2020.2.10,59.90746687763815,
0,1,5,"[0, 0]",None,0,1,1,1,,,,,0,0,0,0,0,0,0,0,,,,,,,,,None,None,None,None,0,392.01998879993334,None,392.01998879993334,393.021014199825,393.0043821998406,None,0,1,392.01998879993334,None,99,m,99,r,MS,2021_Jun_04_1024,WASABI Nback,2020.2.10,59.90746687763815,
0,1,2,"[0, 0.2]",None,0,1,1,1,,,,,0,0,0,0,0,1,1,1,,,,,,,,,,,None,None,0,393.88764719991013,None,393.88764719991013,394.8876557999756,394.87092979997396,395.8709562998265,0,1,393.88764719991013,None,99,m,99,r,MS,2021_Jun_04_1024,WASABI Nback,2020.2.10,59.90746687763815,
0,1,6,"[0.2, 0]",None,0,1,1,1,,,,,0,0,0,0,0,2,2,2,,,,,,,,,,,None,None,0,395.8876449998934,None,395.8876449998934,396.8876628000289,396.87098339991644,397.8710160998162,0,0,395.8876449998934,None,99,m,99,r,MS,2021_Jun_04_1024,WASABI Nback,2020.2.10,59.90746687763815,
0,1,9,"[0.2, -0.2]",None,0,1,1,1,,,,,0,0,0,0,0,3,3,3,,,,,,,,,,,None,None,0,397.88774859998375,None,397.88774859998375,398.88774409983307,398.8710168998223,399.87107989983633,0,0,397.88774859998375,None,99,m,99,r,MS,2021_Jun_04_1024,WASABI Nback,2020.2.10,59.90746687763815,
0,1,3,"[0.2, 0.2]",None,0,1,1,1,,,,,0,0,0,0,0,4,4,4,,,,,,,,,,,None,None,0,399.88780549983494,None,399.88780549983494,400.88769709994085,400.871017199941,401.87121729995124,0,1,399.88780549983494,None,99,m,99,r,MS,2021_Jun_04_1024,WASABI Nback,2020.2.10,59.90746687763815,
0,1,9,"[0.2, -0.2]",1,0,1,1,1,,,,,0,0,0,0,0,5,5,5,,,,,,,,,,,None,None,0,401.8879312998615,None,401.8879312998615,402.8876994999591,402.87103659985587,403.87099039996974,0,0,401.8879312998615,None,99,m,99,r,MS,2021_Jun_04_1024,WASABI Nback,2020.2.10,59.90746687763815,
0,1,7,"[-0.2, -0.2]",None,0,1,1,1,,,,,0,0,0,0,0,6,6,6,,,,,,,,,,,None,None,0,403.8877560000401,None,403.8877560000401,404.88777369982563,404.87108720000833,405.8710515999701,0,1,403.8877560000401,None,99,m,99,r,MS,2021_Jun_04_1024,WASABI Nback,2020.2.10,59.90746687763815,
0,1,1,"[-0.2, 0.2]",None,0,1,1,1,,,,,0,0,0,0,0,7,7,7,,,,,,,,,,,None,None,0,405.88779409998097,None,405.88779409998097,406.88779730000533,406.87115489994176,407.8710719998926,0,1,405.88779409998097,None,99,m,99,r,MS,2021_Jun_04_1024,WASABI Nback,2020.2.10,59.90746687763815,
0,1,5,"[0, 0]",None,0,1,1,1,,,,,0,0,0,0,0,8,8,8,,,,,,,,,,,None,None,0,407.88775169989094,None,407.88775169989094,408.8877444998361,408.87106459983625,409.8710296000354,0,1,407.88775169989094,None,99,m,99,r,MS,2021_Jun_04_1024,WASABI Nback,2020.2.10,59.90746687763815,
0,1,7,"[-0.2, -0.2]",None,0,1,1,1,,,,,0,0,0,0,0,9,9,9,,,,,,,,,,,None,None,0,409.8877776998561,None,409.8877776998561,410.8877715000417,410.87110059987754,411.87109069991857,0,1,409.8877776998561,None,99,m,99,r,MS,2021_Jun_04_1024,WASABI Nback,2020.2.10,59.90746687763815,
0,1,5,"[0, 0]",1,0,1,1,1,,,,,0,0,0,0,0,10,10,10,,,,,,,,,,,None,None,0,411.8878247998655,None,411.8878247998655,412.8878218999598,412.87100219982676,413.871132100001,0,0,411.8878247998655,None,99,m,99,r,MS,2021_Jun_04_1024,WASABI Nback,2020.2.10,59.90746687763815,
0,1,6,"[0.2, 0]",None,0,1,1,1,,,,,0,0,0,0,0,11,11,11,,,,,,,,,,,None,None,0,413.88782879989594,None,413.88782879989594,414.8879434999544,414.8710375998635,415.871088600019,0,1,413.88782879989594,None,99,m,99,r,MS,2021_Jun_04_1024,WASABI Nback,2020.2.10,59.90746687763815,
0,1,3,"[0.2, 0.2]",None,0,1,1,1,,,,,0,0,0,0,0,12,12,12,,,,,,,,,,,None,None,0,415.88784199999645,None,415.88784199999645,416.88782209996134,416.87111489987,417.8711283998564,0,1,415.88784199999645,None,99,m,99,r,MS,2021_Jun_04_1024,WASABI Nback,2020.2.10,59.90746687763815,
0,1,6,"[0.2, 0]",1,0,1,1,1,,,,,0,0,0,0,0,13,13,13,,,,,,,,,,,None,None,0,417.8878070998471,None,417.8878070998471,418.8877979000099,418.87115959986113,419.8712162999436,0,0,417.8878070998471,None,99,m,99,r,MS,2021_Jun_04_1024,WASABI Nback,2020.2.10,59.90746687763815,
0,1,8,"[0, -0.2]",None,0,1,1,1,,,,,0,0,0,0,0,14,14,14,,,,,,,,,,,None,None,0,419.8878224999644,None,419.8878224999644,420.8878474999219,420.8712307999376,421.8712422000244,0,1,419.8878224999644,None,99,m,99,r,MS,2021_Jun_04_1024,WASABI Nback,2020.2.10,59.90746687763815,
0,1,9,"[0.2, -0.2]",None,0,1,1,1,,,,,0,0,0,0,0,15,15,15,,,,,,,,,,,None,None,0,421.88793800002895,None,421.88793800002895,422.8878448999021,422.87123799999245,423.87120089982636,0,1,421.88793800002895,None,99,m,99,r,MS,2021_Jun_04_1024,WASABI Nback,2020.2.10,59.90746687763815,
0,1,9,"[0.2, -0.2]",None,0,1,1,1,,,,,0,0,0,0,0,16,16,16,,,,,,,,,,,None,None,0,423.8878855998628,None,423.8878855998628,424.8878782999236,424.8712375999894,425.871225599898,0,1,423.8878855998628,None,99,m,99,r,MS,2021_Jun_04_1024,WASABI Nback,2020.2.10,59.90746687763815,
0,1,1,"[-0.2, 0.2]",None,0,1,1,1,,,,,0,0,0,0,0,17,17,17,,,,,,,,,,,None,None,0,425.8878939000424,None,425.8878939000424,426.8878951999359,426.87121699983254,427.87124749994837,0,1,425.8878939000424,None,99,m,99,r,MS,2021_Jun_04_1024,WASABI Nback,2020.2.10,59.90746687763815,
0,1,3,"[0.2, 0.2]",None,0,1,1,1,,,,,0,0,0,0,0,18,18,18,,,,,,,,,,,None,None,0,427.88791889999993,None,427.88791889999993,428.8879388999194,428.87131870002486,429.8713463000022,0,1,427.88791889999993,None,99,m,99,r,MS,2021_Jun_04_1024,WASABI Nback,2020.2.10,59.90746687763815,
0,1,5,"[0, 0]",None,0,1,1,1,,,,,0,0,0,0,0,19,19,19,,,,,,,,,,,None,None,0,429.8879903999623,None,429.8879903999623,430.88789179991,430.87124500004575,431.87148109986447,0,1,429.8879903999623,None,99,m,99,r,MS,2021_Jun_04_1024,WASABI Nback,2020.2.10,59.90746687763815,
0,1,3,"[0.2, 0.2]",1,0,1,1,1,,,,,0,0,0,0,0,20,20,20,,,,,,,,,,,None,None,0,431.8881031998899,None,431.8881031998899,432.88793179998174,432.87126539996825,433.8713073998224,0,0,431.8881031998899,None,99,m,99,r,MS,2021_Jun_04_1024,WASABI Nback,2020.2.10,59.90746687763815,
0,1,4,"[-0.2, 0]",None,0,1,1,1,,,,,0,0,0,0,0,21,21,21,,,,,,,,,,,None,None,0,433.88795999996364,None,433.88795999996364,434.8879765998572,434.8712330998387,435.8713356000371,0,1,433.88795999996364,None,99,m,99,r,MS,2021_Jun_04_1024,WASABI Nback,2020.2.10,59.90746687763815,
0,1,7,"[-0.2, -0.2]",None,0,1,1,1,,,,,0,0,0,0,0,22,22,22,,,,,,,,,,,None,None,0,435.888018499827,None,435.888018499827,436.8880058999639,436.87137690000236,437.87115060002543,0,1,435.888018499827,None,99,m,99,r,MS,2021_Jun_04_1024,WASABI Nback,2020.2.10,59.90746687763815,
0,1,4,"[-0.2, 0]",1,0,1,1,1,,,,,0,0,0,0,0,23,23,23,,,,,,,,,,,None,None,0,437.8877713000402,None,437.8877713000402,438.8879702000413,438.8713060999289,439.87130959983915,0,0,437.8877713000402,None,99,m,99,r,MS,2021_Jun_04_1024,WASABI Nback,2020.2.10,59.90746687763815,
0,1,4,"[-0.2, 0]",None,0,1,1,1,,,,,0,0,0,0,0,24,24,24,,,,,,,,,,,None,None,0,439.88799279998057,None,439.88799279998057,440.8879783998709,440.87134229997173,441.87134319986217,0,1,439.88799279998057,None,99,m,99,r,MS,2021_Jun_04_1024,WASABI Nback,2020.2.10,59.90746687763815,
0,1,5,"[0, 0]",None,0,1,1,1,,,,,0,0,0,0,0,25,25,25,,,,,,,,,,,None,None,0,441.88802519999444,None,441.88802519999444,442.8880296999123,442.87138779996894,443.87142549990676,0,1,441.88802519999444,None,99,m,99,r,MS,2021_Jun_04_1024,WASABI Nback,2020.2.10,59.90746687763815,
0,1,2,"[0, 0.2]",None,0,1,1,1,,,,,0,0,0,0,0,26,26,26,,,,,,,,,,,None,None,0,443.88806729996577,None,443.88806729996577,444.888099799864,444.87146299984306,445.8713823999278,0,1,443.88806729996577,None,99,m,99,r,MS,2021_Jun_04_1024,WASABI Nback,2020.2.10,59.90746687763815,
0,1,6,"[0.2, 0]",None,0,1,1,1,,,,,0,0,0,0,0,27,27,27,,,,,,,,,,,None,None,0,445.888040299993,None,445.888040299993,446.88821360003203,446.8715973999351,447.87139660003595,0,1,445.888040299993,None,99,m,99,r,MS,2021_Jun_04_1024,WASABI Nback,2020.2.10,59.90746687763815,
0,1,7,"[-0.2, -0.2]",None,0,1,1,1,,,,,0,0,0,0,0,28,28,28,,,,,,,,,,,None,None,0,447.8880880998913,None,447.8880880998913,448.8880862998776,448.87142219999805,449.87139939982444,0,1,447.8880880998913,None,99,m,99,r,MS,2021_Jun_04_1024,WASABI Nback,2020.2.10,59.90746687763815,
0,1,6,"[0.2, 0]",1,0,1,1,1,,,,,0,0,0,0,0,29,29,29,,,,,,,,,,,None,None,0,449.8880568998866,None,449.8880568998866,450.8880898000207,450.8714660999831,451.87150989985093,0,0,449.8880568998866,None,99,m,99,r,MS,2021_Jun_04_1024,WASABI Nback,2020.2.10,59.90746687763815,
0,1,6,"[0.2, 0]",None,0,1,1,1,,,,,0,0,0,0,0,30,30,30,,,,,,,,,,,None,None,0,451.88816590001807,None,451.88816590001807,452.88814049982466,452.8714582999237,453.871441999916,0,1,451.88816590001807,None,99,m,99,r,MS,2021_Jun_04_1024,WASABI Nback,2020.2.10,59.90746687763815,
0,1,7,"[-0.2, -0.2]",None,0,1,1,1,,,,,0,0,0,0,0,31,31,31,,,,,,,,,,,None,None,0,453.8881165999919,None,453.8881165999919,454.88811940001324,454.8714284999296,455.8714657998644,0,1,453.8881165999919,None,99,m,99,r,MS,2021_Jun_04_1024,WASABI Nback,2020.2.10,59.90746687763815,
0,1,6,"[0.2, 0]",1,0,1,1,1,,,,,0,0,0,0,0,32,32,32,,,,,,,,,,,None,None,0,455.88812369992957,None,455.88812369992957,456.8880435999017,456.87148689990863,457.8714789999649,0,0,455.88812369992957,None,99,m,99,r,MS,2021_Jun_04_1024,WASABI Nback,2020.2.10,59.90746687763815,
0,1,2,"[0, 0.2]",None,0,1,1,1,,,,,0,0,0,0,0,33,33,33,,,,,,,,,,,None,None,0,457.88818449992687,None,457.88818449992687,458.8881724998355,458.8715412998572,459.8715468000155,0,1,457.88818449992687,None,99,m,99,r,MS,2021_Jun_04_1024,WASABI Nback,2020.2.10,59.90746687763815,
0,1,5,"[0, 0]",None,0,1,1,1,,,,,0,0,0,0,0,34,34,34,,,,,,,,,,,None,None,0,459.88820579997264,None,459.88820579997264,460.8882215998601,460.87151009985246,461.871802699985,0,1,459.88820579997264,None,99,m,99,r,MS,2021_Jun_04_1024,WASABI Nback,2020.2.10,59.90746687763815,
0,1,4,"[-0.2, 0]",None,0,1,1,1,,,,,0,0,0,0,0,35,35,35,,,,,,,,,,,None,None,0,461.8884898000397,None,461.8884898000397,462.8881969000213,462.87150989985093,463.8715311998967,0,1,461.8884898000397,None,99,m,99,r,MS,2021_Jun_04_1024,WASABI Nback,2020.2.10,59.90746687763815,
0,1,4,"[-0.2, 0]",None,0,1,1,1,,,,,0,0,0,0,0,36,36,36,,,,,,,,,,,None,None,0,463.88821449992247,None,463.88821449992247,464.8882142000366,464.87157640000805,465.87158989999443,0,1,463.88821449992247,None,99,m,99,r,MS,2021_Jun_04_1024,WASABI Nback,2020.2.10,59.90746687763815,
0,1,7,"[-0.2, -0.2]",None,0,1,1,1,,,,,0,0,0,0,0,37,37,37,,,,,,,,,,,None,None,0,465.8882925999351,None,465.8882925999351,466.8882887000218,466.8716388999019,None,0,1,465.8882925999351,None,99,m,99,r,MS,2021_Jun_04_1024,WASABI Nback,2020.2.10,59.90746687763815,
0,1,4,"[-0.2, 0]",1,0,1,1,1,,,,,0,0,0,0,0,38,38,38,,,,,,,,,,,None,None,0,467.90372649999335,None,467.90372649999335,468.9048662998248,468.8715875998605,469.8715635999106,0,0,467.90372649999335,None,99,m,99,r,MS,2021_Jun_04_1024,WASABI Nback,2020.2.10,59.90746687763815,
0,1,3,"[0.2, 0.2]",None,0,1,1,1,,,,,0,0,0,0,0,39,39,39,,,,,,,,,,,None,None,0,469.88827069988474,None,469.88827069988474,470.8882389999926,470.8716595999431,471.87159370002337,0,1,469.88827069988474,None,99,m,99,r,MS,2021_Jun_04_1024,WASABI Nback,2020.2.10,59.90746687763815,
0,1,5,"[0, 0]",None,0,1,1,1,,,,,0,0,0,0,0,40,40,40,,,,,,,,,,,None,None,0,471.8882720998954,None,471.8882720998954,472.8882732000202,472.87160849990323,473.871674799826,0,1,471.8882720998954,None,99,m,99,r,MS,2021_Jun_04_1024,WASABI Nback,2020.2.10,59.90746687763815,
0,1,3,"[0.2, 0.2]",1,0,1,1,1,,,,,0,0,0,0,0,41,41,41,,,,,,,,,,,None,None,0,473.88831699988805,None,473.88831699988805,474.8883209999185,474.87167909997515,475.8716956998687,0,0,473.88831699988805,None,99,m,99,r,MS,2021_Jun_04_1024,WASABI Nback,2020.2.10,59.90746687763815,
0,1,1,"[-0.2, 0.2]",None,0,1,1,1,,,,,0,0,0,0,0,42,42,42,,,,,,,,,,,None,None,0,475.88839899981394,None,475.88839899981394,476.8885546999518,476.87187030003406,477.87165190000087,0,1,475.88839899981394,None,99,m,99,r,MS,2021_Jun_04_1024,WASABI Nback,2020.2.10,59.90746687763815,
0,1,9,"[0.2, -0.2]",None,0,1,1,1,,,,,0,0,0,0,0,43,43,43,,,,,,,,,,,None,None,0,477.8883289999794,None,477.8883289999794,478.8882777998224,478.87147159990855,479.87167889997363,0,1,477.8883289999794,None,99,m,99,r,MS,2021_Jun_04_1024,WASABI Nback,2020.2.10,59.90746687763815,
0,1,9,"[0.2, -0.2]",None,0,1,1,1,,,,,0,0,0,0,0,44,44,44,,,,,,,,,,,None,None,0,479.88836520002224,None,479.88836520002224,480.8884223999921,480.8716804999858,481.87171430001035,0,1,479.88836520002224,None,99,m,99,r,MS,2021_Jun_04_1024,WASABI Nback,2020.2.10,59.90746687763815,
0,1,8,"[0, -0.2]",None,0,1,1,1,,,,,0,0,0,0,0,45,45,45,,,,,,,,,,,None,None,0,481.88840959989466,None,481.88840959989466,482.888425800018,482.8717473000288,483.8716698999051,0,1,481.88840959989466,None,99,m,99,r,MS,2021_Jun_04_1024,WASABI Nback,2020.2.10,59.90746687763815,
0,1,6,"[0.2, 0]",None,0,1,1,1,,,,,0,0,0,0,0,46,46,46,,,,,,,,,,,None,None,0,483.88836749992333,None,483.88836749992333,484.88834699988365,484.8716861999128,485.8717149000149,0,1,483.88836749992333,None,99,m,99,r,MS,2021_Jun_04_1024,WASABI Nback,2020.2.10,59.90746687763815,
0,1,3,"[0.2, 0.2]",None,0,1,1,1,,,,,0,0,0,0,0,47,47,47,,,,,,,,,,,None,None,0,485.8883668000344,None,485.8883668000344,486.88842339999974,486.8717318000272,487.8717244998552,0,1,485.8883668000344,None,99,m,99,r,MS,2021_Jun_04_1024,WASABI Nback,2020.2.10,59.90746687763815,
0,1,6,"[0.2, 0]",1,0,1,1,1,,,,,0,0,0,0,0,48,48,48,,,,,,,,,,,None,None,0,487.88843629998155,None,487.88843629998155,488.8885059999302,488.8717741998844,489.87180399987847,0,0,487.88843629998155,None,99,m,99,r,MS,2021_Jun_04_1024,WASABI Nback,2020.2.10,59.90746687763815,
0,1,5,"[0, 0]",None,0,1,1,1,,,,,0,0,0,0,0,49,49,49,,,,,,,,,,,None,None,0,489.88842999981716,None,489.88842999981716,490.8885113999713,490.87181419995613,491.87195309996605,0,1,489.88842999981716,None,99,m,99,r,MS,2021_Jun_04_1024,WASABI Nback,2020.2.10,59.90746687763815,
0,1,7,"[-0.2, -0.2]",None,0,1,1,1,,,,,0,0,0,0,0,50,50,50,,,,,,,,,,,None,None,0,491.8885701999534,None,491.8885701999534,492.88842129986733,492.8717423998751,493.871756499866,0,1,491.8885701999534,None,99,m,99,r,MS,2021_Jun_04_1024,WASABI Nback,2020.2.10,59.90746687763815,
0,1,5,"[0, 0]",1,0,1,1,1,,,,,0,0,0,0,0,51,51,51,,,,,,,,,,,None,None,0,493.88842440000735,None,493.88842440000735,494.8885802999139,494.87182869995013,495.8717971998267,0,0,493.88842440000735,None,99,m,99,r,MS,2021_Jun_04_1024,WASABI Nback,2020.2.10,59.90746687763815,
0,1,1,"[-0.2, 0.2]",None,0,1,1,1,,,,,0,0,0,0,0,52,52,52,,,,,,,,,,,None,None,0,495.8884984999895,None,495.8884984999895,496.8885110998526,496.87179859983735,497.87187059991993,0,1,495.8884984999895,None,99,m,99,r,MS,2021_Jun_04_1024,WASABI Nback,2020.2.10,59.90746687763815,
0,1,7,"[-0.2, -0.2]",None,0,1,1,1,,,,,0,0,0,0,0,53,53,53,,,,,,,,,,,None,None,0,497.88856019987725,None,497.88856019987725,498.8885064998176,498.87178519996814,499.87180659989826,0,1,497.88856019987725,None,99,m,99,r,MS,2021_Jun_04_1024,WASABI Nback,2020.2.10,59.90746687763815,
0,1,9,"[0.2, -0.2]",None,0,1,1,1,,,,,0,0,0,0,0,54,54,54,,,,,,,,,,,None,None,0,499.8885087999515,None,499.8885087999515,500.8884821999818,500.8718202000018,501.87182009988464,0,1,499.8885087999515,None,99,m,99,r,MS,2021_Jun_04_1024,WASABI Nback,2020.2.10,59.90746687763815,
0,1,3,"[0.2, 0.2]",None,0,1,1,1,,,,,0,0,0,0,0,55,55,55,,,,,,,,,,,None,None,0,501.888527699979,None,501.888527699979,502.8884264000226,502.87183399987407,503.8718447999563,0,1,501.888527699979,None,99,m,99,r,MS,2021_Jun_04_1024,WASABI Nback,2020.2.10,59.90746687763815,
0,1,9,"[0.2, -0.2]",1,0,1,1,1,,,,,0,0,0,0,0,56,56,56,,,,,,,,,,,None,None,0,503.88856199989095,None,503.88856199989095,504.88857339997776,504.8718852000311,505.8719150000252,0,0,503.88856199989095,None,99,m,99,r,MS,2021_Jun_04_1024,WASABI Nback,2020.2.10,59.90746687763815,
0,1,6,"[0.2, 0]",None,0,1,1,1,,,,,0,0,0,0,0,57,57,57,,,,,,,,,,,None,None,0,505.88863579998724,None,505.88863579998724,506.888773499988,506.87203980004415,507.8718562000431,0,1,505.88863579998724,None,99,m,99,r,MS,2021_Jun_04_1024,WASABI Nback,2020.2.10,59.90746687763815,
0,1,2,"[0, 0.2]",None,0,1,1,1,,,,,0,0,0,0,0,58,58,58,,,,,,,,,,,None,None,0,507.8885653000325,None,507.8885653000325,508.88857749989256,508.87185629992746,509.8718887998257,0,1,507.8885653000325,None,99,m,99,r,MS,2021_Jun_04_1024,WASABI Nback,2020.2.10,59.90746687763815,
0,1,5,"[0, 0]",None,0,1,1,1,,,,,0,0,0,0,0,59,59,59,,,,,,,,,,,None,None,0,509.8886008998379,None,509.8886008998379,510.88861020002514,510.8718884999398,511.8719340998214,0,1,509.8886008998379,None,99,m,99,r,MS,2021_Jun_04_1024,WASABI Nback,2020.2.10,59.90746687763815,
0,1,5,"[0, 0]",None,0,1,1,1,,,,,0,0,0,0,0,60,60,60,,,,,,,,,,,None,None,0,511.88868490001187,None,511.88868490001187,512.8886629999615,512.8719412998762,513.8719407999888,0,1,511.88868490001187,None,99,m,99,r,MS,2021_Jun_04_1024,WASABI Nback,2020.2.10,59.90746687763815,
0,1,2,"[0, 0.2]",None,0,1,1,1,,,,,0,0,0,0,0,61,61,61,,,,,,,,,,,None,None,0,513.8886341999751,None,513.8886341999751,514.8885855998378,514.8718910999596,515.8719095999841,0,1,513.8886341999751,None,99,m,99,r,MS,2021_Jun_04_1024,WASABI Nback,2020.2.10,59.90746687763815,
0,1,6,"[0.2, 0]",None,0,1,1,1,,,,,0,0,0,0,0,62,62,62,,,,,,,,,,,None,None,0,515.8886314998381,None,515.8886314998381,516.8886164999567,516.8719231998548,517.8719512999523,0,1,515.8886314998381,None,99,m,99,r,MS,2021_Jun_04_1024,WASABI Nback,2020.2.10,59.90746687763815,
0,1,9,"[0.2, -0.2]",None,0,1,1,1,,,,,0,0,0,0,0,63,63,63,,,,,,,,,,,None,None,0,517.8886923999526,None,517.8886923999526,518.8886541000102,518.8719694998581,519.8720023999922,0,1,517.8886923999526,None,99,m,99,r,MS,2021_Jun_04_1024,WASABI Nback,2020.2.10,59.90746687763815,
0,1,3,"[0.2, 0.2]",None,0,1,1,1,,,,,0,0,0,0,0,64,64,64,,,,,,,,,,,None,None,0,519.8887057998218,None,519.8887057998218,520.8885914999992,520.8720527999103,521.8719891000073,0,1,519.8887057998218,None,99,m,99,r,MS,2021_Jun_04_1024,WASABI Nback,2020.2.10,59.90746687763815,
0,1,9,"[0.2, -0.2]",1,0,1,1,1,,,,,0,0,0,0,0,65,65,65,,,,,,,,,,,None,None,0,521.8886781998444,None,521.8886781998444,522.8886896998156,522.8720225999132,523.8719962998293,0,0,521.8886781998444,None,99,m,99,r,MS,2021_Jun_04_1024,WASABI Nback,2020.2.10,59.90746687763815,
0,1,7,"[-0.2, -0.2]",None,0,1,1,1,,,,,0,0,0,0,0,66,66,66,,,,,,,,,,,None,None,0,523.8887177000288,None,523.8887177000288,524.8887064999435,524.8721067998558,525.8720280998386,0,1,523.8887177000288,None,99,m,99,r,MS,2021_Jun_04_1024,WASABI Nback,2020.2.10,59.90746687763815,
0,1,1,"[-0.2, 0.2]",None,0,1,1,1,,,,,0,0,0,0,0,67,67,67,,,,,,,,,,,None,None,0,525.8887538998388,None,525.8887538998388,526.8886126999278,526.8721137000248,527.8720764999744,0,1,525.8887538998388,None,99,m,99,r,MS,2021_Jun_04_1024,WASABI Nback,2020.2.10,59.90746687763815,
0,1,5,"[0, 0]",None,0,1,1,1,,,,,0,0,0,0,0,68,68,68,,,,,,,,,,,None,None,0,527.8887916998938,None,527.8887916998938,528.8887161000166,528.8720372000244,529.8720131998416,0,1,527.8887916998938,None,99,m,99,r,MS,2021_Jun_04_1024,WASABI Nback,2020.2.10,59.90746687763815,
0,1,7,"[-0.2, -0.2]",None,0,1,1,1,,,,,0,0,0,0,0,69,69,69,,,,,,,,,,,None,None,0,529.8888075998984,None,529.8888075998984,530.8887153000105,530.8720604998525,531.8720765998587,0,1,529.8888075998984,None,99,m,99,r,MS,2021_Jun_04_1024,WASABI Nback,2020.2.10,59.90746687763815,
0,1,5,"[0, 0]",1,0,1,1,1,,,,,0,0,0,0,0,70,70,70,,,,,,,,,,,None,None,0,531.8887634000275,None,531.8887634000275,532.8887231999543,532.8720841999166,533.8720994000323,0,0,531.8887634000275,None,99,m,99,r,MS,2021_Jun_04_1024,WASABI Nback,2020.2.10,59.90746687763815,
0,1,6,"[0.2, 0]",None,0,1,1,1,,,,,0,0,0,0,0,71,71,71,,,,,,,,,,,None,None,0,533.8887948999181,None,533.8887948999181,534.8887964999303,534.8721967998426,535.8721239999868,0,1,533.8887948999181,None,99,m,99,r,MS,2021_Jun_04_1024,WASABI Nback,2020.2.10,59.90746687763815,
0,1,3,"[0.2, 0.2]",None,0,1,1,1,,,,,0,0,0,0,0,72,72,72,,,,,,,,,,,None,None,0,535.8888817999978,None,535.8888817999978,536.8887712999713,536.8721008999273,537.8721220998559,0,1,535.8888817999978,None,99,m,99,r,MS,2021_Jun_04_1024,WASABI Nback,2020.2.10,59.90746687763815,
0,1,6,"[0.2, 0]",1,0,1,1,1,,,,,0,0,0,0,0,73,73,73,,,,,,,,,,,None,None,0,537.8887697998434,None,537.8887697998434,538.8888532000128,538.8721137999091,539.8721385998651,0,0,537.8887697998434,None,99,m,99,r,MS,2021_Jun_04_1024,WASABI Nback,2020.2.10,59.90746687763815,
0,1,8,"[0, -0.2]",None,0,1,1,1,,,,,0,0,0,0,0,74,74,74,,,,,,,,,,,None,None,0,539.8888883998152,None,539.8888883998152,540.8888145999517,540.8721531999763,541.8721757000312,0,1,539.8888883998152,None,99,m,99,r,MS,2021_Jun_04_1024,WASABI Nback,2020.2.10,59.90746687763815,
0,1,9,"[0.2, -0.2]",None,0,1,1,1,,,,,0,0,0,0,0,75,75,75,,,,,,,,,,,None,None,0,541.888898300007,None,541.888898300007,542.888890999835,542.8723142000381,543.8721604999155,0,1,541.888898300007,None,99,m,99,r,MS,2021_Jun_04_1024,WASABI Nback,2020.2.10,59.90746687763815,
0,1,9,"[0.2, -0.2]",None,0,1,1,1,,,,,0,0,0,0,0,76,76,76,,,,,,,,,,,None,None,0,543.8888308999594,None,543.8888308999594,544.8888276999351,544.8721973998472,545.8721910000313,0,1,543.8888308999594,None,99,m,99,r,MS,2021_Jun_04_1024,WASABI Nback,2020.2.10,59.90746687763815,
0,1,1,"[-0.2, 0.2]",None,0,1,1,1,,,,,0,0,0,0,0,77,77,77,,,,,,,,,,,None,None,0,545.8888526998926,None,545.8888526998926,546.8889015999157,546.8722347998992,547.8722635998856,0,1,545.8888526998926,None,99,m,99,r,MS,2021_Jun_04_1024,WASABI Nback,2020.2.10,59.90746687763815,
0,1,3,"[0.2, 0.2]",None,0,1,1,1,,,,,0,0,0,0,0,78,78,78,,,,,,,,,,,None,None,0,547.8889283000026,None,547.8889283000026,548.8888808998745,548.8722553998232,549.8722997999284,0,1,547.8889283000026,None,99,m,99,r,MS,2021_Jun_04_1024,WASABI Nback,2020.2.10,59.90746687763815,
0,1,5,"[0, 0]",None,0,1,1,1,,,,,0,0,0,0,0,79,79,79,,,,,,,,,,,None,None,0,549.8889515998308,None,549.8889515998308,550.8889009999111,550.8722139999736,551.8722459999844,0,1,549.8889515998308,None,99,m,99,r,MS,2021_Jun_04_1024,WASABI Nback,2020.2.10,59.90746687763815,
0,1,3,"[0.2, 0.2]",1,0,1,1,1,,,,,0,0,0,0,0,80,80,80,,,,,,,,,,,None,None,0,551.8888870999217,None,551.8888870999217,552.8888822998852,552.872247699881,553.8722609998658,0,0,551.8888870999217,None,99,m,99,r,MS,2021_Jun_04_1024,WASABI Nback,2020.2.10,59.90746687763815,
0,1,4,"[-0.2, 0]",None,0,1,1,1,,,,,0,0,0,0,0,81,81,81,,,,,,,,,,,None,None,0,553.8889216999523,None,553.8889216999523,554.8889057999477,554.8723085999954,555.8723108998965,0,1,553.8889216999523,None,99,m,99,r,MS,2021_Jun_04_1024,WASABI Nback,2020.2.10,59.90746687763815,
0,1,7,"[-0.2, -0.2]",None,0,1,1,1,,,,,0,0,0,0,0,82,82,82,,,,,,,,,,,None,None,0,555.8890025999863,None,555.8890025999863,556.8890013999771,556.8723889000248,557.872284400044,0,1,555.8890025999863,None,99,m,99,r,MS,2021_Jun_04_1024,WASABI Nback,2020.2.10,59.90746687763815,
0,1,4,"[-0.2, 0]",1,0,1,1,1,,,,,0,0,0,0,0,83,83,83,,,,,,,,,,,None,None,0,557.8889504999388,None,557.8889504999388,558.8888613998424,558.8722448998597,559.8722456998657,0,0,557.8889504999388,None,99,m,99,r,MS,2021_Jun_04_1024,WASABI Nback,2020.2.10,59.90746687763815,
0,1,4,"[-0.2, 0]",None,0,1,1,1,,,,,0,0,0,0,0,84,84,84,,,,,,,,,,,None,None,0,559.8888923998456,None,559.8888923998456,560.8889643000439,560.8722828000318,561.8723394998815,0,1,559.8888923998456,None,99,m,99,r,MS,2021_Jun_04_1024,WASABI Nback,2020.2.10,59.90746687763815,
0,1,5,"[0, 0]",None,0,1,1,1,,,,,0,0,0,0,0,85,85,85,,,,,,,,,,,None,None,0,561.8889768000226,None,561.8889768000226,562.8890015999787,562.8724026000127,563.8724102999549,0,1,561.8889768000226,None,99,m,99,r,MS,2021_Jun_04_1024,WASABI Nback,2020.2.10,59.90746687763815,
0,1,2,"[0, 0.2]",None,0,1,1,1,,,,,0,0,0,0,0,86,86,86,,,,,,,,,,,None,None,0,563.8890082999133,None,563.8890082999133,564.889039099915,564.8724823999219,565.8723352998495,0,1,563.8890082999133,None,99,m,99,r,MS,2021_Jun_04_1024,WASABI Nback,2020.2.10,59.90746687763815,
0,1,6,"[0.2, 0]",None,0,1,1,1,,,,,0,0,0,0,0,87,87,87,,,,,,,,,,,None,None,0,565.8890160999727,None,565.8890160999727,566.8889746998902,566.8724397998303,567.8723989999853,0,1,565.8890160999727,None,99,m,99,r,MS,2021_Jun_04_1024,WASABI Nback,2020.2.10,59.90746687763815,
0,1,7,"[-0.2, -0.2]",None,0,1,1,1,,,,,0,0,0,0,0,88,88,88,,,,,,,,,,,None,None,0,567.8890048998874,None,567.8890048998874,568.8890415998176,568.872412199853,569.8725151999388,0,1,567.8890048998874,None,99,m,99,r,MS,2021_Jun_04_1024,WASABI Nback,2020.2.10,59.90746687763815,
0,1,6,"[0.2, 0]",1,0,1,1,1,,,,,0,0,0,0,0,89,89,89,,,,,,,,,,,None,None,0,569.8889973999467,None,569.8889973999467,570.8890102000441,570.8724288998637,571.8724703998305,0,0,569.8889973999467,None,99,m,99,r,MS,2021_Jun_04_1024,WASABI Nback,2020.2.10,59.90746687763815,
0,1,6,"[0.2, 0]",None,0,1,1,1,,,,,0,0,0,0,0,90,90,90,,,,,,,,,,,None,None,0,571.8891679998487,None,571.8891679998487,572.8893150000367,572.8726733999792,573.8724036999047,0,1,571.8891679998487,None,99,m,99,r,MS,2021_Jun_04_1024,WASABI Nback,2020.2.10,59.90746687763815,
0,1,7,"[-0.2, -0.2]",None,0,1,1,1,,,,,0,0,0,0,0,91,91,91,,,,,,,,,,,None,None,0,573.8890910998452,None,573.8890910998452,574.8889991999604,574.8724275999703,575.8724336000159,0,1,573.8890910998452,None,99,m,99,r,MS,2021_Jun_04_1024,WASABI Nback,2020.2.10,59.90746687763815,
0,1,6,"[0.2, 0]",1,0,1,1,1,,,,,0,0,0,0,0,92,92,92,,,,,,,,,,,None,None,0,575.8891026999336,None,575.8891026999336,576.8890795998741,576.8724807999097,577.8725256999023,0,0,575.8891026999336,None,99,m,99,r,MS,2021_Jun_04_1024,WASABI Nback,2020.2.10,59.90746687763815,
0,1,2,"[0, 0.2]",None,0,1,1,1,,,,,0,0,0,0,0,93,93,93,,,,,,,,,,,None,None,0,577.8891382999718,None,577.8891382999718,578.8891864998732,578.8725221999921,579.8725455999374,0,1,577.8891382999718,None,99,m,99,r,MS,2021_Jun_04_1024,WASABI Nback,2020.2.10,59.90746687763815,
0,1,5,"[0, 0]",None,0,1,1,1,,,,,0,0,0,0,0,94,94,94,,,,,,,,,,,None,None,0,579.8892224000301,None,579.8892224000301,580.8890990000218,580.8724584998563,581.8724990999326,0,1,579.8892224000301,None,99,m,99,r,MS,2021_Jun_04_1024,WASABI Nback,2020.2.10,59.90746687763815,
0,1,4,"[-0.2, 0]",None,0,1,1,1,,,,,0,0,0,0,0,95,95,95,,,,,,,,,,,None,None,0,581.8891435000114,None,581.8891435000114,582.8891580998898,582.8725164998323,583.8725097000133,0,1,581.8891435000114,None,99,m,99,r,MS,2021_Jun_04_1024,WASABI Nback,2020.2.10,59.90746687763815,
0,1,4,"[-0.2, 0]",None,0,1,1,1,,,,,0,0,0,0,0,96,96,96,,,,,,,,,,,None,None,0,583.8892160998657,None,583.8892160998657,584.88916469994,584.8725524998736,585.8725711000152,0,1,583.8892160998657,None,99,m,99,r,MS,2021_Jun_04_1024,WASABI Nback,2020.2.10,59.90746687763815,
0,1,7,"[-0.2, -0.2]",None,0,1,1,1,,,,,0,0,0,0,0,97,97,97,,,,,,,,,,,None,None,0,585.8892220999114,None,585.8892220999114,586.8892425999511,586.872591599822,587.8726011000108,0,1,585.8892220999114,None,99,m,99,r,MS,2021_Jun_04_1024,WASABI Nback,2020.2.10,59.90746687763815,
0,1,4,"[-0.2, 0]",1,0,1,1,1,,,,,0,0,0,0,0,98,98,98,,,,,,,,,,,None,None,0,587.8893102000002,None,587.8893102000002,588.8892124998383,588.8725475999527,589.872558800038,0,0,587.8893102000002,None,99,m,99,r,MS,2021_Jun_04_1024,WASABI Nback,2020.2.10,59.90746687763815,
0,1,3,"[0.2, 0.2]",None,0,1,1,1,,,,,0,0,0,0,0,99,99,99,,,,,,,,,,,None,None,0,589.8892375000287,None,589.8892375000287,590.8892334999982,590.8726009998936,591.8725894999225,0,1,589.8892375000287,None,99,m,99,r,MS,2021_Jun_04_1024,WASABI Nback,2020.2.10,59.90746687763815,
0,1,5,"[0, 0]",None,0,1,1,1,,,,,0,0,0,0,0,100,100,100,,,,,,,,,,,None,None,0,591.8892953000031,None,591.8892953000031,592.8892828000244,592.872600399889,593.8726486999076,0,1,591.8892953000031,None,99,m,99,r,MS,2021_Jun_04_1024,WASABI Nback,2020.2.10,59.90746687763815,
0,1,3,"[0.2, 0.2]",1,0,1,1,1,,,,,0,0,0,0,0,101,101,101,,,,,,,,,,,None,None,0,593.8893320998177,None,593.8893320998177,594.8893770999275,594.8726569998544,595.8726001998875,0,0,593.8893320998177,None,99,m,99,r,MS,2021_Jun_04_1024,WASABI Nback,2020.2.10,59.90746687763815,
0,1,1,"[-0.2, 0.2]",None,0,1,1,1,,,,,0,0,0,0,0,102,102,102,,,,,,,,,,,None,None,0,595.8892667000182,None,595.8892667000182,596.889291399857,596.8726164000109,597.8726037000306,0,1,595.8892667000182,None,99,m,99,r,MS,2021_Jun_04_1024,WASABI Nback,2020.2.10,59.90746687763815,
0,1,9,"[0.2, -0.2]",None,0,1,1,1,,,,,0,0,0,0,0,103,103,103,,,,,,,,,,,None,None,0,597.8893185998313,None,597.8893185998313,598.8892687000334,598.8726397999562,599.8726659000386,0,1,597.8893185998313,None,99,m,99,r,MS,2021_Jun_04_1024,WASABI Nback,2020.2.10,59.90746687763815,
0,1,9,"[0.2, -0.2]",None,0,1,1,1,,,,,0,0,0,0,0,104,104,104,,,,,,,,,,,None,None,0,599.8893567998894,None,599.8893567998894,600.8893696998712,600.8726718998514,601.8727310998365,0,1,599.8893567998894,None,99,m,99,r,MS,2021_Jun_04_1024,WASABI Nback,2020.2.10,59.90746687763815,
0,1,8,"[0, -0.2]",None,0,1,1,1,,,,,0,0,0,0,0,105,105,105,,,,,,,,,,,None,None,0,601.889404400019,None,601.889404400019,602.8894284998532,602.8727474999614,603.8726764000021,0,1,601.889404400019,None,99,m,99,r,MS,2021_Jun_04_1024,WASABI Nback,2020.2.10,59.90746687763815,
0,1,6,"[0.2, 0]",None,0,1,1,1,,,,,0,0,0,0,0,106,106,106,,,,,,,,,,,None,None,0,603.8893330998253,None,603.8893330998253,604.8893255000003,604.8726760998834,605.8726849998347,0,1,603.8893330998253,None,99,m,99,r,MS,2021_Jun_04_1024,WASABI Nback,2020.2.10,59.90746687763815,
0,1,3,"[0.2, 0.2]",None,0,1,1,1,,,,,0,0,0,0,0,107,107,107,,,,,,,,,,,None,None,0,605.8893675999716,None,605.8893675999716,606.8893656998407,606.8727284998167,607.8727305999491,0,1,605.8893675999716,None,99,m,99,r,MS,2021_Jun_04_1024,WASABI Nback,2020.2.10,59.90746687763815,
0,1,6,"[0.2, 0]",1,0,1,1,1,,,,,0,0,0,0,0,108,108,108,,,,,,,,,,,None,None,0,607.889418900013,None,607.889418900013,608.889425399946,608.8727782999631,609.8728094999678,0,0,607.889418900013,None,99,m,99,r,MS,2021_Jun_04_1024,WASABI Nback,2020.2.10,59.90746687763815,
0,1,5,"[0, 0]",None,0,1,1,1,,,,,0,0,0,0,0,109,109,109,,,,,,,,,,,None,None,0,609.8894988000393,None,609.8894988000393,610.8893830999732,610.8727370998822,611.8727433998138,0,1,609.8894988000393,None,99,m,99,r,MS,2021_Jun_04_1024,WASABI Nback,2020.2.10,59.90746687763815,
0,1,7,"[-0.2, -0.2]",None,0,1,1,1,,,,,0,0,0,0,0,110,110,110,,,,,,,,,,,None,None,0,611.8894505999051,None,611.8894505999051,612.8894038998988,612.8727535000071,613.8727565999143,0,1,611.8894505999051,None,99,m,99,r,MS,2021_Jun_04_1024,WASABI Nback,2020.2.10,59.90746687763815,
0,1,5,"[0, 0]",1,0,1,1,1,,,,,0,0,0,0,0,111,111,111,,,,,,,,,,,None,None,0,613.8894485998899,None,613.8894485998899,614.8895945998374,614.8728105998598,615.8728032999206,0,0,613.8894485998899,None,99,m,99,r,MS,2021_Jun_04_1024,WASABI Nback,2020.2.10,59.90746687763815,
0,1,1,"[-0.2, 0.2]",None,0,1,1,1,,,,,0,0,0,0,0,112,112,112,,,,,,,,,,,None,None,0,615.889430299867,None,615.889430299867,616.8894970999099,616.8728185999207,617.8728375998326,0,1,615.889430299867,None,99,m,99,r,MS,2021_Jun_04_1024,WASABI Nback,2020.2.10,59.90746687763815,
0,1,7,"[-0.2, -0.2]",None,0,1,1,1,,,,,0,0,0,0,0,113,113,113,,,,,,,,,,,None,None,0,617.8895433000289,None,617.8895433000289,618.8894464999903,618.872787799919,619.8728045998141,0,1,617.8895433000289,None,99,m,99,r,MS,2021_Jun_04_1024,WASABI Nback,2020.2.10,59.90746687763815,
0,1,9,"[0.2, -0.2]",None,0,1,1,1,,,,,0,0,0,0,0,114,114,114,,,,,,,,,,,None,None,0,619.8894725998398,None,619.8894725998398,620.889470399823,620.8728197999299,621.8727859999053,0,1,619.8894725998398,None,99,m,99,r,MS,2021_Jun_04_1024,WASABI Nback,2020.2.10,59.90746687763815,
0,1,3,"[0.2, 0.2]",None,0,1,1,1,,,,,0,0,0,0,0,115,115,115,,,,,,,,,,,None,None,0,621.8895566998981,None,621.8895566998981,622.8895179999527,622.872854999965,623.8728290998843,0,1,621.8895566998981,None,99,m,99,r,MS,2021_Jun_04_1024,WASABI Nback,2020.2.10,59.90746687763815,
0,1,9,"[0.2, -0.2]",1,0,1,1,1,,,,,0,0,0,0,0,116,116,116,,,,,,,,,,,None,None,0,623.8895930999424,None,623.8895930999424,624.8895967998542,624.8729236000217,625.8728394999634,0,0,623.8895930999424,None,99,m,99,r,MS,2021_Jun_04_1024,WASABI Nback,2020.2.10,59.90746687763815,
0,1,6,"[0.2, 0]",None,0,1,1,1,,,,,0,0,0,0,0,117,117,117,,,,,,,,,,,None,None,0,625.8895089998841,None,625.8895089998841,626.8895103000104,626.8728530998342,627.8728524998296,0,1,625.8895089998841,None,99,m,99,r,MS,2021_Jun_04_1024,WASABI Nback,2020.2.10,59.90746687763815,
0,1,2,"[0, 0.2]",None,0,1,1,1,,,,,0,0,0,0,0,118,118,118,,,,,,,,,,,None,None,0,627.8895365998615,None,627.8895365998615,628.8895486998372,628.8728665998206,629.8729218998924,0,1,627.8895365998615,None,99,m,99,r,MS,2021_Jun_04_1024,WASABI Nback,2020.2.10,59.90746687763815,
0,1,5,"[0, 0]",None,0,1,1,1,,,,,0,0,0,0,0,119,119,119,,,,,,,,,,,None,None,0,629.8895967998542,None,629.8895967998542,630.8896234999411,630.8729089999106,631.8729228000157,0,1,629.8895967998542,None,99,m,99,r,MS,2021_Jun_04_1024,WASABI Nback,2020.2.10,59.90746687763815,
