square,location,corrAns,trials.thisRepN,trials.thisTrialN,trials.thisN,trials.thisIndex,trials_2.thisRepN,trials_2.thisTrialN,trials_2.thisN,trials_2.thisIndex,fixation_1.started,fixation_1.stopped,grid_lines.started,grid_lines.stopped,target_square.started,target_square.stopped,fixation_2.started,fixation_2.stopped,response.corr,response.x,response.y,response.leftButton,response.click_left,response.click_right,response.started,response.stopped,response.rt_left,response.rt_right,ScoreReportText.started,ScoreReportText.stopped,ScoreReportResponse.keys,ScoreReportResponse.started,ScoreReportResponse.stopped,response_2.x,response_2.y,response_2.leftButton,grid_lines_2.started,grid_lines_2.stopped,target_square_2.started,target_square_2.stopped,fixation_3.started,fixation_3.stopped,response_2.click,response_2.corr,response_2.started,response_2.stopped,BodySiteInstructionText.started,BodySiteImg.started,BodySiteImg.stopped,BodySiteInstructionRead.keys,BodySiteInstructionRead.rt,BodySiteInstructionRead.started,BodySiteInstructionRead.stopped,IntensityRating.response,IntensityRating.rt,IntensityRating.started,IntensityRating.stopped,response.click,subject number,gender,distractMap first- or second-half (1 or 2),session,handedness,scanner,date,psychopyVersion,expName,frameRate,body_site_order,
6,"[0.2, 0]",None,0,0,0,0,,,,,691.4081629000138,None,692.4415247000288,None,692.4415247000288,693.4415023999754,693.4248515999643,None,1,0.06759259259259259,0.06481481481481481,"[0, 0, 0]",0,0,692.4415247000288,None,,,,,,,,,,,,,,,,,,,,,,,,,,,,,,,,,1002,M,2,6,R,ARB,2022_Jan_27_1849,2020.2.10,distractmap2,60.004992397498185,"['Chest', 'Right Face', 'Right Leg', 'Left Leg']",
6,"[0.2, 0]",1,0,1,1,1,,,,,,,694.4247687000316,None,694.4247687000316,695.4248692999827,695.4081955000293,696.4082041999791,0,0.06759259259259259,0.06481481481481481,"[0, 0, 0]",0,0,694.4247687000316,None,,,,,,,,,,,,,,,,,,,,,,,,,,,,,,,,,1002,M,2,6,R,ARB,2022_Jan_27_1849,2020.2.10,distractmap2,60.004992397498185,"['Chest', 'Right Face', 'Right Leg', 'Left Leg']",
2,"[0, 0.2]",0,0,2,2,2,,,,,,,696.4248920000391,None,696.4248920000391,697.4248740000185,697.408224200015,698.4082346999785,0,0.06759259259259259,0.06481481481481481,"[1, 0, 0]",1,0,696.4248920000391,None,1.6296176000032574,0.0,,,,,,,,,,,,,,,,,,,,,,,,,,,,,,,1002,M,2,6,R,ARB,2022_Jan_27_1849,2020.2.10,distractmap2,60.004992397498185,"['Chest', 'Right Face', 'Right Leg', 'Left Leg']",
9,"[0.2, -0.2]",0,0,3,3,3,,,,,,,698.4249092000537,None,698.4249092000537,699.4248971999623,699.4082479999634,700.4082405000227,0,0.06759259259259259,0.06481481481481481,"[0, 0, 0]",0,0,698.4249092000537,None,,,,,,,,,,,,,,,,,,,,,,,,,,,,,,,,,1002,M,2,6,R,ARB,2022_Jan_27_1849,2020.2.10,distractmap2,60.004992397498185,"['Chest', 'Right Face', 'Right Leg', 'Left Leg']",
9,"[0.2, -0.2]",1,0,4,4,4,,,,,,,700.4248923000414,None,700.4248923000414,701.4249167999951,701.408256100025,702.4082627999596,0,0.06759259259259259,0.06481481481481481,"[0, 0, 0]",0,0,700.4248923000414,None,,,,,,,,,,,,,,,,,,,,,,,,,,,,,,,,,1002,M,2,6,R,ARB,2022_Jan_27_1849,2020.2.10,distractmap2,60.004992397498185,"['Chest', 'Right Face', 'Right Leg', 'Left Leg']",
6,"[0.2, 0]",0,0,5,5,5,,,,,,,702.4249165999936,None,702.4249165999936,703.4249332000036,703.4082604999421,704.4082626999589,0,0.06759259259259259,0.06481481481481481,"[0, 0, 0]",0,0,702.4249165999936,None,,,,,,,,,,,,,,,,,,,,,,,,,,,,,,,,,1002,M,2,6,R,ARB,2022_Jan_27_1849,2020.2.10,distractmap2,60.004992397498185,"['Chest', 'Right Face', 'Right Leg', 'Left Leg']",
4,"[-0.2, 0]",0,0,6,6,6,,,,,,,704.4249151999829,None,704.4249151999829,705.4249691000441,705.4082803999772,706.4078006000491,0,0.06759259259259259,0.06481481481481481,"[0, 0, 0]",0,0,704.4249151999829,None,,,,,,,,,,,,,,,,,,,,,,,,,,,,,,,,,1002,M,2,6,R,ARB,2022_Jan_27_1849,2020.2.10,distractmap2,60.004992397498185,"['Chest', 'Right Face', 'Right Leg', 'Left Leg']",
3,"[0.2, 0.2]",0,0,7,7,7,,,,,,,706.4249640000053,None,706.4249640000053,707.4249689000426,707.4082863000222,708.4082891000435,0,0.06759259259259259,0.06481481481481481,"[0, 0, 0]",0,0,706.4249640000053,None,,,,,,,,,,,,,,,,,,,,,,,,,,,,,,,,,1002,M,2,6,R,ARB,2022_Jan_27_1849,2020.2.10,distractmap2,60.004992397498185,"['Chest', 'Right Face', 'Right Leg', 'Left Leg']",
3,"[0.2, 0.2]",1,0,8,8,8,,,,,,,708.4249612999847,None,708.4249612999847,709.4249794000061,709.40831660002,710.4083024000283,0,0.06759259259259259,0.06481481481481481,"[0, 0, 0]",0,0,708.4249612999847,None,,,,,,,,,,,,,,,,,,,,,,,,,,,,,,,,,1002,M,2,6,R,ARB,2022_Jan_27_1849,2020.2.10,distractmap2,60.004992397498185,"['Chest', 'Right Face', 'Right Leg', 'Left Leg']",
8,"[0, -0.2]",0,0,9,9,9,,,,,,,710.4249987000367,None,710.4249987000367,711.4249893999659,711.4083182000322,712.4083375999471,0,0.06759259259259259,0.06481481481481481,"[0, 0, 0]",0,0,710.4249987000367,None,,,,,,,,,,,,,,,,,,,,,,,,,,,,,,,,,1002,M,2,6,R,ARB,2022_Jan_27_1849,2020.2.10,distractmap2,60.004992397498185,"['Chest', 'Right Face', 'Right Leg', 'Left Leg']",
1,"[-0.2, 0.2]",0,0,10,10,10,,,,,,,712.4249521000311,None,712.4249521000311,713.425014300039,713.4083374999464,714.4083286999958,0,0.06759259259259259,0.06481481481481481,"[0, 0, 0]",0,0,712.4249521000311,None,,,,,,,,,,,,,,,,,,,,,,,,,,,,,,,,,1002,M,2,6,R,ARB,2022_Jan_27_1849,2020.2.10,distractmap2,60.004992397498185,"['Chest', 'Right Face', 'Right Leg', 'Left Leg']",
2,"[0, 0.2]",0,0,11,11,11,,,,,,,714.4250133000314,None,714.4250133000314,715.4250642999541,715.4083584999898,716.4083474000217,1,0.06759259259259259,0.06481481481481481,"[0, 0, 0]",0,0,714.4250133000314,None,,,,,,,,,,,,,,,,,,,,,,,,,,,,,,,,,1002,M,2,6,R,ARB,2022_Jan_27_1849,2020.2.10,distractmap2,60.004992397498185,"['Chest', 'Right Face', 'Right Leg', 'Left Leg']",
4,"[-0.2, 0]",0,0,12,12,12,,,,,,,716.4250483999494,None,716.4250483999494,717.425036199973,717.4083798000356,718.4083692999557,0,0.06759259259259259,0.06481481481481481,"[0, 0, 0]",0,0,716.4250483999494,None,,,,,,,,,,,,,,,,,,,,,,,,,,,,,,,,,1002,M,2,6,R,ARB,2022_Jan_27_1849,2020.2.10,distractmap2,60.004992397498185,"['Chest', 'Right Face', 'Right Leg', 'Left Leg']",
4,"[-0.2, 0]",1,0,13,13,13,,,,,,,718.4250577000203,None,718.4250577000203,719.4250502999639,719.4083925000159,720.4083903999999,1,0.06759259259259259,0.06481481481481481,"[0, 0, 0]",0,0,718.4250577000203,None,,,,,,,,,,,,,,,,,,,,,,,,,,,,,,,,,1002,M,2,6,R,ARB,2022_Jan_27_1849,2020.2.10,distractmap2,60.004992397498185,"['Chest', 'Right Face', 'Right Leg', 'Left Leg']",
8,"[0, -0.2]",0,0,14,14,14,,,,,,,720.4250743000302,None,720.4250743000302,721.4250954999588,721.4083979999414,722.4080067999894,1,0.06759259259259259,0.06481481481481481,"[0, 0, 0]",0,0,720.4250743000302,None,,,,,,,,,,,,,,,,,,,,,,,,,,,,,,,,,1002,M,2,6,R,ARB,2022_Jan_27_1849,2020.2.10,distractmap2,60.004992397498185,"['Chest', 'Right Face', 'Right Leg', 'Left Leg']",
5,"[0, 0]",0,0,15,15,15,,,,,,,722.4250755000394,None,722.4250755000394,723.4250826999778,723.4084115000442,724.4084285000572,1,0.06759259259259259,0.06481481481481481,"[0, 0, 0]",0,0,722.4250755000394,None,,,,,,,,,,,,,,,,,,,,,,,,,,,,,,,,,1002,M,2,6,R,ARB,2022_Jan_27_1849,2020.2.10,distractmap2,60.004992397498185,"['Chest', 'Right Face', 'Right Leg', 'Left Leg']",
5,"[0, 0]",1,0,16,16,16,,,,,,,724.4251046000281,None,724.4251046000281,725.4250972999725,725.408418499981,726.4084360999987,1,0.06759259259259259,0.06481481481481481,"[0, 0, 0]",0,0,724.4251046000281,None,,,,,,,,,,,,,,,,,,,,,,,,,,,,,,,,,1002,M,2,6,R,ARB,2022_Jan_27_1849,2020.2.10,distractmap2,60.004992397498185,"['Chest', 'Right Face', 'Right Leg', 'Left Leg']",
1,"[-0.2, 0.2]",0,0,17,17,17,,,,,,,726.4251151999924,None,726.4251151999924,727.4251269999659,727.4084492999827,728.4084489999805,1,0.06759259259259259,0.06481481481481481,"[0, 0, 0]",0,0,726.4251151999924,None,,,,,,,,,,,,,,,,,,,,,,,,,,,,,,,,,1002,M,2,6,R,ARB,2022_Jan_27_1849,2020.2.10,distractmap2,60.004992397498185,"['Chest', 'Right Face', 'Right Leg', 'Left Leg']",
3,"[0.2, 0.2]",0,0,18,18,18,,,,,,,728.425069799996,None,728.425069799996,729.4251403999515,729.4083874999778,730.4084645999828,1,0.06759259259259259,0.06481481481481481,"[0, 0, 0]",0,0,728.425069799996,None,,,,,,,,,,,,,,,,,,,,,,,,,,,,,,,,,1002,M,2,6,R,ARB,2022_Jan_27_1849,2020.2.10,distractmap2,60.004992397498185,"['Chest', 'Right Face', 'Right Leg', 'Left Leg']",
6,"[0.2, 0]",0,0,19,19,19,,,,,,,730.4251510000322,None,730.4251510000322,731.4251998000545,731.4084771999624,732.4084877000423,1,0.06759259259259259,0.06481481481481481,"[0, 0, 0]",0,0,730.4251510000322,None,,,,,,,,,,,,,,,,,,,,,,,,,,,,,,,,,1002,M,2,6,R,ARB,2022_Jan_27_1849,2020.2.10,distractmap2,60.004992397498185,"['Chest', 'Right Face', 'Right Leg', 'Left Leg']",
1,"[-0.2, 0.2]",0,0,20,20,20,,,,,,,732.4251634000102,None,732.4251634000102,733.4251692000544,733.4084819999989,734.4084941999754,1,0.06759259259259259,0.06481481481481481,"[0, 0, 0]",0,0,732.4251634000102,None,,,,,,,,,,,,,,,,,,,,,,,,,,,,,,,,,1002,M,2,6,R,ARB,2022_Jan_27_1849,2020.2.10,distractmap2,60.004992397498185,"['Chest', 'Right Face', 'Right Leg', 'Left Leg']",
1,"[-0.2, 0.2]",1,0,21,21,21,,,,,,,734.425174199976,None,734.425174199976,735.4251990000485,735.4085119999945,736.4085146000143,1,0.06759259259259259,0.06481481481481481,"[0, 0, 0]",0,0,734.425174199976,None,,,,,,,,,,,,,,,,,,,,,,,,,,,,,,,,,1002,M,2,6,R,ARB,2022_Jan_27_1849,2020.2.10,distractmap2,60.004992397498185,"['Chest', 'Right Face', 'Right Leg', 'Left Leg']",
1,"[-0.2, 0.2]",1,0,22,22,22,,,,,,,736.4251935000066,None,736.4251935000066,737.4251984000439,737.4085221999558,738.4085354000563,1,0.06759259259259259,0.06481481481481481,"[0, 0, 0]",0,0,736.4251935000066,None,,,,,,,,,,,,,,,,,,,,,,,,,,,,,,,,,1002,M,2,6,R,ARB,2022_Jan_27_1849,2020.2.10,distractmap2,60.004992397498185,"['Chest', 'Right Face', 'Right Leg', 'Left Leg']",
3,"[0.2, 0.2]",0,0,23,23,23,,,,,,,738.4252058999846,None,738.4252058999846,739.4247965000104,739.4085403999779,740.4085521999514,1,0.06759259259259259,0.06481481481481481,"[0, 0, 0]",0,0,738.4252058999846,None,,,,,,,,,,,,,,,,,,,,,,,,,,,,,,,,,1002,M,2,6,R,ARB,2022_Jan_27_1849,2020.2.10,distractmap2,60.004992397498185,"['Chest', 'Right Face', 'Right Leg', 'Left Leg']",
2,"[0, 0.2]",0,0,24,24,24,,,,,,,740.4252210999839,None,740.4252210999839,741.425222299993,741.4085637000389,742.4085622000275,1,0.06759259259259259,0.06481481481481481,"[0, 0, 0]",0,0,740.4252210999839,None,,,,,,,,,,,,,,,,,,,,,,,,,,,,,,,,,1002,M,2,6,R,ARB,2022_Jan_27_1849,2020.2.10,distractmap2,60.004992397498185,"['Chest', 'Right Face', 'Right Leg', 'Left Leg']",
1,"[-0.2, 0.2]",0,0,25,25,25,,,,,,,742.4252418000251,None,742.4252418000251,743.425245200051,743.4084690000163,744.408569799969,1,0.06759259259259259,0.06481481481481481,"[0, 0, 0]",0,0,742.4252418000251,None,,,,,,,,,,,,,,,,,,,,,,,,,,,,,,,,,1002,M,2,6,R,ARB,2022_Jan_27_1849,2020.2.10,distractmap2,60.004992397498185,"['Chest', 'Right Face', 'Right Leg', 'Left Leg']",
7,"[-0.2, -0.2]",0,0,26,26,26,,,,,,,744.4252530999947,None,744.4252530999947,745.4252646999666,745.4085898000048,746.4085938000353,1,0.06759259259259259,0.06481481481481481,"[0, 0, 0]",0,0,744.4252530999947,None,,,,,,,,,,,,,,,,,,,,,,,,,,,,,,,,,1002,M,2,6,R,ARB,2022_Jan_27_1849,2020.2.10,distractmap2,60.004992397498185,"['Chest', 'Right Face', 'Right Leg', 'Left Leg']",
7,"[-0.2, -0.2]",1,0,27,27,27,,,,,,,746.4252711000154,None,746.4252711000154,747.425269600004,747.4085971999448,748.4086126999464,0,0.06759259259259259,0.06481481481481481,"[0, 0, 0]",0,0,746.4252711000154,None,,,,,,,,,,,,,,,,,,,,,,,,,,,,,,,,,1002,M,2,6,R,ARB,2022_Jan_27_1849,2020.2.10,distractmap2,60.004992397498185,"['Chest', 'Right Face', 'Right Leg', 'Left Leg']",
2,"[0, 0.2]",0,0,28,28,28,,,,,,,748.4252864000155,None,748.4252864000155,749.4252707000123,749.4086030999897,750.4086091000354,1,0.06759259259259259,0.06481481481481481,"[0, 0, 0]",0,0,748.4252864000155,None,,,,,,,,,,,,,,,,,,,,,,,,,,,,,,,,,1002,M,2,6,R,ARB,2022_Jan_27_1849,2020.2.10,distractmap2,60.004992397498185,"['Chest', 'Right Face', 'Right Leg', 'Left Leg']",
6,"[0.2, 0]",0,0,29,29,29,,,,,,,750.4252869000193,None,750.4252869000193,751.4253002000041,751.408637400018,752.408628199948,1,0.06759259259259259,0.06481481481481481,"[0, 0, 0]",0,0,750.4252869000193,None,,,,,,,,,,,,,,,,,,,,,,,,,,,,,,,,,1002,M,2,6,R,ARB,2022_Jan_27_1849,2020.2.10,distractmap2,60.004992397498185,"['Chest', 'Right Face', 'Right Leg', 'Left Leg']",
,,,,,,,,,,,,,,,,,,,,,,,,,,,,,752.4419816000154,None,space,752.4419816000154,None,,,,,,,,,,,,,,,,,,,,,,,,,,1002,M,2,6,R,ARB,2022_Jan_27_1849,2020.2.10,distractmap2,60.004992397498185,"['Chest', 'Right Face', 'Right Leg', 'Left Leg']",
6,"[0.2, 0]",None,0,0,0,0,,,,,786.5755605000304,None,787.5922658999916,None,787.5922658999916,788.592273700051,788.5755757000297,789.5755821999628,0,0.06759259259259259,0.06481481481481481,"[0, 0, 0]",0,0,787.5922658999916,None,,,,,,,,,,,,,,,,,,,,,,,,,,,,,,,,,1002,M,2,6,R,ARB,2022_Jan_27_1849,2020.2.10,distractmap2,60.004992397498185,"['Chest', 'Right Face', 'Right Leg', 'Left Leg']",
6,"[0.2, 0]",1,0,1,1,1,,,,,,,789.5922698000213,None,789.5922698000213,790.5922895000549,790.5756203000201,791.5755872000009,0,0.06759259259259259,0.06481481481481481,"[0, 0, 0]",0,0,789.5922698000213,None,,,,,,,,,,,,,,,,,,,,,,,,,,,,,,,,,1002,M,2,6,R,ARB,2022_Jan_27_1849,2020.2.10,distractmap2,60.004992397498185,"['Chest', 'Right Face', 'Right Leg', 'Left Leg']",
2,"[0, 0.2]",0,0,2,2,2,,,,,,,791.5922858000267,None,791.5922858000267,792.5923028000398,792.575623700046,793.5756330000004,1,0.06759259259259259,0.06481481481481481,"[0, 0, 0]",0,0,791.5922858000267,None,,,,,,,,,,,,,,,,,,,,,,,,,,,,,,,,,1002,M,2,6,R,ARB,2022_Jan_27_1849,2020.2.10,distractmap2,60.004992397498185,"['Chest', 'Right Face', 'Right Leg', 'Left Leg']",
9,"[0.2, -0.2]",0,0,3,3,3,,,,,,,793.592310899985,None,793.592310899985,794.5923079999629,794.5756390000461,795.5756455999799,1,0.06759259259259259,0.06481481481481481,"[0, 0, 0]",0,0,793.592310899985,None,,,,,,,,,,,,,,,,,,,,,,,,,,,,,,,,,1002,M,2,6,R,ARB,2022_Jan_27_1849,2020.2.10,distractmap2,60.004992397498185,"['Chest', 'Right Face', 'Right Leg', 'Left Leg']",
9,"[0.2, -0.2]",1,0,4,4,4,,,,,,,795.592327099992,None,795.592327099992,796.5923346000491,796.5756495000096,797.5756585999625,1,0.06759259259259259,0.06481481481481481,"[0, 0, 0]",0,0,795.592327099992,None,,,,,,,,,,,,,,,,,,,,,,,,,,,,,,,,,1002,M,2,6,R,ARB,2022_Jan_27_1849,2020.2.10,distractmap2,60.004992397498185,"['Chest', 'Right Face', 'Right Leg', 'Left Leg']",
6,"[0.2, 0]",0,0,5,5,5,,,,,,,797.5923181000398,None,797.5923181000398,798.5923387999646,798.5756721999496,799.5756880999543,1,0.06759259259259259,0.06481481481481481,"[0, 0, 0]",0,0,797.5923181000398,None,,,,,,,,,,,,,,,,,,,,,,,,,,,,,,,,,1002,M,2,6,R,ARB,2022_Jan_27_1849,2020.2.10,distractmap2,60.004992397498185,"['Chest', 'Right Face', 'Right Leg', 'Left Leg']",
4,"[-0.2, 0]",0,0,6,6,6,,,,,,,799.5923348000506,None,799.5923348000506,800.5923555999761,800.5756907999748,801.575687399949,1,0.06759259259259259,0.06481481481481481,"[0, 0, 0]",0,0,799.5923348000506,None,,,,,,,,,,,,,,,,,,,,,,,,,,,,,,,,,1002,M,2,6,R,ARB,2022_Jan_27_1849,2020.2.10,distractmap2,60.004992397498185,"['Chest', 'Right Face', 'Right Leg', 'Left Leg']",
3,"[0.2, 0.2]",0,0,7,7,7,,,,,,,801.5923596000066,None,801.5923596000066,802.5923700999701,802.575689899968,803.5757187999552,1,0.06759259259259259,0.06481481481481481,"[0, 0, 0]",0,0,801.5923596000066,None,,,,,,,,,,,,,,,,,,,,,,,,,,,,,,,,,1002,M,2,6,R,ARB,2022_Jan_27_1849,2020.2.10,distractmap2,60.004992397498185,"['Chest', 'Right Face', 'Right Leg', 'Left Leg']",
3,"[0.2, 0.2]",1,0,8,8,8,,,,,,,803.5923813000554,None,803.5923813000554,804.592377700028,804.5757082999917,805.5757190999575,1,0.06759259259259259,0.06481481481481481,"[0, 0, 0]",0,0,803.5923813000554,None,,,,,,,,,,,,,,,,,,,,,,,,,,,,,,,,,1002,M,2,6,R,ARB,2022_Jan_27_1849,2020.2.10,distractmap2,60.004992397498185,"['Chest', 'Right Face', 'Right Leg', 'Left Leg']",
8,"[0, -0.2]",0,0,9,9,9,,,,,,,805.5923951000441,None,805.5923951000441,806.5924131999491,806.5757439000299,807.5757417000132,1,0.06759259259259259,0.06481481481481481,"[0, 0, 0]",0,0,805.5923951000441,None,,,,,,,,,,,,,,,,,,,,,,,,,,,,,,,,,1002,M,2,6,R,ARB,2022_Jan_27_1849,2020.2.10,distractmap2,60.004992397498185,"['Chest', 'Right Face', 'Right Leg', 'Left Leg']",
1,"[-0.2, 0.2]",0,0,10,10,10,,,,,,,807.5923889999976,None,807.5923889999976,808.5924163999734,808.575783599983,809.5757437000284,1,0.06759259259259259,0.06481481481481481,"[0, 0, 0]",0,0,807.5923889999976,None,,,,,,,,,,,,,,,,,,,,,,,,,,,,,,,,,1002,M,2,6,R,ARB,2022_Jan_27_1849,2020.2.10,distractmap2,60.004992397498185,"['Chest', 'Right Face', 'Right Leg', 'Left Leg']",
2,"[0, 0.2]",0,0,11,11,11,,,,,,,809.5924270000542,None,809.5924270000542,810.592416599975,810.5757632999448,811.5756939999992,1,0.06759259259259259,0.06481481481481481,"[0, 0, 0]",0,0,809.5924270000542,None,,,,,,,,,,,,,,,,,,,,,,,,,,,,,,,,,1002,M,2,6,R,ARB,2022_Jan_27_1849,2020.2.10,distractmap2,60.004992397498185,"['Chest', 'Right Face', 'Right Leg', 'Left Leg']",
4,"[-0.2, 0]",0,0,12,12,12,,,,,,,811.5924371000146,None,811.5924371000146,812.5924477999797,812.5757748000324,813.5757790999487,1,0.06759259259259259,0.06481481481481481,"[0, 0, 0]",0,0,811.5924371000146,None,,,,,,,,,,,,,,,,,,,,,,,,,,,,,,,,,1002,M,2,6,R,ARB,2022_Jan_27_1849,2020.2.10,distractmap2,60.004992397498185,"['Chest', 'Right Face', 'Right Leg', 'Left Leg']",
4,"[-0.2, 0]",1,0,13,13,13,,,,,,,813.59244389995,None,813.59244389995,814.5924652999965,814.5758028000128,815.5758137999801,1,0.06759259259259259,0.06481481481481481,"[0, 0, 0]",0,0,813.59244389995,None,,,,,,,,,,,,,,,,,,,,,,,,,,,,,,,,,1002,M,2,6,R,ARB,2022_Jan_27_1849,2020.2.10,distractmap2,60.004992397498185,"['Chest', 'Right Face', 'Right Leg', 'Left Leg']",
8,"[0, -0.2]",0,0,14,14,14,,,,,,,815.5924636999844,None,815.5924636999844,816.5924664000049,816.5758117999649,817.5758223000448,1,0.06759259259259259,0.06481481481481481,"[0, 0, 0]",0,0,815.5924636999844,None,,,,,,,,,,,,,,,,,,,,,,,,,,,,,,,,,1002,M,2,6,R,ARB,2022_Jan_27_1849,2020.2.10,distractmap2,60.004992397498185,"['Chest', 'Right Face', 'Right Leg', 'Left Leg']",
5,"[0, 0]",0,0,15,15,15,,,,,,,817.5923904000083,None,817.5923904000083,818.5925000000279,818.5758145999862,819.5758244999452,1,0.06759259259259259,0.06481481481481481,"[0, 0, 0]",0,0,817.5923904000083,None,,,,,,,,,,,,,,,,,,,,,,,,,,,,,,,,,1002,M,2,6,R,ARB,2022_Jan_27_1849,2020.2.10,distractmap2,60.004992397498185,"['Chest', 'Right Face', 'Right Leg', 'Left Leg']",
5,"[0, 0]",1,0,16,16,16,,,,,,,819.5924546000315,None,819.5924546000315,820.59250899998,820.5758280999726,821.57584830001,1,0.06759259259259259,0.06481481481481481,"[0, 0, 0]",0,0,819.5924546000315,None,,,,,,,,,,,,,,,,,,,,,,,,,,,,,,,,,1002,M,2,6,R,ARB,2022_Jan_27_1849,2020.2.10,distractmap2,60.004992397498185,"['Chest', 'Right Face', 'Right Leg', 'Left Leg']",
1,"[-0.2, 0.2]",0,0,17,17,17,,,,,,,821.59250290005,None,821.59250290005,822.5925279000076,822.5758534000488,823.5758939000079,1,0.06759259259259259,0.06481481481481481,"[0, 0, 0]",0,0,821.59250290005,None,,,,,,,,,,,,,,,,,,,,,,,,,,,,,,,,,1002,M,2,6,R,ARB,2022_Jan_27_1849,2020.2.10,distractmap2,60.004992397498185,"['Chest', 'Right Face', 'Right Leg', 'Left Leg']",
3,"[0.2, 0.2]",0,0,18,18,18,,,,,,,823.5925313000334,None,823.5925313000334,824.5925367999589,824.5758635000093,825.575879800017,1,0.06759259259259259,0.06481481481481481,"[0, 0, 0]",0,0,823.5925313000334,None,,,,,,,,,,,,,,,,,,,,,,,,,,,,,,,,,1002,M,2,6,R,ARB,2022_Jan_27_1849,2020.2.10,distractmap2,60.004992397498185,"['Chest', 'Right Face', 'Right Leg', 'Left Leg']",
6,"[0.2, 0]",0,0,19,19,19,,,,,,,825.5925570999971,None,825.5925570999971,826.5925517999567,826.575898500043,827.5759104000172,1,0.06759259259259259,0.06481481481481481,"[0, 0, 0]",0,0,825.5925570999971,None,,,,,,,,,,,,,,,,,,,,,,,,,,,,,,,,,1002,M,2,6,R,ARB,2022_Jan_27_1849,2020.2.10,distractmap2,60.004992397498185,"['Chest', 'Right Face', 'Right Leg', 'Left Leg']",
1,"[-0.2, 0.2]",0,0,20,20,20,,,,,,,827.5925621000351,None,827.5925621000351,828.5925735000055,828.5758946000133,829.5759016999509,1,0.06759259259259259,0.06481481481481481,"[0, 0, 0]",0,0,827.5925621000351,None,,,,,,,,,,,,,,,,,,,,,,,,,,,,,,,,,1002,M,2,6,R,ARB,2022_Jan_27_1849,2020.2.10,distractmap2,60.004992397498185,"['Chest', 'Right Face', 'Right Leg', 'Left Leg']",
1,"[-0.2, 0.2]",1,0,21,21,21,,,,,,,829.5925811999477,None,829.5925811999477,830.5925972999539,830.5759332999587,831.5759221999906,1,0.06759259259259259,0.06481481481481481,"[0, 0, 0]",0,0,829.5925811999477,None,,,,,,,,,,,,,,,,,,,,,,,,,,,,,,,,,1002,M,2,6,R,ARB,2022_Jan_27_1849,2020.2.10,distractmap2,60.004992397498185,"['Chest', 'Right Face', 'Right Leg', 'Left Leg']",
1,"[-0.2, 0.2]",1,0,22,22,22,,,,,,,831.5925858999835,None,831.5925858999835,832.5926000999752,832.5759423000272,833.5759478999535,1,0.06759259259259259,0.06481481481481481,"[0, 0, 0]",0,0,831.5925858999835,None,,,,,,,,,,,,,,,,,,,,,,,,,,,,,,,,,1002,M,2,6,R,ARB,2022_Jan_27_1849,2020.2.10,distractmap2,60.004992397498185,"['Chest', 'Right Face', 'Right Leg', 'Left Leg']",
3,"[0.2, 0.2]",0,0,23,23,23,,,,,,,833.5926196000073,None,833.5926196000073,834.5926229000324,834.5759429000318,835.5759578000288,1,0.06759259259259259,0.06481481481481481,"[0, 0, 0]",0,0,833.5926196000073,None,,,,,,,,,,,,,,,,,,,,,,,,,,,,,,,,,1002,M,2,6,R,ARB,2022_Jan_27_1849,2020.2.10,distractmap2,60.004992397498185,"['Chest', 'Right Face', 'Right Leg', 'Left Leg']",
2,"[0, 0.2]",0,0,24,24,24,,,,,,,835.5926371000241,None,835.5926371000241,836.5926348000066,836.5759574000258,837.5759680999909,1,0.06759259259259259,0.06481481481481481,"[0, 0, 0]",0,0,835.5926371000241,None,,,,,,,,,,,,,,,,,,,,,,,,,,,,,,,,,1002,M,2,6,R,ARB,2022_Jan_27_1849,2020.2.10,distractmap2,60.004992397498185,"['Chest', 'Right Face', 'Right Leg', 'Left Leg']",
1,"[-0.2, 0.2]",0,0,25,25,25,,,,,,,837.5926272999495,None,837.5926272999495,838.5926463999785,838.57598590001,839.5759765000548,1,0.06759259259259259,0.06481481481481481,"[0, 0, 0]",0,0,837.5926272999495,None,,,,,,,,,,,,,,,,,,,,,,,,,,,,,,,,,1002,M,2,6,R,ARB,2022_Jan_27_1849,2020.2.10,distractmap2,60.004992397498185,"['Chest', 'Right Face', 'Right Leg', 'Left Leg']",
7,"[-0.2, -0.2]",0,0,26,26,26,,,,,,,839.5926687000319,None,839.5926687000319,840.5926565000555,840.5759916000534,841.576017400017,1,0.06759259259259259,0.06481481481481481,"[0, 0, 0]",0,0,839.5926687000319,None,,,,,,,,,,,,,,,,,,,,,,,,,,,,,,,,,1002,M,2,6,R,ARB,2022_Jan_27_1849,2020.2.10,distractmap2,60.004992397498185,"['Chest', 'Right Face', 'Right Leg', 'Left Leg']",
7,"[-0.2, -0.2]",1,0,27,27,27,,,,,,,841.5926823000191,None,841.5926823000191,842.5926760999719,842.5760259999661,843.5760357000399,1,0.06759259259259259,0.06481481481481481,"[0, 0, 0]",0,0,841.5926823000191,None,,,,,,,,,,,,,,,,,,,,,,,,,,,,,,,,,1002,M,2,6,R,ARB,2022_Jan_27_1849,2020.2.10,distractmap2,60.004992397498185,"['Chest', 'Right Face', 'Right Leg', 'Left Leg']",
2,"[0, 0.2]",0,0,28,28,28,,,,,,,843.5926928999834,None,843.5926928999834,844.5927102999995,844.5760419999715,845.5760259999661,1,0.06759259259259259,0.06481481481481481,"[0, 0, 0]",0,0,843.5926928999834,None,,,,,,,,,,,,,,,,,,,,,,,,,,,,,,,,,1002,M,2,6,R,ARB,2022_Jan_27_1849,2020.2.10,distractmap2,60.004992397498185,"['Chest', 'Right Face', 'Right Leg', 'Left Leg']",
6,"[0.2, 0]",0,0,29,29,29,,,,,,,845.5927681999747,None,845.5927681999747,846.5927289000247,846.5760521000484,847.5760476000141,1,0.06759259259259259,0.06481481481481481,"[0, 0, 0]",0,0,845.5927681999747,None,,,,,,,,,,,,,,,,,,,,,,,,,,,,,,,,,1002,M,2,6,R,ARB,2022_Jan_27_1849,2020.2.10,distractmap2,60.004992397498185,"['Chest', 'Right Face', 'Right Leg', 'Left Leg']",
,,,,,,,,,,,,,,,,,,,,,,,,,,,,,847.6093843999552,None,space,847.6093843999552,None,,,,,,,,,,,,,,,,,,,,,,,,,,1002,M,2,6,R,ARB,2022_Jan_27_1849,2020.2.10,distractmap2,60.004992397498185,"['Chest', 'Right Face', 'Right Leg', 'Left Leg']",
6,"[0.2, 0]",None,,,,,0,0,0,0,884.3430078000529,None,,,,,,,,,,,,,,,,,,,,,,None,None,"[0, 0, 0]",885.3597373999655,None,885.3597373999655,886.3597011000384,886.3430275999708,887.3430292999838,"[0, 0, 0]",1,885.3597373999655,None,,,,,,,,,,,,,1002,M,2,6,R,ARB,2022_Jan_27_1849,2020.2.10,distractmap2,60.004992397498185,"['Chest', 'Right Face', 'Right Leg', 'Left Leg']",
7,"[-0.2, -0.2]",None,,,,,0,1,1,1,,,,,,,,,,,,,,,,,,,,,,,,None,None,"[0, 0, 0]",887.3596937999828,889.3597207999555,887.3596937999828,888.3597094999859,888.3430541000562,889.3430613999953,"[0, 0, 0]",1,887.3596937999828,889.3597207999555,,,,,,,,,,,,,1002,M,2,6,R,ARB,2022_Jan_27_1849,2020.2.10,distractmap2,60.004992397498185,"['Chest', 'Right Face', 'Right Leg', 'Left Leg']",
6,"[0.2, 0]",1,,,,,0,2,2,2,,,,,,,,,,,,,,,,,,,,,,,,None,None,"[0, 0, 0]",889.3763975000475,891.3763930000132,889.3763975000475,890.3763927000109,890.359712400008,891.3598067000275,"[0, 0, 0]",1,889.3763975000475,891.3763930000132,,,,,,,,,,,,,1002,M,2,6,R,ARB,2022_Jan_27_1849,2020.2.10,distractmap2,60.004992397498185,"['Chest', 'Right Face', 'Right Leg', 'Left Leg']",
2,"[0, 0.2]",0,,,,,0,3,3,3,,,,,,,,,,,,,,,,,,,,,,,,None,None,"[0, 0, 0]",891.3931301999837,893.3930859999964,891.3931301999837,892.3930923000444,892.376420399989,893.3764273000415,"[0, 0, 0]",1,891.3931301999837,893.3930859999964,,,,,,,,,,,,,1002,M,2,6,R,ARB,2022_Jan_27_1849,2020.2.10,distractmap2,60.004992397498185,"['Chest', 'Right Face', 'Right Leg', 'Left Leg']",
5,"[0, 0]",0,,,,,0,4,4,4,,,,,,,,,,,,,,,,,,,,,,,,None,None,"[0, 0, 0]",893.4097580000525,895.4097618999658,893.4097580000525,894.4097252000356,894.393001700053,895.3931083000498,"[0, 0, 0]",1,893.4097580000525,895.4097618999658,,,,,,,,,,,,,1002,M,2,6,R,ARB,2022_Jan_27_1849,2020.2.10,distractmap2,60.004992397498185,"['Chest', 'Right Face', 'Right Leg', 'Left Leg']",
4,"[-0.2, 0]",0,,,,,0,5,5,5,,,,,,,,,,,,,,,,,,,,,,,,None,None,"[0, 0, 0]",895.426448800019,897.426436400041,895.426448800019,896.426451300038,896.4097814999986,897.4096808000468,"[0, 0, 0]",1,895.426448800019,897.426436400041,,,,,,,,,,,,,1002,M,2,6,R,ARB,2022_Jan_27_1849,2020.2.10,distractmap2,60.004992397498185,"['Chest', 'Right Face', 'Right Leg', 'Left Leg']",
4,"[-0.2, 0]",0,,,,,0,6,6,6,,,,,,,,,,,,,,,,,,,,,,,,None,None,"[0, 0, 0]",897.4431033999426,899.4431435000151,897.4431033999426,898.4430893999524,898.426461199997,899.4264485000167,"[0, 0, 0]",1,897.4431033999426,899.4431435000151,,,,,,,,,,,,,1002,M,2,6,R,ARB,2022_Jan_27_1849,2020.2.10,distractmap2,60.004992397498185,"['Chest', 'Right Face', 'Right Leg', 'Left Leg']",
7,"[-0.2, -0.2]",0,,,,,0,7,7,7,,,,,,,,,,,,,,,,,,,,,,,,None,None,"[0, 0, 0]",899.4597102999687,901.4597712999675,899.4597102999687,900.4597129999893,900.4431250999914,901.4431476000464,"[0, 0, 0]",1,899.4597102999687,901.4597712999675,,,,,,,,,,,,,1002,M,2,6,R,ARB,2022_Jan_27_1849,2020.2.10,distractmap2,60.004992397498185,"['Chest', 'Right Face', 'Right Leg', 'Left Leg']",
4,"[-0.2, 0]",1,,,,,0,8,8,8,,,,,,,,,,,,,,,,,,,,,,,,None,None,"[0, 0, 0]",901.4764715000056,903.4765026000096,901.4764715000056,902.4764939999441,902.4598337999778,903.4598123000469,"[0, 0, 0]",0,901.4764715000056,903.4765026000096,,,,,,,,,,,,,1002,M,2,6,R,ARB,2022_Jan_27_1849,2020.2.10,distractmap2,60.004992397498185,"['Chest', 'Right Face', 'Right Leg', 'Left Leg']",
3,"[0.2, 0.2]",0,,,,,0,9,9,9,,,,,,,,,,,,,,,,,,,,,,,,None,None,"[0, 0, 0]",903.4931747999508,905.4931775999721,903.4931747999508,904.4931648999918,904.4764947999502,905.4765136999777,"[0, 0, 0]",1,903.4931747999508,905.4931775999721,,,,,,,,,,,,,1002,M,2,6,R,ARB,2022_Jan_27_1849,2020.2.10,distractmap2,60.004992397498185,"['Chest', 'Right Face', 'Right Leg', 'Left Leg']",
5,"[0, 0]",0,,,,,0,10,10,10,,,,,,,,,,,,,,,,,,,,,,,,None,None,"[0, 0, 0]",905.5098328000167,907.5098588999826,905.5098328000167,906.5098565999651,906.4932102999883,907.4932097999845,"[0, 0, 0]",1,905.5098328000167,907.5098588999826,,,,,,,,,,,,,1002,M,2,6,R,ARB,2022_Jan_27_1849,2020.2.10,distractmap2,60.004992397498185,"['Chest', 'Right Face', 'Right Leg', 'Left Leg']",
3,"[0.2, 0.2]",1,,,,,0,11,11,11,,,,,,,,,,,,,,,,,,,,,,,,None,None,"[0, 0, 0]",907.5265123000136,909.526544900029,907.5265123000136,908.5265398999909,908.5098147999961,909.5098803000292,"[0, 0, 0]",1,907.5265123000136,909.526544900029,,,,,,,,,,,,,1002,M,2,6,R,ARB,2022_Jan_27_1849,2020.2.10,distractmap2,60.004992397498185,"['Chest', 'Right Face', 'Right Leg', 'Left Leg']",
1,"[-0.2, 0.2]",0,,,,,0,12,12,12,,,,,,,,,,,,,,,,,,,,,,,,None,None,"[0, 0, 0]",909.5432220000075,911.5432401000289,909.5432220000075,910.5432330999756,910.5265608000336,911.5265536999796,"[0, 0, 0]",1,909.5432220000075,911.5432401000289,,,,,,,,,,,,,1002,M,2,6,R,ARB,2022_Jan_27_1849,2020.2.10,distractmap2,60.004992397498185,"['Chest', 'Right Face', 'Right Leg', 'Left Leg']",
9,"[0.2, -0.2]",0,,,,,0,13,13,13,,,,,,,,,,,,,,,,,,,,,,,,None,None,"[0, 0, 0]",911.5599254999543,913.5599176000105,911.5599254999543,912.5598090999993,912.5432463999605,913.5432596999453,"[0, 0, 0]",1,911.5599254999543,913.5599176000105,,,,,,,,,,,,,1002,M,2,6,R,ARB,2022_Jan_27_1849,2020.2.10,distractmap2,60.004992397498185,"['Chest', 'Right Face', 'Right Leg', 'Left Leg']",
9,"[0.2, -0.2]",0,,,,,0,14,14,14,,,,,,,,,,,,,,,,,,,,,,,,None,None,"[0, 0, 0]",913.576590099954,915.5766019000439,913.576590099954,914.5765941999853,914.5599263999611,915.5599435999757,"[0, 0, 0]",0,913.576590099954,915.5766019000439,,,,,,,,,,,,,1002,M,2,6,R,ARB,2022_Jan_27_1849,2020.2.10,distractmap2,60.004992397498185,"['Chest', 'Right Face', 'Right Leg', 'Left Leg']",
8,"[0, -0.2]",0,,,,,0,15,15,15,,,,,,,,,,,,,,,,,,,,,,,,None,None,"[0, 0, 0]",915.5932731999783,917.593293700018,915.5932731999783,916.5932747999905,916.5766040999442,917.5766160000348,"[0, 0, 0]",1,915.5932731999783,917.593293700018,,,,,,,,,,,,,1002,M,2,6,R,ARB,2022_Jan_27_1849,2020.2.10,distractmap2,60.004992397498185,"['Chest', 'Right Face', 'Right Leg', 'Left Leg']",
6,"[0.2, 0]",0,,,,,0,16,16,16,,,,,,,,,,,,,,,,,,,,,,,,None,None,"[0, 0, 0]",917.6099522999721,919.609947900055,917.6099522999721,918.6099521999713,918.5932928000111,919.5932956000324,"[0, 0, 0]",1,917.6099522999721,919.609947900055,,,,,,,,,,,,,1002,M,2,6,R,ARB,2022_Jan_27_1849,2020.2.10,distractmap2,60.004992397498185,"['Chest', 'Right Face', 'Right Leg', 'Left Leg']",
3,"[0.2, 0.2]",0,,,,,0,17,17,17,,,,,,,,,,,,,,,,,,,,,,,,None,None,"[0, 0, 0]",919.6266129999422,921.6266447999515,919.6266129999422,920.626647499972,920.6099503999576,921.6099713000003,"[0, 0, 0]",1,919.6266129999422,921.6266447999515,,,,,,,,,,,,,1002,M,2,6,R,ARB,2022_Jan_27_1849,2020.2.10,distractmap2,60.004992397498185,"['Chest', 'Right Face', 'Right Leg', 'Left Leg']",
6,"[0.2, 0]",1,,,,,0,18,18,18,,,,,,,,,,,,,,,,,,,,,,,,None,None,"[0, 0, 0]",921.6433255999582,923.6433254999574,921.6433255999582,922.6433244999498,922.6266416000435,923.6266582000535,"[0, 0, 0]",0,921.6433255999582,923.6433254999574,,,,,,,,,,,,,1002,M,2,6,R,ARB,2022_Jan_27_1849,2020.2.10,distractmap2,60.004992397498185,"['Chest', 'Right Face', 'Right Leg', 'Left Leg']",
5,"[0, 0]",0,,,,,0,19,19,19,,,,,,,,,,,,,,,,,,,,,,,,None,None,"[0, 0, 0]",923.6599785999861,925.6600107999984,923.6599785999861,924.6599986000219,924.6433511000359,925.6433455999941,"[0, 0, 0]",1,923.6599785999861,925.6600107999984,,,,,,,,,,,,,1002,M,2,6,R,ARB,2022_Jan_27_1849,2020.2.10,distractmap2,60.004992397498185,"['Chest', 'Right Face', 'Right Leg', 'Left Leg']",
7,"[-0.2, -0.2]",0,,,,,0,20,20,20,,,,,,,,,,,,,,,,,,,,,,,,None,None,"[0, 0, 0]",925.6766888999846,927.6766814000439,925.6766888999846,926.6766859999625,926.6600045999512,927.6600303000305,"[0, 0, 0]",1,925.6766888999846,927.6766814000439,,,,,,,,,,,,,1002,M,2,6,R,ARB,2022_Jan_27_1849,2020.2.10,distractmap2,60.004992397498185,"['Chest', 'Right Face', 'Right Leg', 'Left Leg']",
5,"[0, 0]",1,,,,,0,21,21,21,,,,,,,,,,,,,,,,,,,,,,,,None,None,"[0, 0, 0]",927.6933633999433,929.6933768000454,927.6933633999433,928.6933790999465,928.6767098000273,929.6766942000249,"[0, 0, 0]",1,927.6933633999433,929.6933768000454,,,,,,,,,,,,,1002,M,2,6,R,ARB,2022_Jan_27_1849,2020.2.10,distractmap2,60.004992397498185,"['Chest', 'Right Face', 'Right Leg', 'Left Leg']",
1,"[-0.2, 0.2]",0,,,,,0,22,22,22,,,,,,,,,,,,,,,,,,,,,,,,None,None,"[0, 0, 0]",929.7100022999803,931.7100565000437,929.7100022999803,930.7100444999523,930.6933842999861,931.6934063000372,"[0, 0, 0]",1,929.7100022999803,931.7100565000437,,,,,,,,,,,,,1002,M,2,6,R,ARB,2022_Jan_27_1849,2020.2.10,distractmap2,60.004992397498185,"['Chest', 'Right Face', 'Right Leg', 'Left Leg']",
7,"[-0.2, -0.2]",0,,,,,0,23,23,23,,,,,,,,,,,,,,,,,,,,,,,,None,None,"[0, 0, 0]",931.7266972999787,933.7267289999872,931.7266972999787,932.7267331000185,932.710091499961,933.7100614999654,"[0, 0, 0]",0,931.7266972999787,933.7267289999872,,,,,,,,,,,,,1002,M,2,6,R,ARB,2022_Jan_27_1849,2020.2.10,distractmap2,60.004992397498185,"['Chest', 'Right Face', 'Right Leg', 'Left Leg']",
9,"[0.2, -0.2]",0,,,,,0,24,24,24,,,,,,,,,,,,,,,,,,,,,,,,None,None,"[0, 0, 0]",933.7434043999529,935.7434406999964,933.7434043999529,934.7434281000169,934.7267397999531,935.7267588999821,"[0, 0, 0]",1,933.7434043999529,935.7434406999964,,,,,,,,,,,,,1002,M,2,6,R,ARB,2022_Jan_27_1849,2020.2.10,distractmap2,60.004992397498185,"['Chest', 'Right Face', 'Right Leg', 'Left Leg']",
3,"[0.2, 0.2]",0,,,,,0,25,25,25,,,,,,,,,,,,,,,,,,,,,,,,None,None,"[0, 0, 0]",935.7601013999665,937.760098699946,935.7601013999665,936.7600958000403,936.7434369999683,937.7434552999912,"[0, 0, 0]",1,935.7601013999665,937.760098699946,,,,,,,,,,,,,1002,M,2,6,R,ARB,2022_Jan_27_1849,2020.2.10,distractmap2,60.004992397498185,"['Chest', 'Right Face', 'Right Leg', 'Left Leg']",
9,"[0.2, -0.2]",1,,,,,0,26,26,26,,,,,,,,,,,,,,,,,,,,,,,,None,None,"[0, 0, 0]",937.7767607000424,939.7767955999589,937.7767607000424,938.7767687999876,938.7601205999963,939.7601107000373,"[0, 0, 0]",1,937.7767607000424,939.7767955999589,,,,,,,,,,,,,1002,M,2,6,R,ARB,2022_Jan_27_1849,2020.2.10,distractmap2,60.004992397498185,"['Chest', 'Right Face', 'Right Leg', 'Left Leg']",
6,"[0.2, 0]",0,,,,,0,27,27,27,,,,,,,,,,,,,,,,,,,,,,,,None,None,"[0, 0, 0]",939.793471800047,941.7934820000082,939.793471800047,940.7934743999504,940.776803100016,941.7767936999444,"[0, 0, 0]",1,939.793471800047,941.7934820000082,,,,,,,,,,,,,1002,M,2,6,R,ARB,2022_Jan_27_1849,2020.2.10,distractmap2,60.004992397498185,"['Chest', 'Right Face', 'Right Leg', 'Left Leg']",
2,"[0, 0.2]",0,,,,,0,28,28,28,,,,,,,,,,,,,,,,,,,,,,,,None,None,"[0, 0, 0]",941.8101301999995,943.8101534999441,941.8101301999995,942.810154399951,942.7934935999801,943.7934890999459,"[0, 0, 0]",1,941.8101301999995,943.8101534999441,,,,,,,,,,,,,1002,M,2,6,R,ARB,2022_Jan_27_1849,2020.2.10,distractmap2,60.004992397498185,"['Chest', 'Right Face', 'Right Leg', 'Left Leg']",
5,"[0, 0]",0,,,,,0,29,29,29,,,,,,,,,,,,,,,,,,,,,,,,None,None,"[0, 0, 0]",943.8268227999797,945.8268278000178,943.8268227999797,944.8268300000345,944.8101477000164,945.8101658000378,"[0, 0, 0]",1,943.8268227999797,945.8268278000178,,,,,,,,,,,,,1002,M,2,6,R,ARB,2022_Jan_27_1849,2020.2.10,distractmap2,60.004992397498185,"['Chest', 'Right Face', 'Right Leg', 'Left Leg']",
,,,,,,,,,,,,,,,,,,,,,,,,,,,,,945.8435133999446,None,space,945.8435133999446,None,,,,,,,,,,,,,,,,,,,,,,,,,,1002,M,2,6,R,ARB,2022_Jan_27_1849,2020.2.10,distractmap2,60.004992397498185,"['Chest', 'Right Face', 'Right Leg', 'Left Leg']",
3,"[0.2, 0.2]",None,,,,,0,0,0,0,1164.8626736999722,None,,,,,,,,,,,,,,,,,,,,,,None,None,"[0, 0, 0]",1171.6119888999965,None,1171.6119888999965,1172.6120069000171,1172.5953566000098,1173.5953440000303,"[0, 0, 0]",1,1171.6119888999965,None,992.2274630999891,992.2274630999891,None,space,151.83914970001206,992.2274630999891,None,,,,,,1002,M,2,6,R,ARB,2022_Jan_27_1849,2020.2.10,distractmap2,60.004992397498185,"['Chest', 'Right Face', 'Right Leg', 'Left Leg']",
3,"[0.2, 0.2]",None,,,,,0,1,1,1,,,,,,,,,,,,,,,,,,,,,,,,None,None,"[0, 0, 0]",1173.611997699947,1175.6120348999975,1173.611997699947,1174.6120067000156,1174.5953811999643,1175.5953715000069,"[0, 0, 0]",1,1173.611997699947,1175.6120348999975,,,,,,,,,,,,,1002,M,2,6,R,ARB,2022_Jan_27_1849,2020.2.10,distractmap2,60.004992397498185,"['Chest', 'Right Face', 'Right Leg', 'Left Leg']",
5,"[0, 0]",0,,,,,0,2,2,2,,,,,,,,,,,,,,,,,,,,,,,,None,None,"[0, 0, 0]",1175.628700900008,1177.628593100002,1175.628700900008,1176.6287085999502,1176.612037600018,1177.6120278999442,"[0, 0, 0]",1,1175.628700900008,1177.628593100002,,,,,,,,,,,,,1002,M,2,6,R,ARB,2022_Jan_27_1849,2020.2.10,distractmap2,60.004992397498185,"['Chest', 'Right Face', 'Right Leg', 'Left Leg']",
1,"[-0.2, 0.2]",0,,,,,0,3,3,3,,,,,,,,,,,,,,,,,,,,,,,,None,None,"[0, 0, 0]",1177.6452604000224,1179.645400700043,1177.6452604000224,1178.6453883999493,1178.6287283999845,1179.6287348000333,"[0, 0, 0]",1,1177.6452604000224,1179.645400700043,,,,,,,,,,,,,1002,M,2,6,R,ARB,2022_Jan_27_1849,2020.2.10,distractmap2,60.004992397498185,"['Chest', 'Right Face', 'Right Leg', 'Left Leg']",
5,"[0, 0]",1,,,,,0,4,4,4,,,,,,,,,,,,,,,,,,,,,,,,None,None,"[0, 0, 0]",1179.7290451000445,None,1179.7290451000445,1180.728726399946,1180.7120726000285,None,"[0, 0, 0]",1,1179.7290451000445,None,,,,,,,,,,,,,1002,M,2,6,R,ARB,2022_Jan_27_1849,2020.2.10,distractmap2,60.004992397498185,"['Chest', 'Right Face', 'Right Leg', 'Left Leg']",
8,"[0, -0.2]",0,,,,,0,5,5,5,,,,,,,,,,,,,,,,,,,,,,,,None,None,"[0, 0, 0]",1181.6787056999747,1183.6787666999735,1181.6787056999747,1182.678741700016,1182.6620993999531,1183.6620705999667,"[0, 0, 0]",1,1181.6787056999747,1183.6787666999735,,,,,,,,,,,,,1002,M,2,6,R,ARB,2022_Jan_27_1849,2020.2.10,distractmap2,60.004992397498185,"['Chest', 'Right Face', 'Right Leg', 'Left Leg']",
5,"[0, 0]",1,,,,,0,6,6,6,,,,,,,,,,,,,,,,,,,,,,,,None,None,"[0, 0, 0]",1183.6954237000318,1185.6954281999497,1183.6954237000318,1184.6954098000424,1184.678760400042,1185.6787802999606,"[0, 0, 0]",1,1183.6954237000318,1185.6954281999497,,,,,,,,,,,,,1002,M,2,6,R,ARB,2022_Jan_27_1849,2020.2.10,distractmap2,60.004992397498185,"['Chest', 'Right Face', 'Right Leg', 'Left Leg']",
7,"[-0.2, -0.2]",0,,,,,0,7,7,7,,,,,,,,,,,,,,,,,,,,,,,,None,None,"[0, 0, 0]",1185.7120910000522,1187.7121118999785,1185.7120910000522,1186.712115000002,1186.695462099975,1187.6954593999544,"[0, 0, 0]",1,1185.7120910000522,1187.7121118999785,,,,,,,,,,,,,1002,M,2,6,R,ARB,2022_Jan_27_1849,2020.2.10,distractmap2,60.004992397498185,"['Chest', 'Right Face', 'Right Leg', 'Left Leg']",
5,"[0, 0]",1,,,,,0,8,8,8,,,,,,,,,,,,,,,,,,,,,,,,None,None,"[0, 0, 0]",1187.7288073999807,1189.7288162000477,1187.7288073999807,1188.7287662000163,1188.7121051000431,1189.7121447999962,"[0, 0, 0]",1,1187.7288073999807,1189.7288162000477,,,,,,,,,,,,,1002,M,2,6,R,ARB,2022_Jan_27_1849,2020.2.10,distractmap2,60.004992397498185,"['Chest', 'Right Face', 'Right Leg', 'Left Leg']",
7,"[-0.2, -0.2]",1,,,,,0,9,9,9,,,,,,,,,,,,,,,,,,,,,,,,None,None,"[0, 0, 0]",1189.745462700026,1191.745495900046,1189.745462700026,1190.7454816000536,1190.7288214999717,1191.7288098999998,"[0, 0, 0]",1,1189.745462700026,1191.745495900046,,,,,,,,,,,,,1002,M,2,6,R,ARB,2022_Jan_27_1849,2020.2.10,distractmap2,60.004992397498185,"['Chest', 'Right Face', 'Right Leg', 'Left Leg']",
,,,,,,,,,,,1191.7621909000445,None,,,,,,,,,,,,,,,,,,,,,,,,,,,,,,,,,,,,,,,,,,37.592592592592595,1158.5087613699725,,,,1002,M,2,6,R,ARB,2022_Jan_27_1849,2020.2.10,distractmap2,60.004992397498185,"['Chest', 'Right Face', 'Right Leg', 'Left Leg']",
5,"[0, 0]",None,0,0,0,0,,,,,1205.0791522000218,None,1211.8623297000304,None,1211.8623297000304,1212.8623293000273,1212.845666600042,1213.8456678000512,1,None,None,"[0, 0, 0]",,,1211.8623297000304,None,,,,,,,,,,,,,,,,,,,,,,,,,,,,,,0.01451832999009639,5.011546229943633,"[0, 0, 0]",1002,M,2,6,R,ARB,2022_Jan_27_1849,2020.2.10,distractmap2,60.004992397498185,"['Chest', 'Right Face', 'Right Leg', 'Left Leg']",
5,"[0, 0]",1,0,1,1,1,,,,,,,1213.862338899984,None,1213.862338899984,1214.862338499981,1214.84564710001,1215.8456886999775,1,None,None,"[0, 0, 0]",,,1213.862338899984,None,,,,,,,,,,,,,,,,,,,,,,,,,,,,,,,,"[0, 0, 0]",1002,M,2,6,R,ARB,2022_Jan_27_1849,2020.2.10,distractmap2,60.004992397498185,"['Chest', 'Right Face', 'Right Leg', 'Left Leg']",
4,"[-0.2, 0]",0,0,2,2,2,,,,,,,1215.8623543999856,1215.8623543999856,1215.8623543999856,1216.862366199959,1216.8457044999814,1217.8457035999745,1,None,None,"[0, 0, 0]",,,1215.8623543999856,1215.8623543999856,,,,,,,,,,,,,,,,,,,,,,,,,,,,,,,,"[0, 0, 0]",1002,M,2,6,R,ARB,2022_Jan_27_1849,2020.2.10,distractmap2,60.004992397498185,"['Chest', 'Right Face', 'Right Leg', 'Left Leg']",
2,"[0, 0.2]",0,0,3,3,3,,,,,,,1217.8623613000382,1217.8623613000382,1217.8623613000382,1218.8623583000153,1218.8457099000225,1219.8457189999754,1,None,None,"[0, 0, 0]",,,1217.8623613000382,1217.8623613000382,,,,,,,,,,,,,,,,,,,,,,,,,,,,,,,,"[0, 0, 0]",1002,M,2,6,R,ARB,2022_Jan_27_1849,2020.2.10,distractmap2,60.004992397498185,"['Chest', 'Right Face', 'Right Leg', 'Left Leg']",
6,"[0.2, 0]",0,0,4,4,4,,,,,,,1219.9123327999841,1219.9123327999841,1219.9123327999841,1220.9124033000553,1220.9124033000553,None,1,None,None,"[0, 0, 0]",,,1219.9123327999841,1219.9123327999841,,,,,,,,,,,,,,,,,,,,,,,,,,,,,,,,"[0, 0, 0]",1002,M,2,6,R,ARB,2022_Jan_27_1849,2020.2.10,distractmap2,60.004992397498185,"['Chest', 'Right Face', 'Right Leg', 'Left Leg']",
8,"[0, -0.2]",0,0,5,5,5,,,,,,,1221.8790676000062,None,1221.8790676000062,1222.879063899978,1222.8624093000544,1223.8624149999814,1,None,None,"[0, 0, 0]",,,1221.8790676000062,None,,,,,,,,,,,,,,,,,,,,,,,,,,,,,,,,"[0, 0, 0]",1002,M,2,6,R,ARB,2022_Jan_27_1849,2020.2.10,distractmap2,60.004992397498185,"['Chest', 'Right Face', 'Right Leg', 'Left Leg']",
1,"[-0.2, 0.2]",0,0,6,6,6,,,,,,,1223.8790947999805,1223.8790947999805,1223.8790947999805,1224.8790882000467,1224.8624079000438,1225.8624270999571,1,None,None,"[0, 0, 0]",,,1223.8790947999805,1223.8790947999805,,,,,,,,,,,,,,,,,,,,,,,,,,,,,,,,"[0, 0, 0]",1002,M,2,6,R,ARB,2022_Jan_27_1849,2020.2.10,distractmap2,60.004992397498185,"['Chest', 'Right Face', 'Right Leg', 'Left Leg']",
4,"[-0.2, 0]",0,0,7,7,7,,,,,,,1225.8790896999417,1225.8790896999417,1225.8790896999417,1226.8790919999592,1226.862436400028,1227.862431799993,1,None,None,"[0, 0, 0]",,,1225.8790896999417,1225.8790896999417,,,,,,,,,,,,,,,,,,,,,,,,,,,,,,,,"[0, 0, 0]",1002,M,2,6,R,ARB,2022_Jan_27_1849,2020.2.10,distractmap2,60.004992397498185,"['Chest', 'Right Face', 'Right Leg', 'Left Leg']",
8,"[0, -0.2]",0,0,8,8,8,,,,,,,1227.8791108999867,1227.8791108999867,1227.8791108999867,1228.8791213999502,1228.862458199961,1229.8624617999885,1,None,None,"[0, 0, 0]",,,1227.8791108999867,1227.8791108999867,,,,,,,,,,,,,,,,,,,,,,,,,,,,,,,,"[0, 0, 0]",1002,M,2,6,R,ARB,2022_Jan_27_1849,2020.2.10,distractmap2,60.004992397498185,"['Chest', 'Right Face', 'Right Leg', 'Left Leg']",
8,"[0, -0.2]",1,0,9,9,9,,,,,,,1229.8791434000013,1229.8791434000013,1229.8791434000013,1230.879160100012,1230.8624852000503,1231.8624843000434,1,None,None,"[0, 0, 0]",,,1229.8791434000013,1229.8791434000013,,,,,,,,,,,,,,,,,,,,,,,,,,,,,,,,"[0, 0, 0]",1002,M,2,6,R,ARB,2022_Jan_27_1849,2020.2.10,distractmap2,60.004992397498185,"['Chest', 'Right Face', 'Right Leg', 'Left Leg']",
,,,,,,,,,,,1231.8791501000524,None,,,,,,,,,,,,,,,,,,,,,,,,,,,,,,,,,,,,,,,,,,32.46913580246913,1202.625557470019,,,,1002,M,2,6,R,ARB,2022_Jan_27_1849,2020.2.10,distractmap2,60.004992397498185,"['Chest', 'Right Face', 'Right Leg', 'Left Leg']",
3,"[0.2, 0.2]",None,0,0,0,0,,,,,1249.1127997000003,None,1251.9293227000162,None,1251.9293227000162,1252.9293294999516,1252.8959906999953,1253.8959948000265,1,None,None,"[0, 0, 0]",,,1251.9293227000162,None,,,,,,,,,,,,,,,,,,,,,,,,,,,,,,0.014560929965227842,5.011542730033398,"[0, 0, 0]",1002,M,2,6,R,ARB,2022_Jan_27_1849,2020.2.10,distractmap2,60.004992397498185,"['Chest', 'Right Face', 'Right Leg', 'Left Leg']",
4,"[-0.2, 0]",0,0,1,1,1,,,,,,,1253.92933850002,None,1253.92933850002,1254.929348799982,1254.9126721000066,1255.912684799987,1,None,None,"[0, 0, 0]",,,1253.92933850002,None,,,,,,,,,,,,,,,,,,,,,,,,,,,,,,,,"[0, 0, 0]",1002,M,2,6,R,ARB,2022_Jan_27_1849,2020.2.10,distractmap2,60.004992397498185,"['Chest', 'Right Face', 'Right Leg', 'Left Leg']",
1,"[-0.2, 0.2]",0,0,2,2,2,,,,,,,1255.929347599973,1255.929347599973,1255.929347599973,1256.9293672000058,1256.9126878000097,1257.912686399999,1,None,None,"[0, 0, 0]",,,1255.929347599973,1255.929347599973,,,,,,,,,,,,,,,,,,,,,,,,,,,,,,,,"[0, 0, 0]",1002,M,2,6,R,ARB,2022_Jan_27_1849,2020.2.10,distractmap2,60.004992397498185,"['Chest', 'Right Face', 'Right Leg', 'Left Leg']",
2,"[0, 0.2]",0,0,3,3,3,,,,,,,1257.9293562000385,1257.9293562000385,1257.9293562000385,1258.9293627999723,1258.9127035000129,1259.9127151999855,1,None,None,"[0, 0, 0]",,,1257.9293562000385,1257.9293562000385,,,,,,,,,,,,,,,,,,,,,,,,,,,,,,,,"[0, 0, 0]",1002,M,2,6,R,ARB,2022_Jan_27_1849,2020.2.10,distractmap2,60.004992397498185,"['Chest', 'Right Face', 'Right Leg', 'Left Leg']",
2,"[0, 0.2]",1,0,4,4,4,,,,,,,1259.979551599943,1259.979551599943,1259.979551599943,1260.9793868999695,1260.9627483000513,None,1,None,None,"[0, 0, 0]",,,1259.979551599943,1259.979551599943,,,,,,,,,,,,,,,,,,,,,,,,,,,,,,,,"[0, 0, 0]",1002,M,2,6,R,ARB,2022_Jan_27_1849,2020.2.10,distractmap2,60.004992397498185,"['Chest', 'Right Face', 'Right Leg', 'Left Leg']",
5,"[0, 0]",0,0,5,5,5,,,,,,,1261.9460469000041,None,1261.9460469000041,1262.946064000018,1262.9294019000372,1263.9293989000143,1,None,None,"[0, 0, 0]",,,1261.9460469000041,None,,,,,,,,,,,,,,,,,,,,,,,,,,,,,,,,"[0, 0, 0]",1002,M,2,6,R,ARB,2022_Jan_27_1849,2020.2.10,distractmap2,60.004992397498185,"['Chest', 'Right Face', 'Right Leg', 'Left Leg']",
1,"[-0.2, 0.2]",0,0,6,6,6,,,,,,,1263.9460805000272,1263.9460805000272,1263.9460805000272,1264.9460714999586,1264.929417300038,1265.9294160000281,1,None,None,"[0, 0, 0]",,,1263.9460805000272,1263.9460805000272,,,,,,,,,,,,,,,,,,,,,,,,,,,,,,,,"[0, 0, 0]",1002,M,2,6,R,ARB,2022_Jan_27_1849,2020.2.10,distractmap2,60.004992397498185,"['Chest', 'Right Face', 'Right Leg', 'Left Leg']",
1,"[-0.2, 0.2]",1,0,7,7,7,,,,,,,1265.9460385000566,1265.9460385000566,1265.9460385000566,1266.9461288000457,1266.9294373999583,1267.9294396999758,1,None,None,"[0, 0, 0]",,,1265.9460385000566,1265.9460385000566,,,,,,,,,,,,,,,,,,,,,,,,,,,,,,,,"[0, 0, 0]",1002,M,2,6,R,ARB,2022_Jan_27_1849,2020.2.10,distractmap2,60.004992397498185,"['Chest', 'Right Face', 'Right Leg', 'Left Leg']",
8,"[0, -0.2]",0,0,8,8,8,,,,,,,1267.946091699996,1267.946091699996,1267.946091699996,1268.9461272000335,1268.9294522999553,1269.929452799959,1,None,None,"[0, 0, 0]",,,1267.946091699996,1267.946091699996,,,,,,,,,,,,,,,,,,,,,,,,,,,,,,,,"[0, 0, 0]",1002,M,2,6,R,ARB,2022_Jan_27_1849,2020.2.10,distractmap2,60.004992397498185,"['Chest', 'Right Face', 'Right Leg', 'Left Leg']",
7,"[-0.2, -0.2]",0,0,9,9,9,,,,,,,1269.9461363999872,1269.9461363999872,1269.9461363999872,1270.9461204999825,1270.9294632000383,1271.929487699992,1,None,None,"[0, 0, 0]",,,1269.9461363999872,1269.9461363999872,,,,,,,,,,,,,,,,,,,,,,,,,,,,,,,,"[0, 0, 0]",1002,M,2,6,R,ARB,2022_Jan_27_1849,2020.2.10,distractmap2,60.004992397498185,"['Chest', 'Right Face', 'Right Leg', 'Left Leg']",
,,,,,,,,,,,1271.9461418000283,None,,,,,,,,,,,,,,,,,,,,,,,,,,,,,,,,,,,,,,,,,,25.61728395061728,1242.6922160700196,,,,1002,M,2,6,R,ARB,2022_Jan_27_1849,2020.2.10,distractmap2,60.004992397498185,"['Chest', 'Right Face', 'Right Leg', 'Left Leg']",
6,"[0.2, 0]",None,0,0,0,0,,,,,1289.196490500006,None,1291.9963130999822,None,1291.9963130999822,1292.9962937999517,1292.9796531000175,1293.9796634999802,1,None,None,"[0, 0, 0]",,,1291.9963130999822,None,,,,,,,,,,,,,,,,,,,,,,,,,,,,,,0.0148828299716115,5.012403629953042,"[0, 0, 0]",1002,M,2,6,R,ARB,2022_Jan_27_1849,2020.2.10,distractmap2,60.004992397498185,"['Chest', 'Right Face', 'Right Leg', 'Left Leg']",
6,"[0.2, 0]",1,0,1,1,1,,,,,,,1293.9963248999557,None,1293.9963248999557,1294.996335200034,1294.9796547000296,1295.9796704000328,1,None,None,"[0, 0, 0]",,,1293.9963248999557,None,,,,,,,,,,,,,,,,,,,,,,,,,,,,,,,,"[0, 0, 0]",1002,M,2,6,R,ARB,2022_Jan_27_1849,2020.2.10,distractmap2,60.004992397498185,"['Chest', 'Right Face', 'Right Leg', 'Left Leg']",
1,"[-0.2, 0.2]",0,0,2,2,2,,,,,,,1295.9963443999877,1295.9963443999877,1295.9963443999877,1296.9963422999717,1296.9795676999493,1297.9796787999803,1,None,None,"[0, 0, 0]",,,1295.9963443999877,1295.9963443999877,,,,,,,,,,,,,,,,,,,,,,,,,,,,,,,,"[0, 0, 0]",1002,M,2,6,R,ARB,2022_Jan_27_1849,2020.2.10,distractmap2,60.004992397498185,"['Chest', 'Right Face', 'Right Leg', 'Left Leg']",
8,"[0, -0.2]",0,0,3,3,3,,,,,,,1297.9963451999938,1297.9963451999938,1297.9963451999938,1298.9962616000557,1298.9797059999546,1299.9797182000475,1,None,None,"[0, 0, 0]",,,1297.9963451999938,1297.9963451999938,,,,,,,,,,,,,,,,,,,,,,,,,,,,,,,,"[0, 0, 0]",1002,M,2,6,R,ARB,2022_Jan_27_1849,2020.2.10,distractmap2,60.004992397498185,"['Chest', 'Right Face', 'Right Leg', 'Left Leg']",
1,"[-0.2, 0.2]",0,0,4,4,4,,,,,,,1300.0298533999594,1300.0298533999594,1300.0298533999594,1301.029722700012,1301.0130630000494,None,1,None,None,"[0, 0, 0]",,,1300.0298533999594,1300.0298533999594,,,,,,,,,,,,,,,,,,,,,,,,,,,,,,,,"[0, 0, 0]",1002,M,2,6,R,ARB,2022_Jan_27_1849,2020.2.10,distractmap2,60.004992397498185,"['Chest', 'Right Face', 'Right Leg', 'Left Leg']",
4,"[-0.2, 0]",0,0,5,5,5,,,,,,,1302.0130361999618,None,1302.0130361999618,1303.013047400047,1302.9964177999645,1303.9963043000316,1,None,None,"[0, 0, 0]",,,1302.0130361999618,None,,,,,,,,,,,,,,,,,,,,,,,,,,,,,,,,"[0, 0, 0]",1002,M,2,6,R,ARB,2022_Jan_27_1849,2020.2.10,distractmap2,60.004992397498185,"['Chest', 'Right Face', 'Right Leg', 'Left Leg']",
5,"[0, 0]",0,0,6,6,6,,,,,,,1304.0130772000412,1304.0130772000412,1304.0130772000412,1305.0130693999818,1304.9964012999553,1305.9964225000003,1,None,None,"[0, 0, 0]",,,1304.0130772000412,1304.0130772000412,,,,,,,,,,,,,,,,,,,,,,,,,,,,,,,,"[0, 0, 0]",1002,M,2,6,R,ARB,2022_Jan_27_1849,2020.2.10,distractmap2,60.004992397498185,"['Chest', 'Right Face', 'Right Leg', 'Left Leg']",
7,"[-0.2, -0.2]",0,0,7,7,7,,,,,,,1306.013092200039,1306.013092200039,1306.013092200039,1307.013007499976,1306.9964155999478,1307.9964317999547,1,None,None,"[0, 0, 0]",,,1306.013092200039,1306.013092200039,,,,,,,,,,,,,,,,,,,,,,,,,,,,,,,,"[0, 0, 0]",1002,M,2,6,R,ARB,2022_Jan_27_1849,2020.2.10,distractmap2,60.004992397498185,"['Chest', 'Right Face', 'Right Leg', 'Left Leg']",
7,"[-0.2, -0.2]",1,0,8,8,8,,,,,,,1308.0130878000055,1308.0130878000055,1308.0130878000055,1309.0130985999713,1308.9964472999563,1309.9964424000354,1,None,None,"[0, 0, 0]",,,1308.0130878000055,1308.0130878000055,,,,,,,,,,,,,,,,,,,,,,,,,,,,,,,,"[0, 0, 0]",1002,M,2,6,R,ARB,2022_Jan_27_1849,2020.2.10,distractmap2,60.004992397498185,"['Chest', 'Right Face', 'Right Leg', 'Left Leg']",
7,"[-0.2, -0.2]",1,0,9,9,9,,,,,,,1310.0131269999547,1310.0131269999547,1310.0131269999547,1311.0131265999516,1310.9964560000226,1311.996471200022,1,None,None,"[0, 0, 0]",,,1310.0131269999547,1310.0131269999547,,,,,,,,,,,,,,,,,,,,,,,,,,,,,,,,"[0, 0, 0]",1002,M,2,6,R,ARB,2022_Jan_27_1849,2020.2.10,distractmap2,60.004992397498185,"['Chest', 'Right Face', 'Right Leg', 'Left Leg']",
,,,,,,,,,,,1312.013139900053,None,,,,,,,,,,,,,,,,,,,,,,,,,,,,,,,,,,,,,,,,,,25.493827160493826,1278.759343469981,,,,1002,M,2,6,R,ARB,2022_Jan_27_1849,2020.2.10,distractmap2,60.004992397498185,"['Chest', 'Right Face', 'Right Leg', 'Left Leg']",
6,"[0.2, 0]",None,,,,,0,0,0,0,1325.2966217000503,None,,,,,,,,,,,,,,,,,,,,,,None,None,"[0, 0, 0]",1332.063306499971,None,1332.063306499971,1333.0632967000129,1333.0466505000368,1334.046574100037,"[0, 0, 0]",1,1332.063306499971,None,,,,,,,,,,0.014723829925060272,5.012103629997,,1002,M,2,6,R,ARB,2022_Jan_27_1849,2020.2.10,distractmap2,60.004992397498185,"['Chest', 'Right Face', 'Right Leg', 'Left Leg']",
1,"[-0.2, 0.2]",None,,,,,0,1,1,1,,,,,,,,,,,,,,,,,,,,,,,,None,None,"[0, 0, 0]",1334.063313700026,1336.0633219999727,1334.063313700026,1335.0633125000168,1335.0466658000369,1336.0466752999928,"[0, 0, 0]",1,1334.063313700026,1336.0633219999727,,,,,,,,,,,,,1002,M,2,6,R,ARB,2022_Jan_27_1849,2020.2.10,distractmap2,60.004992397498185,"['Chest', 'Right Face', 'Right Leg', 'Left Leg']",
6,"[0.2, 0]",1,,,,,0,2,2,2,,,,,,,,,,,,,,,,,,,,,,,,None,None,"[0, 0, 0]",1336.0799818000523,1338.0800023999764,1336.0799818000523,1337.0800090000266,1337.0633500999538,1338.0633436000207,"[0, 0, 0]",1,1336.0799818000523,1338.0800023999764,,,,,,,,,,,,,1002,M,2,6,R,ARB,2022_Jan_27_1849,2020.2.10,distractmap2,60.004992397498185,"['Chest', 'Right Face', 'Right Leg', 'Left Leg']",
4,"[-0.2, 0]",0,,,,,0,3,3,3,,,,,,,,,,,,,,,,,,,,,,,,None,None,"[0, 0, 0]",1338.0966949999565,1340.0967071000487,1338.0966949999565,1339.0967018000083,1339.080026700045,1340.0800200999947,"[0, 0, 0]",1,1338.0966949999565,1340.0967071000487,,,,,,,,,,,,,1002,M,2,6,R,ARB,2022_Jan_27_1849,2020.2.10,distractmap2,60.004992397498185,"['Chest', 'Right Face', 'Right Leg', 'Left Leg']",
1,"[-0.2, 0.2]",0,,,,,0,4,4,4,,,,,,,,,,,,,,,,,,,,,,,,None,None,"[0, 0, 0]",1340.1967125999508,None,1340.1967125999508,1341.1967067000223,1341.1800329999533,None,"[0, 0, 0]",0,1340.1967125999508,None,,,,,,,,,,,,,1002,M,2,6,R,ARB,2022_Jan_27_1849,2020.2.10,distractmap2,60.004992397498185,"['Chest', 'Right Face', 'Right Leg', 'Left Leg']",
8,"[0, -0.2]",0,,,,,0,5,5,5,,,,,,,,,,,,,,,,,,,,,,,,None,None,"[0, 0, 0]",1342.1300515000476,1344.130069799954,1342.1300515000476,1343.1300456000026,1343.1132908000145,1344.1133857000386,"[0, 0, 0]",1,1342.1300515000476,1344.130069799954,,,,,,,,,,,,,1002,M,2,6,R,ARB,2022_Jan_27_1849,2020.2.10,distractmap2,60.004992397498185,"['Chest', 'Right Face', 'Right Leg', 'Left Leg']",
1,"[-0.2, 0.2]",1,,,,,0,6,6,6,,,,,,,,,,,,,,,,,,,,,,,,None,None,"[0, 0, 0]",1344.1467290000292,1346.14676709997,1344.1467290000292,1345.1467429000186,1345.1300747999921,1346.1300934000174,"[0, 0, 0]",1,1344.1467290000292,1346.14676709997,,,,,,,,,,,,,1002,M,2,6,R,ARB,2022_Jan_27_1849,2020.2.10,distractmap2,60.004992397498185,"['Chest', 'Right Face', 'Right Leg', 'Left Leg']",
8,"[0, -0.2]",1,,,,,0,7,7,7,,,,,,,,,,,,,,,,,,,,,,,,None,None,"[0, 0, 0]",1346.1634120000526,1348.1634426000528,1346.1634120000526,1347.1634284999454,1347.1467727000127,1348.1467950999504,"[0, 0, 0]",1,1346.1634120000526,1348.1634426000528,,,,,,,,,,,,,1002,M,2,6,R,ARB,2022_Jan_27_1849,2020.2.10,distractmap2,60.004992397498185,"['Chest', 'Right Face', 'Right Leg', 'Left Leg']",
1,"[-0.2, 0.2]",1,,,,,0,8,8,8,,,,,,,,,,,,,,,,,,,,,,,,None,None,"[0, 0, 0]",1348.1801133999834,1350.1801196000306,1348.1801133999834,1349.1801234999439,1349.1634526000125,1350.1634480999783,"[0, 0, 0]",1,1348.1801133999834,1350.1801196000306,,,,,,,,,,,,,1002,M,2,6,R,ARB,2022_Jan_27_1849,2020.2.10,distractmap2,60.004992397498185,"['Chest', 'Right Face', 'Right Leg', 'Left Leg']",
6,"[0.2, 0]",0,,,,,0,9,9,9,,,,,,,,,,,,,,,,,,,,,,,,None,None,"[0, 0, 0]",1350.1967982000206,1352.1968118000077,1350.1967982000206,1351.196800500038,1351.1801107999636,1352.180121500045,"[0, 0, 0]",1,1350.1967982000206,1352.1968118000077,,,,,,,,,,,,,1002,M,2,6,R,ARB,2022_Jan_27_1849,2020.2.10,distractmap2,60.004992397498185,"['Chest', 'Right Face', 'Right Leg', 'Left Leg']",
,,,,,,,,,,,1352.2134525999427,None,,,,,,,,,,,,,,,,,,,,,,,,,,,,,,,,,,,,,,,,,,19.259259259259256,1320.9593867700314,,,,1002,M,2,6,R,ARB,2022_Jan_27_1849,2020.2.10,distractmap2,60.004992397498185,"['Chest', 'Right Face', 'Right Leg', 'Left Leg']",
7,"[-0.2, -0.2]",None,,,,,0,0,0,0,1368.2137457999634,None,,,,,,,,,,,,,,,,,,,,,,None,None,"[0, 0, 0]",1372.2636406000238,None,1372.2636406000238,1373.2636427000398,1373.2469857999822,1374.2469996999716,"[0, 0, 0]",1,1372.2636406000238,None,,,,,,,,,,0.015030529932118952,5.0126837299903855,,1002,M,2,6,R,ARB,2022_Jan_27_1849,2020.2.10,distractmap2,60.004992397498185,"['Chest', 'Right Face', 'Right Leg', 'Left Leg']",
7,"[-0.2, -0.2]",None,,,,,0,1,1,1,,,,,,,,,,,,,,,,,,,,,,,,None,None,"[0, 0, 0]",1374.2636582000414,1376.2635824000463,1374.2636582000414,1375.263653800008,1375.2470099000493,1376.2470089000417,"[0, 0, 0]",1,1374.2636582000414,1376.2635824000463,,,,,,,,,,,,,1002,M,2,6,R,ARB,2022_Jan_27_1849,2020.2.10,distractmap2,60.004992397498185,"['Chest', 'Right Face', 'Right Leg', 'Left Leg']",
7,"[-0.2, -0.2]",1,,,,,0,2,2,2,,,,,,,,,,,,,,,,,,,,,,,,None,None,"[0, 0, 0]",1376.280344299972,1378.2803355000215,1376.280344299972,1377.2803402000573,1377.263679799973,1378.2636919999495,"[0, 0, 0]",1,1376.280344299972,1378.2803355000215,,,,,,,,,,,,,1002,M,2,6,R,ARB,2022_Jan_27_1849,2020.2.10,distractmap2,60.004992397498185,"['Chest', 'Right Face', 'Right Leg', 'Left Leg']",
5,"[0, 0]",0,,,,,0,3,3,3,,,,,,,,,,,,,,,,,,,,,,,,None,None,"[0, 0, 0]",1378.297018100042,1380.2970424999949,1378.297018100042,1379.297032600036,1379.2803661000216,1380.280360899982,"[0, 0, 0]",1,1378.297018100042,1380.2970424999949,,,,,,,,,,,,,1002,M,2,6,R,ARB,2022_Jan_27_1849,2020.2.10,distractmap2,60.004992397498185,"['Chest', 'Right Face', 'Right Leg', 'Left Leg']",
1,"[-0.2, 0.2]",0,,,,,0,4,4,4,,,,,,,,,,,,,,,,,,,,,,,,None,None,"[0, 0, 0]",1380.3469065000536,None,1380.3469065000536,1381.3470486999722,1381.3303706999868,None,"[0, 0, 0]",1,1380.3469065000536,None,,,,,,,,,,,,,1002,M,2,6,R,ARB,2022_Jan_27_1849,2020.2.10,distractmap2,60.004992397498185,"['Chest', 'Right Face', 'Right Leg', 'Left Leg']",
6,"[0.2, 0]",0,,,,,0,5,5,5,,,,,,,,,,,,,,,,,,,,,,,,None,None,"[0, 0, 0]",1382.3303915000288,1384.330389300012,1382.3303915000288,1383.3303925000364,1383.3137118000304,1384.3137281000381,"[0, 0, 0]",1,1382.3303915000288,1384.330389300012,,,,,,,,,,,,,1002,M,2,6,R,ARB,2022_Jan_27_1849,2020.2.10,distractmap2,60.004992397498185,"['Chest', 'Right Face', 'Right Leg', 'Left Leg']",
1,"[-0.2, 0.2]",1,,,,,0,6,6,6,,,,,,,,,,,,,,,,,,,,,,,,None,None,"[0, 0, 0]",1384.3465839000419,1386.347072100034,1384.3465839000419,1385.347073800047,1385.3303884000052,1386.3304227000335,"[0, 0, 0]",1,1384.3465839000419,1386.347072100034,,,,,,,,,,,,,1002,M,2,6,R,ARB,2022_Jan_27_1849,2020.2.10,distractmap2,60.004992397498185,"['Chest', 'Right Face', 'Right Leg', 'Left Leg']",
7,"[-0.2, -0.2]",0,,,,,0,7,7,7,,,,,,,,,,,,,,,,,,,,,,,,None,None,"[0, 0, 0]",1386.36373620003,1388.363747700001,1386.36373620003,1387.3637512000278,1387.3470787999686,1388.3471087999642,"[0, 0, 0]",1,1386.36373620003,1388.363747700001,,,,,,,,,,,,,1002,M,2,6,R,ARB,2022_Jan_27_1849,2020.2.10,distractmap2,60.004992397498185,"['Chest', 'Right Face', 'Right Leg', 'Left Leg']",
6,"[0.2, 0]",0,,,,,0,8,8,8,,,,,,,,,,,,,,,,,,,,,,,,None,None,"[0, 0, 0]",1388.3804300000193,1390.380453699967,1388.3804300000193,1389.3804405999836,1389.3637706999434,1390.3637676000362,"[0, 0, 0]",0,1388.3804300000193,1390.380453699967,,,,,,,,,,,,,1002,M,2,6,R,ARB,2022_Jan_27_1849,2020.2.10,distractmap2,60.004992397498185,"['Chest', 'Right Face', 'Right Leg', 'Left Leg']",
7,"[-0.2, -0.2]",1,,,,,0,9,9,9,,,,,,,,,,,,,,,,,,,,,,,,None,None,"[0, 0, 0]",1390.3971054999856,1392.3971263000276,1390.3971054999856,1391.3971336999675,1391.3804550999776,1392.3804742000066,"[0, 0, 0]",1,1390.3971054999856,1392.3971263000276,,,,,,,,,,,,,1002,M,2,6,R,ARB,2022_Jan_27_1849,2020.2.10,distractmap2,60.004992397498185,"['Chest', 'Right Face', 'Right Leg', 'Left Leg']",
,,,,,,,,,,,1392.4137880000053,None,,,,,,,,,,,,,,,,,,,,,,,,,,,,,,,,,,,,,,,,,,19.753086419753085,1359.1597401699983,,,,1002,M,2,6,R,ARB,2022_Jan_27_1849,2020.2.10,distractmap2,60.004992397498185,"['Chest', 'Right Face', 'Right Leg', 'Left Leg']",
4,"[-0.2, 0]",None,,,,,0,0,0,0,1405.6474166000262,None,,,,,,,,,,,,,,,,,,,,,,None,None,"[0, 0, 0]",1412.4639729999471,None,1412.4639729999471,1413.4639774999814,1413.447336000041,1414.4473204000387,"[0, 0, 0]",1,1412.4639729999471,None,,,,,,,,,,0.014987129950895905,5.012613729923032,,1002,M,2,6,R,ARB,2022_Jan_27_1849,2020.2.10,distractmap2,60.004992397498185,"['Chest', 'Right Face', 'Right Leg', 'Left Leg']",
5,"[0, 0]",None,,,,,0,1,1,1,,,,,,,,,,,,,,,,,,,,,,,,None,None,"[0, 0, 0]",1414.463993399986,1416.4640021000523,1414.463993399986,1415.4640282000182,1415.4473746999865,1416.4473385999445,"[0, 0, 0]",1,1414.463993399986,1416.4640021000523,,,,,,,,,,,,,1002,M,2,6,R,ARB,2022_Jan_27_1849,2020.2.10,distractmap2,60.004992397498185,"['Chest', 'Right Face', 'Right Leg', 'Left Leg']",
6,"[0.2, 0]",0,,,,,0,2,2,2,,,,,,,,,,,,,,,,,,,,,,,,None,None,"[0, 0, 0]",1416.4806658000452,1418.4806666000513,1416.4806658000452,1417.480656699976,1417.4640192999505,1418.4640132000204,"[0, 0, 0]",1,1416.4806658000452,1418.4806666000513,,,,,,,,,,,,,1002,M,2,6,R,ARB,2022_Jan_27_1849,2020.2.10,distractmap2,60.004992397498185,"['Chest', 'Right Face', 'Right Leg', 'Left Leg']",
1,"[-0.2, 0.2]",0,,,,,0,3,3,3,,,,,,,,,,,,,,,,,,,,,,,,None,None,"[0, 0, 0]",1418.497353099985,1420.4973694999935,1418.497353099985,1419.4973725000164,1419.4806749999989,1420.4806910000043,"[0, 0, 0]",1,1418.497353099985,1420.4973694999935,,,,,,,,,,,,,1002,M,2,6,R,ARB,2022_Jan_27_1849,2020.2.10,distractmap2,60.004992397498185,"['Chest', 'Right Face', 'Right Leg', 'Left Leg']",
6,"[0.2, 0]",1,,,,,0,4,4,4,,,,,,,,,,,,,,,,,,,,,,,,None,None,"[0, 0, 0]",1420.5974028999917,None,1420.5974028999917,1421.5973460000241,1421.5807356999721,None,"[0, 0, 0]",1,1420.5974028999917,None,,,,,,,,,,,,,1002,M,2,6,R,ARB,2022_Jan_27_1849,2020.2.10,distractmap2,60.004992397498185,"['Chest', 'Right Face', 'Right Leg', 'Left Leg']",
1,"[-0.2, 0.2]",1,,,,,0,5,5,5,,,,,,,,,,,,,,,,,,,,,,,,None,None,"[0, 0, 0]",1422.5307231999468,1424.5307236999506,1422.5307231999468,1423.5307101999642,1423.514067400014,1424.514064099989,"[0, 0, 0]",0,1422.5307231999468,1424.5307236999506,,,,,,,,,,,,,1002,M,2,6,R,ARB,2022_Jan_27_1849,2020.2.10,distractmap2,60.004992397498185,"['Chest', 'Right Face', 'Right Leg', 'Left Leg']",
2,"[0, 0.2]",0,,,,,0,6,6,6,,,,,,,,,,,,,,,,,,,,,,,,None,None,"[0, 0, 0]",1424.547378999996,1426.5474238999886,1424.547378999996,1425.5474023999413,1425.530729399994,1426.530752700055,"[0, 0, 0]",1,1424.547378999996,1426.5474238999886,,,,,,,,,,,,,1002,M,2,6,R,ARB,2022_Jan_27_1849,2020.2.10,distractmap2,60.004992397498185,"['Chest', 'Right Face', 'Right Leg', 'Left Leg']",
3,"[0.2, 0.2]",0,,,,,0,7,7,7,,,,,,,,,,,,,,,,,,,,,,,,None,None,"[0, 0, 0]",1426.5640822000569,1428.5640952000394,1426.5640822000569,1427.5641003999626,1427.5474257000023,1428.547424999997,"[0, 0, 0]",1,1426.5640822000569,1428.5640952000394,,,,,,,,,,,,,1002,M,2,6,R,ARB,2022_Jan_27_1849,2020.2.10,distractmap2,60.004992397498185,"['Chest', 'Right Face', 'Right Leg', 'Left Leg']",
6,"[0.2, 0]",0,,,,,0,8,8,8,,,,,,,,,,,,,,,,,,,,,,,,None,None,"[0, 0, 0]",1428.5807679999853,1430.580765199964,1428.5807679999853,1429.5807602000423,1429.5641050999984,1430.564122700016,"[0, 0, 0]",1,1428.5807679999853,1430.580765199964,,,,,,,,,,,,,1002,M,2,6,R,ARB,2022_Jan_27_1849,2020.2.10,distractmap2,60.004992397498185,"['Chest', 'Right Face', 'Right Leg', 'Left Leg']",
3,"[0.2, 0.2]",1,,,,,0,9,9,9,,,,,,,,,,,,,,,,,,,,,,,,None,None,"[0, 0, 0]",1430.5974516000133,1432.5974587999517,1430.5974516000133,1431.5974573000567,1431.5807751000393,1432.5807813999709,"[0, 0, 0]",1,1430.5974516000133,1432.5974587999517,,,,,,,,,,,,,1002,M,2,6,R,ARB,2022_Jan_27_1849,2020.2.10,distractmap2,60.004992397498185,"['Chest', 'Right Face', 'Right Leg', 'Left Leg']",
,,,,,,,,,,,1432.6141530999448,None,,,,,,,,,,,,,,,,,,,,,,,,,,,,,,,,,,,,,,,,,,18.950617283950617,1399.360102870036,,,,1002,M,2,6,R,ARB,2022_Jan_27_1849,2020.2.10,distractmap2,60.004992397498185,"['Chest', 'Right Face', 'Right Leg', 'Left Leg']",
8,"[0, -0.2]",None,0,0,0,0,,,,,1445.8641923000105,None,1452.6809763000347,None,1452.6809763000347,1453.680981399957,1453.6643018999603,1454.6643089000136,1,None,None,"[0, 0, 0]",,,1452.6809763000347,None,,,,,,,,,,,,,,,,,,,,,,,,,,,,,,0.01495092990808189,5.01254272996448,"[0, 0, 0]",1002,M,2,6,R,ARB,2022_Jan_27_1849,2020.2.10,distractmap2,60.004992397498185,"['Chest', 'Right Face', 'Right Leg', 'Left Leg']",
6,"[0.2, 0]",0,0,1,1,1,,,,,,,1454.6809852999868,None,1454.6809852999868,1455.6809904000256,1455.6643261000281,1456.6643271000357,1,None,None,"[0, 0, 0]",,,1454.6809852999868,None,,,,,,,,,,,,,,,,,,,,,,,,,,,,,,,,"[0, 0, 0]",1002,M,2,6,R,ARB,2022_Jan_27_1849,2020.2.10,distractmap2,60.004992397498185,"['Chest', 'Right Face', 'Right Leg', 'Left Leg']",
6,"[0.2, 0]",1,0,2,2,2,,,,,,,1456.6810091000516,1456.6810091000516,1456.6810091000516,1457.6810130999656,1457.664318999974,1458.6643335999688,1,None,None,"[0, 0, 0]",,,1456.6810091000516,1456.6810091000516,,,,,,,,,,,,,,,,,,,,,,,,,,,,,,,,"[0, 0, 0]",1002,M,2,6,R,ARB,2022_Jan_27_1849,2020.2.10,distractmap2,60.004992397498185,"['Chest', 'Right Face', 'Right Leg', 'Left Leg']",
2,"[0, 0.2]",0,0,3,3,3,,,,,,,1458.6809726000065,1458.6809726000065,1458.6809726000065,1459.6810177000007,1459.6643422000343,1460.6643493999727,1,None,None,"[0, 0, 0]",,,1458.6809726000065,1458.6809726000065,,,,,,,,,,,,,,,,,,,,,,,,,,,,,,,,"[0, 0, 0]",1002,M,2,6,R,ARB,2022_Jan_27_1849,2020.2.10,distractmap2,60.004992397498185,"['Chest', 'Right Face', 'Right Leg', 'Left Leg']",
1,"[-0.2, 0.2]",0,0,4,4,4,,,,,,,1460.7640556000406,1460.7640556000406,1460.7640556000406,1461.7643638999434,1461.7477101000259,None,1,None,None,"[0, 0, 0]",,,1460.7640556000406,1460.7640556000406,,,,,,,,,,,,,,,,,,,,,,,,,,,,,,,,"[0, 0, 0]",1002,M,2,6,R,ARB,2022_Jan_27_1849,2020.2.10,distractmap2,60.004992397498185,"['Chest', 'Right Face', 'Right Leg', 'Left Leg']",
6,"[0.2, 0]",0,0,5,5,5,,,,,,,1462.697725099977,None,1462.697725099977,1463.6977265999885,1463.6810611999827,1464.681016699993,1,None,None,"[0, 0, 0]",,,1462.697725099977,None,,,,,,,,,,,,,,,,,,,,,,,,,,,,,,,,"[0, 0, 0]",1002,M,2,6,R,ARB,2022_Jan_27_1849,2020.2.10,distractmap2,60.004992397498185,"['Chest', 'Right Face', 'Right Leg', 'Left Leg']",
9,"[0.2, -0.2]",0,0,6,6,6,,,,,,,1464.6977274999954,1464.6977274999954,1464.6977274999954,1465.697756199981,1465.6810740999645,1466.6811454000417,1,None,None,"[0, 0, 0]",,,1464.6977274999954,1464.6977274999954,,,,,,,,,,,,,,,,,,,,,,,,,,,,,,,,"[0, 0, 0]",1002,M,2,6,R,ARB,2022_Jan_27_1849,2020.2.10,distractmap2,60.004992397498185,"['Chest', 'Right Face', 'Right Leg', 'Left Leg']",
1,"[-0.2, 0.2]",0,0,7,7,7,,,,,,,1466.6976400000276,1466.6976400000276,1466.6976400000276,1467.697750500054,1467.6811007000506,1468.6810957000125,1,None,None,"[0, 0, 0]",,,1466.6976400000276,1466.6976400000276,,,,,,,,,,,,,,,,,,,,,,,,,,,,,,,,"[0, 0, 0]",1002,M,2,6,R,ARB,2022_Jan_27_1849,2020.2.10,distractmap2,60.004992397498185,"['Chest', 'Right Face', 'Right Leg', 'Left Leg']",
6,"[0.2, 0]",0,0,8,8,8,,,,,,,1468.6977735999972,1468.6977735999972,1468.6977735999972,1469.6977817999432,1469.6811145000393,1470.6811151000438,1,None,None,"[0, 0, 0]",,,1468.6977735999972,1468.6977735999972,,,,,,,,,,,,,,,,,,,,,,,,,,,,,,,,"[0, 0, 0]",1002,M,2,6,R,ARB,2022_Jan_27_1849,2020.2.10,distractmap2,60.004992397498185,"['Chest', 'Right Face', 'Right Leg', 'Left Leg']",
6,"[0.2, 0]",1,0,9,9,9,,,,,,,1470.6977740000002,1470.6977740000002,1470.6977740000002,1471.6977817999432,1471.681129100034,1472.6811298000393,1,None,None,"[0, 0, 0]",,,1470.6977740000002,1470.6977740000002,,,,,,,,,,,,,,,,,,,,,,,,,,,,,,,,"[0, 0, 0]",1002,M,2,6,R,ARB,2022_Jan_27_1849,2020.2.10,distractmap2,60.004992397498185,"['Chest', 'Right Face', 'Right Leg', 'Left Leg']",
,,,,,,,,,,,1472.6977998999646,None,,,,,,,,,,,,,,,,,,,,,,,,,,,,,,,,,,,,,,,,,,19.753086419753085,1443.4438326701056,,,,1002,M,2,6,R,ARB,2022_Jan_27_1849,2020.2.10,distractmap2,60.004992397498185,"['Chest', 'Right Face', 'Right Leg', 'Left Leg']",
9,"[0.2, -0.2]",None,0,0,0,0,,,,,1489.9148000000278,None,1492.7479800999863,None,1492.7479800999863,1493.7479866000358,1493.714640500024,1494.7146242000163,1,None,None,"[0, 0, 0]",,,1492.7479800999863,None,,,,,,,,,,,,,,,,,,,,,,,,,,,,,,0.014914129860699177,5.012468229862861,"[0, 0, 0]",1002,M,2,6,R,ARB,2022_Jan_27_1849,2020.2.10,distractmap2,60.004992397498185,"['Chest', 'Right Face', 'Right Leg', 'Left Leg']",
9,"[0.2, -0.2]",1,0,1,1,1,,,,,,,1494.7479862000328,None,1494.7479862000328,1495.7479964999948,1495.731327699963,1496.7313339000102,1,None,None,"[0, 0, 0]",,,1494.7479862000328,None,,,,,,,,,,,,,,,,,,,,,,,,,,,,,,,,"[0, 0, 0]",1002,M,2,6,R,ARB,2022_Jan_27_1849,2020.2.10,distractmap2,60.004992397498185,"['Chest', 'Right Face', 'Right Leg', 'Left Leg']",
9,"[0.2, -0.2]",1,0,2,2,2,,,,,,,1496.7480106999865,1496.7480106999865,1496.7480106999865,1497.7480125000002,1497.7313283999683,1498.7313482000027,1,None,None,"[0, 0, 0]",,,1496.7480106999865,1496.7480106999865,,,,,,,,,,,,,,,,,,,,,,,,,,,,,,,,"[0, 0, 0]",1002,M,2,6,R,ARB,2022_Jan_27_1849,2020.2.10,distractmap2,60.004992397498185,"['Chest', 'Right Face', 'Right Leg', 'Left Leg']",
3,"[0.2, 0.2]",0,0,3,3,3,,,,,,,1498.748018400045,1498.748018400045,1498.748018400045,1499.748032100033,1499.7313627999974,1500.7313617999898,1,None,None,"[0, 0, 0]",,,1498.748018400045,1498.748018400045,,,,,,,,,,,,,,,,,,,,,,,,,,,,,,,,"[0, 0, 0]",1002,M,2,6,R,ARB,2022_Jan_27_1849,2020.2.10,distractmap2,60.004992397498185,"['Chest', 'Right Face', 'Right Leg', 'Left Leg']",
5,"[0, 0]",0,0,4,4,4,,,,,,,1500.780545799993,1500.780545799993,1500.780545799993,1501.781370199984,1501.781370199984,None,1,None,None,"[0, 0, 0]",,,1500.780545799993,1500.780545799993,,,,,,,,,,,,,,,,,,,,,,,,,,,,,,,,"[0, 0, 0]",1002,M,2,6,R,ARB,2022_Jan_27_1849,2020.2.10,distractmap2,60.004992397498185,"['Chest', 'Right Face', 'Right Leg', 'Left Leg']",
4,"[-0.2, 0]",0,0,5,5,5,,,,,,,1502.7647172999568,None,1502.7647172999568,1503.7647016999545,1503.74805439997,1504.7480582999997,1,None,None,"[0, 0, 0]",,,1502.7647172999568,None,,,,,,,,,,,,,,,,,,,,,,,,,,,,,,,,"[0, 0, 0]",1002,M,2,6,R,ARB,2022_Jan_27_1849,2020.2.10,distractmap2,60.004992397498185,"['Chest', 'Right Face', 'Right Leg', 'Left Leg']",
9,"[0.2, -0.2]",0,0,6,6,6,,,,,,,1504.7647319999523,1504.7647319999523,1504.7647319999523,1505.7647357999813,1505.7480877999915,1506.7480254999828,1,None,None,"[0, 0, 0]",,,1504.7647319999523,1504.7647319999523,,,,,,,,,,,,,,,,,,,,,,,,,,,,,,,,"[0, 0, 0]",1002,M,2,6,R,ARB,2022_Jan_27_1849,2020.2.10,distractmap2,60.004992397498185,"['Chest', 'Right Face', 'Right Leg', 'Left Leg']",
6,"[0.2, 0]",0,0,7,7,7,,,,,,,1506.7647536000004,1506.7647536000004,1506.7647536000004,1507.764741800027,1507.7480912000174,1508.7481040999992,1,None,None,"[0, 0, 0]",,,1506.7647536000004,1506.7647536000004,,,,,,,,,,,,,,,,,,,,,,,,,,,,,,,,"[0, 0, 0]",1002,M,2,6,R,ARB,2022_Jan_27_1849,2020.2.10,distractmap2,60.004992397498185,"['Chest', 'Right Face', 'Right Leg', 'Left Leg']",
2,"[0, 0.2]",0,0,8,8,8,,,,,,,1508.7646959000267,1508.7646959000267,1508.7646959000267,1509.7647664999822,1509.7480004000245,1510.748117799987,1,None,None,"[0, 0, 0]",,,1508.7646959000267,1508.7646959000267,,,,,,,,,,,,,,,,,,,,,,,,,,,,,,,,"[0, 0, 0]",1002,M,2,6,R,ARB,2022_Jan_27_1849,2020.2.10,distractmap2,60.004992397498185,"['Chest', 'Right Face', 'Right Leg', 'Left Leg']",
2,"[0, 0.2]",1,0,9,9,9,,,,,,,1510.7647794999648,1510.7647794999648,1510.7647794999648,1511.764790300047,1511.748128099949,1512.7481302999659,0,None,None,"[0, 0, 0]",,,1510.7647794999648,1510.7647794999648,,,,,,,,,,,,,,,,,,,,,,,,,,,,,,,,"[0, 0, 0]",1002,M,2,6,R,ARB,2022_Jan_27_1849,2020.2.10,distractmap2,60.004992397498185,"['Chest', 'Right Face', 'Right Leg', 'Left Leg']",
,,,,,,,,,,,1512.7648003000068,None,,,,,,,,,,,,,,,,,,,,,,,,,,,,,,,,,,,,,,,,,,27.65432098765432,1483.5105548700085,,,,1002,M,2,6,R,ARB,2022_Jan_27_1849,2020.2.10,distractmap2,60.004992397498185,"['Chest', 'Right Face', 'Right Leg', 'Left Leg']",
2,"[0, 0.2]",None,0,0,0,0,,,,,1530.0152004000265,None,1532.8149621000048,None,1532.8149621000048,1533.8149715999607,1533.7983072999632,1534.798294599983,1,None,None,"[0, 0, 0]",,,1532.8149621000048,None,,,,,,,,,,,,,,,,,,,,,,,,,,,,,,0.015201129950582981,5.013051229878329,"[0, 0, 0]",1002,M,2,6,R,ARB,2022_Jan_27_1849,2020.2.10,distractmap2,60.004992397498185,"['Chest', 'Right Face', 'Right Leg', 'Left Leg']",
8,"[0, -0.2]",0,0,1,1,1,,,,,,,1534.814997700043,None,1534.814997700043,1535.814964500023,1535.7983403999824,1536.7983295000158,1,None,None,"[0, 0, 0]",,,1534.814997700043,None,,,,,,,,,,,,,,,,,,,,,,,,,,,,,,,,"[0, 0, 0]",1002,M,2,6,R,ARB,2022_Jan_27_1849,2020.2.10,distractmap2,60.004992397498185,"['Chest', 'Right Face', 'Right Leg', 'Left Leg']",
1,"[-0.2, 0.2]",0,0,2,2,2,,,,,,,1536.815017499961,1536.815017499961,1536.815017499961,1537.8150092000142,1537.7983433000045,1538.7983475000365,1,None,None,"[0, 0, 0]",,,1536.815017499961,1536.815017499961,,,,,,,,,,,,,,,,,,,,,,,,,,,,,,,,"[0, 0, 0]",1002,M,2,6,R,ARB,2022_Jan_27_1849,2020.2.10,distractmap2,60.004992397498185,"['Chest', 'Right Face', 'Right Leg', 'Left Leg']",
2,"[0, 0.2]",0,0,3,3,3,,,,,,,1538.8150177999632,1538.8150177999632,1538.8150177999632,1539.8150268000318,1539.7983517999528,1540.7983447000152,1,None,None,"[0, 0, 0]",,,1538.8150177999632,1538.8150177999632,,,,,,,,,,,,,,,,,,,,,,,,,,,,,,,,"[0, 0, 0]",1002,M,2,6,R,ARB,2022_Jan_27_1849,2020.2.10,distractmap2,60.004992397498185,"['Chest', 'Right Face', 'Right Leg', 'Left Leg']",
2,"[0, 0.2]",1,0,4,4,4,,,,,,,1540.8986673000036,1540.8986673000036,1540.8986673000036,1541.898371999967,1541.8817031000508,None,1,None,None,"[0, 0, 0]",,,1540.8986673000036,1540.8986673000036,,,,,,,,,,,,,,,,,,,,,,,,,,,,,,,,"[0, 0, 0]",1002,M,2,6,R,ARB,2022_Jan_27_1849,2020.2.10,distractmap2,60.004992397498185,"['Chest', 'Right Face', 'Right Leg', 'Left Leg']",
7,"[-0.2, -0.2]",0,0,5,5,5,,,,,,,1542.8317087000469,None,1542.8317087000469,1543.8317167999921,1543.8150585000403,1544.815067299991,1,None,None,"[0, 0, 0]",,,1542.8317087000469,None,,,,,,,,,,,,,,,,,,,,,,,,,,,,,,,,"[0, 0, 0]",1002,M,2,6,R,ARB,2022_Jan_27_1849,2020.2.10,distractmap2,60.004992397498185,"['Chest', 'Right Face', 'Right Leg', 'Left Leg']",
9,"[0.2, -0.2]",0,0,6,6,6,,,,,,,1544.8317257999443,1544.8317257999443,1544.8317257999443,1545.8317375000333,1545.8150678999955,1546.8150869000237,1,None,None,"[0, 0, 0]",,,1544.8317257999443,1544.8317257999443,,,,,,,,,,,,,,,,,,,,,,,,,,,,,,,,"[0, 0, 0]",1002,M,2,6,R,ARB,2022_Jan_27_1849,2020.2.10,distractmap2,60.004992397498185,"['Chest', 'Right Face', 'Right Leg', 'Left Leg']",
9,"[0.2, -0.2]",1,0,7,7,7,,,,,,,1546.831735500018,1546.831735500018,1546.831735500018,1547.8317457999801,1547.8150913999416,1548.8150964999804,1,None,None,"[0, 0, 0]",,,1546.831735500018,1546.831735500018,,,,,,,,,,,,,,,,,,,,,,,,,,,,,,,,"[0, 0, 0]",1002,M,2,6,R,ARB,2022_Jan_27_1849,2020.2.10,distractmap2,60.004992397498185,"['Chest', 'Right Face', 'Right Leg', 'Left Leg']",
4,"[-0.2, 0]",0,0,8,8,8,,,,,,,1548.8317608999787,1548.8317608999787,1548.8317608999787,1549.8317566999467,1549.8150967999827,1550.8151192000369,1,None,None,"[0, 0, 0]",,,1548.8317608999787,1548.8317608999787,,,,,,,,,,,,,,,,,,,,,,,,,,,,,,,,"[0, 0, 0]",1002,M,2,6,R,ARB,2022_Jan_27_1849,2020.2.10,distractmap2,60.004992397498185,"['Chest', 'Right Face', 'Right Leg', 'Left Leg']",
5,"[0, 0]",0,0,9,9,9,,,,,,,1550.831784900045,1550.831784900045,1550.831784900045,1551.83178769995,1551.8151219999418,1552.815126899979,1,None,None,"[0, 0, 0]",,,1550.831784900045,1550.831784900045,,,,,,,,,,,,,,,,,,,,,,,,,,,,,,,,"[0, 0, 0]",1002,M,2,6,R,ARB,2022_Jan_27_1849,2020.2.10,distractmap2,60.004992397498185,"['Chest', 'Right Face', 'Right Leg', 'Left Leg']",
,,,,,,,,,,,1552.83182880003,None,,,,,,,,,,,,,,,,,,,,,,,,,,,,,,,,,,,,,,,,,,21.666666666666668,1519.5787118701264,,,,1002,M,2,6,R,ARB,2022_Jan_27_1849,2020.2.10,distractmap2,60.004992397498185,"['Chest', 'Right Face', 'Right Leg', 'Left Leg']",
2,"[0, 0.2]",None,,,,,0,0,0,0,1566.765246600029,None,,,,,,,,,,,,,,,,,,,,,,None,None,"[0, 0, 0]",1572.8985324000241,None,1572.8985324000241,1573.8986346999882,1573.8819588000188,1574.8819696999853,"[0, 0, 0]",1,1572.8985324000241,None,,,,,,,,,,0.013966629863716662,5.010551329818554,,1002,M,2,6,R,ARB,2022_Jan_27_1849,2020.2.10,distractmap2,60.004992397498185,"['Chest', 'Right Face', 'Right Leg', 'Left Leg']",
5,"[0, 0]",None,,,,,0,1,1,1,,,,,,,,,,,,,,,,,,,,,,,,None,None,"[0, 0, 0]",1574.8986542000202,1576.8986635999754,1574.8986542000202,1575.8986629999708,1575.8819776000455,1576.8819839999778,"[0, 0, 0]",1,1574.8986542000202,1576.8986635999754,,,,,,,,,,,,,1002,M,2,6,R,ARB,2022_Jan_27_1849,2020.2.10,distractmap2,60.004992397498185,"['Chest', 'Right Face', 'Right Leg', 'Left Leg']",
6,"[0.2, 0]",0,,,,,0,2,2,2,,,,,,,,,,,,,,,,,,,,,,,,None,None,"[0, 0, 0]",1576.915314999991,1578.9153442999814,1576.915314999991,1577.9153218000429,1577.8986781999702,1578.8986835000105,"[0, 0, 0]",1,1576.915314999991,1578.9153442999814,,,,,,,,,,,,,1002,M,2,6,R,ARB,2022_Jan_27_1849,2020.2.10,distractmap2,60.004992397498185,"['Chest', 'Right Face', 'Right Leg', 'Left Leg']",
1,"[-0.2, 0.2]",0,,,,,0,3,3,3,,,,,,,,,,,,,,,,,,,,,,,,None,None,"[0, 0, 0]",1578.9320114000002,1580.9320337000536,1578.9320114000002,1579.9320276000071,1579.9153543999419,1580.9152650999604,"[0, 0, 0]",1,1578.9320114000002,1580.9320337000536,,,,,,,,,,,,,1002,M,2,6,R,ARB,2022_Jan_27_1849,2020.2.10,distractmap2,60.004992397498185,"['Chest', 'Right Face', 'Right Leg', 'Left Leg']",
6,"[0.2, 0]",1,,,,,0,4,4,4,,,,,,,,,,,,,,,,,,,,,,,,None,None,"[0, 0, 0]",1581.0153654000023,None,1581.0153654000023,1582.0153880999424,1581.9987047000322,None,"[0, 0, 0]",1,1581.0153654000023,None,,,,,,,,,,,,,1002,M,2,6,R,ARB,2022_Jan_27_1849,2020.2.10,distractmap2,60.004992397498185,"['Chest', 'Right Face', 'Right Leg', 'Left Leg']",
6,"[0.2, 0]",0,,,,,0,5,5,5,,,,,,,,,,,,,,,,,,,,,,,,None,None,"[0, 0, 0]",1582.9653846999863,1584.9653838999802,1582.9653846999863,1583.9653861999977,1583.9487063999986,1584.948717399966,"[0, 0, 0]",1,1582.9653846999863,1584.9653838999802,,,,,,,,,,,,,1002,M,2,6,R,ARB,2022_Jan_27_1849,2020.2.10,distractmap2,60.004992397498185,"['Chest', 'Right Face', 'Right Leg', 'Left Leg']",
9,"[0.2, -0.2]",0,,,,,0,6,6,6,,,,,,,,,,,,,,,,,,,,,,,,None,None,"[0, 0, 0]",1584.9819471000228,1586.9820858000312,1584.9819471000228,1585.9820792999817,1585.9654115999583,1586.965408100048,"[0, 0, 0]",1,1584.9819471000228,1586.9820858000312,,,,,,,,,,,,,1002,M,2,6,R,ARB,2022_Jan_27_1849,2020.2.10,distractmap2,60.004992397498185,"['Chest', 'Right Face', 'Right Leg', 'Left Leg']",
6,"[0.2, 0]",1,,,,,0,7,7,7,,,,,,,,,,,,,,,,,,,,,,,,None,None,"[0, 0, 0]",1586.9987388999434,1588.9987498000264,1586.9987388999434,1587.998753700056,1587.9820900999475,1588.9819873999804,"[0, 0, 0]",0,1586.9987388999434,1588.9987498000264,,,,,,,,,,,,,1002,M,2,6,R,ARB,2022_Jan_27_1849,2020.2.10,distractmap2,60.004992397498185,"['Chest', 'Right Face', 'Right Leg', 'Left Leg']",
3,"[0.2, 0.2]",0,,,,,0,8,8,8,,,,,,,,,,,,,,,,,,,,,,,,None,None,"[0, 0, 0]",1589.0154252999928,1591.0154514999595,1589.0154252999928,1590.0154228999745,1589.998779400019,1590.9987787000136,"[0, 0, 0]",1,1589.0154252999928,1591.0154514999595,,,,,,,,,,,,,1002,M,2,6,R,ARB,2022_Jan_27_1849,2020.2.10,distractmap2,60.004992397498185,"['Chest', 'Right Face', 'Right Leg', 'Left Leg']",
9,"[0.2, -0.2]",0,,,,,0,9,9,9,,,,,,,,,,,,,,,,,,,,,,,,None,None,"[0, 0, 0]",1591.0321308999555,1593.0321177999722,1591.0321308999555,1592.0321292999433,1592.0154586000135,1593.0154505999526,"[0, 0, 0]",0,1591.0321308999555,1593.0321177999722,,,,,,,,,,,,,1002,M,2,6,R,ARB,2022_Jan_27_1849,2020.2.10,distractmap2,60.004992397498185,"['Chest', 'Right Face', 'Right Leg', 'Left Leg']",
,,,,,,,,,,,1593.0487829999765,None,,,,,,,,,,,,,,,,,,,,,,,,,,,,,,,,,,,,,,,,,,19.320987654320987,1563.7953115700511,,,,1002,M,2,6,R,ARB,2022_Jan_27_1849,2020.2.10,distractmap2,60.004992397498185,"['Chest', 'Right Face', 'Right Leg', 'Left Leg']",
3,"[0.2, 0.2]",None,,,,,0,0,0,0,1611.0492072999477,None,,,,,,,,,,,,,,,,,,,,,,None,None,"[0, 0, 0]",1613.0989717999473,None,1613.0989717999473,1614.0989802000113,1614.082317100023,1615.0823181000305,"[0, 0, 0]",1,1613.0989717999473,None,,,,,,,,,,0.01444712991360575,5.011501929955557,,1002,M,2,6,R,ARB,2022_Jan_27_1849,2020.2.10,distractmap2,60.004992397498185,"['Chest', 'Right Face', 'Right Leg', 'Left Leg']",
9,"[0.2, -0.2]",None,,,,,0,1,1,1,,,,,,,,,,,,,,,,,,,,,,,,None,None,"[0, 0, 0]",1615.0989132999675,1617.099007199984,1615.0989132999675,1616.0989900999703,1616.0823279999895,1617.0822108000284,"[0, 0, 0]",1,1615.0989132999675,1617.099007199984,,,,,,,,,,,,,1002,M,2,6,R,ARB,2022_Jan_27_1849,2020.2.10,distractmap2,60.004992397498185,"['Chest', 'Right Face', 'Right Leg', 'Left Leg']",
3,"[0.2, 0.2]",1,,,,,0,2,2,2,,,,,,,,,,,,,,,,,,,,,,,,None,None,"[0, 0, 0]",1617.115667099948,1619.115651799948,1617.115667099948,1618.115678900038,1618.0990137000335,1619.0990196999628,"[0, 0, 0]",1,1617.115667099948,1619.115651799948,,,,,,,,,,,,,1002,M,2,6,R,ARB,2022_Jan_27_1849,2020.2.10,distractmap2,60.004992397498185,"['Chest', 'Right Face', 'Right Leg', 'Left Leg']",
7,"[-0.2, -0.2]",0,,,,,0,3,3,3,,,,,,,,,,,,,,,,,,,,,,,,None,None,"[0, 0, 0]",1619.1318280999549,1621.1323633999564,1619.1318280999549,1620.1323690999998,1620.11568050005,1621.115646100021,"[0, 0, 0]",1,1619.1318280999549,1621.1323633999564,,,,,,,,,,,,,1002,M,2,6,R,ARB,2022_Jan_27_1849,2020.2.10,distractmap2,60.004992397498185,"['Chest', 'Right Face', 'Right Leg', 'Left Leg']",
8,"[0, -0.2]",0,,,,,0,4,4,4,,,,,,,,,,,,,,,,,,,,,,,,None,None,"[0, 0, 0]",1621.182681699982,None,1621.182681699982,1622.182381600025,1622.14903770003,1623.1490576999495,"[0, 0, 0]",1,1621.182681699982,None,,,,,,,,,,,,,1002,M,2,6,R,ARB,2022_Jan_27_1849,2020.2.10,distractmap2,60.004992397498185,"['Chest', 'Right Face', 'Right Leg', 'Left Leg']",
4,"[-0.2, 0]",0,,,,,0,5,5,5,,,,,,,,,,,,,,,,,,,,,,,,None,None,"[0, 0, 0]",1623.1656980999978,1625.1657221999485,1623.1656980999978,1624.1657186000375,1624.1490378000308,1625.1490747999633,"[0, 0, 0]",1,1623.1656980999978,1625.1657221999485,,,,,,,,,,,,,1002,M,2,6,R,ARB,2022_Jan_27_1849,2020.2.10,distractmap2,60.004992397498185,"['Chest', 'Right Face', 'Right Leg', 'Left Leg']",
4,"[-0.2, 0]",0,,,,,0,6,6,6,,,,,,,,,,,,,,,,,,,,,,,,None,None,"[0, 0, 0]",1625.232419100008,None,1625.232419100008,1626.232376000029,1626.2157573000295,None,"[0, 0, 0]",1,1625.232419100008,None,,,,,,,,,,,,,1002,M,2,6,R,ARB,2022_Jan_27_1849,2020.2.10,distractmap2,60.004992397498185,"['Chest', 'Right Face', 'Right Leg', 'Left Leg']",
1,"[-0.2, 0.2]",0,,,,,0,7,7,7,,,,,,,,,,,,,,,,,,,,,,,,None,None,"[0, 0, 0]",1627.199082899955,1629.1990893000038,1627.199082899955,1628.199086699984,1628.182417999953,1629.1824930999428,"[0, 0, 0]",1,1627.199082899955,1629.1990893000038,,,,,,,,,,,,,1002,M,2,6,R,ARB,2022_Jan_27_1849,2020.2.10,distractmap2,60.004992397498185,"['Chest', 'Right Face', 'Right Leg', 'Left Leg']",
4,"[-0.2, 0]",1,,,,,0,8,8,8,,,,,,,,,,,,,,,,,,,,,,,,None,None,"[0, 0, 0]",1629.2157647999702,1631.2157757000532,1629.2157647999702,1630.2157664999831,1630.1991106000496,1631.1991400000406,"[0, 0, 0]",1,1629.2157647999702,1631.2157757000532,,,,,,,,,,,,,1002,M,2,6,R,ARB,2022_Jan_27_1849,2020.2.10,distractmap2,60.004992397498185,"['Chest', 'Right Face', 'Right Leg', 'Left Leg']",
8,"[0, -0.2]",0,,,,,0,9,9,9,,,,,,,,,,,,,,,,,,,,,,,,None,None,"[0, 0, 0]",1631.232448499999,1633.2324337000027,1631.232448499999,1632.2324584999587,1632.2157937999582,1633.2158227999462,"[0, 0, 0]",1,1631.232448499999,1633.2324337000027,,,,,,,,,,,,,1002,M,2,6,R,ARB,2022_Jan_27_1849,2020.2.10,distractmap2,60.004992397498185,"['Chest', 'Right Face', 'Right Leg', 'Left Leg']",
,,,,,,,,,,,1633.2491448000073,None,,,,,,,,,,,,,,,,,,,,,,,,,,,,,,,,,,,,,,,,,,20.0,1601.995724670007,,,,1002,M,2,6,R,ARB,2022_Jan_27_1849,2020.2.10,distractmap2,60.004992397498185,"['Chest', 'Right Face', 'Right Leg', 'Left Leg']",
2,"[0, 0.2]",None,0,0,0,0,,,,,1648.4993990999646,None,1653.3159660999663,None,1653.3159660999663,1654.3159825999755,1654.299306800007,1655.2992979000555,1,None,None,"[0, 0, 0]",,,1653.3159660999663,None,,,,,,,,,,,,,,,,,,,,,,,,,,,,,,0.014341229922138155,5.011375629925169,"[0, 0, 0]",1002,M,2,6,R,ARB,2022_Jan_27_1849,2020.2.10,distractmap2,60.004992397498185,"['Chest', 'Right Face', 'Right Leg', 'Left Leg']",
2,"[0, 0.2]",1,0,1,1,1,,,,,,,1655.3159833999816,None,1655.3159833999816,1656.3159807999618,1656.2993278000504,1657.299331099959,1,None,None,"[0, 0, 0]",,,1655.3159833999816,None,,,,,,,,,,,,,,,,,,,,,,,,,,,,,,,,"[0, 0, 0]",1002,M,2,6,R,ARB,2022_Jan_27_1849,2020.2.10,distractmap2,60.004992397498185,"['Chest', 'Right Face', 'Right Leg', 'Left Leg']",
1,"[-0.2, 0.2]",0,0,2,2,2,,,,,,,1657.31599979999,1657.31599979999,1657.31599979999,1658.3160050000297,1658.2993502999889,1659.2993531000102,1,None,None,"[0, 0, 0]",,,1657.31599979999,1657.31599979999,,,,,,,,,,,,,,,,,,,,,,,,,,,,,,,,"[0, 0, 0]",1002,M,2,6,R,ARB,2022_Jan_27_1849,2020.2.10,distractmap2,60.004992397498185,"['Chest', 'Right Face', 'Right Leg', 'Left Leg']",
2,"[0, 0.2]",0,0,3,3,3,,,,,,,1659.316004900029,1659.316004900029,1659.316004900029,1660.3160238000564,1660.2993678000057,1661.2993784999708,1,None,None,"[0, 0, 0]",,,1659.316004900029,1659.316004900029,,,,,,,,,,,,,,,,,,,,,,,,,,,,,,,,"[0, 0, 0]",1002,M,2,6,R,ARB,2022_Jan_27_1849,2020.2.10,distractmap2,60.004992397498185,"['Chest', 'Right Face', 'Right Leg', 'Left Leg']",
2,"[0, 0.2]",1,0,4,4,4,,,,,,,1661.3663715999573,1661.3663715999573,1661.3663715999573,1662.366027000011,1662.3493886999786,None,1,None,None,"[0, 0, 0]",,,1661.3663715999573,1661.3663715999573,,,,,,,,,,,,,,,,,,,,,,,,,,,,,,,,"[0, 0, 0]",1002,M,2,6,R,ARB,2022_Jan_27_1849,2020.2.10,distractmap2,60.004992397498185,"['Chest', 'Right Face', 'Right Leg', 'Left Leg']",
4,"[-0.2, 0]",0,0,5,5,5,,,,,,,1663.3327058999566,None,1663.3327058999566,1664.3327110999962,1664.3160580999684,1665.3160770999966,1,None,None,"[0, 0, 0]",,,1663.3327058999566,None,,,,,,,,,,,,,,,,,,,,,,,,,,,,,,,,"[0, 0, 0]",1002,M,2,6,R,ARB,2022_Jan_27_1849,2020.2.10,distractmap2,60.004992397498185,"['Chest', 'Right Face', 'Right Leg', 'Left Leg']",
6,"[0.2, 0]",0,0,6,6,6,,,,,,,1665.3327389999758,1665.3327389999758,1665.3327389999758,1666.3327479000436,1666.3160698999418,1667.3160612999927,1,None,None,"[0, 0, 0]",,,1665.3327389999758,1665.3327389999758,,,,,,,,,,,,,,,,,,,,,,,,,,,,,,,,"[0, 0, 0]",1002,M,2,6,R,ARB,2022_Jan_27_1849,2020.2.10,distractmap2,60.004992397498185,"['Chest', 'Right Face', 'Right Leg', 'Left Leg']",
8,"[0, -0.2]",0,0,7,7,7,,,,,,,1667.3327488000505,1667.3327488000505,1667.3327488000505,1668.3327449000208,1668.3160834000446,1669.3160972000333,1,None,None,"[0, 0, 0]",,,1667.3327488000505,1667.3327488000505,,,,,,,,,,,,,,,,,,,,,,,,,,,,,,,,"[0, 0, 0]",1002,M,2,6,R,ARB,2022_Jan_27_1849,2020.2.10,distractmap2,60.004992397498185,"['Chest', 'Right Face', 'Right Leg', 'Left Leg']",
9,"[0.2, -0.2]",0,0,8,8,8,,,,,,,1669.3327548999805,1669.3327548999805,1669.3327548999805,1670.3327802000567,1670.316113900044,1671.3161022999557,1,None,None,"[0, 0, 0]",,,1669.3327548999805,1669.3327548999805,,,,,,,,,,,,,,,,,,,,,,,,,,,,,,,,"[0, 0, 0]",1002,M,2,6,R,ARB,2022_Jan_27_1849,2020.2.10,distractmap2,60.004992397498185,"['Chest', 'Right Face', 'Right Leg', 'Left Leg']",
9,"[0.2, -0.2]",1,0,9,9,9,,,,,,,1671.3327745000133,1671.3327745000133,1671.3327745000133,1672.3327386999736,1672.31612209999,1673.3161370999878,1,None,None,"[0, 0, 0]",,,1671.3327745000133,1671.3327745000133,,,,,,,,,,,,,,,,,,,,,,,,,,,,,,,,"[0, 0, 0]",1002,M,2,6,R,ARB,2022_Jan_27_1849,2020.2.10,distractmap2,60.004992397498185,"['Chest', 'Right Face', 'Right Leg', 'Left Leg']",
,,,,,,,,,,,1673.3327935000416,None,,,,,,,,,,,,,,,,,,,,,,,,,,,,,,,,,,,,,,,,,,22.839506172839506,1642.0795006699627,,,,1002,M,2,6,R,ARB,2022_Jan_27_1849,2020.2.10,distractmap2,60.004992397498185,"['Chest', 'Right Face', 'Right Leg', 'Left Leg']",
2,"[0, 0.2]",None,,,,,0,0,0,0,1688.5831499999622,None,,,,,,,,,,,,,,,,,,,,,,None,None,"[0, 0, 0]",1693.3829685000237,None,1693.3829685000237,1694.3829770999728,1694.366320500034,1695.366321700043,"[0, 0, 0]",1,1693.3829685000237,None,,,,,,,,,,0.014255729969590902,5.011159729911014,,1002,M,2,6,R,ARB,2022_Jan_27_1849,2020.2.10,distractmap2,60.004992397498185,"['Chest', 'Right Face', 'Right Leg', 'Left Leg']",
5,"[0, 0]",None,,,,,0,1,1,1,,,,,,,,,,,,,,,,,,,,,,,,None,None,"[0, 0, 0]",1695.3829695000313,1697.383056599996,1695.3829695000313,1696.3829981000163,1696.3663190000225,1697.3663471000036,"[0, 0, 0]",1,1695.3829695000313,1697.383056599996,,,,,,,,,,,,,1002,M,2,6,R,ARB,2022_Jan_27_1849,2020.2.10,distractmap2,60.004992397498185,"['Chest', 'Right Face', 'Right Leg', 'Left Leg']",
3,"[0.2, 0.2]",0,,,,,0,2,2,2,,,,,,,,,,,,,,,,,,,,,,,,None,None,"[0, 0, 0]",1697.3996650000336,1699.399689999991,1697.3996650000336,1698.3996979000513,1698.383015600033,1699.3830062999623,"[0, 0, 0]",1,1697.3996650000336,1699.399689999991,,,,,,,,,,,,,1002,M,2,6,R,ARB,2022_Jan_27_1849,2020.2.10,distractmap2,60.004992397498185,"['Chest', 'Right Face', 'Right Leg', 'Left Leg']",
5,"[0, 0]",1,,,,,0,3,3,3,,,,,,,,,,,,,,,,,,,,,,,,None,None,"[0, 0, 0]",1699.4162460999796,1701.4163747000275,1699.4162460999796,1700.4163580000168,1700.3996997999493,1701.3996900999919,"[0, 0, 0]",1,1699.4162460999796,1701.4163747000275,,,,,,,,,,,,,1002,M,2,6,R,ARB,2022_Jan_27_1849,2020.2.10,distractmap2,60.004992397498185,"['Chest', 'Right Face', 'Right Leg', 'Left Leg']",
2,"[0, 0.2]",0,,,,,0,4,4,4,,,,,,,,,,,,,,,,,,,,,,,,None,None,"[0, 0, 0]",1701.4833151999628,None,1701.4833151999628,1702.4830382999498,1702.466388599947,None,"[0, 0, 0]",1,1701.4833151999628,None,,,,,,,,,,,,,1002,M,2,6,R,ARB,2022_Jan_27_1849,2020.2.10,distractmap2,60.004992397498185,"['Chest', 'Right Face', 'Right Leg', 'Left Leg']",
8,"[0, -0.2]",0,,,,,0,5,5,5,,,,,,,,,,,,,,,,,,,,,,,,None,None,"[0, 0, 0]",1703.4497418999672,1705.4497204000363,1703.4497418999672,1704.4497140999883,1704.4330562000396,1705.4330653999932,"[0, 0, 0]",1,1703.4497418999672,1705.4497204000363,,,,,,,,,,,,,1002,M,2,6,R,ARB,2022_Jan_27_1849,2020.2.10,distractmap2,60.004992397498185,"['Chest', 'Right Face', 'Right Leg', 'Left Leg']",
4,"[-0.2, 0]",0,,,,,0,6,6,6,,,,,,,,,,,,,,,,,,,,,,,,None,None,"[0, 0, 0]",1705.466415300034,1707.46642479999,1705.466415300034,1706.4664042999502,1706.4497455999954,1707.4497522000456,"[0, 0, 0]",1,1705.466415300034,1707.46642479999,,,,,,,,,,,,,1002,M,2,6,R,ARB,2022_Jan_27_1849,2020.2.10,distractmap2,60.004992397498185,"['Chest', 'Right Face', 'Right Leg', 'Left Leg']",
8,"[0, -0.2]",1,,,,,0,7,7,7,,,,,,,,,,,,,,,,,,,,,,,,None,None,"[0, 0, 0]",1707.4830677999416,1709.483087599976,1707.4830677999416,1708.4830958000384,1708.4664348999504,1709.4664432000136,"[0, 0, 0]",1,1707.4830677999416,1709.483087599976,,,,,,,,,,,,,1002,M,2,6,R,ARB,2022_Jan_27_1849,2020.2.10,distractmap2,60.004992397498185,"['Chest', 'Right Face', 'Right Leg', 'Left Leg']",
7,"[-0.2, -0.2]",0,,,,,0,8,8,8,,,,,,,,,,,,,,,,,,,,,,,,None,None,"[0, 0, 0]",1709.4998089999426,1711.4997577000177,1709.4998089999426,1710.4997693999903,1710.4830950000323,1711.4831167999655,"[0, 0, 0]",1,1709.4998089999426,1711.4997577000177,,,,,,,,,,,,,1002,M,2,6,R,ARB,2022_Jan_27_1849,2020.2.10,distractmap2,60.004992397498185,"['Chest', 'Right Face', 'Right Leg', 'Left Leg']",
8,"[0, -0.2]",1,,,,,0,9,9,9,,,,,,,,,,,,,,,,,,,,,,,,None,None,"[0, 0, 0]",1711.5164589999476,1713.5164715000428,1711.5164589999476,1712.5164764999645,1712.499793300056,1713.4997873000102,"[0, 0, 0]",1,1711.5164589999476,1713.5164715000428,,,,,,,,,,,,,1002,M,2,6,R,ARB,2022_Jan_27_1849,2020.2.10,distractmap2,60.004992397498185,"['Chest', 'Right Face', 'Right Leg', 'Left Leg']",
,,,,,,,,,,,1713.5331296999939,None,,,,,,,,,,,,,,,,,,,,,,,,,,,,,,,,,,,,,,,,,,20.61728395061728,1684.2799375699833,,,,1002,M,2,6,R,ARB,2022_Jan_27_1849,2020.2.10,distractmap2,60.004992397498185,"['Chest', 'Right Face', 'Right Leg', 'Left Leg']",
2,"[0, 0.2]",None,,,,,0,0,0,0,1730.783495199983,None,,,,,,,,,,,,,,,,,,,,,,None,None,"[0, 0, 0]",1733.5833069999935,None,1733.5833069999935,1734.583316299948,1734.5666522999527,1735.5666577999946,"[0, 0, 0]",1,1733.5833069999935,None,,,,,,,,,,0.01415812992490828,5.010952229960822,,1002,M,2,6,R,ARB,2022_Jan_27_1849,2020.2.10,distractmap2,60.004992397498185,"['Chest', 'Right Face', 'Right Leg', 'Left Leg']",
2,"[0, 0.2]",None,,,,,0,1,1,1,,,,,,,,,,,,,,,,,,,,,,,,None,None,"[0, 0, 0]",1735.5833268000279,1737.583331999951,1735.5833268000279,1736.5833341999678,1736.5666431999998,1737.5666796000442,"[0, 0, 0]",1,1735.5833268000279,1737.583331999951,,,,,,,,,,,,,1002,M,2,6,R,ARB,2022_Jan_27_1849,2020.2.10,distractmap2,60.004992397498185,"['Chest', 'Right Face', 'Right Leg', 'Left Leg']",
2,"[0, 0.2]",1,,,,,0,2,2,2,,,,,,,,,,,,,,,,,,,,,,,,None,None,"[0, 0, 0]",1737.6000035000034,1739.6000149999745,1737.6000035000034,1738.6000088000437,1738.5834071999416,1739.5833522999892,"[0, 0, 0]",1,1737.6000035000034,1739.6000149999745,,,,,,,,,,,,,1002,M,2,6,R,ARB,2022_Jan_27_1849,2020.2.10,distractmap2,60.004992397498185,"['Chest', 'Right Face', 'Right Leg', 'Left Leg']",
8,"[0, -0.2]",0,,,,,0,3,3,3,,,,,,,,,,,,,,,,,,,,,,,,None,None,"[0, 0, 0]",1739.61668560002,1741.6167144000065,1739.61668560002,1740.6167054000543,1740.6000425999518,1741.6000426999526,"[0, 0, 0]",1,1739.61668560002,1741.6167144000065,,,,,,,,,,,,,1002,M,2,6,R,ARB,2022_Jan_27_1849,2020.2.10,distractmap2,60.004992397498185,"['Chest', 'Right Face', 'Right Leg', 'Left Leg']",
2,"[0, 0.2]",1,,,,,0,4,4,4,,,,,,,,,,,,,,,,,,,,,,,,None,None,"[0, 0, 0]",1741.6836591999745,None,1741.6836591999745,1742.6833878000034,1742.6667083000066,None,"[0, 0, 0]",1,1741.6836591999745,None,,,,,,,,,,,,,1002,M,2,6,R,ARB,2022_Jan_27_1849,2020.2.10,distractmap2,60.004992397498185,"['Chest', 'Right Face', 'Right Leg', 'Left Leg']",
5,"[0, 0]",0,,,,,0,5,5,5,,,,,,,,,,,,,,,,,,,,,,,,None,None,"[0, 0, 0]",1743.6499503999949,1745.6500674999552,1743.6499503999949,1744.6500654000556,1744.633399900049,1745.6333994000452,"[0, 0, 0]",1,1743.6499503999949,1745.6500674999552,,,,,,,,,,,,,1002,M,2,6,R,ARB,2022_Jan_27_1849,2020.2.10,distractmap2,60.004992397498185,"['Chest', 'Right Face', 'Right Leg', 'Left Leg']",
1,"[-0.2, 0.2]",0,,,,,0,6,6,6,,,,,,,,,,,,,,,,,,,,,,,,None,None,"[0, 0, 0]",1745.6667427000357,1747.6667356999824,1745.6667427000357,1746.6667450000532,1746.6500765000237,1747.650096999947,"[0, 0, 0]",1,1745.6667427000357,1747.6667356999824,,,,,,,,,,,,,1002,M,2,6,R,ARB,2022_Jan_27_1849,2020.2.10,distractmap2,60.004992397498185,"['Chest', 'Right Face', 'Right Leg', 'Left Leg']",
1,"[-0.2, 0.2]",0,,,,,0,7,7,7,,,,,,,,,,,,,,,,,,,,,,,,None,None,"[0, 0, 0]",1747.6834180000005,1749.683430999983,1747.6834180000005,1748.6834436999634,1748.6667551000137,1749.66676990001,"[0, 0, 0]",1,1747.6834180000005,1749.683430999983,,,,,,,,,,,,,1002,M,2,6,R,ARB,2022_Jan_27_1849,2020.2.10,distractmap2,60.004992397498185,"['Chest', 'Right Face', 'Right Leg', 'Left Leg']",
6,"[0.2, 0]",0,,,,,0,8,8,8,,,,,,,,,,,,,,,,,,,,,,,,None,None,"[0, 0, 0]",1749.7001252999762,1751.700126599986,1749.7001252999762,1750.700107999961,1750.683441799949,1751.6834631999955,"[0, 0, 0]",1,1749.7001252999762,1751.700126599986,,,,,,,,,,,,,1002,M,2,6,R,ARB,2022_Jan_27_1849,2020.2.10,distractmap2,60.004992397498185,"['Chest', 'Right Face', 'Right Leg', 'Left Leg']",
1,"[-0.2, 0.2]",1,,,,,0,9,9,9,,,,,,,,,,,,,,,,,,,,,,,,None,None,"[0, 0, 0]",1751.716770399944,1753.7168089000043,1751.716770399944,1752.7166949999519,1752.7001353000524,1753.700132900034,"[0, 0, 0]",1,1751.716770399944,1753.7168089000043,,,,,,,,,,,,,1002,M,2,6,R,ARB,2022_Jan_27_1849,2020.2.10,distractmap2,60.004992397498185,"['Chest', 'Right Face', 'Right Leg', 'Left Leg']",
,,,,,,,,,,,1753.7334817999508,None,,,,,,,,,,,,,,,,,,,,,,,,,,,,,,,,,,,,,,,,,,21.48148148148148,1724.47965717013,,,,1002,M,2,6,R,ARB,2022_Jan_27_1849,2020.2.10,distractmap2,60.004992397498185,"['Chest', 'Right Face', 'Right Leg', 'Left Leg']",
4,"[-0.2, 0]",None,0,0,0,0,,,,,1771.6671815000009,None,1773.8003197000362,None,1773.8003197000362,1774.8003242999548,1774.7669647999573,1775.7669950999552,1,None,None,"[0, 0, 0]",,,1773.8003197000362,None,,,,,,,,,,,,,,,,,,,,,,,,,,,,,,0.01477572985459119,5.012201129924506,"[0, 0, 0]",1002,M,2,6,R,ARB,2022_Jan_27_1849,2020.2.10,distractmap2,60.004992397498185,"['Chest', 'Right Face', 'Right Leg', 'Left Leg']",
7,"[-0.2, -0.2]",0,0,1,1,1,,,,,,,1775.80032150005,None,1775.80032150005,1776.800337600056,1776.7836648999946,1777.783658499946,1,None,None,"[0, 0, 0]",,,1775.80032150005,None,,,,,,,,,,,,,,,,,,,,,,,,,,,,,,,,"[0, 0, 0]",1002,M,2,6,R,ARB,2022_Jan_27_1849,2020.2.10,distractmap2,60.004992397498185,"['Chest', 'Right Face', 'Right Leg', 'Left Leg']",
7,"[-0.2, -0.2]",1,0,2,2,2,,,,,,,1777.8003385999473,1777.8003385999473,1777.8003385999473,1778.8003527000546,1778.7836663000053,1779.7837070999667,1,None,None,"[0, 0, 0]",,,1777.8003385999473,1777.8003385999473,,,,,,,,,,,,,,,,,,,,,,,,,,,,,,,,"[0, 0, 0]",1002,M,2,6,R,ARB,2022_Jan_27_1849,2020.2.10,distractmap2,60.004992397498185,"['Chest', 'Right Face', 'Right Leg', 'Left Leg']",
4,"[-0.2, 0]",0,0,3,3,3,,,,,,,1779.8003664000425,1779.8003664000425,1779.8003664000425,1780.8003694999497,1780.783689099946,1781.783699200023,1,None,None,"[0, 0, 0]",,,1779.8003664000425,1779.8003664000425,,,,,,,,,,,,,,,,,,,,,,,,,,,,,,,,"[0, 0, 0]",1002,M,2,6,R,ARB,2022_Jan_27_1849,2020.2.10,distractmap2,60.004992397498185,"['Chest', 'Right Face', 'Right Leg', 'Left Leg']",
8,"[0, -0.2]",0,0,4,4,4,,,,,,,1781.8340559999924,1781.8340559999924,1781.8340559999924,1782.833702199976,1782.817040199996,None,1,None,None,"[0, 0, 0]",,,1781.8340559999924,1781.8340559999924,,,,,,,,,,,,,,,,,,,,,,,,,,,,,,,,"[0, 0, 0]",1002,M,2,6,R,ARB,2022_Jan_27_1849,2020.2.10,distractmap2,60.004992397498185,"['Chest', 'Right Face', 'Right Leg', 'Left Leg']",
4,"[-0.2, 0]",0,0,5,5,5,,,,,,,1783.8170439000241,None,1783.8170439000241,1784.8170584000181,1784.8003967000404,1785.8004106000299,1,None,None,"[0, 0, 0]",,,1783.8170439000241,None,,,,,,,,,,,,,,,,,,,,,,,,,,,,,,,,"[0, 0, 0]",1002,M,2,6,R,ARB,2022_Jan_27_1849,2020.2.10,distractmap2,60.004992397498185,"['Chest', 'Right Face', 'Right Leg', 'Left Leg']",
7,"[-0.2, -0.2]",0,0,6,6,6,,,,,,,1785.817076300038,1785.817076300038,1785.817076300038,1786.817072500009,1786.8004205999896,1787.8004364999942,1,None,None,"[0, 0, 0]",,,1785.817076300038,1785.817076300038,,,,,,,,,,,,,,,,,,,,,,,,,,,,,,,,"[0, 0, 0]",1002,M,2,6,R,ARB,2022_Jan_27_1849,2020.2.10,distractmap2,60.004992397498185,"['Chest', 'Right Face', 'Right Leg', 'Left Leg']",
6,"[0.2, 0]",0,0,7,7,7,,,,,,,1787.8170930000488,1787.8170930000488,1787.8170930000488,1788.8170953999506,1788.8004410000285,1789.8004466999555,1,None,None,"[0, 0, 0]",,,1787.8170930000488,1787.8170930000488,,,,,,,,,,,,,,,,,,,,,,,,,,,,,,,,"[0, 0, 0]",1002,M,2,6,R,ARB,2022_Jan_27_1849,2020.2.10,distractmap2,60.004992397498185,"['Chest', 'Right Face', 'Right Leg', 'Left Leg']",
6,"[0.2, 0]",1,0,8,8,8,,,,,,,1789.8170058999676,1789.8170058999676,1789.8170058999676,1790.8171239000512,1790.8004326999653,1791.8004624999594,1,None,None,"[0, 0, 0]",,,1789.8170058999676,1789.8170058999676,,,,,,,,,,,,,,,,,,,,,,,,,,,,,,,,"[0, 0, 0]",1002,M,2,6,R,ARB,2022_Jan_27_1849,2020.2.10,distractmap2,60.004992397498185,"['Chest', 'Right Face', 'Right Leg', 'Left Leg']",
1,"[-0.2, 0.2]",0,0,9,9,9,,,,,,,1791.817132199998,1791.817132199998,1791.817132199998,1792.817132600001,1792.8004689000081,1793.8004709000234,1,None,None,"[0, 0, 0]",,,1791.817132199998,1791.817132199998,,,,,,,,,,,,,,,,,,,,,,,,,,,,,,,,"[0, 0, 0]",1002,M,2,6,R,ARB,2022_Jan_27_1849,2020.2.10,distractmap2,60.004992397498185,"['Chest', 'Right Face', 'Right Leg', 'Left Leg']",
,,,,,,,,,,,1793.8171278999653,None,,,,,,,,,,,,,,,,,,,,,,,,,,,,,,,,,,,,,,,,,,23.88888888888889,1762.5638015699806,,,,1002,M,2,6,R,ARB,2022_Jan_27_1849,2020.2.10,distractmap2,60.004992397498185,"['Chest', 'Right Face', 'Right Leg', 'Left Leg']",
3,"[0.2, 0.2]",None,,,,,0,0,0,0,2026.2192654999672,None,,,,,,,,,,,,,,,,,,,,,,None,None,"[0, 0, 0]",2032.819139600033,None,2032.819139600033,2033.8191602999577,2033.8024838999845,2034.8023837000364,"[0, 0, 0]",1,2032.819139600033,None,1847.1509163000155,1847.1509163000155,None,space,160.63965050003026,1847.1509163000155,None,,,0.014286129968240857,5.011222529923543,,1002,M,2,6,R,ARB,2022_Jan_27_1849,2020.2.10,distractmap2,60.004992397498185,"['Chest', 'Right Face', 'Right Leg', 'Left Leg']",
