RestT1,TaskT1,square,location,corrAns,counterbalancer.thisRepN,counterbalancer.thisTrialN,counterbalancer.thisN,counterbalancer.thisIndex,RestT1Loop.thisRepN,RestT1Loop.thisTrialN,RestT1Loop.thisN,RestT1Loop.thisIndex,TaskT1Loop.thisRepN,TaskT1Loop.thisTrialN,TaskT1Loop.thisN,TaskT1Loop.thisIndex,trials_2.thisRepN,trials_2.thisTrialN,trials_2.thisN,trials_2.thisIndex,fixation_1.started,fixation_1.stopped,NbackInstructions.started,NbackInstructions.stopped,NbackStart.keys,NbackStart.rt,NbackStart.started,NbackStart.stopped,fixation_2.started,fixation_2.stopped,response_2.x,response_2.y,response_2.leftButton,grid_lines_2.started,grid_lines_2.stopped,target_square_2.started,target_square_2.stopped,fixation_3.started,fixation_3.stopped,response_2.click,response_2.corr,response_2.started,response_2.stopped,subject number,gender,session,handedness,scanner,date,expName,psychopyVersion,frameRate,
1,0,,,,0,0,0,0,0,0,0,0,,,,,,,,,56.49445640016347,None,,,,,,,,,,,,,,,,,,,,,,3,f,20,l,MK,2021_Nov_09_1505,WASABI Nback,2020.2.10,59.994156594495315,
0,1,,,,0,1,1,1,,,,,0,0,0,0,,,,,,,340.84670770028606,None,space,37.44605700019747,340.84670770028606,None,,,,,,,,,,,,,,,,3,f,20,l,MK,2021_Nov_09_1505,WASABI Nback,2020.2.10,59.994156594495315,
0,1,5,"[0, 0]",None,0,1,1,1,,,,,0,0,0,0,0,0,0,0,,,,,,,,,None,None,None,None,[],None,None,None,None,None,None,[],[],None,None,3,f,20,l,MK,2021_Nov_09_1505,WASABI Nback,2020.2.10,59.994156594495315,
0,1,2,"[0, 0.2]",None,0,1,1,1,,,,,0,0,0,0,0,1,1,1,,,,,,,,,,,None,None,0,382.19704840006307,None,382.19704840006307,383.1970438002609,383.1803848003037,None,0,1,382.19704840006307,None,3,f,20,l,MK,2021_Nov_09_1505,WASABI Nback,2020.2.10,59.994156594495315,
0,1,6,"[0.2, 0]",None,0,1,1,1,,,,,0,0,0,0,0,2,2,2,,,,,,,,,,,None,None,0,383.3303849003278,None,383.3303849003278,384.3304010001011,384.31372740026563,385.3137292000465,0,1,383.3303849003278,None,3,f,20,l,MK,2021_Nov_09_1505,WASABI Nback,2020.2.10,59.994156594495315,
0,1,9,"[0.2, -0.2]",None,0,1,1,1,,,,,0,0,0,0,0,3,3,3,,,,,,,,,,,None,None,0,385.3303988999687,None,385.3303988999687,386.33040590025485,386.31375090032816,387.313752300106,0,1,385.3303988999687,None,3,f,20,l,MK,2021_Nov_09_1505,WASABI Nback,2020.2.10,59.994156594495315,
0,1,3,"[0.2, 0.2]",None,0,1,1,1,,,,,0,0,0,0,0,4,4,4,,,,,,,,,,,None,None,0,387.3304314003326,None,387.3304314003326,388.33043480012566,388.31379480008036,389.3137606000528,0,1,387.3304314003326,None,3,f,20,l,MK,2021_Nov_09_1505,WASABI Nback,2020.2.10,59.994156594495315,
0,1,9,"[0.2, -0.2]",1,0,1,1,1,,,,,0,0,0,0,0,5,5,5,,,,,,,,,,,None,None,0,389.3304539001547,None,389.3304539001547,390.33046249998733,390.3137751002796,391.31378319999203,0,1,389.3304539001547,None,3,f,20,l,MK,2021_Nov_09_1505,WASABI Nback,2020.2.10,59.994156594495315,
0,1,7,"[-0.2, -0.2]",None,0,1,1,1,,,,,0,0,0,0,0,6,6,6,,,,,,,,,,,None,None,0,391.33044900000095,None,391.33044900000095,392.33045569993556,392.31380739994347,393.31380000011995,0,1,391.33044900000095,None,3,f,20,l,MK,2021_Nov_09_1505,WASABI Nback,2020.2.10,59.994156594495315,
0,1,1,"[-0.2, 0.2]",None,0,1,1,1,,,,,0,0,0,0,0,7,7,7,,,,,,,,,,,None,None,0,393.3304858999327,None,393.3304858999327,394.3304634001106,394.31380730029196,395.3138049002737,0,1,393.3304858999327,None,3,f,20,l,MK,2021_Nov_09_1505,WASABI Nback,2020.2.10,59.994156594495315,
0,1,5,"[0, 0]",None,0,1,1,1,,,,,0,0,0,0,0,8,8,8,,,,,,,,,,,None,None,0,395.33049920015037,None,395.33049920015037,396.3305055000819,396.3138250000775,397.3138095000759,0,1,395.33049920015037,None,3,f,20,l,MK,2021_Nov_09_1505,WASABI Nback,2020.2.10,59.994156594495315,
0,1,7,"[-0.2, -0.2]",None,0,1,1,1,,,,,0,0,0,0,0,9,9,9,,,,,,,,,,,None,None,0,397.3304973002523,None,397.3304973002523,398.33048580028117,398.31385360006243,399.31384220020846,0,1,397.3304973002523,None,3,f,20,l,MK,2021_Nov_09_1505,WASABI Nback,2020.2.10,59.994156594495315,
0,1,5,"[0, 0]",1,0,1,1,1,,,,,0,0,0,0,0,10,10,10,,,,,,,,,,,None,None,0,399.330535300076,None,399.330535300076,400.3305259998888,400.3138538002968,401.31387430010363,0,1,399.330535300076,None,3,f,20,l,MK,2021_Nov_09_1505,WASABI Nback,2020.2.10,59.994156594495315,
0,1,6,"[0.2, 0]",None,0,1,1,1,,,,,0,0,0,0,0,11,11,11,,,,,,,,,,,None,None,0,401.33054029988125,None,401.33054029988125,402.3305509001948,402.31386680016294,403.3138902001083,0,1,401.33054029988125,None,3,f,20,l,MK,2021_Nov_09_1505,WASABI Nback,2020.2.10,59.994156594495315,
0,1,3,"[0.2, 0.2]",None,0,1,1,1,,,,,0,0,0,0,0,12,12,12,,,,,,,,,,,None,None,0,403.3305486999452,None,403.3305486999452,404.33055490022525,404.31390010006726,405.31388609996065,0,1,403.3305486999452,None,3,f,20,l,MK,2021_Nov_09_1505,WASABI Nback,2020.2.10,59.994156594495315,
0,1,6,"[0.2, 0]",1,0,1,1,1,,,,,0,0,0,0,0,13,13,13,,,,,,,,,,,None,None,0,405.33057950017974,None,405.33057950017974,406.3305716998875,406.31390070030466,407.3139117001556,0,1,405.33057950017974,None,3,f,20,l,MK,2021_Nov_09_1505,WASABI Nback,2020.2.10,59.994156594495315,
0,1,8,"[0, -0.2]",None,0,1,1,1,,,,,0,0,0,0,0,14,14,14,,,,,,,,,,,None,None,0,407.33059050003067,None,407.33059050003067,408.33058910025284,408.31390820024535,409.3139303000644,0,1,407.33059050003067,None,3,f,20,l,MK,2021_Nov_09_1505,WASABI Nback,2020.2.10,59.994156594495315,
0,1,9,"[0.2, -0.2]",None,0,1,1,1,,,,,0,0,0,0,0,15,15,15,,,,,,,,,,,None,None,0,409.3305925000459,None,409.3305925000459,410.3305985000916,410.31394440028816,411.313935500104,0,1,409.3305925000459,None,3,f,20,l,MK,2021_Nov_09_1505,WASABI Nback,2020.2.10,59.994156594495315,
0,1,9,"[0.2, -0.2]",None,0,1,1,1,,,,,0,0,0,0,0,16,16,16,,,,,,,,,,,None,None,0,411.33061290020123,None,411.33061290020123,412.3306360002607,412.31394249992445,413.3138574999757,0,1,411.33061290020123,None,3,f,20,l,MK,2021_Nov_09_1505,WASABI Nback,2020.2.10,59.994156594495315,
0,1,1,"[-0.2, 0.2]",None,0,1,1,1,,,,,0,0,0,0,0,17,17,17,,,,,,,,,,,None,None,0,413.33066349988803,None,413.33066349988803,414.3306622002274,414.31395780015737,415.31396840000525,0,1,413.33066349988803,None,3,f,20,l,MK,2021_Nov_09_1505,WASABI Nback,2020.2.10,59.994156594495315,
0,1,3,"[0.2, 0.2]",None,0,1,1,1,,,,,0,0,0,0,0,18,18,18,,,,,,,,,,,None,None,0,415.3305325000547,None,415.3305325000547,416.3306561000645,416.31399120017886,417.31399059994146,0,1,415.3305325000547,None,3,f,20,l,MK,2021_Nov_09_1505,WASABI Nback,2020.2.10,59.994156594495315,
0,1,5,"[0, 0]",None,0,1,1,1,,,,,0,0,0,0,0,19,19,19,,,,,,,,,,,None,None,0,417.3306603003293,None,417.3306603003293,418.330668900162,418.31398619990796,419.3140223999508,0,1,417.3306603003293,None,3,f,20,l,MK,2021_Nov_09_1505,WASABI Nback,2020.2.10,59.994156594495315,
0,1,3,"[0.2, 0.2]",1,0,1,1,1,,,,,0,0,0,0,0,20,20,20,,,,,,,,,,,None,None,0,419.330690999981,None,419.330690999981,420.3307050000876,420.31400600029156,421.3140219999477,0,1,419.330690999981,None,3,f,20,l,MK,2021_Nov_09_1505,WASABI Nback,2020.2.10,59.994156594495315,
0,1,4,"[-0.2, 0]",None,0,1,1,1,,,,,0,0,0,0,0,21,21,21,,,,,,,,,,,None,None,0,421.3306992002763,None,421.3306992002763,422.3307075998746,422.31403589993715,423.31402850011364,0,1,421.3306992002763,None,3,f,20,l,MK,2021_Nov_09_1505,WASABI Nback,2020.2.10,59.994156594495315,
0,1,7,"[-0.2, -0.2]",None,0,1,1,1,,,,,0,0,0,0,0,22,22,22,,,,,,,,,,,None,None,0,423.3307268000208,None,423.3307268000208,424.3307223999873,424.3140414003283,425.31405570032075,0,1,423.3307268000208,None,3,f,20,l,MK,2021_Nov_09_1505,WASABI Nback,2020.2.10,59.994156594495315,
0,1,4,"[-0.2, 0]",1,0,1,1,1,,,,,0,0,0,0,0,23,23,23,,,,,,,,,,,None,None,0,425.33073220029473,None,425.33073220029473,426.33073220029473,426.31406400026754,427.3140671001747,0,1,425.33073220029473,None,3,f,20,l,MK,2021_Nov_09_1505,WASABI Nback,2020.2.10,59.994156594495315,
0,1,4,"[-0.2, 0]",None,0,1,1,1,,,,,0,0,0,0,0,24,24,24,,,,,,,,,,,None,None,0,427.3307481002994,None,427.3307481002994,428.3307459000498,428.3140859999694,429.3140296000056,0,1,427.3307481002994,None,3,f,20,l,MK,2021_Nov_09_1505,WASABI Nback,2020.2.10,59.994156594495315,
0,1,5,"[0, 0]",None,0,1,1,1,,,,,0,0,0,0,0,25,25,25,,,,,,,,,,,None,None,0,429.3307675002143,None,429.3307675002143,430.3307705000043,430.3140962002799,431.3140993001871,0,1,429.3307675002143,None,3,f,20,l,MK,2021_Nov_09_1505,WASABI Nback,2020.2.10,59.994156594495315,
0,1,2,"[0, 0.2]",None,0,1,1,1,,,,,0,0,0,0,0,26,26,26,,,,,,,,,,,None,None,0,431.33078620024025,None,431.33078620024025,432.33079370018095,432.314118700102,433.3141236999072,0,1,431.33078620024025,None,3,f,20,l,MK,2021_Nov_09_1505,WASABI Nback,2020.2.10,59.994156594495315,
0,1,6,"[0.2, 0]",None,0,1,1,1,,,,,0,0,0,0,0,27,27,27,,,,,,,,,,,None,None,0,433.33079669997096,None,433.33079669997096,434.3307993998751,434.3141296999529,435.31405889987946,0,1,433.33079669997096,None,3,f,20,l,MK,2021_Nov_09_1505,WASABI Nback,2020.2.10,59.994156594495315,
0,1,7,"[-0.2, -0.2]",None,0,1,1,1,,,,,0,0,0,0,0,28,28,28,,,,,,,,,,,None,None,0,435.3308260003105,None,435.3308260003105,436.33083020010963,436.3141517001204,437.3141495003365,0,1,435.3308260003105,None,3,f,20,l,MK,2021_Nov_09_1505,WASABI Nback,2020.2.10,59.994156594495315,
0,1,6,"[0.2, 0]",1,0,1,1,1,,,,,0,0,0,0,0,29,29,29,,,,,,,,,,,None,None,0,437.33082569995895,None,437.33082569995895,438.3308425000869,438.3141749999486,439.3141724001616,0,1,437.33082569995895,None,3,f,20,l,MK,2021_Nov_09_1505,WASABI Nback,2020.2.10,59.994156594495315,
0,1,6,"[0.2, 0]",None,0,1,1,1,,,,,0,0,0,0,0,30,30,30,,,,,,,,,,,None,None,0,439.33083450002596,None,439.33083450002596,440.3308637002483,440.31418489990756,441.314082799945,0,1,439.33083450002596,None,3,f,20,l,MK,2021_Nov_09_1505,WASABI Nback,2020.2.10,59.994156594495315,
0,1,7,"[-0.2, -0.2]",None,0,1,1,1,,,,,0,0,0,0,0,31,31,31,,,,,,,,,,,None,None,0,441.33087689988315,None,441.33087689988315,442.33086419990286,442.3141985000111,443.31419670023024,0,1,441.33087689988315,None,3,f,20,l,MK,2021_Nov_09_1505,WASABI Nback,2020.2.10,59.994156594495315,
0,1,6,"[0.2, 0]",1,0,1,1,1,,,,,0,0,0,0,0,32,32,32,,,,,,,,,,,None,None,0,443.3308828002773,None,443.3308828002773,444.3308971002698,444.3142214999534,445.31424200022593,0,0,443.3308828002773,None,3,f,20,l,MK,2021_Nov_09_1505,WASABI Nback,2020.2.10,59.994156594495315,
0,1,2,"[0, 0.2]",None,0,1,1,1,,,,,0,0,0,0,0,33,33,33,,,,,,,,,,,None,None,0,445.3308764002286,None,445.3308764002286,446.3309178999625,446.31425080029294,447.3142377999611,0,1,445.3308764002286,None,3,f,20,l,MK,2021_Nov_09_1505,WASABI Nback,2020.2.10,59.994156594495315,
0,1,5,"[0, 0]",None,0,1,1,1,,,,,0,0,0,0,0,34,34,34,,,,,,,,,,,None,None,0,447.3309039999731,None,447.3309039999731,448.3309134002775,448.3142373999581,449.3142495001666,0,1,447.3309039999731,None,3,f,20,l,MK,2021_Nov_09_1505,WASABI Nback,2020.2.10,59.994156594495315,
0,1,4,"[-0.2, 0]",None,0,1,1,1,,,,,0,0,0,0,0,35,35,35,,,,,,,,,,,None,None,0,449.33092870004475,None,449.33092870004475,450.3309436002746,450.31426620017737,451.3142631002702,0,1,449.33092870004475,None,3,f,20,l,MK,2021_Nov_09_1505,WASABI Nback,2020.2.10,59.994156594495315,
0,1,4,"[-0.2, 0]",None,0,1,1,1,,,,,0,0,0,0,0,36,36,36,,,,,,,,,,,None,None,0,451.3309446000494,None,451.3309446000494,452.3308296003379,452.314348900225,453.31427680002525,0,0,451.3309446000494,None,3,f,20,l,MK,2021_Nov_09_1505,WASABI Nback,2020.2.10,59.994156594495315,
0,1,7,"[-0.2, -0.2]",None,0,1,1,1,,,,,0,0,0,0,0,37,37,37,,,,,,,,,,,None,None,0,453.3309587002732,None,453.3309587002732,454.33095750026405,454.31429320015013,455.31431070016697,0,1,453.3309587002732,None,3,f,20,l,MK,2021_Nov_09_1505,WASABI Nback,2020.2.10,59.994156594495315,
0,1,4,"[-0.2, 0]",1,0,1,1,1,,,,,0,0,0,0,0,38,38,38,,,,,,,,,,,None,None,0,455.33097040001303,None,455.33097040001303,456.3309927000664,456.31430339999497,457.31431540008634,0,1,455.33097040001303,None,3,f,20,l,MK,2021_Nov_09_1505,WASABI Nback,2020.2.10,59.994156594495315,
0,1,3,"[0.2, 0.2]",None,0,1,1,1,,,,,0,0,0,0,0,39,39,39,,,,,,,,,,,None,None,0,457.33097170013934,None,457.33097170013934,458.3309897002764,458.3143329001032,459.3143365001306,0,1,457.33097170013934,None,3,f,20,l,MK,2021_Nov_09_1505,WASABI Nback,2020.2.10,59.994156594495315,
0,1,5,"[0, 0]",None,0,1,1,1,,,,,0,0,0,0,0,40,40,40,,,,,,,,,,,None,None,0,459.33101030020043,None,459.33101030020043,460.33100950019434,460.31433549989015,461.3143410002813,0,1,459.33101030020043,None,3,f,20,l,MK,2021_Nov_09_1505,WASABI Nback,2020.2.10,59.994156594495315,
0,1,3,"[0.2, 0.2]",1,0,1,1,1,,,,,0,0,0,0,0,41,41,41,,,,,,,,,,,None,None,0,461.33100969996303,None,461.33100969996303,462.33103320002556,462.3143587000668,463.3143660002388,0,1,461.33100969996303,None,3,f,20,l,MK,2021_Nov_09_1505,WASABI Nback,2020.2.10,59.994156594495315,
0,1,1,"[-0.2, 0.2]",None,0,1,1,1,,,,,0,0,0,0,0,42,42,42,,,,,,,,,,,None,None,0,463.3310159002431,None,463.3310159002431,464.3310337001458,464.3143867999315,465.3143898001872,0,1,463.3310159002431,None,3,f,20,l,MK,2021_Nov_09_1505,WASABI Nback,2020.2.10,59.994156594495315,
0,1,9,"[0.2, -0.2]",None,0,1,1,1,,,,,0,0,0,0,0,43,43,43,,,,,,,,,,,None,None,0,465.33101470023394,None,465.33101470023394,466.33103980030864,466.3143935999833,467.3144217003137,0,1,465.33101470023394,None,3,f,20,l,MK,2021_Nov_09_1505,WASABI Nback,2020.2.10,59.994156594495315,
0,1,9,"[0.2, -0.2]",None,0,1,1,1,,,,,0,0,0,0,0,44,44,44,,,,,,,,,,,None,None,0,467.3310782001354,None,467.3310782001354,468.3310827999376,468.31440730020404,469.3144165999256,0,1,467.3310782001354,None,3,f,20,l,MK,2021_Nov_09_1505,WASABI Nback,2020.2.10,59.994156594495315,
0,1,8,"[0, -0.2]",None,0,1,1,1,,,,,0,0,0,0,0,45,45,45,,,,,,,,,,,None,None,0,469.33106560027227,None,469.33106560027227,470.33107910025865,470.31441240012646,471.314434400294,0,1,469.33106560027227,None,3,f,20,l,MK,2021_Nov_09_1505,WASABI Nback,2020.2.10,59.994156594495315,
0,1,6,"[0.2, 0]",None,0,1,1,1,,,,,0,0,0,0,0,46,46,46,,,,,,,,,,,None,None,0,471.3311064001173,None,471.3311064001173,472.33109029987827,472.31443520030007,473.31443750020117,0,1,471.3311064001173,None,3,f,20,l,MK,2021_Nov_09_1505,WASABI Nback,2020.2.10,59.994156594495315,
0,1,3,"[0.2, 0.2]",None,0,1,1,1,,,,,0,0,0,0,0,47,47,47,,,,,,,,,,,None,None,0,473.331105499994,None,473.331105499994,474.3311299001798,474.314447700046,475.3144566998817,0,1,473.331105499994,None,3,f,20,l,MK,2021_Nov_09_1505,WASABI Nback,2020.2.10,59.994156594495315,
0,1,6,"[0.2, 0]",1,0,1,1,1,,,,,0,0,0,0,0,48,48,48,,,,,,,,,,,None,None,0,475.3311232002452,None,475.3311232002452,476.33114140015095,476.3144558998756,477.31447400012985,0,1,475.3311232002452,None,3,f,20,l,MK,2021_Nov_09_1505,WASABI Nback,2020.2.10,59.994156594495315,
0,1,5,"[0, 0]",None,0,1,1,1,,,,,0,0,0,0,0,49,49,49,,,,,,,,,,,None,None,0,477.33115030033514,None,477.33115030033514,478.33114220015705,478.31448139995337,479.31449849996716,0,1,477.33115030033514,None,3,f,20,l,MK,2021_Nov_09_1505,WASABI Nback,2020.2.10,59.994156594495315,
0,1,7,"[-0.2, -0.2]",None,0,1,1,1,,,,,0,0,0,0,0,50,50,50,,,,,,,,,,,None,None,0,479.3311537001282,None,479.3311537001282,480.33117699995637,480.31450220011175,481.3145217001438,0,1,479.3311537001282,None,3,f,20,l,MK,2021_Nov_09_1505,WASABI Nback,2020.2.10,59.994156594495315,
0,1,5,"[0, 0]",1,0,1,1,1,,,,,0,0,0,0,0,51,51,51,,,,,,,,,,,None,None,0,481.3311657002196,None,481.3311657002196,482.331198300235,482.3145241001621,483.3145276000723,0,1,481.3311657002196,None,3,f,20,l,MK,2021_Nov_09_1505,WASABI Nback,2020.2.10,59.994156594495315,
0,1,1,"[-0.2, 0.2]",None,0,1,1,1,,,,,0,0,0,0,0,52,52,52,,,,,,,,,,,None,None,0,483.331135999877,None,483.331135999877,484.3312789001502,484.31454000016674,485.3145469003357,0,1,483.331135999877,None,3,f,20,l,MK,2021_Nov_09_1505,WASABI Nback,2020.2.10,59.994156594495315,
0,1,7,"[-0.2, -0.2]",None,0,1,1,1,,,,,0,0,0,0,0,53,53,53,,,,,,,,,,,None,None,0,485.33122370019555,None,485.33122370019555,486.3312258999795,486.31454969989136,487.31456519989297,0,1,485.33122370019555,None,3,f,20,l,MK,2021_Nov_09_1505,WASABI Nback,2020.2.10,59.994156594495315,
0,1,9,"[0.2, -0.2]",None,0,1,1,1,,,,,0,0,0,0,0,54,54,54,,,,,,,,,,,None,None,0,487.3312161001377,None,487.3312161001377,488.3312389003113,488.31460570031777,489.31454819999635,0,1,487.3312161001377,None,3,f,20,l,MK,2021_Nov_09_1505,WASABI Nback,2020.2.10,59.994156594495315,
0,1,3,"[0.2, 0.2]",None,0,1,1,1,,,,,0,0,0,0,0,55,55,55,,,,,,,,,,,None,None,0,489.33125040028244,None,489.33125040028244,490.3312484002672,490.31459189997986,491.31460520019755,0,1,489.33125040028244,None,3,f,20,l,MK,2021_Nov_09_1505,WASABI Nback,2020.2.10,59.994156594495315,
0,1,9,"[0.2, -0.2]",1,0,1,1,1,,,,,0,0,0,0,0,56,56,56,,,,,,,,,,,None,None,0,491.33126919995993,None,491.33126919995993,492.33127840003,492.3146093999967,493.31460440019146,0,1,491.33126919995993,None,3,f,20,l,MK,2021_Nov_09_1505,WASABI Nback,2020.2.10,59.994156594495315,
0,1,6,"[0.2, 0]",None,0,1,1,1,,,,,0,0,0,0,0,57,57,57,,,,,,,,,,,None,None,0,493.33126590028405,None,493.33126590028405,494.33127869991586,494.31463270029053,495.3146346001886,0,1,493.33126590028405,None,3,f,20,l,MK,2021_Nov_09_1505,WASABI Nback,2020.2.10,59.994156594495315,
0,1,2,"[0, 0.2]",None,0,1,1,1,,,,,0,0,0,0,0,58,58,58,,,,,,,,,,,None,None,0,495.3312869002111,None,495.3312869002111,496.33129859995097,496.3146361000836,497.31465859990567,0,1,495.3312869002111,None,3,f,20,l,MK,2021_Nov_09_1505,WASABI Nback,2020.2.10,59.994156594495315,
0,1,5,"[0, 0]",None,0,1,1,1,,,,,0,0,0,0,0,59,59,59,,,,,,,,,,,None,None,0,497.3313184999861,None,497.3313184999861,498.33132770005614,498.3146544001065,499.3146542003378,0,1,497.3313184999861,None,3,f,20,l,MK,2021_Nov_09_1505,WASABI Nback,2020.2.10,59.994156594495315,
0,1,5,"[0, 0]",None,0,1,1,1,,,,,0,0,0,0,0,60,60,60,,,,,,,,,,,None,None,0,499.3313374002464,None,499.3313374002464,500.33133500022814,500.31467860005796,501.31466910010204,0,1,499.3313374002464,None,3,f,20,l,MK,2021_Nov_09_1505,WASABI Nback,2020.2.10,59.994156594495315,
0,1,2,"[0, 0.2]",None,0,1,1,1,,,,,0,0,0,0,0,61,61,61,,,,,,,,,,,None,None,0,501.33135360013694,None,501.33135360013694,502.3313613999635,502.31468000030145,503.31470690015703,0,1,501.33135360013694,None,3,f,20,l,MK,2021_Nov_09_1505,WASABI Nback,2020.2.10,59.994156594495315,
0,1,6,"[0.2, 0]",None,0,1,1,1,,,,,0,0,0,0,0,62,62,62,,,,,,,,,,,None,None,0,503.3313656002283,None,503.3313656002283,504.3313644002192,504.3146975003183,505.3147336002439,0,1,503.3313656002283,None,3,f,20,l,MK,2021_Nov_09_1505,WASABI Nback,2020.2.10,59.994156594495315,
0,1,9,"[0.2, -0.2]",None,0,1,1,1,,,,,0,0,0,0,0,63,63,63,,,,,,,,,,,None,None,0,505.3313707001507,None,505.3313707001507,506.331381900236,506.3147503999062,507.31473420001566,0,1,505.3313707001507,None,3,f,20,l,MK,2021_Nov_09_1505,WASABI Nback,2020.2.10,59.994156594495315,
0,1,3,"[0.2, 0.2]",None,0,1,1,1,,,,,0,0,0,0,0,64,64,64,,,,,,,,,,,None,None,0,507.33133800001815,None,507.33133800001815,508.3313938002102,508.31473500002176,509.3147569000721,0,1,507.33133800001815,None,3,f,20,l,MK,2021_Nov_09_1505,WASABI Nback,2020.2.10,59.994156594495315,
0,1,9,"[0.2, -0.2]",1,0,1,1,1,,,,,0,0,0,0,0,65,65,65,,,,,,,,,,,None,None,0,509.33141350001097,None,509.33141350001097,510.33143270015717,510.31475879997015,511.3147666002624,0,1,509.33141350001097,None,3,f,20,l,MK,2021_Nov_09_1505,WASABI Nback,2020.2.10,59.994156594495315,
0,1,7,"[-0.2, -0.2]",None,0,1,1,1,,,,,0,0,0,0,0,66,66,66,,,,,,,,,,,None,None,0,511.33142099995166,None,511.33142099995166,512.3314346000552,512.3147940998897,513.3147815000266,0,1,511.33142099995166,None,3,f,20,l,MK,2021_Nov_09_1505,WASABI Nback,2020.2.10,59.994156594495315,
0,1,1,"[-0.2, 0.2]",None,0,1,1,1,,,,,0,0,0,0,0,67,67,67,,,,,,,,,,,None,None,0,513.3314511002973,None,513.3314511002973,514.3314558002166,514.3147785002366,515.3147996999323,0,1,513.3314511002973,None,3,f,20,l,MK,2021_Nov_09_1505,WASABI Nback,2020.2.10,59.994156594495315,
0,1,5,"[0, 0]",None,0,1,1,1,,,,,0,0,0,0,0,68,68,68,,,,,,,,,,,None,None,0,515.3314515003003,None,515.3314515003003,516.3314741002396,516.3148016999476,517.3148266002536,0,1,515.3314515003003,None,3,f,20,l,MK,2021_Nov_09_1505,WASABI Nback,2020.2.10,59.994156594495315,
0,1,7,"[-0.2, -0.2]",None,0,1,1,1,,,,,0,0,0,0,0,69,69,69,,,,,,,,,,,None,None,0,517.3314624000341,None,517.3314624000341,518.3314932999201,518.3148179999553,519.3148305001669,0,1,517.3314624000341,None,3,f,20,l,MK,2021_Nov_09_1505,WASABI Nback,2020.2.10,59.994156594495315,
0,1,5,"[0, 0]",1,0,1,1,1,,,,,0,0,0,0,0,70,70,70,,,,,,,,,,,None,None,0,519.3314972999506,None,519.3314972999506,520.331492499914,520.3148340000771,521.3148381998762,0,1,519.3314972999506,None,3,f,20,l,MK,2021_Nov_09_1505,WASABI Nback,2020.2.10,59.994156594495315,
0,1,6,"[0.2, 0]",None,0,1,1,1,,,,,0,0,0,0,0,71,71,71,,,,,,,,,,,None,None,0,521.331502799876,None,521.331502799876,522.3314539999701,522.314853399992,523.3148604999296,0,1,521.331502799876,None,3,f,20,l,MK,2021_Nov_09_1505,WASABI Nback,2020.2.10,59.994156594495315,
0,1,3,"[0.2, 0.2]",None,0,1,1,1,,,,,0,0,0,0,0,72,72,72,,,,,,,,,,,None,None,0,523.3314872998744,None,523.3314872998744,524.3315310003236,524.3148761000484,525.3148860000074,0,1,523.3314872998744,None,3,f,20,l,MK,2021_Nov_09_1505,WASABI Nback,2020.2.10,59.994156594495315,
0,1,6,"[0.2, 0]",1,0,1,1,1,,,,,0,0,0,0,0,73,73,73,,,,,,,,,,,None,None,0,525.3315499001183,None,525.3315499001183,526.3315469999798,526.3148968000896,527.3143727001734,0,1,525.3315499001183,None,3,f,20,l,MK,2021_Nov_09_1505,WASABI Nback,2020.2.10,59.994156594495315,
0,1,8,"[0, -0.2]",None,0,1,1,1,,,,,0,0,0,0,0,74,74,74,,,,,,,,,,,None,None,0,527.3315532002598,None,527.3315532002598,528.3315552999265,528.3149089999497,529.3149176998995,0,1,527.3315532002598,None,3,f,20,l,MK,2021_Nov_09_1505,WASABI Nback,2020.2.10,59.994156594495315,
0,1,9,"[0.2, -0.2]",None,0,1,1,1,,,,,0,0,0,0,0,75,75,75,,,,,,,,,,,None,None,0,529.331576900091,None,529.331576900091,530.3315763999708,530.314917600248,531.3149302001111,0,1,529.331576900091,None,3,f,20,l,MK,2021_Nov_09_1505,WASABI Nback,2020.2.10,59.994156594495315,
0,1,9,"[0.2, -0.2]",None,0,1,1,1,,,,,0,0,0,0,0,76,76,76,,,,,,,,,,,None,None,0,531.3315944001079,None,531.3315944001079,532.3315896000713,532.3149409000762,533.3149538002908,0,1,531.3315944001079,None,3,f,20,l,MK,2021_Nov_09_1505,WASABI Nback,2020.2.10,59.994156594495315,
0,1,1,"[-0.2, 0.2]",None,0,1,1,1,,,,,0,0,0,0,0,77,77,77,,,,,,,,,,,None,None,0,533.3316107001156,None,533.3316107001156,534.3316068002023,534.3149554999545,535.3149578999728,0,1,533.3316107001156,None,3,f,20,l,MK,2021_Nov_09_1505,WASABI Nback,2020.2.10,59.994156594495315,
0,1,3,"[0.2, 0.2]",None,0,1,1,1,,,,,0,0,0,0,0,78,78,78,,,,,,,,,,,None,None,0,535.331605500076,None,535.331605500076,536.3316355003044,536.315023300238,537.314978200011,0,1,535.331605500076,None,3,f,20,l,MK,2021_Nov_09_1505,WASABI Nback,2020.2.10,59.994156594495315,
0,1,5,"[0, 0]",None,0,1,1,1,,,,,0,0,0,0,0,79,79,79,,,,,,,,,,,None,None,0,537.3316458002664,None,537.3316458002664,538.3316313000396,538.3149850000627,539.3149906001054,0,1,537.3316458002664,None,3,f,20,l,MK,2021_Nov_09_1505,WASABI Nback,2020.2.10,59.994156594495315,
0,1,3,"[0.2, 0.2]",1,0,1,1,1,,,,,0,0,0,0,0,80,80,80,,,,,,,,,,,None,None,0,539.331650600303,None,539.331650600303,540.3316633999348,540.3150003002957,541.31491870014,0,0,539.331650600303,None,3,f,20,l,MK,2021_Nov_09_1505,WASABI Nback,2020.2.10,59.994156594495315,
0,1,4,"[-0.2, 0]",None,0,1,1,1,,,,,0,0,0,0,0,81,81,81,,,,,,,,,,,None,None,0,541.331681100186,None,541.331681100186,542.3316816999577,542.3150112000294,543.3150308001786,0,1,541.331681100186,None,3,f,20,l,MK,2021_Nov_09_1505,WASABI Nback,2020.2.10,59.994156594495315,
0,1,7,"[-0.2, -0.2]",None,0,1,1,1,,,,,0,0,0,0,0,82,82,82,,,,,,,,,,,None,None,0,543.3316966001876,None,543.3316966001876,544.3316065003164,544.3150312001817,545.3150361999869,0,1,543.3316966001876,None,3,f,20,l,MK,2021_Nov_09_1505,WASABI Nback,2020.2.10,59.994156594495315,
0,1,4,"[-0.2, 0]",1,0,1,1,1,,,,,0,0,0,0,0,83,83,83,,,,,,,,,,,None,None,0,545.3317649001256,None,545.3317649001256,546.3317019999959,546.315057199914,547.3150451001711,0,0,545.3317649001256,None,3,f,20,l,MK,2021_Nov_09_1505,WASABI Nback,2020.2.10,59.994156594495315,
0,1,4,"[-0.2, 0]",None,0,1,1,1,,,,,0,0,0,0,0,84,84,84,,,,,,,,,,,None,None,0,547.3317007003352,None,547.3317007003352,548.3317280001938,548.3150559002534,549.3150732000358,0,1,547.3317007003352,None,3,f,20,l,MK,2021_Nov_09_1505,WASABI Nback,2020.2.10,59.994156594495315,
0,1,5,"[0, 0]",None,0,1,1,1,,,,,0,0,0,0,0,85,85,85,,,,,,,,,,,None,None,0,549.3317642002366,None,549.3317642002366,550.3317660000175,550.3150849002413,551.3150961003266,0,1,549.3317642002366,None,3,f,20,l,MK,2021_Nov_09_1505,WASABI Nback,2020.2.10,59.994156594495315,
0,1,2,"[0, 0.2]",None,0,1,1,1,,,,,0,0,0,0,0,86,86,86,,,,,,,,,,,None,None,0,551.3317652000114,None,551.3317652000114,552.3317754999734,552.3150977003388,553.315093500074,0,1,551.3317652000114,None,3,f,20,l,MK,2021_Nov_09_1505,WASABI Nback,2020.2.10,59.994156594495315,
0,1,6,"[0.2, 0]",None,0,1,1,1,,,,,0,0,0,0,0,87,87,87,,,,,,,,,,,None,None,0,553.3317738999613,None,553.3317738999613,554.3317681001499,554.3151040002704,555.3151215002872,0,1,553.3317738999613,None,3,f,20,l,MK,2021_Nov_09_1505,WASABI Nback,2020.2.10,59.994156594495315,
0,1,7,"[-0.2, -0.2]",None,0,1,1,1,,,,,0,0,0,0,0,88,88,88,,,,,,,,,,,None,None,0,555.3318020999432,None,555.3318020999432,556.331805200316,556.3151185000315,557.315130900126,0,1,555.3318020999432,None,3,f,20,l,MK,2021_Nov_09_1505,WASABI Nback,2020.2.10,59.994156594495315,
0,1,6,"[0.2, 0]",1,0,1,1,1,,,,,0,0,0,0,0,89,89,89,,,,,,,,,,,None,None,0,557.3318131999113,None,557.3318131999113,558.3318209000863,558.3151516001672,559.3151484001428,0,1,557.3318131999113,None,3,f,20,l,MK,2021_Nov_09_1505,WASABI Nback,2020.2.10,59.994156594495315,
0,1,6,"[0.2, 0]",None,0,1,1,1,,,,,0,0,0,0,0,90,90,90,,,,,,,,,,,None,None,0,559.3318358003162,None,559.3318358003162,560.3318465002812,560.3151636002585,561.3151631001383,0,1,559.3318358003162,None,3,f,20,l,MK,2021_Nov_09_1505,WASABI Nback,2020.2.10,59.994156594495315,
0,1,7,"[-0.2, -0.2]",None,0,1,1,1,,,,,0,0,0,0,0,91,91,91,,,,,,,,,,,None,None,0,561.331863200292,None,561.331863200292,562.3318635001779,562.3151763998903,563.3151950002648,0,1,561.331863200292,None,3,f,20,l,MK,2021_Nov_09_1505,WASABI Nback,2020.2.10,59.994156594495315,
0,1,6,"[0.2, 0]",1,0,1,1,1,,,,,0,0,0,0,0,92,92,92,,,,,,,,,,,None,None,0,563.3318576002494,None,563.3318576002494,564.331863200292,564.315199200064,565.3151978002861,0,1,563.3318576002494,None,3,f,20,l,MK,2021_Nov_09_1505,WASABI Nback,2020.2.10,59.994156594495315,
0,1,2,"[0, 0.2]",None,0,1,1,1,,,,,0,0,0,0,0,93,93,93,,,,,,,,,,,None,None,0,565.3318815999664,None,565.3318815999664,566.3318858002312,566.3152227001265,567.3152193003334,0,1,565.3318815999664,None,3,f,20,l,MK,2021_Nov_09_1505,WASABI Nback,2020.2.10,59.994156594495315,
0,1,5,"[0, 0]",None,0,1,1,1,,,,,0,0,0,0,0,94,94,94,,,,,,,,,,,None,None,0,567.3318884000182,None,567.3318884000182,568.3319037002511,568.3152312999591,569.3152228002436,0,1,567.3318884000182,None,3,f,20,l,MK,2021_Nov_09_1505,WASABI Nback,2020.2.10,59.994156594495315,
0,1,4,"[-0.2, 0]",None,0,1,1,1,,,,,0,0,0,0,0,95,95,95,,,,,,,,,,,None,None,0,569.3319061999209,None,569.3319061999209,570.3319137999788,570.3152330000885,571.3152542999014,0,1,569.3319061999209,None,3,f,20,l,MK,2021_Nov_09_1505,WASABI Nback,2020.2.10,59.994156594495315,
0,1,4,"[-0.2, 0]",None,0,1,1,1,,,,,0,0,0,0,0,96,96,96,,,,,,,,,,,None,None,0,571.3319274000823,None,571.3319274000823,572.3319337000139,572.3152801999822,573.3152741999365,0,0,571.3319274000823,None,3,f,20,l,MK,2021_Nov_09_1505,WASABI Nback,2020.2.10,59.994156594495315,
0,1,7,"[-0.2, -0.2]",None,0,1,1,1,,,,,0,0,0,0,0,97,97,97,,,,,,,,,,,None,None,0,573.3319381000474,None,573.3319381000474,574.3319593002088,574.3153444998898,575.3153033000417,0,1,573.3319381000474,None,3,f,20,l,MK,2021_Nov_09_1505,WASABI Nback,2020.2.10,59.994156594495315,
0,1,4,"[-0.2, 0]",1,0,1,1,1,,,,,0,0,0,0,0,98,98,98,,,,,,,,,,,None,None,0,575.3318491000682,None,575.3318491000682,576.3319700001739,576.315286600031,577.3153055002913,0,1,575.3318491000682,None,3,f,20,l,MK,2021_Nov_09_1505,WASABI Nback,2020.2.10,59.994156594495315,
0,1,3,"[0.2, 0.2]",None,0,1,1,1,,,,,0,0,0,0,0,99,99,99,,,,,,,,,,,None,None,0,577.3319744002074,None,577.3319744002074,578.331988400314,578.3153206999414,579.3153118998744,0,1,577.3319744002074,None,3,f,20,l,MK,2021_Nov_09_1505,WASABI Nback,2020.2.10,59.994156594495315,
0,1,5,"[0, 0]",None,0,1,1,1,,,,,0,0,0,0,0,100,100,100,,,,,,,,,,,None,None,0,579.3319943002425,None,579.3319943002425,580.3319788002409,580.315326699987,581.3153436002322,0,1,579.3319943002425,None,3,f,20,l,MK,2021_Nov_09_1505,WASABI Nback,2020.2.10,59.994156594495315,
0,1,3,"[0.2, 0.2]",1,0,1,1,1,,,,,0,0,0,0,0,101,101,101,,,,,,,,,,,None,None,0,581.3320055003278,None,581.3320055003278,582.3320124000311,582.3153396002017,583.3153558000922,0,0,581.3320055003278,None,3,f,20,l,MK,2021_Nov_09_1505,WASABI Nback,2020.2.10,59.994156594495315,
0,1,1,"[-0.2, 0.2]",None,0,1,1,1,,,,,0,0,0,0,0,102,102,102,,,,,,,,,,,None,None,0,583.3320279000327,None,583.3320279000327,584.3320365999825,584.3153550000861,585.3153658001684,0,1,583.3320279000327,None,3,f,20,l,MK,2021_Nov_09_1505,WASABI Nback,2020.2.10,59.994156594495315,
0,1,9,"[0.2, -0.2]",None,0,1,1,1,,,,,0,0,0,0,0,103,103,103,,,,,,,,,,,None,None,0,585.3320420002565,None,585.3320420002565,586.3320456002839,586.3154545002617,587.315394999925,0,1,585.3320420002565,None,3,f,20,l,MK,2021_Nov_09_1505,WASABI Nback,2020.2.10,59.994156594495315,
0,1,9,"[0.2, -0.2]",None,0,1,1,1,,,,,0,0,0,0,0,104,104,104,,,,,,,,,,,None,None,0,587.3320570001379,None,587.3320570001379,588.332051299978,588.3153915000148,589.3154088999145,0,1,587.3320570001379,None,3,f,20,l,MK,2021_Nov_09_1505,WASABI Nback,2020.2.10,59.994156594495315,
0,1,8,"[0, -0.2]",None,0,1,1,1,,,,,0,0,0,0,0,105,105,105,,,,,,,,,,,None,None,0,589.3320730999112,None,589.3320730999112,590.3320786999539,590.3154039001092,591.3154110000469,0,1,589.3320730999112,None,3,f,20,l,MK,2021_Nov_09_1505,WASABI Nback,2020.2.10,59.994156594495315,
0,1,6,"[0.2, 0]",None,0,1,1,1,,,,,0,0,0,0,0,106,106,106,,,,,,,,,,,None,None,0,591.3320802003145,None,591.3320802003145,592.3320912001655,592.3154339999892,593.3154398999177,0,1,591.3320802003145,None,3,f,20,l,MK,2021_Nov_09_1505,WASABI Nback,2020.2.10,59.994156594495315,
0,1,3,"[0.2, 0.2]",None,0,1,1,1,,,,,0,0,0,0,0,107,107,107,,,,,,,,,,,None,None,0,593.3320726002567,None,593.3320726002567,594.3321032999083,594.3154497002251,595.315452999901,0,1,593.3320726002567,None,3,f,20,l,MK,2021_Nov_09_1505,WASABI Nback,2020.2.10,59.994156594495315,
0,1,6,"[0.2, 0]",1,0,1,1,1,,,,,0,0,0,0,0,108,108,108,,,,,,,,,,,None,None,0,595.3321273000911,None,595.3321273000911,596.3321361001581,596.3155180001631,597.3153881002218,0,1,595.3321273000911,None,3,f,20,l,MK,2021_Nov_09_1505,WASABI Nback,2020.2.10,59.994156594495315,
0,1,5,"[0, 0]",None,0,1,1,1,,,,,0,0,0,0,0,109,109,109,,,,,,,,,,,None,None,0,597.332124600187,None,597.332124600187,598.3321468001232,598.3154748999514,599.3154798001051,0,1,597.332124600187,None,3,f,20,l,MK,2021_Nov_09_1505,WASABI Nback,2020.2.10,59.994156594495315,
0,1,7,"[-0.2, -0.2]",None,0,1,1,1,,,,,0,0,0,0,0,110,110,110,,,,,,,,,,,None,None,0,599.3321505002677,None,599.3321505002677,600.3321485002525,600.3154827002436,601.3155050999485,0,1,599.3321505002677,None,3,f,20,l,MK,2021_Nov_09_1505,WASABI Nback,2020.2.10,59.994156594495315,
0,1,5,"[0, 0]",1,0,1,1,1,,,,,0,0,0,0,0,111,111,111,,,,,,,,,,,None,None,0,601.3321694000624,None,601.3321694000624,602.332166200038,602.3154953001067,603.3155249999836,0,0,601.3321694000624,None,3,f,20,l,MK,2021_Nov_09_1505,WASABI Nback,2020.2.10,59.994156594495315,
0,1,1,"[-0.2, 0.2]",None,0,1,1,1,,,,,0,0,0,0,0,112,112,112,,,,,,,,,,,None,None,0,603.3321926002391,None,603.3321926002391,604.3321974999271,604.3155334000476,605.31554470025,0,1,603.3321926002391,None,3,f,20,l,MK,2021_Nov_09_1505,WASABI Nback,2020.2.10,59.994156594495315,
0,1,7,"[-0.2, -0.2]",None,0,1,1,1,,,,,0,0,0,0,0,113,113,113,,,,,,,,,,,None,None,0,605.3322068001144,None,605.3322068001144,606.3321984000504,606.3155352999456,607.3155390000902,0,1,605.3322068001144,None,3,f,20,l,MK,2021_Nov_09_1505,WASABI Nback,2020.2.10,59.994156594495315,
0,1,9,"[0.2, -0.2]",None,0,1,1,1,,,,,0,0,0,0,0,114,114,114,,,,,,,,,,,None,None,0,607.3322252002545,None,607.3322252002545,608.3322188002057,608.3155610002577,609.3155911001377,0,1,607.3322252002545,None,3,f,20,l,MK,2021_Nov_09_1505,WASABI Nback,2020.2.10,59.994156594495315,
0,1,3,"[0.2, 0.2]",None,0,1,1,1,,,,,0,0,0,0,0,115,115,115,,,,,,,,,,,None,None,0,609.3322399999015,None,609.3322399999015,610.3322475003079,610.3155680000782,611.3155966000631,0,1,609.3322399999015,None,3,f,20,l,MK,2021_Nov_09_1505,WASABI Nback,2020.2.10,59.994156594495315,
0,1,9,"[0.2, -0.2]",1,0,1,1,1,,,,,0,0,0,0,0,116,116,116,,,,,,,,,,,None,None,0,611.3322557001375,None,611.3322557001375,612.3322596000507,612.3155976003036,613.3155896002427,0,1,611.3322557001375,None,3,f,20,l,MK,2021_Nov_09_1505,WASABI Nback,2020.2.10,59.994156594495315,
0,1,6,"[0.2, 0]",None,0,1,1,1,,,,,0,0,0,0,0,117,117,117,,,,,,,,,,,None,None,0,613.3322672001086,None,613.3322672001086,614.3322712001391,614.3156018001027,615.3156101000495,0,1,613.3322672001086,None,3,f,20,l,MK,2021_Nov_09_1505,WASABI Nback,2020.2.10,59.994156594495315,
0,1,2,"[0, 0.2]",None,0,1,1,1,,,,,0,0,0,0,0,118,118,118,,,,,,,,,,,None,None,0,615.3323007002473,None,615.3323007002473,616.3323018001392,616.315615199972,617.3156564999372,0,1,615.3323007002473,None,3,f,20,l,MK,2021_Nov_09_1505,WASABI Nback,2020.2.10,59.994156594495315,
0,1,5,"[0, 0]",None,0,1,1,1,,,,,0,0,0,0,0,119,119,119,,,,,,,,,,,None,None,0,617.3323058001697,None,617.3323058001697,618.3322964999825,618.3156715002842,619.3156510000117,0,1,617.3323058001697,None,3,f,20,l,MK,2021_Nov_09_1505,WASABI Nback,2020.2.10,59.994156594495315,
