	order	onset	duration	rt	correct
0	1		0.0	[]	[]
1	1	382.19704840006307	1.1238521509803832		1
2	1	383.3303849003278	1.9916692501865327		1
3	1	385.3303988999687	1.991689349990338		1
4	1	387.3304314003326	1.9916546498425305		1
5	1	389.3304539001547	1.9907493498176336	0.5504081998951733	1
6	1	391.33044900000095	1.991198849864304		1
7	1	393.3304858999327	1.9912770497612655		1
8	1	395.33049920015037	1.9912143503315747		1
9	1	397.3304973002523	1.9913296499289572		1
10	1	399.330535300076	1.9915409497916698	0.7336169998161495	1
11	1	401.33054029988125	1.9913158500567079		1
12	1	403.3305486999452	1.991517350077629		1
13	1	405.33057950017974	1.9913128498010337	0.8669612999074161	1
14	1	407.33059050003067	1.9915837496519089		1
15	1	409.3305925000459	1.9915840500034392		1
16	1	411.33061290020123	1.9913196498528123		1
17	1	413.33066349988803	1.9915705495513976		1
18	1	415.3305325000547	1.991643849760294		1
19	1	417.3306603003293	1.9916138499975204		1
20	1	419.330690999981	1.9917515497654676	0.5169394998811185	1
21	1	421.3306992002763	1.9901978499256074		1
22	1	423.3307268000208	1.9916278501041234		1
23	1	425.33073220029473	1.9914577505551279	1.3003068999387324	1
24	1	427.3307481002994	1.99136024992913		1
25	1	429.3307675002143	1.9917008499614894		1
26	1	431.33078620024025	1.990485549904406		1
27	1	433.33079669997096	1.9913629498332739		1
28	1	435.3308260003105	1.9913433496840298		1
29	1	437.33082569995895	1.9915496497415006	0.8336008996702731	1
30	1	439.33083450002596	1.9915961502119899		1
31	1	441.33087689988315	1.9910136498510838		1
32	1	443.3308828002773	1.9915731502696872		0
33	1	445.3308764002286	1.9914449504576623		1
34	1	447.3309039999731	1.991356949787587		1
35	1	449.33092870004475	1.9916948503814638		1
36	1	451.3309446000494	1.991200549993664	0.8503944999538362	0
37	1	453.3309587002732	1.9915179503150284		1
38	1	455.33097040001303	1.9915993502363563	0.7169685000553727	1
39	1	457.33097170013934	1.991516349837184		1
40	1	459.33101030020043	1.9917050497606397		1
41	1	461.33100969996303	1.9911860502324998	0.7025346998125315	1
42	1	463.3310159002431	1.991223850287497		1
43	1	465.33101470023394	1.9913360504433513		1
44	1	467.3310782001354	1.9908904498443007		1
45	1	469.33106560027227	1.9914444498717785		1
46	1	471.3311064001173	1.9911736501380801		1
47	1	473.331105499994	1.9914674502797425		1
48	1	475.3311232002452	1.9915226493030787	0.4669694001786411	1
49	1	477.33115030033514	1.9916160497814417		1
50	1	479.3311537001282	1.991431949660182		1
51	1	481.3311657002196	1.991527350153774	1.450295299757272	1
52	1	483.331135999877	1.9915650496259332		1
53	1	485.33122370019555	1.9916559499688447		1
54	1	487.3312161001377	1.9915357492864132		1
55	1	489.33125040028244	1.9916221499443054		1
56	1	491.33126919995993	1.9913655505515635	0.7169037000276148	1
57	1	493.33126590028405	1.990573650225997		1
58	1	495.3312869002111	1.9912762502208352		1
59	1	497.3313184999861	1.9912722501903772		1
60	1	499.3313374002464	1.9914643503725529		1
61	1	501.33135360013694	1.9911149498075247		1
62	1	503.3313656002283	1.9907656498253345		1
63	1	505.3313707001507	1.9914912502281368		1
64	1	507.33133800001815	1.9912569499574602		1
65	1	509.33141350001097	1.9914309498853981	0.933612400200218	1
66	1	511.33142099995166	1.9912451501004398		1
67	1	513.3314511002973	1.9914397499524057		1
68	1	515.3314515003003	1.991659749764949		1
69	1	517.3314624000341	1.991538549773395		1
70	1	519.3314972999506	1.9917299505323172	0.4002972999587655	1
71	1	521.331502799876	1.9909416497685015		1
72	1	523.3314872998744	1.9912787498906255		1
73	1	525.3315499001183	1.9912954499013722	0.7003075000829995	1
74	1	527.3315532002598	1.9918486503884196		1
75	1	529.331576900091	1.9908454497344792		1
76	1	531.3315944001079	1.9910803502425551		1
77	1	533.3316107001156	1.9912625500001013		1
78	1	535.331605500076	1.991179849486798		1
79	1	537.3316458002664	1.9910744498483837		1
80	1	539.331650600303	1.9915238497778773		0
81	1	541.331681100186	1.9909730502404273		1
82	1	543.3316966001876	1.9915168504230678		1
83	1	545.3317649001256	1.9911479502916336		0
84	1	547.3317007003352	1.9916000505909324		1
85	1	549.3317642002366	1.9916426497511566		1
86	1	551.3317652000114	1.9913243502378464		1
87	1	553.3317738999613	1.991606350056827		1
88	1	555.3318020999432	1.9916831501759589		1
89	1	557.3318131999113	1.9912810502573848	1.0003380998969078	1
90	1	559.3318358003162	1.9910927503369749		1
91	1	561.331863200292	1.9905667500570416		1
92	1	563.3318576002494	1.9913133499212563	1.2002988001331687	1
93	1	565.3318815999664	1.9914186499081552		1
94	1	567.3318884000182	1.9915873501449823		1
95	1	569.3319061999209	1.9914493500255048		1
96	1	571.3319274000823	1.9912710501812398	0.5501999999396503	0
97	1	573.3319381000474	1.991523350123316		1
98	1	575.3318491000682	1.991473749279976	1.467070400249213	1
99	1	577.3319744002074	1.9915207498706877		1
100	1	579.3319943002425	1.9917271500453353		1
101	1	581.3320055003278	1.9911592504940927		0
102	1	583.3320279000327	1.991621249821037		1
103	1	585.3320420002565	1.9915098501369357		1
104	1	587.3320570001379	1.991652850061655		1
105	1	589.3320730999112	1.9916865495033562		1
106	1	591.3320802003145	1.9913456500507891		1
107	1	593.3320726002567	1.991420249454677		1
108	1	595.3321273000911	1.9917529500089586	0.9169681998901069	1
109	1	597.332124600187	1.9917824501171708		1
110	1	599.3321505002677	1.9914890499785542		1
111	1	601.3321694000624	1.9907963494770229		0
112	1	603.3321926002391	1.9914346495643258		1
113	1	605.3322068001144	1.9915027497336268		1
114	1	607.3322252002545	1.991493749897927		1
115	1	609.3322399999015	1.991554549895227		1
116	1	611.3322557001375	1.9911761498078704	0.61697670025751	1
117	1	613.3322672001086	1.991569149773568		1
118	1	615.3323007002473	1.9913983503356576		1
119	1	617.3323058001697	1.9917177497409284		1
