square,location,corrAns,trials_2.thisRepN,trials_2.thisTrialN,trials_2.thisN,trials_2.thisIndex,fixation_1.started,fixation_1.stopped,response_2.x,response_2.y,response_2.leftButton,grid_lines_2.started,grid_lines_2.stopped,target_square_2.started,target_square_2.stopped,fixation_3.started,fixation_3.stopped,response_2.click,response_2.corr,response_2.started,response_2.stopped,ScoreReportText.started,ScoreReportText.stopped,ScoreReportResponse.keys,ScoreReportResponse.started,ScoreReportResponse.stopped,BodySiteInstructionText.started,BodySiteImg.started,BodySiteImg.stopped,BodySiteInstructionRead.keys,BodySiteInstructionRead.rt,BodySiteInstructionRead.started,BodySiteInstructionRead.stopped,IntensityRating.response,IntensityRating.rt,IntensityRating.started,IntensityRating.stopped,fixation_rest.started,fixation_rest.stopped,subject number,gender,distractMap first- or second-half (1 or 2),session,handedness,scanner,bodysite1 temp,bodysite2 temp,date,psychopyVersion,expName,frameRate,body_site_order,
6,"[0.2, 0]",None,0,0,0,0,325.2645504998509,None,None,None,"[0, 0, 0]",326.29788780002855,None,326.29788780002855,327.29792809998617,327.2812292999588,None,"[0, 0, 0]",1,326.29788780002855,None,,,,,,,,,,,,,,,,,,,1,M,1,41,r,,49,49,2022_Jul_01_1528,2020.2.10,distractmap1,59.98818230793519,"['Left Leg', 'Left Face', 'Left Leg', 'Left Face']",
7,"[-0.2, -0.2]",None,0,1,1,1,,,None,None,"[0, 0, 0]",328.28122089989483,330.28126719989814,328.28122089989483,329.2812310999725,329.2645856998861,330.26458529988304,"[0, 0, 0]",1,328.28122089989483,330.28126719989814,,,,,,,,,,,,,,,,,,,1,M,1,41,r,,49,49,2022_Jul_01_1528,2020.2.10,distractmap1,59.98818230793519,"['Left Leg', 'Left Face', 'Left Leg', 'Left Face']",
6,"[0.2, 0]",1,0,2,2,2,,,None,None,"[0, 0, 0]",330.2978185999673,332.2979170999024,330.2978185999673,331.29790999996476,331.2812623998616,332.28126850002445,"[0, 0, 0]",0,330.2978185999673,332.2979170999024,,,,,,,,,,,,,,,,,,,1,M,1,41,r,,49,49,2022_Jul_01_1528,2020.2.10,distractmap1,59.98818230793519,"['Left Leg', 'Left Face', 'Left Leg', 'Left Face']",
2,"[0, 0.2]",0,0,3,3,3,,,None,None,"[0, 0, 0]",332.31459319987334,334.31461809994653,332.31459319987334,333.3146293000318,333.29794519999996,334.29794419999234,"[0, 0, 0]",1,332.31459319987334,334.31461809994653,,,,,,,,,,,,,,,,,,,1,M,1,41,r,,49,49,2022_Jul_01_1528,2020.2.10,distractmap1,59.98818230793519,"['Left Leg', 'Left Face', 'Left Leg', 'Left Face']",
5,"[0, 0]",0,0,4,4,4,,,None,None,"[0, 0, 0]",334.33129999996163,336.3313033999875,334.33129999996163,335.33129399991594,335.314628199907,336.3146509998478,"[0, 0, 0]",1,334.33129999996163,336.3313033999875,,,,,,,,,,,,,,,,,,,1,M,1,41,r,,49,49,2022_Jul_01_1528,2020.2.10,distractmap1,59.98818230793519,"['Left Leg', 'Left Face', 'Left Leg', 'Left Face']",
4,"[-0.2, 0]",0,0,5,5,5,,,None,None,"[0, 0, 0]",336.3479514999781,338.3479678998701,336.3479514999781,337.3479702998884,337.3313323999755,338.33131769998,"[0, 0, 0]",1,336.3479514999781,338.3479678998701,,,,,,,,,,,,,,,,,,,1,M,1,41,r,,49,49,2022_Jul_01_1528,2020.2.10,distractmap1,59.98818230793519,"['Left Leg', 'Left Face', 'Left Leg', 'Left Face']",
4,"[-0.2, 0]",0,0,6,6,6,,,None,None,"[0, 0, 0]",338.36465419991873,340.3646823000163,338.36465419991873,339.36468099988997,339.34797609993257,340.34799989988096,"[0, 0, 0]",1,338.36465419991873,340.3646823000163,,,,,,,,,,,,,,,,,,,1,M,1,41,r,,49,49,2022_Jul_01_1528,2020.2.10,distractmap1,59.98818230793519,"['Left Leg', 'Left Face', 'Left Leg', 'Left Face']",
7,"[-0.2, -0.2]",0,0,7,7,7,,,None,None,"[0, 0, 0]",340.38135779998265,342.3813583999872,340.38135779998265,341.3813640999142,341.3646889999509,342.3647020999342,"[0, 0, 0]",1,340.38135779998265,342.3813583999872,,,,,,,,,,,,,,,,,,,1,M,1,41,r,,49,49,2022_Jul_01_1528,2020.2.10,distractmap1,59.98818230793519,"['Left Leg', 'Left Face', 'Left Leg', 'Left Face']",
4,"[-0.2, 0]",1,0,8,8,8,,,None,None,"[0, 0, 0]",342.39799880003557,344.3980298000388,342.39799880003557,343.398008499993,343.38138370006345,344.38135329983197,"[0, 0, 0]",1,342.39799880003557,344.3980298000388,,,,,,,,,,,,,,,,,,,1,M,1,41,r,,49,49,2022_Jul_01_1528,2020.2.10,distractmap1,59.98818230793519,"['Left Leg', 'Left Face', 'Left Leg', 'Left Face']",
3,"[0.2, 0.2]",0,0,9,9,9,,,None,None,"[0, 0, 0]",344.414722800022,346.4147045998834,344.414722800022,345.4147183999885,345.39802520000376,346.39805660001,"[0, 0, 0]",1,344.414722800022,346.4147045998834,,,,,,,,,,,,,,,,,,,1,M,1,41,r,,49,49,2022_Jul_01_1528,2020.2.10,distractmap1,59.98818230793519,"['Left Leg', 'Left Face', 'Left Leg', 'Left Face']",
5,"[0, 0]",0,0,10,10,10,,,None,None,"[0, 0, 0]",346.4313856998924,348.43143839994445,346.4313856998924,347.4314249998424,347.41473509999923,348.41476710001007,"[0, 0, 0]",1,346.4313856998924,348.43143839994445,,,,,,,,,,,,,,,,,,,1,M,1,41,r,,49,49,2022_Jul_01_1528,2020.2.10,distractmap1,59.98818230793519,"['Left Leg', 'Left Face', 'Left Leg', 'Left Face']",
3,"[0.2, 0.2]",1,0,11,11,11,,,None,None,"[0, 0, 0]",348.44805949996226,350.44808749994263,348.44805949996226,349.4480711000506,349.43143119988963,350.43142439983785,"[0, 0, 0]",1,348.44805949996226,350.44808749994263,,,,,,,,,,,,,,,,,,,1,M,1,41,r,,49,49,2022_Jul_01_1528,2020.2.10,distractmap1,59.98818230793519,"['Left Leg', 'Left Face', 'Left Leg', 'Left Face']",
1,"[-0.2, 0.2]",0,0,12,12,12,,,None,None,"[0, 0, 0]",350.4647534999531,352.4647178000305,350.4647534999531,351.46475979988463,351.44809189997613,352.4480834999122,"[0, 0, 0]",1,350.4647534999531,352.4647178000305,,,,,,,,,,,,,,,,,,,1,M,1,41,r,,49,49,2022_Jul_01_1528,2020.2.10,distractmap1,59.98818230793519,"['Left Leg', 'Left Face', 'Left Leg', 'Left Face']",
9,"[0.2, -0.2]",0,0,13,13,13,,,None,None,"[0, 0, 0]",352.4814623000566,354.4814536999911,352.4814623000566,353.48146389983594,353.46477039996535,354.4647814000491,"[0, 0, 0]",0,352.4814623000566,354.4814536999911,,,,,,,,,,,,,,,,,,,1,M,1,41,r,,49,49,2022_Jul_01_1528,2020.2.10,distractmap1,59.98818230793519,"['Left Leg', 'Left Face', 'Left Leg', 'Left Face']",
9,"[0.2, -0.2]",0,0,14,14,14,,,None,None,"[0, 0, 0]",354.4981080000289,356.49811809998937,354.4981080000289,355.49812039989047,355.4814636998344,356.48146569984965,"[0, 0, 0]",1,354.4981080000289,356.49811809998937,,,,,,,,,,,,,,,,,,,1,M,1,41,r,,49,49,2022_Jul_01_1528,2020.2.10,distractmap1,59.98818230793519,"['Left Leg', 'Left Face', 'Left Leg', 'Left Face']",
8,"[0, -0.2]",0,0,15,15,15,,,None,None,"[0, 0, 0]",356.5147176999599,358.5148052999284,356.5147176999599,357.51479099993594,357.4981265999377,358.49815050000325,"[0, 0, 0]",1,356.5147176999599,358.5148052999284,,,,,,,,,,,,,,,,,,,1,M,1,41,r,,49,49,2022_Jul_01_1528,2020.2.10,distractmap1,59.98818230793519,"['Left Leg', 'Left Face', 'Left Leg', 'Left Face']",
6,"[0.2, 0]",0,0,16,16,16,,,None,None,"[0, 0, 0]",358.5314732999541,360.53148270002566,358.5314732999541,359.53149279998615,359.5148229999468,360.5148370999377,"[0, 0, 0]",1,358.5314732999541,360.53148270002566,,,,,,,,,,,,,,,,,,,1,M,1,41,r,,49,49,2022_Jul_01_1528,2020.2.10,distractmap1,59.98818230793519,"['Left Leg', 'Left Face', 'Left Leg', 'Left Face']",
3,"[0.2, 0.2]",0,0,17,17,17,,,None,None,"[0, 0, 0]",360.5481622000225,362.5481678999495,360.5481622000225,361.54816540004686,361.5315073998645,362.5315192998387,"[0, 0, 0]",1,360.5481622000225,362.5481678999495,,,,,,,,,,,,,,,,,,,1,M,1,41,r,,49,49,2022_Jul_01_1528,2020.2.10,distractmap1,59.98818230793519,"['Left Leg', 'Left Face', 'Left Leg', 'Left Face']",
6,"[0.2, 0]",1,0,18,18,18,,,None,None,"[0, 0, 0]",362.56484310003,364.56486000004224,362.56484310003,363.56486659985967,363.548188699875,364.5482005998492,"[0, 0, 0]",0,362.56484310003,364.56486000004224,,,,,,,,,,,,,,,,,,,1,M,1,41,r,,49,49,2022_Jul_01_1528,2020.2.10,distractmap1,59.98818230793519,"['Left Leg', 'Left Face', 'Left Leg', 'Left Face']",
5,"[0, 0]",0,0,19,19,19,,,None,None,"[0, 0, 0]",364.58144219988026,366.58155640005134,364.58144219988026,365.58156719990075,365.5648566999007,366.56489049992524,"[0, 0, 0]",1,364.58144219988026,366.58155640005134,,,,,,,,,,,,,,,,,,,1,M,1,41,r,,49,49,2022_Jul_01_1528,2020.2.10,distractmap1,59.98818230793519,"['Left Leg', 'Left Face', 'Left Leg', 'Left Face']",
7,"[-0.2, -0.2]",0,0,20,20,20,,,None,None,"[0, 0, 0]",366.5982220999431,368.59823179990053,366.5982220999431,367.5982347999234,367.58157030004077,368.5815719999373,"[0, 0, 0]",1,366.5982220999431,368.59823179990053,,,,,,,,,,,,,,,,,,,1,M,1,41,r,,49,49,2022_Jul_01_1528,2020.2.10,distractmap1,59.98818230793519,"['Left Leg', 'Left Face', 'Left Leg', 'Left Face']",
5,"[0, 0]",1,0,21,21,21,,,None,None,"[0, 0, 0]",368.6149091999978,370.61492039985023,368.6149091999978,369.61492579989135,369.5982282999903,370.59823899995536,"[0, 0, 0]",0,368.6149091999978,370.61492039985023,,,,,,,,,,,,,,,,,,,1,M,1,41,r,,49,49,2022_Jul_01_1528,2020.2.10,distractmap1,59.98818230793519,"['Left Leg', 'Left Face', 'Left Leg', 'Left Face']",
1,"[-0.2, 0.2]",0,0,22,22,22,,,None,None,"[0, 0, 0]",370.631597999949,372.63160960003734,370.631597999949,371.63160359999165,371.6148844000418,372.61494909995236,"[0, 0, 0]",1,370.631597999949,372.63160960003734,,,,,,,,,,,,,,,,,,,1,M,1,41,r,,49,49,2022_Jul_01_1528,2020.2.10,distractmap1,59.98818230793519,"['Left Leg', 'Left Face', 'Left Leg', 'Left Face']",
7,"[-0.2, -0.2]",0,0,23,23,23,,,None,None,"[0, 0, 0]",372.64818349992856,374.6482821998652,372.64818349992856,373.648258500034,373.63160509988666,374.631625500042,"[0, 0, 0]",1,372.64818349992856,374.6482821998652,,,,,,,,,,,,,,,,,,,1,M,1,41,r,,49,49,2022_Jul_01_1528,2020.2.10,distractmap1,59.98818230793519,"['Left Leg', 'Left Face', 'Left Leg', 'Left Face']",
9,"[0.2, -0.2]",0,0,24,24,24,,,None,None,"[0, 0, 0]",374.6649656998925,376.66496169986203,374.6649656998925,375.6649724000599,375.64828339987434,376.64828730002046,"[0, 0, 0]",1,374.6649656998925,376.66496169986203,,,,,,,,,,,,,,,,,,,1,M,1,41,r,,49,49,2022_Jul_01_1528,2020.2.10,distractmap1,59.98818230793519,"['Left Leg', 'Left Face', 'Left Leg', 'Left Face']",
3,"[0.2, 0.2]",0,0,25,25,25,,,None,None,"[0, 0, 0]",376.68152350001037,378.6816612998955,376.68152350001037,377.6816449998878,377.66497749998234,378.665003699949,"[0, 0, 0]",1,376.68152350001037,378.6816612998955,,,,,,,,,,,,,,,,,,,1,M,1,41,r,,49,49,2022_Jul_01_1528,2020.2.10,distractmap1,59.98818230793519,"['Left Leg', 'Left Face', 'Left Leg', 'Left Face']",
9,"[0.2, -0.2]",1,0,26,26,26,,,None,None,"[0, 0, 0]",378.6983165999409,380.6983232998755,378.6983165999409,379.6983330999501,379.6816589999944,380.68166509992443,"[0, 0, 0]",0,378.6983165999409,380.6983232998755,,,,,,,,,,,,,,,,,,,1,M,1,41,r,,49,49,2022_Jul_01_1528,2020.2.10,distractmap1,59.98818230793519,"['Left Leg', 'Left Face', 'Left Leg', 'Left Face']",
6,"[0.2, 0]",0,0,27,27,27,,,None,None,"[0, 0, 0]",380.7149914999027,382.71502129989676,380.7149914999027,381.7150107000489,381.69834799994715,382.6983431999106,"[0, 0, 0]",1,380.7149914999027,382.71502129989676,,,,,,,,,,,,,,,,,,,1,M,1,41,r,,49,49,2022_Jul_01_1528,2020.2.10,distractmap1,59.98818230793519,"['Left Leg', 'Left Face', 'Left Leg', 'Left Face']",
2,"[0, 0.2]",0,0,28,28,28,,,None,None,"[0, 0, 0]",382.73169619985856,384.73169549996965,382.73169619985856,383.7316983998753,383.7150208998937,384.71503349998966,"[0, 0, 0]",1,382.73169619985856,384.73169549996965,,,,,,,,,,,,,,,,,,,1,M,1,41,r,,49,49,2022_Jul_01_1528,2020.2.10,distractmap1,59.98818230793519,"['Left Leg', 'Left Face', 'Left Leg', 'Left Face']",
5,"[0, 0]",0,0,29,29,29,,,None,None,"[0, 0, 0]",384.74835360003635,386.7484196999576,384.74835360003635,385.74836619989946,385.7317252999637,386.73173770005815,"[0, 0, 0]",1,384.74835360003635,386.7484196999576,,,,,,,,,,,,,,,,,,,1,M,1,41,r,,49,49,2022_Jul_01_1528,2020.2.10,distractmap1,59.98818230793519,"['Left Leg', 'Left Face', 'Left Leg', 'Left Face']",
,,,,,,,,,,,,,,,,,,,,,,386.7817321999464,None,space,386.7817321999464,None,,,,,,,,,,,,,,1,M,1,41,r,,49,49,2022_Jul_01_1528,2020.2.10,distractmap1,59.98818230793519,"['Left Leg', 'Left Face', 'Left Leg', 'Left Face']",
3,"[0.2, 0.2]",None,0,0,0,0,709.5847755998839,None,None,None,"[0, 0, 0]",714.2012672000565,None,714.2012672000565,715.2011933999602,715.1845182999969,716.1845402000472,"[0, 0, 0]",1,714.2012672000565,None,,,,,,398.2487389999442,398.2487389999442,None,space,288.9344937999267,398.2487389999442,None,,,,,,,1,M,1,41,r,,49,49,2022_Jul_01_1528,2020.2.10,distractmap1,59.98818230793519,"['Left Leg', 'Left Face', 'Left Leg', 'Left Face']",
3,"[0.2, 0.2]",None,0,1,1,1,,,None,None,"[0, 0, 0]",716.2012074999511,718.2012129998766,716.2012074999511,717.201202499913,717.1845426999498,718.1845521000214,"[0, 0, 0]",1,716.2012074999511,718.2012129998766,,,,,,,,,,,,,,,,,,,1,M,1,41,r,,49,49,2022_Jul_01_1528,2020.2.10,distractmap1,59.98818230793519,"['Left Leg', 'Left Face', 'Left Leg', 'Left Face']",
5,"[0, 0]",0,0,2,2,2,,,None,None,"[0, 0, 0]",718.2178903999738,720.2179477000609,718.2178903999738,719.2178990999237,719.2012511999346,720.2012265999801,"[0, 0, 0]",1,718.2178903999738,720.2179477000609,,,,,,,,,,,,,,,,,,,1,M,1,41,r,,49,49,2022_Jul_01_1528,2020.2.10,distractmap1,59.98818230793519,"['Left Leg', 'Left Face', 'Left Leg', 'Left Face']",
1,"[-0.2, 0.2]",0,0,3,3,3,,,None,None,"[0, 0, 0]",720.2345783000346,722.2345855999738,720.2345783000346,721.2345787000377,721.2179091998842,722.2179203999694,"[0, 0, 0]",1,720.2345783000346,722.2345855999738,,,,,,,,,,,,,,,,,,,1,M,1,41,r,,49,49,2022_Jul_01_1528,2020.2.10,distractmap1,59.98818230793519,"['Left Leg', 'Left Face', 'Left Leg', 'Left Face']",
5,"[0, 0]",1,0,4,4,4,,,None,None,"[0, 0, 0]",722.3182145999745,None,722.3182145999745,723.3179321999196,723.3012619998772,None,"[0, 0, 0]",1,722.3182145999745,None,,,,,,,,,,,,,,,,,,,1,M,1,41,r,,49,49,2022_Jul_01_1528,2020.2.10,distractmap1,59.98818230793519,"['Left Leg', 'Left Face', 'Left Leg', 'Left Face']",
8,"[0, -0.2]",0,0,5,5,5,,,None,None,"[0, 0, 0]",724.2679639998823,726.2679575998336,724.2679639998823,725.2679677999113,725.2512719000224,726.2512947998475,"[0, 0, 0]",1,724.2679639998823,726.2679575998336,,,,,,,,,,,,,,,,,,,1,M,1,41,r,,49,49,2022_Jul_01_1528,2020.2.10,distractmap1,59.98818230793519,"['Left Leg', 'Left Face', 'Left Leg', 'Left Face']",
5,"[0, 0]",1,0,6,6,6,,,None,None,"[0, 0, 0]",726.2847126000561,728.2846498999279,726.2847126000561,727.284635100048,727.2679767999798,728.2679949000012,"[0, 0, 0]",1,726.2847126000561,728.2846498999279,,,,,,,,,,,,,,,,,,,1,M,1,41,r,,49,49,2022_Jul_01_1528,2020.2.10,distractmap1,59.98818230793519,"['Left Leg', 'Left Face', 'Left Leg', 'Left Face']",
7,"[-0.2, -0.2]",0,0,7,7,7,,,None,None,"[0, 0, 0]",728.3013049999718,730.3013096998911,728.3013049999718,729.3012244999409,729.2846486999188,730.2846615999006,"[0, 0, 0]",1,728.3013049999718,730.3013096998911,,,,,,,,,,,,,,,,,,,1,M,1,41,r,,49,49,2022_Jul_01_1528,2020.2.10,distractmap1,59.98818230793519,"['Left Leg', 'Left Face', 'Left Leg', 'Left Face']",
5,"[0, 0]",1,0,8,8,8,,,None,None,"[0, 0, 0]",730.3179905000143,732.3180239999201,730.3179905000143,731.3179991999641,731.301337899873,732.3013289999217,"[0, 0, 0]",0,730.3179905000143,732.3180239999201,,,,,,,,,,,,,,,,,,,1,M,1,41,r,,49,49,2022_Jul_01_1528,2020.2.10,distractmap1,59.98818230793519,"['Left Leg', 'Left Face', 'Left Leg', 'Left Face']",
7,"[-0.2, -0.2]",1,0,9,9,9,,,None,None,"[0, 0, 0]",732.3347038000356,734.3347191999201,732.3347038000356,733.3347094999626,733.3180184999947,734.3180410999339,"[0, 0, 0]",1,732.3347038000356,734.3347191999201,,,,,,,,,,,,,,,,,,,1,M,1,41,r,,49,49,2022_Jul_01_1528,2020.2.10,distractmap1,59.98818230793519,"['Left Leg', 'Left Face', 'Left Leg', 'Left Face']",
,,,,,,,,,,,,,,,,,,,,,,734.384690699866,None,,,,,,,,,,,,,,,,,1,M,1,41,r,,49,49,2022_Jul_01_1528,2020.2.10,distractmap1,59.98818230793519,"['Left Leg', 'Left Face', 'Left Leg', 'Left Face']",
,,,,,,,,,,,,,,,,,,,,,,,,,,,,,,,,,,28.827160493827158,694.1373510395642,,,,,1,M,1,41,r,,49,49,2022_Jul_01_1528,2020.2.10,distractmap1,59.98818230793519,"['Left Leg', 'Left Face', 'Left Leg', 'Left Face']",
6,"[0.2, 0]",None,0,0,0,0,752.3184787998907,None,None,None,"[0, 0, 0]",754.4515309999697,None,754.4515309999697,755.4515479998663,755.4348772000521,756.4348824999761,"[0, 0, 0]",1,754.4515309999697,None,,,,,,,,,,,,,,,0.012971460353583097,5.008300660410896,,,1,M,1,41,r,,49,49,2022_Jul_01_1528,2020.2.10,distractmap1,59.98818230793519,"['Left Leg', 'Left Face', 'Left Leg', 'Left Face']",
1,"[-0.2, 0.2]",None,0,1,1,1,,,None,None,"[0, 0, 0]",756.451539899921,758.4515756999608,756.451539899921,757.451553999912,757.4349056000356,758.434877499938,"[0, 0, 0]",1,756.451539899921,758.4515756999608,,,,,,,,,,,,,,,,,,,1,M,1,41,r,,49,49,2022_Jul_01_1528,2020.2.10,distractmap1,59.98818230793519,"['Left Leg', 'Left Face', 'Left Leg', 'Left Face']",
6,"[0.2, 0]",1,0,2,2,2,,,None,None,"[0, 0, 0]",758.4682425998617,760.4682436999865,758.4682425998617,759.4682523999363,759.4515698000323,760.4515811000019,"[0, 0, 0]",1,758.4682425998617,760.4682436999865,,,,,,,,,,,,,,,,,,,1,M,1,41,r,,49,49,2022_Jul_01_1528,2020.2.10,distractmap1,59.98818230793519,"['Left Leg', 'Left Face', 'Left Leg', 'Left Face']",
4,"[-0.2, 0]",0,0,3,3,3,,,None,None,"[0, 0, 0]",760.4849425000139,762.4849471000489,760.4849425000139,761.4849357998464,761.4682592998724,762.4682638000231,"[0, 0, 0]",1,760.4849425000139,762.4849471000489,,,,,,,,,,,,,,,,,,,1,M,1,41,r,,49,49,2022_Jul_01_1528,2020.2.10,distractmap1,59.98818230793519,"['Left Leg', 'Left Face', 'Left Leg', 'Left Face']",
1,"[-0.2, 0.2]",0,0,4,4,4,,,None,None,"[0, 0, 0]",762.535041899886,None,762.535041899886,763.5349574999418,763.5182771000545,None,"[0, 0, 0]",1,762.535041899886,None,,,,,,,,,,,,,,,,,,,1,M,1,41,r,,49,49,2022_Jul_01_1528,2020.2.10,distractmap1,59.98818230793519,"['Left Leg', 'Left Face', 'Left Leg', 'Left Face']",
8,"[0, -0.2]",0,0,5,5,5,,,None,None,"[0, 0, 0]",764.5182832998689,766.518291400047,764.5182832998689,765.5182935998309,765.5016351998784,766.5016272000503,"[0, 0, 0]",1,764.5182832998689,766.518291400047,,,,,,,,,,,,,,,,,,,1,M,1,41,r,,49,49,2022_Jul_01_1528,2020.2.10,distractmap1,59.98818230793519,"['Left Leg', 'Left Face', 'Left Leg', 'Left Face']",
1,"[-0.2, 0.2]",1,0,6,6,6,,,None,None,"[0, 0, 0]",766.5349912999664,768.5349900999572,766.5349912999664,767.5349780998658,767.518308899831,768.518327199854,"[0, 0, 0]",1,766.5349912999664,768.5349900999572,,,,,,,,,,,,,,,,,,,1,M,1,41,r,,49,49,2022_Jul_01_1528,2020.2.10,distractmap1,59.98818230793519,"['Left Leg', 'Left Face', 'Left Leg', 'Left Face']",
8,"[0, -0.2]",1,0,7,7,7,,,None,None,"[0, 0, 0]",768.5516516000498,770.5516707999632,768.5516516000498,769.5516726998612,769.5350156999193,770.5350260999985,"[0, 0, 0]",0,768.5516516000498,770.5516707999632,,,,,,,,,,,,,,,,,,,1,M,1,41,r,,49,49,2022_Jul_01_1528,2020.2.10,distractmap1,59.98818230793519,"['Left Leg', 'Left Face', 'Left Leg', 'Left Face']",
1,"[-0.2, 0.2]",1,0,8,8,8,,,None,None,"[0, 0, 0]",770.5683426000178,772.5683535998687,770.5683426000178,771.5683238999918,771.551679499913,772.5517007999588,"[0, 0, 0]",1,770.5683426000178,772.5683535998687,,,,,,,,,,,,,,,,,,,1,M,1,41,r,,49,49,2022_Jul_01_1528,2020.2.10,distractmap1,59.98818230793519,"['Left Leg', 'Left Face', 'Left Leg', 'Left Face']",
6,"[0.2, 0]",0,0,9,9,9,,,None,None,"[0, 0, 0]",772.5850350998808,774.5850604998413,772.5850350998808,773.5850545999128,773.568373200018,774.5683843998704,"[0, 0, 0]",1,772.5850350998808,774.5850604998413,,,,,,,,,,,,,,,,,,,1,M,1,41,r,,49,49,2022_Jul_01_1528,2020.2.10,distractmap1,59.98818230793519,"['Left Leg', 'Left Face', 'Left Leg', 'Left Face']",
,,,,,,,,,,,,,,,,,,,,,,774.6017201000359,None,,,,,,,,,,,,,,,,,1,M,1,41,r,,49,49,2022_Jul_01_1528,2020.2.10,distractmap1,59.98818230793519,"['Left Leg', 'Left Face', 'Left Leg', 'Left Face']",
,,,,,,,,,,,,,,,,,,,,,,,,,,,,,,,,,,25.37037037037037,732.8211175396573,,,,,1,M,1,41,r,,49,49,2022_Jul_01_1528,2020.2.10,distractmap1,59.98818230793519,"['Left Leg', 'Left Face', 'Left Leg', 'Left Face']",
7,"[-0.2, -0.2]",None,0,0,0,0,789.8689743999857,None,None,None,"[0, 0, 0]",794.6685567998793,None,794.6685567998793,795.6685581000056,795.651884800056,796.651895500021,"[0, 0, 0]",1,794.6685567998793,None,,,,,,,,,,,,,,,0.012836860259994864,5.008045060327277,,,1,M,1,41,r,,49,49,2022_Jul_01_1528,2020.2.10,distractmap1,59.98818230793519,"['Left Leg', 'Left Face', 'Left Leg', 'Left Face']",
7,"[-0.2, -0.2]",None,0,1,1,1,,,None,None,"[0, 0, 0]",796.6685891998932,798.6685788000468,796.6685891998932,797.6685754999053,797.651916399831,798.6519360998645,"[0, 0, 0]",1,796.6685891998932,798.6685788000468,,,,,,,,,,,,,,,,,,,1,M,1,41,r,,49,49,2022_Jul_01_1528,2020.2.10,distractmap1,59.98818230793519,"['Left Leg', 'Left Face', 'Left Leg', 'Left Face']",
7,"[-0.2, -0.2]",1,0,2,2,2,,,None,None,"[0, 0, 0]",798.6852424999233,800.6852720999159,798.6852424999233,799.6852637999691,799.668605600018,800.6686124999542,"[0, 0, 0]",1,798.6852424999233,800.6852720999159,,,,,,,,,,,,,,,,,,,1,M,1,41,r,,49,49,2022_Jul_01_1528,2020.2.10,distractmap1,59.98818230793519,"['Left Leg', 'Left Face', 'Left Leg', 'Left Face']",
5,"[0, 0]",0,0,3,3,3,,,None,None,"[0, 0, 0]",800.7019464999903,802.7019404999446,800.7019464999903,801.7019437998533,801.6852861999068,802.685314900009,"[0, 0, 0]",1,800.7019464999903,802.7019404999446,,,,,,,,,,,,,,,,,,,1,M,1,41,r,,49,49,2022_Jul_01_1528,2020.2.10,distractmap1,59.98818230793519,"['Left Leg', 'Left Face', 'Left Leg', 'Left Face']",
1,"[-0.2, 0.2]",0,0,4,4,4,,,None,None,"[0, 0, 0]",802.7519503999501,None,802.7519503999501,803.7519473999273,803.7352902998682,None,"[0, 0, 0]",1,802.7519503999501,None,,,,,,,,,,,,,,,,,,,1,M,1,41,r,,49,49,2022_Jul_01_1528,2020.2.10,distractmap1,59.98818230793519,"['Left Leg', 'Left Face', 'Left Leg', 'Left Face']",
6,"[0.2, 0]",0,0,5,5,5,,,None,None,"[0, 0, 0]",804.7353123999201,806.7353244000115,804.7353123999201,805.7352201999165,805.7186505000573,806.7186714999843,"[0, 0, 0]",1,804.7353123999201,806.7353244000115,,,,,,,,,,,,,,,,,,,1,M,1,41,r,,49,49,2022_Jul_01_1528,2020.2.10,distractmap1,59.98818230793519,"['Left Leg', 'Left Face', 'Left Leg', 'Left Face']",
1,"[-0.2, 0.2]",1,0,6,6,6,,,None,None,"[0, 0, 0]",806.7520055999048,808.7520157999825,806.7520055999048,807.7520165999886,807.7353407000192,808.7353339998517,"[0, 0, 0]",1,806.7520055999048,808.7520157999825,,,,,,,,,,,,,,,,,,,1,M,1,41,r,,49,49,2022_Jul_01_1528,2020.2.10,distractmap1,59.98818230793519,"['Left Leg', 'Left Face', 'Left Leg', 'Left Face']",
7,"[-0.2, -0.2]",0,0,7,7,7,,,None,None,"[0, 0, 0]",808.7686819999944,810.7686906999443,808.7686819999944,809.7686735999305,809.7520112998318,810.7520317998715,"[0, 0, 0]",1,808.7686819999944,810.7686906999443,,,,,,,,,,,,,,,,,,,1,M,1,41,r,,49,49,2022_Jul_01_1528,2020.2.10,distractmap1,59.98818230793519,"['Left Leg', 'Left Face', 'Left Leg', 'Left Face']",
6,"[0.2, 0]",0,0,8,8,8,,,None,None,"[0, 0, 0]",810.7853518999182,812.7853822999168,810.7853518999182,811.7853780000005,811.7687164999079,812.7687160999049,"[0, 0, 0]",0,810.7853518999182,812.7853822999168,,,,,,,,,,,,,,,,,,,1,M,1,41,r,,49,49,2022_Jul_01_1528,2020.2.10,distractmap1,59.98818230793519,"['Left Leg', 'Left Face', 'Left Leg', 'Left Face']",
7,"[-0.2, -0.2]",1,0,9,9,9,,,None,None,"[0, 0, 0]",812.8020339999348,814.8020689999685,812.8020339999348,813.8015407999046,813.7853073999286,814.785389599856,"[0, 0, 0]",1,812.8020339999348,814.8020689999685,,,,,,,,,,,,,,,,,,,1,M,1,41,r,,49,49,2022_Jul_01_1528,2020.2.10,distractmap1,59.98818230793519,"['Left Leg', 'Left Face', 'Left Leg', 'Left Face']",
,,,,,,,,,,,,,,,,,,,,,,814.8187305999454,None,,,,,,,,,,,,,,,,,1,M,1,41,r,,49,49,2022_Jul_01_1528,2020.2.10,distractmap1,59.98818230793519,"['Left Leg', 'Left Face', 'Left Leg', 'Left Face']",
,,,,,,,,,,,,,,,,,,,,,,,,,,,,,,,,,,27.962962962962962,772.8047411399893,,,,,1,M,1,41,r,,49,49,2022_Jul_01_1528,2020.2.10,distractmap1,59.98818230793519,"['Left Leg', 'Left Face', 'Left Leg', 'Left Face']",
,,,,,,,939.8364961999469,None,,,,,,,,,,,,,,,,,,,,,,,,,,33.76543209876544,896.104150339961,0.01290966011583805,5.008205360034481,919.836305799894,None,1,M,1,41,r,,49,49,2022_Jul_01_1528,2020.2.10,distractmap1,59.98818230793519,"['Left Leg', 'Left Face', 'Left Leg', 'Left Face']",
,,,,,,,974.8534651999362,None,,,,,,,,,,,,,,,,,,,,,,,,,,35.8641975308642,934.671596739674,0.014561960007995367,5.011571259936318,954.8532827999443,None,1,M,1,41,r,,49,49,2022_Jul_01_1528,2020.2.10,distractmap1,59.98818230793519,"['Left Leg', 'Left Face', 'Left Leg', 'Left Face']",
,,,,,,,1009.8704418998677,None,,,,,,,,,,,,,,,,,,,,,,,,,,36.60493827160494,968.7383143398911,0.01414436032064259,5.010763160185888,989.8702767000068,None,1,M,1,41,r,,49,49,2022_Jul_01_1528,2020.2.10,distractmap1,59.98818230793519,"['Left Leg', 'Left Face', 'Left Leg', 'Left Face']",
4,"[-0.2, 0]",None,0,0,0,0,1026.9039459000342,None,None,None,"[0, 0, 0]",1029.9206160998438,None,1029.9206160998438,1030.9206546000205,1030.9039826998487,1031.9039664999582,"[0, 0, 0]",1,1029.9206160998438,None,,,,,,,,,,,,,,,0.014295660192146897,5.011007560184225,,,1,M,1,41,r,,49,49,2022_Jul_01_1528,2020.2.10,distractmap1,59.98818230793519,"['Left Leg', 'Left Face', 'Left Leg', 'Left Face']",
5,"[0, 0]",None,0,1,1,1,,,None,None,"[0, 0, 0]",1031.9206362999976,1033.920662399847,1031.9206362999976,1032.9206268000416,1032.9039936999325,1033.9040037000086,"[0, 0, 0]",1,1031.9206362999976,1033.920662399847,,,,,,,,,,,,,,,,,,,1,M,1,41,r,,49,49,2022_Jul_01_1528,2020.2.10,distractmap1,59.98818230793519,"['Left Leg', 'Left Face', 'Left Leg', 'Left Face']",
6,"[0.2, 0]",0,0,2,2,2,,,None,None,"[0, 0, 0]",1033.9373416998424,1035.9373438998591,1033.9373416998424,1034.9373429999687,1034.9206784998532,1035.9206965998746,"[0, 0, 0]",1,1033.9373416998424,1035.9373438998591,,,,,,,,,,,,,,,,,,,1,M,1,41,r,,49,49,2022_Jul_01_1528,2020.2.10,distractmap1,59.98818230793519,"['Left Leg', 'Left Face', 'Left Leg', 'Left Face']",
1,"[-0.2, 0.2]",0,0,3,3,3,,,None,None,"[0, 0, 0]",1035.9540114998817,1037.954049400054,1035.9540114998817,1036.954022999853,1036.9373637000099,1037.9373425999656,"[0, 0, 0]",1,1035.9540114998817,1037.954049400054,,,,,,,,,,,,,,,,,,,1,M,1,41,r,,49,49,2022_Jul_01_1528,2020.2.10,distractmap1,59.98818230793519,"['Left Leg', 'Left Face', 'Left Leg', 'Left Face']",
6,"[0.2, 0]",1,0,4,4,4,,,None,None,"[0, 0, 0]",1037.9706933998968,1039.9707350998651,1037.9706933998968,1038.9706965000369,1038.9539234000258,1039.9540331999306,"[0, 0, 0]",1,1037.9706933998968,1039.9707350998651,,,,,,,,,,,,,,,,,,,1,M,1,41,r,,49,49,2022_Jul_01_1528,2020.2.10,distractmap1,59.98818230793519,"['Left Leg', 'Left Face', 'Left Leg', 'Left Face']",
1,"[-0.2, 0.2]",1,0,5,5,5,,,None,None,"[0, 0, 0]",1039.9874610998668,1041.9873853998724,1039.9874610998668,1040.9874080000445,1040.9707326998468,1041.9707311999518,"[0, 0, 0]",0,1039.9874610998668,1041.9873853998724,,,,,,,,,,,,,,,,,,,1,M,1,41,r,,49,49,2022_Jul_01_1528,2020.2.10,distractmap1,59.98818230793519,"['Left Leg', 'Left Face', 'Left Leg', 'Left Face']",
2,"[0, 0.2]",0,0,6,6,6,,,None,None,"[0, 0, 0]",1042.004079299979,1044.0040752999485,1042.004079299979,1043.004084999906,1042.987398599973,1043.987403600011,"[0, 0, 0]",1,1042.004079299979,1044.0040752999485,,,,,,,,,,,,,,,,,,,1,M,1,41,r,,49,49,2022_Jul_01_1528,2020.2.10,distractmap1,59.98818230793519,"['Left Leg', 'Left Face', 'Left Leg', 'Left Face']",
3,"[0.2, 0.2]",0,0,7,7,7,,,None,None,"[0, 0, 0]",1044.0207440999802,1046.0207880998496,1044.0207440999802,1045.0207716999575,1045.0040802999865,1046.0041078999639,"[0, 0, 0]",1,1044.0207440999802,1046.0207880998496,,,,,,,,,,,,,,,,,,,1,M,1,41,r,,49,49,2022_Jul_01_1528,2020.2.10,distractmap1,59.98818230793519,"['Left Leg', 'Left Face', 'Left Leg', 'Left Face']",
6,"[0.2, 0]",0,0,8,8,8,,,None,None,"[0, 0, 0]",1046.0374226998538,1048.037452899851,1046.0374226998538,1047.0374477000441,1047.0207819000352,1048.0207749998663,"[0, 0, 0]",1,1046.0374226998538,1048.037452899851,,,,,,,,,,,,,,,,,,,1,M,1,41,r,,49,49,2022_Jul_01_1528,2020.2.10,distractmap1,59.98818230793519,"['Left Leg', 'Left Face', 'Left Leg', 'Left Face']",
3,"[0.2, 0.2]",1,0,9,9,9,,,None,None,"[0, 0, 0]",1048.0541141000576,1050.0541314999573,1048.0541141000576,1049.0541354999878,1049.0374477000441,1050.0374698999804,"[0, 0, 0]",1,1048.0541141000576,1050.0541314999573,,,,,,,,,,,,,,,,,,,1,M,1,41,r,,49,49,2022_Jul_01_1528,2020.2.10,distractmap1,59.98818230793519,"['Left Leg', 'Left Face', 'Left Leg', 'Left Face']",
,,,,,,,,,,,,,,,,,,,,,,1050.0707793999463,None,,,,,,,,,,,,,,,,,1,M,1,41,r,,49,49,2022_Jul_01_1528,2020.2.10,distractmap1,59.98818230793519,"['Left Leg', 'Left Face', 'Left Leg', 'Left Face']",
2,"[0, 0.2]",None,0,0,0,0,1058.1042130999267,None,None,None,"[0, 0, 0]",1065.1209427998401,None,1065.1209427998401,1066.120911499951,1066.104273899924,1067.104272000026,"[0, 0, 0]",1,1065.1209427998401,None,,,,,,,,,,,,,,,,,,,1,M,1,41,r,,49,49,2022_Jul_01_1528,2020.2.10,distractmap1,59.98818230793519,"['Left Leg', 'Left Face', 'Left Leg', 'Left Face']",
5,"[0, 0]",None,0,1,1,1,,,None,None,"[0, 0, 0]",1067.1209459998645,1069.1208625000436,1067.1209459998645,1068.1209443998523,1068.104287300026,1069.1043430999853,"[0, 0, 0]",1,1067.1209459998645,1069.1208625000436,,,,,,,,,,,,,,,,,,,1,M,1,41,r,,49,49,2022_Jul_01_1528,2020.2.10,distractmap1,59.98818230793519,"['Left Leg', 'Left Face', 'Left Leg', 'Left Face']",
6,"[0.2, 0]",0,0,2,2,2,,,None,None,"[0, 0, 0]",1069.137626499869,1071.137655599974,1069.137626499869,1070.137644900009,1070.1209956000093,1071.120982900029,"[0, 0, 0]",1,1069.137626499869,1071.137655599974,,,,,,,,,,,,,,,,,,,1,M,1,41,r,,49,49,2022_Jul_01_1528,2020.2.10,distractmap1,59.98818230793519,"['Left Leg', 'Left Face', 'Left Leg', 'Left Face']",
1,"[-0.2, 0.2]",0,0,3,3,3,,,None,None,"[0, 0, 0]",1071.1543207999784,1073.1543429999147,1071.1543207999784,1072.1538439998403,1072.1376679998357,1073.1376662999392,"[0, 0, 0]",1,1071.1543207999784,1073.1543429999147,,,,,,,,,,,,,,,,,,,1,M,1,41,r,,49,49,2022_Jul_01_1528,2020.2.10,distractmap1,59.98818230793519,"['Left Leg', 'Left Face', 'Left Leg', 'Left Face']",
6,"[0.2, 0]",1,0,4,4,4,,,None,None,"[0, 0, 0]",1073.171017699875,1075.171008999925,1073.171017699875,1074.170897499891,1074.1543383998796,1075.1543535999954,"[0, 0, 0]",1,1073.171017699875,1075.171008999925,,,,,,,,,,,,,,,,,,,1,M,1,41,r,,49,49,2022_Jul_01_1528,2020.2.10,distractmap1,59.98818230793519,"['Left Leg', 'Left Face', 'Left Leg', 'Left Face']",
6,"[0.2, 0]",0,0,5,5,5,,,None,None,"[0, 0, 0]",1075.1876952999737,1077.1876989998855,1075.1876952999737,1076.1876993998885,1076.1710083000362,1077.1710185999982,"[0, 0, 0]",1,1075.1876952999737,1077.1876989998855,,,,,,,,,,,,,,,,,,,1,M,1,41,r,,49,49,2022_Jul_01_1528,2020.2.10,distractmap1,59.98818230793519,"['Left Leg', 'Left Face', 'Left Leg', 'Left Face']",
9,"[0.2, -0.2]",0,0,6,6,6,,,None,None,"[0, 0, 0]",1077.2043669000268,1079.2043870000634,1077.2043669000268,1078.2043719999492,1078.1877080998383,1079.1877303000074,"[0, 0, 0]",1,1077.2043669000268,1079.2043870000634,,,,,,,,,,,,,,,,,,,1,M,1,41,r,,49,49,2022_Jul_01_1528,2020.2.10,distractmap1,59.98818230793519,"['Left Leg', 'Left Face', 'Left Leg', 'Left Face']",
6,"[0.2, 0]",1,0,7,7,7,,,None,None,"[0, 0, 0]",1079.2210066998377,1081.221074800007,1079.2210066998377,1080.221070599975,1080.204389099963,1081.20432540006,"[0, 0, 0]",1,1079.2210066998377,1081.221074800007,,,,,,,,,,,,,,,,,,,1,M,1,41,r,,49,49,2022_Jul_01_1528,2020.2.10,distractmap1,59.98818230793519,"['Left Leg', 'Left Face', 'Left Leg', 'Left Face']",
3,"[0.2, 0.2]",0,0,8,8,8,,,None,None,"[0, 0, 0]",1081.2377369999886,1083.2377514999826,1081.2377369999886,1082.2377565000206,1082.2210919999052,1083.2211078999098,"[0, 0, 0]",1,1081.2377369999886,1083.2377514999826,,,,,,,,,,,,,,,,,,,1,M,1,41,r,,49,49,2022_Jul_01_1528,2020.2.10,distractmap1,59.98818230793519,"['Left Leg', 'Left Face', 'Left Leg', 'Left Face']",
9,"[0.2, -0.2]",0,0,9,9,9,,,None,None,"[0, 0, 0]",1083.2543603999075,1085.2544545999262,1083.2543603999075,1084.2544388000388,1084.2377694000024,1085.23777649994,"[0, 0, 0]",1,1083.2543603999075,1085.2544545999262,,,,,,,,,,,,,,,,,,,1,M,1,41,r,,49,49,2022_Jul_01_1528,2020.2.10,distractmap1,59.98818230793519,"['Left Leg', 'Left Face', 'Left Leg', 'Left Face']",
,,,,,,,,,,,,,,,,,,,,,,1085.3044503000565,None,,,,,,,,,,,,,,,,,1,M,1,41,r,,49,49,2022_Jul_01_1528,2020.2.10,distractmap1,59.98818230793519,"['Left Leg', 'Left Face', 'Left Leg', 'Left Face']",
3,"[0.2, 0.2]",None,0,0,0,0,1097.3379017000552,None,None,None,"[0, 0, 0]",1100.354581600055,None,1100.354581600055,1101.3545955999289,1101.3379096998833,1102.3379420998972,"[0, 0, 0]",1,1100.354581600055,None,,,,,,,,,,,,,,,,,,,1,M,1,41,r,,49,49,2022_Jul_01_1528,2020.2.10,distractmap1,59.98818230793519,"['Left Leg', 'Left Face', 'Left Leg', 'Left Face']",
9,"[0.2, -0.2]",None,0,1,1,1,,,None,None,"[0, 0, 0]",1102.3546078000218,1104.354614699958,1102.3546078000218,1103.3545961999334,1103.337855800055,1104.3379444999155,"[0, 0, 0]",1,1102.3546078000218,1104.354614699958,,,,,,,,,,,,,,,,,,,1,M,1,41,r,,49,49,2022_Jul_01_1528,2020.2.10,distractmap1,59.98818230793519,"['Left Leg', 'Left Face', 'Left Leg', 'Left Face']",
3,"[0.2, 0.2]",1,0,2,2,2,,,None,None,"[0, 0, 0]",1104.3712742999196,1106.371300800005,1104.3712742999196,1105.3712164000608,1105.35463419999,1106.3546912998427,"[0, 0, 0]",1,1104.3712742999196,1106.371300800005,,,,,,,,,,,,,,,,,,,1,M,1,41,r,,49,49,2022_Jul_01_1528,2020.2.10,distractmap1,59.98818230793519,"['Left Leg', 'Left Face', 'Left Leg', 'Left Face']",
7,"[-0.2, -0.2]",0,0,3,3,3,,,None,None,"[0, 0, 0]",1106.3879809000064,1108.3880250998773,1106.3879809000064,1107.387988699833,1107.371306899935,1108.3713094999548,"[0, 0, 0]",1,1106.3879809000064,1108.3880250998773,,,,,,,,,,,,,,,,,,,1,M,1,41,r,,49,49,2022_Jul_01_1528,2020.2.10,distractmap1,59.98818230793519,"['Left Leg', 'Left Face', 'Left Leg', 'Left Face']",
8,"[0, -0.2]",0,0,4,4,4,,,None,None,"[0, 0, 0]",1108.404649199918,1110.4046600998845,1108.404649199918,1109.4046509000473,1109.388008999871,1110.3880238998681,"[0, 0, 0]",1,1108.404649199918,1110.4046600998845,,,,,,,,,,,,,,,,,,,1,M,1,41,r,,49,49,2022_Jul_01_1528,2020.2.10,distractmap1,59.98818230793519,"['Left Leg', 'Left Face', 'Left Leg', 'Left Face']",
4,"[-0.2, 0]",0,0,5,5,5,,,None,None,"[0, 0, 0]",1110.4213492998388,1112.4213672999758,1110.4213492998388,1111.4213542998768,1111.4046837999485,1112.4047208998818,"[0, 0, 0]",1,1110.4213492998388,1112.4213672999758,,,,,,,,,,,,,,,,,,,1,M,1,41,r,,49,49,2022_Jul_01_1528,2020.2.10,distractmap1,59.98818230793519,"['Left Leg', 'Left Face', 'Left Leg', 'Left Face']",
4,"[-0.2, 0]",0,0,6,6,6,,,None,None,"[0, 0, 0]",1112.4380238999147,1114.4380506000016,1112.4380238999147,1113.4380272999406,1113.421370799886,1114.4213700999971,"[0, 0, 0]",1,1112.4380238999147,1114.4380506000016,,,,,,,,,,,,,,,,,,,1,M,1,41,r,,49,49,2022_Jul_01_1528,2020.2.10,distractmap1,59.98818230793519,"['Left Leg', 'Left Face', 'Left Leg', 'Left Face']",
1,"[-0.2, 0.2]",0,0,7,7,7,,,None,None,"[0, 0, 0]",1114.4547019999009,1116.4547242999543,1114.4547019999009,1115.45471849991,1115.4380691999104,1116.4380786998663,"[0, 0, 0]",1,1114.4547019999009,1116.4547242999543,,,,,,,,,,,,,,,,,,,1,M,1,41,r,,49,49,2022_Jul_01_1528,2020.2.10,distractmap1,59.98818230793519,"['Left Leg', 'Left Face', 'Left Leg', 'Left Face']",
4,"[-0.2, 0]",1,0,8,8,8,,,None,None,"[0, 0, 0]",1116.4713991000317,1118.4714051999617,1116.4713991000317,1117.47140759998,1117.454636399867,1118.4547518999316,"[0, 0, 0]",1,1116.4713991000317,1118.4714051999617,,,,,,,,,,,,,,,,,,,1,M,1,41,r,,49,49,2022_Jul_01_1528,2020.2.10,distractmap1,59.98818230793519,"['Left Leg', 'Left Face', 'Left Leg', 'Left Face']",
8,"[0, -0.2]",0,0,9,9,9,,,None,None,"[0, 0, 0]",1118.4880806000438,1120.48811200005,1118.4880806000438,1119.4880285998806,1119.471409899881,1120.4714214999694,"[0, 0, 0]",1,1118.4880806000438,1120.48811200005,,,,,,,,,,,,,,,,,,,1,M,1,41,r,,49,49,2022_Jul_01_1528,2020.2.10,distractmap1,59.98818230793519,"['Left Leg', 'Left Face', 'Left Leg', 'Left Face']",
,,,,,,,,,,,,,,,,,,,,,,1120.5214449998457,None,,,,,,,,,,,,,,,,,1,M,1,41,r,,49,49,2022_Jul_01_1528,2020.2.10,distractmap1,59.98818230793519,"['Left Leg', 'Left Face', 'Left Leg', 'Left Face']",
2,"[0, 0.2]",None,0,0,0,0,1130.7717879998963,None,None,None,"[0, 0, 0]",1135.5715661998838,None,1135.5715661998838,1136.571570500033,1136.5549073999282,1137.5549113999587,"[0, 0, 0]",1,1135.5715661998838,None,,,,,,,,,,,,,,,,,,,1,M,1,41,r,,49,49,2022_Jul_01_1528,2020.2.10,distractmap1,59.98818230793519,"['Left Leg', 'Left Face', 'Left Leg', 'Left Face']",
5,"[0, 0]",None,0,1,1,1,,,None,None,"[0, 0, 0]",1137.571572799934,1139.5716058998369,1137.571572799934,1138.5715778998565,1138.5549371999223,1139.554930599872,"[0, 0, 0]",1,1137.571572799934,1139.5716058998369,,,,,,,,,,,,,,,,,,,1,M,1,41,r,,49,49,2022_Jul_01_1528,2020.2.10,distractmap1,59.98818230793519,"['Left Leg', 'Left Face', 'Left Leg', 'Left Face']",
3,"[0.2, 0.2]",0,0,2,2,2,,,None,None,"[0, 0, 0]",1139.588281000033,1141.5882663999218,1139.588281000033,1140.5882708998397,1140.57159759989,1141.5716258999892,"[0, 0, 0]",1,1139.588281000033,1141.5882663999218,,,,,,,,,,,,,,,,,,,1,M,1,41,r,,49,49,2022_Jul_01_1528,2020.2.10,distractmap1,59.98818230793519,"['Left Leg', 'Left Face', 'Left Leg', 'Left Face']",
5,"[0, 0]",1,0,3,3,3,,,None,None,"[0, 0, 0]",1141.6049309999216,1143.604965499835,1141.6049309999216,1142.6049510999583,1142.5882869998459,1143.5883069999982,"[0, 0, 0]",0,1141.6049309999216,1143.604965499835,,,,,,,,,,,,,,,,,,,1,M,1,41,r,,49,49,2022_Jul_01_1528,2020.2.10,distractmap1,59.98818230793519,"['Left Leg', 'Left Face', 'Left Leg', 'Left Face']",
2,"[0, 0.2]",0,0,4,4,4,,,None,None,"[0, 0, 0]",1143.6715740999207,None,1143.6715740999207,1144.6716368999332,1144.6549756999593,None,"[0, 0, 0]",1,1143.6715740999207,None,,,,,,,,,,,,,,,,,,,1,M,1,41,r,,49,49,2022_Jul_01_1528,2020.2.10,distractmap1,59.98818230793519,"['Left Leg', 'Left Face', 'Left Leg', 'Left Face']",
8,"[0, -0.2]",0,0,5,5,5,,,None,None,"[0, 0, 0]",1145.6383028000128,1147.638340299949,1145.6383028000128,1146.6383273999672,1146.6216531998944,1147.6216611999553,"[0, 0, 0]",1,1145.6383028000128,1147.638340299949,,,,,,,,,,,,,,,,,,,1,M,1,41,r,,49,49,2022_Jul_01_1528,2020.2.10,distractmap1,59.98818230793519,"['Left Leg', 'Left Face', 'Left Leg', 'Left Face']",
4,"[-0.2, 0]",0,0,6,6,6,,,None,None,"[0, 0, 0]",1147.6550157999154,1149.6550455000252,1147.6550157999154,1148.655035899952,1148.6383439998608,1149.6383473998867,"[0, 0, 0]",1,1147.6550157999154,1149.6550455000252,,,,,,,,,,,,,,,,,,,1,M,1,41,r,,49,49,2022_Jul_01_1528,2020.2.10,distractmap1,59.98818230793519,"['Left Leg', 'Left Face', 'Left Leg', 'Left Face']",
8,"[0, -0.2]",1,0,7,7,7,,,None,None,"[0, 0, 0]",1149.6716877999716,1151.6717135999352,1149.6716877999716,1150.6716899999883,1150.655048100045,1151.655058400007,"[0, 0, 0]",1,1149.6716877999716,1151.6717135999352,,,,,,,,,,,,,,,,,,,1,M,1,41,r,,49,49,2022_Jul_01_1528,2020.2.10,distractmap1,59.98818230793519,"['Left Leg', 'Left Face', 'Left Leg', 'Left Face']",
7,"[-0.2, -0.2]",0,0,8,8,8,,,None,None,"[0, 0, 0]",1151.6883888999,1153.6883859999944,1151.6883888999,1152.6883878998924,1152.6717228998896,1153.67173299985,"[0, 0, 0]",1,1151.6883888999,1153.6883859999944,,,,,,,,,,,,,,,,,,,1,M,1,41,r,,49,49,2022_Jul_01_1528,2020.2.10,distractmap1,59.98818230793519,"['Left Leg', 'Left Face', 'Left Leg', 'Left Face']",
8,"[0, -0.2]",1,0,9,9,9,,,None,None,"[0, 0, 0]",1153.7050763999578,1155.705090999836,1153.7050763999578,1154.7051066998392,1154.6883753000293,1155.6883997998666,"[0, 0, 0]",0,1153.7050763999578,1155.705090999836,,,,,,,,,,,,,,,,,,,1,M,1,41,r,,49,49,2022_Jul_01_1528,2020.2.10,distractmap1,59.98818230793519,"['Left Leg', 'Left Face', 'Left Leg', 'Left Face']",
,,,,,,,,,,,,,,,,,,,,,,1155.7384037000593,None,,,,,,,,,,,,,,,,,1,M,1,41,r,,49,49,2022_Jul_01_1528,2020.2.10,distractmap1,59.98818230793519,"['Left Leg', 'Left Face', 'Left Leg', 'Left Face']",
,,,,,,,,,,,,,,,,,,,,,,,,,,,,,,,,,,33.395061728395056,1112.2909328399692,,,,,1,M,1,41,r,,49,49,2022_Jul_01_1528,2020.2.10,distractmap1,59.98818230793519,"['Left Leg', 'Left Face', 'Left Leg', 'Left Face']",
2,"[0, 0.2]",None,0,0,0,0,1168.988489500014,None,None,None,"[0, 0, 0]",1175.8052995998878,None,1175.8052995998878,1176.8053061000537,1176.7885916999076,1177.7885952000506,"[0, 0, 0]",1,1175.8052995998878,None,,,,,,,,,,,,,,,0.013055060058832169,5.008560959948227,,,1,M,1,41,r,,49,49,2022_Jul_01_1528,2020.2.10,distractmap1,59.98818230793519,"['Left Leg', 'Left Face', 'Left Leg', 'Left Face']",
2,"[0, 0.2]",None,0,1,1,1,,,None,None,"[0, 0, 0]",1177.8053170000203,1179.8052794998512,1177.8053170000203,1178.805306599941,1178.788602199871,1179.7886178998742,"[0, 0, 0]",1,1177.8053170000203,1179.8052794998512,,,,,,,,,,,,,,,,,,,1,M,1,41,r,,49,49,2022_Jul_01_1528,2020.2.10,distractmap1,59.98818230793519,"['Left Leg', 'Left Face', 'Left Leg', 'Left Face']",
2,"[0, 0.2]",1,0,2,2,2,,,None,None,"[0, 0, 0]",1179.8219787999988,1181.8219838999212,1179.8219787999988,1180.8219919998664,1180.8052953998558,1181.8053172000218,"[0, 0, 0]",1,1179.8219787999988,1181.8219838999212,,,,,,,,,,,,,,,,,,,1,M,1,41,r,,49,49,2022_Jul_01_1528,2020.2.10,distractmap1,59.98818230793519,"['Left Leg', 'Left Face', 'Left Leg', 'Left Face']",
8,"[0, -0.2]",0,0,3,3,3,,,None,None,"[0, 0, 0]",1181.8386496000458,1183.8386625000276,1181.8386496000458,1182.8386468999088,1182.8219938999973,1183.822010600008,"[0, 0, 0]",1,1181.8386496000458,1183.8386625000276,,,,,,,,,,,,,,,,,,,1,M,1,41,r,,49,49,2022_Jul_01_1528,2020.2.10,distractmap1,59.98818230793519,"['Left Leg', 'Left Face', 'Left Leg', 'Left Face']",
2,"[0, 0.2]",1,0,4,4,4,,,None,None,"[0, 0, 0]",1183.9057890998665,None,1183.9057890998665,1184.9053294998594,1184.8887181000318,None,"[0, 0, 0]",0,1183.9057890998665,None,,,,,,,,,,,,,,,,,,,1,M,1,41,r,,49,49,2022_Jul_01_1528,2020.2.10,distractmap1,59.98818230793519,"['Left Leg', 'Left Face', 'Left Leg', 'Left Face']",
5,"[0, 0]",0,0,5,5,5,,,None,None,"[0, 0, 0]",1185.872015299974,1187.8720269999467,1185.872015299974,1186.8720207998995,1186.8553458999377,1187.855371200014,"[0, 0, 0]",1,1185.872015299974,1187.8720269999467,,,,,,,,,,,,,,,,,,,1,M,1,41,r,,49,49,2022_Jul_01_1528,2020.2.10,distractmap1,59.98818230793519,"['Left Leg', 'Left Face', 'Left Leg', 'Left Face']",
1,"[-0.2, 0.2]",0,0,6,6,6,,,None,None,"[0, 0, 0]",1187.8886889000423,1189.8887034999207,1187.8886889000423,1188.888706999831,1188.8720436999574,1189.871951899957,"[0, 0, 0]",1,1187.8886889000423,1189.8887034999207,,,,,,,,,,,,,,,,,,,1,M,1,41,r,,49,49,2022_Jul_01_1528,2020.2.10,distractmap1,59.98818230793519,"['Left Leg', 'Left Face', 'Left Leg', 'Left Face']",
1,"[-0.2, 0.2]",0,0,7,7,7,,,None,None,"[0, 0, 0]",1189.9053722999524,1191.905395800015,1189.9053722999524,1190.9053891999647,1190.888727699872,1191.8887242998462,"[0, 0, 0]",1,1189.9053722999524,1191.905395800015,,,,,,,,,,,,,,,,,,,1,M,1,41,r,,49,49,2022_Jul_01_1528,2020.2.10,distractmap1,59.98818230793519,"['Left Leg', 'Left Face', 'Left Leg', 'Left Face']",
6,"[0.2, 0]",0,0,8,8,8,,,None,None,"[0, 0, 0]",1191.922057799995,1193.92209859984,1191.922057799995,1192.9220855999738,1192.9054062999785,1193.9054091998842,"[0, 0, 0]",1,1191.922057799995,1193.92209859984,,,,,,,,,,,,,,,,,,,1,M,1,41,r,,49,49,2022_Jul_01_1528,2020.2.10,distractmap1,59.98818230793519,"['Left Leg', 'Left Face', 'Left Leg', 'Left Face']",
1,"[-0.2, 0.2]",1,0,9,9,9,,,None,None,"[0, 0, 0]",1193.9387546998914,1195.938759899931,1193.9387546998914,1194.9386686000507,1194.9220940000378,1195.922063200036,"[0, 0, 0]",1,1193.9387546998914,1195.938759899931,,,,,,,,,,,,,,,,,,,1,M,1,41,r,,49,49,2022_Jul_01_1528,2020.2.10,distractmap1,59.98818230793519,"['Left Leg', 'Left Face', 'Left Leg', 'Left Face']",
,,,,,,,,,,,,,,,,,,,,,,1195.9720928999595,None,,,,,,,,,,,,,,,,,1,M,1,41,r,,49,49,2022_Jul_01_1528,2020.2.10,distractmap1,59.98818230793519,"['Left Leg', 'Left Face', 'Left Leg', 'Left Face']",
,,,,,,,,,,,,,,,,,,,,,,,,,,,,,,,,,,23.827160493827158,1152.6921378397383,,,,,1,M,1,41,r,,49,49,2022_Jul_01_1528,2020.2.10,distractmap1,59.98818230793519,"['Left Leg', 'Left Face', 'Left Leg', 'Left Face']",
3,"[0.2, 0.2]",None,0,0,0,0,1211.9056379999965,None,None,None,"[0, 0, 0]",1216.0389495999552,None,1216.0389495999552,1217.0389660999645,1217.022288999986,1218.022320299875,"[0, 0, 0]",1,1216.0389495999552,None,,,,,,,,,,,,,,,0.01229086029343307,5.00704686017707,,,1,M,1,41,r,,49,49,2022_Jul_01_1528,2020.2.10,distractmap1,59.98818230793519,"['Left Leg', 'Left Face', 'Left Leg', 'Left Face']",
3,"[0.2, 0.2]",None,0,1,1,1,,,None,None,"[0, 0, 0]",1218.0389642999507,1220.0389741999097,1218.0389642999507,1219.0389890000224,1219.022315399954,1220.022339799907,"[0, 0, 0]",1,1218.0389642999507,1220.0389741999097,,,,,,,,,,,,,,,,,,,1,M,1,41,r,,49,49,2022_Jul_01_1528,2020.2.10,distractmap1,59.98818230793519,"['Left Leg', 'Left Face', 'Left Leg', 'Left Face']",
5,"[0, 0]",0,0,2,2,2,,,None,None,"[0, 0, 0]",1220.055643999949,1222.0556639998686,1220.055643999949,1221.0556489999872,1221.0389945998322,1222.038994899951,"[0, 0, 0]",1,1220.055643999949,1222.0556639998686,,,,,,,,,,,,,,,,,,,1,M,1,41,r,,49,49,2022_Jul_01_1528,2020.2.10,distractmap1,59.98818230793519,"['Left Leg', 'Left Face', 'Left Leg', 'Left Face']",
1,"[-0.2, 0.2]",0,0,3,3,3,,,None,None,"[0, 0, 0]",1222.0723255998455,1224.072348699905,1222.0723255998455,1223.0723371999338,1223.0556685000192,1224.0556743000634,"[0, 0, 0]",1,1222.0723255998455,1224.072348699905,,,,,,,,,,,,,,,,,,,1,M,1,41,r,,49,49,2022_Jul_01_1528,2020.2.10,distractmap1,59.98818230793519,"['Left Leg', 'Left Face', 'Left Leg', 'Left Face']",
5,"[0, 0]",1,0,4,4,4,,,None,None,"[0, 0, 0]",1224.1394543000497,None,1224.1394543000497,1225.1390163998585,1225.1223903000355,None,"[0, 0, 0]",1,1224.1394543000497,None,,,,,,,,,,,,,,,,,,,1,M,1,41,r,,49,49,2022_Jul_01_1528,2020.2.10,distractmap1,59.98818230793519,"['Left Leg', 'Left Face', 'Left Leg', 'Left Face']",
8,"[0, -0.2]",0,0,5,5,5,,,None,None,"[0, 0, 0]",1226.105694100028,1228.105706699891,1226.105694100028,1227.1057054998819,1227.08905770001,1228.089062599931,"[0, 0, 0]",1,1226.105694100028,1228.105706699891,,,,,,,,,,,,,,,,,,,1,M,1,41,r,,49,49,2022_Jul_01_1528,2020.2.10,distractmap1,59.98818230793519,"['Left Leg', 'Left Face', 'Left Leg', 'Left Face']",
5,"[0, 0]",1,0,6,6,6,,,None,None,"[0, 0, 0]",1228.122393900063,1230.12240880006,1228.122393900063,1229.1223903000355,1229.1057339999825,1230.105736499885,"[0, 0, 0]",1,1228.122393900063,1230.12240880006,,,,,,,,,,,,,,,,,,,1,M,1,41,r,,49,49,2022_Jul_01_1528,2020.2.10,distractmap1,59.98818230793519,"['Left Leg', 'Left Face', 'Left Leg', 'Left Face']",
7,"[-0.2, -0.2]",0,0,7,7,7,,,None,None,"[0, 0, 0]",1230.1390948998742,1232.139163200045,1230.1390948998742,1231.13911930006,1231.12241489999,1232.1224246998318,"[0, 0, 0]",1,1230.1390948998742,1232.139163200045,,,,,,,,,,,,,,,,,,,1,M,1,41,r,,49,49,2022_Jul_01_1528,2020.2.10,distractmap1,59.98818230793519,"['Left Leg', 'Left Face', 'Left Leg', 'Left Face']",
5,"[0, 0]",1,0,8,8,8,,,None,None,"[0, 0, 0]",1232.1557517999317,1234.1558048999868,1232.1557517999317,1233.1557686000597,1233.1391049998347,1234.139129600022,"[0, 0, 0]",1,1232.1557517999317,1234.1558048999868,,,,,,,,,,,,,,,,,,,1,M,1,41,r,,49,49,2022_Jul_01_1528,2020.2.10,distractmap1,59.98818230793519,"['Left Leg', 'Left Face', 'Left Leg', 'Left Face']",
7,"[-0.2, -0.2]",1,0,9,9,9,,,None,None,"[0, 0, 0]",1234.172445999924,1236.1724483999424,1234.172445999924,1235.1724469999317,1235.1557789000217,1236.1557823000476,"[0, 0, 0]",1,1234.172445999924,1236.1724483999424,,,,,,,,,,,,,,,,,,,1,M,1,41,r,,49,49,2022_Jul_01_1528,2020.2.10,distractmap1,59.98818230793519,"['Left Leg', 'Left Face', 'Left Leg', 'Left Face']",
,,,,,,,,,,,,,,,,,,,,,,1236.2057953998446,None,,,,,,,,,,,,,,,,,1,M,1,41,r,,49,49,2022_Jul_01_1528,2020.2.10,distractmap1,59.98818230793519,"['Left Leg', 'Left Face', 'Left Leg', 'Left Face']",
,,,,,,,,,,,,,,,,,,,,,,,,,,,,,,,,,,20.246913580246915,1191.8426657398231,,,,,1,M,1,41,r,,49,49,2022_Jul_01_1528,2020.2.10,distractmap1,59.98818230793519,"['Left Leg', 'Left Face', 'Left Leg', 'Left Face']",
,,,,,,,1271.2227719998918,None,,,,,,,,,,,,,,,,,,,,,,,,,,35.55555555555556,1232.4571842397563,0.01202556025236845,5.006538460263982,1251.2225871998817,None,1,M,1,41,r,,49,49,2022_Jul_01_1528,2020.2.10,distractmap1,59.98818230793519,"['Left Leg', 'Left Face', 'Left Leg', 'Left Face']",
,,,,,,,1306.2397568998858,None,,,,,,,,,,,,,,,,,,,,,,,,,,35.123456790123456,1264.7720148400404,0.014529060339555144,5.011531360214576,1286.239579499932,None,1,M,1,41,r,,49,49,2022_Jul_01_1528,2020.2.10,distractmap1,59.98818230793519,"['Left Leg', 'Left Face', 'Left Leg', 'Left Face']",
,,,,,,,1341.2567274998873,None,,,,,,,,,,,,,,,,,,,,,,,,,,26.234567901234566,1297.8912919398863,0.016642360016703606,5.015711460029706,1321.2565460000187,None,1,M,1,41,r,,49,49,2022_Jul_01_1528,2020.2.10,distractmap1,59.98818230793519,"['Left Leg', 'Left Face', 'Left Leg', 'Left Face']",
6,"[0.2, 0]",None,0,0,0,0,1673.2597831999883,None,None,None,"[0, 0, 0]",1679.7930121999234,None,1679.7930121999234,1680.793104399927,1680.776448099874,1681.776461099973,"[0, 0, 0]",1,1679.7930121999234,None,,,,,,1431.3411337998696,1431.3411337998696,None,space,220.65872449986637,1431.3411337998696,None,,,0.014281760202720761,5.011043360223994,,,1,M,1,41,r,,49,49,2022_Jul_01_1528,2020.2.10,distractmap1,59.98818230793519,"['Left Leg', 'Left Face', 'Left Leg', 'Left Face']",
1,"[-0.2, 0.2]",None,0,1,1,1,,,None,None,"[0, 0, 0]",1681.7931186999194,1683.7931347000413,1681.7931186999194,1682.7931388998404,1682.7764846999198,1683.7764838000294,"[0, 0, 0]",1,1681.7931186999194,1683.7931347000413,,,,,,,,,,,,,,,,,,,1,M,1,41,r,,49,49,2022_Jul_01_1528,2020.2.10,distractmap1,59.98818230793519,"['Left Leg', 'Left Face', 'Left Leg', 'Left Face']",
6,"[0.2, 0]",1,0,2,2,2,,,None,None,"[0, 0, 0]",1683.8098106000107,1685.8098269000184,1683.8098106000107,1684.8098104000092,1684.7931420998648,1685.7931661000475,"[0, 0, 0]",1,1683.8098106000107,1685.8098269000184,,,,,,,,,,,,,,,,,,,1,M,1,41,r,,49,49,2022_Jul_01_1528,2020.2.10,distractmap1,59.98818230793519,"['Left Leg', 'Left Face', 'Left Leg', 'Left Face']",
4,"[-0.2, 0]",0,0,3,3,3,,,None,None,"[0, 0, 0]",1685.8264919000212,1687.8265336998738,1685.8264919000212,1686.8265151998494,1686.809828999918,1687.8098325999454,"[0, 0, 0]",1,1685.8264919000212,1687.8265336998738,,,,,,,,,,,,,,,,,,,1,M,1,41,r,,49,49,2022_Jul_01_1528,2020.2.10,distractmap1,59.98818230793519,"['Left Leg', 'Left Face', 'Left Leg', 'Left Face']",
1,"[-0.2, 0.2]",0,0,4,4,4,,,None,None,"[0, 0, 0]",1687.8932431999128,None,1687.8932431999128,1688.8931919999886,1688.8765654000454,None,"[0, 0, 0]",1,1687.8932431999128,None,,,,,,,,,,,,,,,,,,,1,M,1,41,r,,49,49,2022_Jul_01_1528,2020.2.10,distractmap1,59.98818230793519,"['Left Leg', 'Left Face', 'Left Leg', 'Left Face']",
8,"[0, -0.2]",0,0,5,5,5,,,None,None,"[0, 0, 0]",1689.8598587999586,1691.8598788999952,1689.8598587999586,1690.8598636998795,1690.843210999854,1691.8432084999513,"[0, 0, 0]",1,1689.8598587999586,1691.8598788999952,,,,,,,,,,,,,,,,,,,1,M,1,41,r,,49,49,2022_Jul_01_1528,2020.2.10,distractmap1,59.98818230793519,"['Left Leg', 'Left Face', 'Left Leg', 'Left Face']",
1,"[-0.2, 0.2]",1,0,6,6,6,,,None,None,"[0, 0, 0]",1691.8765614998993,1693.8766185999848,1691.8765614998993,1692.876632399857,1692.8599467000458,1693.859886799939,"[0, 0, 0]",1,1691.8765614998993,1693.8766185999848,,,,,,,,,,,,,,,,,,,1,M,1,41,r,,49,49,2022_Jul_01_1528,2020.2.10,distractmap1,59.98818230793519,"['Left Leg', 'Left Face', 'Left Leg', 'Left Face']",
8,"[0, -0.2]",1,0,7,7,7,,,None,None,"[0, 0, 0]",1693.893223399995,1695.8932435000315,1693.893223399995,1694.8932475999463,1694.8765658999328,1695.8765801000409,"[0, 0, 0]",1,1693.893223399995,1695.8932435000315,,,,,,,,,,,,,,,,,,,1,M,1,41,r,,49,49,2022_Jul_01_1528,2020.2.10,distractmap1,59.98818230793519,"['Left Leg', 'Left Face', 'Left Leg', 'Left Face']",
1,"[-0.2, 0.2]",1,0,8,8,8,,,None,None,"[0, 0, 0]",1695.9099171999842,1697.9099457999691,1695.9099171999842,1696.909915199969,1696.8932488998398,1697.8932666999754,"[0, 0, 0]",1,1695.9099171999842,1697.9099457999691,,,,,,,,,,,,,,,,,,,1,M,1,41,r,,49,49,2022_Jul_01_1528,2020.2.10,distractmap1,59.98818230793519,"['Left Leg', 'Left Face', 'Left Leg', 'Left Face']",
6,"[0.2, 0]",0,0,9,9,9,,,None,None,"[0, 0, 0]",1697.9265800998546,1699.9266235998366,1697.9265800998546,1698.926608899841,1698.9099482998718,1699.9099954999983,"[0, 0, 0]",1,1697.9265800998546,1699.9266235998366,,,,,,,,,,,,,,,,,,,1,M,1,41,r,,49,49,2022_Jul_01_1528,2020.2.10,distractmap1,59.98818230793519,"['Left Leg', 'Left Face', 'Left Leg', 'Left Face']",
,,,,,,,,,,,,,,,,,,,,,,1699.9599476000294,None,,,,,,,,,,,,,,,,,1,M,1,41,r,,49,49,2022_Jul_01_1528,2020.2.10,distractmap1,59.98818230793519,"['Left Leg', 'Left Face', 'Left Leg', 'Left Face']",
,,,,,,,,,,,,,,,,,,,,,,,,,,,,,,,,,,34.01234567901235,1660.7797714397311,,,,,1,M,1,41,r,,49,49,2022_Jul_01_1528,2020.2.10,distractmap1,59.98818230793519,"['Left Leg', 'Left Face', 'Left Leg', 'Left Face']",
7,"[-0.2, -0.2]",None,0,0,0,0,1717.860049400013,None,None,None,"[0, 0, 0]",1720.0268087000586,None,1720.0268087000586,1721.0268025998957,1721.0101520000026,1722.0101858999114,"[0, 0, 0]",1,1720.0268087000586,None,,,,,,,,,,,,,,,0.012481160229071975,5.007251460105181,,,1,M,1,41,r,,49,49,2022_Jul_01_1528,2020.2.10,distractmap1,59.98818230793519,"['Left Leg', 'Left Face', 'Left Leg', 'Left Face']",
7,"[-0.2, -0.2]",None,0,1,1,1,,,None,None,"[0, 0, 0]",1722.0268121999688,1724.0268276999705,1722.0268121999688,1723.0268172998913,1723.0101717999205,1724.010156800039,"[0, 0, 0]",1,1722.0268121999688,1724.0268276999705,,,,,,,,,,,,,,,,,,,1,M,1,41,r,,49,49,2022_Jul_01_1528,2020.2.10,distractmap1,59.98818230793519,"['Left Leg', 'Left Face', 'Left Leg', 'Left Face']",
7,"[-0.2, -0.2]",1,0,2,2,2,,,None,None,"[0, 0, 0]",1724.043519699946,1726.0435134998988,1724.043519699946,1725.0435607000254,1725.026916399831,1726.026848099893,"[0, 0, 0]",1,1724.043519699946,1726.0435134998988,,,,,,,,,,,,,,,,,,,1,M,1,41,r,,49,49,2022_Jul_01_1528,2020.2.10,distractmap1,59.98818230793519,"['Left Leg', 'Left Face', 'Left Leg', 'Left Face']",
5,"[0, 0]",0,0,3,3,3,,,None,None,"[0, 0, 0]",1726.0601822999306,1728.0602132000495,1726.0601822999306,1727.0601879998576,1727.043542200001,1728.0435476999264,"[0, 0, 0]",1,1726.0601822999306,1728.0602132000495,,,,,,,,,,,,,,,,,,,1,M,1,41,r,,49,49,2022_Jul_01_1528,2020.2.10,distractmap1,59.98818230793519,"['Left Leg', 'Left Face', 'Left Leg', 'Left Face']",
1,"[-0.2, 0.2]",0,0,4,4,4,,,None,None,"[0, 0, 0]",1728.127246899996,None,1728.127246899996,1729.1268726000562,1729.110234899912,None,"[0, 0, 0]",1,1728.127246899996,None,,,,,,,,,,,,,,,,,,,1,M,1,41,r,,49,49,2022_Jul_01_1528,2020.2.10,distractmap1,59.98818230793519,"['Left Leg', 'Left Face', 'Left Leg', 'Left Face']",
6,"[0.2, 0]",0,0,5,5,5,,,None,None,"[0, 0, 0]",1730.0935482999776,1732.0935933999717,1730.0935482999776,1731.0935643999837,1731.07692459994,1732.0769066000357,"[0, 0, 0]",1,1730.0935482999776,1732.0935933999717,,,,,,,,,,,,,,,,,,,1,M,1,41,r,,49,49,2022_Jul_01_1528,2020.2.10,distractmap1,59.98818230793519,"['Left Leg', 'Left Face', 'Left Leg', 'Left Face']",
1,"[-0.2, 0.2]",1,0,6,6,6,,,None,None,"[0, 0, 0]",1732.1102473998908,1734.1102465000004,1732.1102473998908,1733.1102479998954,1733.0935982000083,1734.0935950998683,"[0, 0, 0]",1,1732.1102473998908,1734.1102465000004,,,,,,,,,,,,,,,,,,,1,M,1,41,r,,49,49,2022_Jul_01_1528,2020.2.10,distractmap1,59.98818230793519,"['Left Leg', 'Left Face', 'Left Leg', 'Left Face']",
7,"[-0.2, -0.2]",0,0,7,7,7,,,None,None,"[0, 0, 0]",1734.1269252998754,1736.1269465999212,1734.1269252998754,1735.1269069998525,1735.110277999891,1736.1102723998483,"[0, 0, 0]",1,1734.1269252998754,1736.1269465999212,,,,,,,,,,,,,,,,,,,1,M,1,41,r,,49,49,2022_Jul_01_1528,2020.2.10,distractmap1,59.98818230793519,"['Left Leg', 'Left Face', 'Left Leg', 'Left Face']",
6,"[0.2, 0]",0,0,8,8,8,,,None,None,"[0, 0, 0]",1736.1436812998727,1738.1436385998968,1736.1436812998727,1737.143623400014,1737.1269568998832,1738.1269561999943,"[0, 0, 0]",1,1736.1436812998727,1738.1436385998968,,,,,,,,,,,,,,,,,,,1,M,1,41,r,,49,49,2022_Jul_01_1528,2020.2.10,distractmap1,59.98818230793519,"['Left Leg', 'Left Face', 'Left Leg', 'Left Face']",
7,"[-0.2, -0.2]",1,0,9,9,9,,,None,None,"[0, 0, 0]",1738.16029229993,1740.1603071000427,1738.16029229993,1739.1603003998753,1739.1436530000065,1740.1436654999852,"[0, 0, 0]",1,1738.16029229993,1740.1603071000427,,,,,,,,,,,,,,,,,,,1,M,1,41,r,,49,49,2022_Jul_01_1528,2020.2.10,distractmap1,59.98818230793519,"['Left Leg', 'Left Face', 'Left Leg', 'Left Face']",
,,,,,,,,,,,,,,,,,,,,,,1740.1936603998765,None,,,,,,,,,,,,,,,,,1,M,1,41,r,,49,49,2022_Jul_01_1528,2020.2.10,distractmap1,59.98818230793519,"['Left Leg', 'Left Face', 'Left Leg', 'Left Face']",
,,,,,,,,,,,,,,,,,,,,,,,,,,,,,,,,,,23.271604938271608,1699.213146740105,,,,,1,M,1,41,r,,49,49,2022_Jul_01_1528,2020.2.10,distractmap1,59.98818230793519,"['Left Leg', 'Left Face', 'Left Leg', 'Left Face']",
4,"[-0.2, 0]",None,0,0,0,0,1758.1608053999953,None,None,None,"[0, 0, 0]",1760.2605012999848,None,1760.2605012999848,1761.2605083999224,1761.2438453000505,1762.2438443000428,"[0, 0, 0]",1,1760.2605012999848,None,,,,,,,,,,,,,,,0.012732259929180145,5.007902059936896,,,1,M,1,41,r,,49,49,2022_Jul_01_1528,2020.2.10,distractmap1,59.98818230793519,"['Left Leg', 'Left Face', 'Left Leg', 'Left Face']",
5,"[0, 0]",None,0,1,1,1,,,None,None,"[0, 0, 0]",1762.2605268000625,1764.2605343000032,1762.2605268000625,1763.2605222999118,1763.2438453000505,1764.2438747999258,"[0, 0, 0]",1,1762.2605268000625,1764.2605343000032,,,,,,,,,,,,,,,,,,,1,M,1,41,r,,49,49,2022_Jul_01_1528,2020.2.10,distractmap1,59.98818230793519,"['Left Leg', 'Left Face', 'Left Leg', 'Left Face']",
6,"[0.2, 0]",0,0,2,2,2,,,None,None,"[0, 0, 0]",1764.2771941998508,1766.277228999883,1764.2771941998508,1765.277203100035,1765.2605550000444,1766.2605460998602,"[0, 0, 0]",1,1764.2771941998508,1766.277228999883,,,,,,,,,,,,,,,,,,,1,M,1,41,r,,49,49,2022_Jul_01_1528,2020.2.10,distractmap1,59.98818230793519,"['Left Leg', 'Left Face', 'Left Leg', 'Left Face']",
1,"[-0.2, 0.2]",0,0,3,3,3,,,None,None,"[0, 0, 0]",1766.2938824000303,1768.2939036998432,1766.2938824000303,1767.293899500044,1767.2772363999393,1768.2772252999712,"[0, 0, 0]",1,1766.2938824000303,1768.2939036998432,,,,,,,,,,,,,,,,,,,1,M,1,41,r,,49,49,2022_Jul_01_1528,2020.2.10,distractmap1,59.98818230793519,"['Left Leg', 'Left Face', 'Left Leg', 'Left Face']",
6,"[0.2, 0]",1,0,4,4,4,,,None,None,"[0, 0, 0]",1768.361026099883,None,1768.361026099883,1769.3605770999566,1769.34391950001,None,"[0, 0, 0]",1,1768.361026099883,None,,,,,,,,,,,,,,,,,,,1,M,1,41,r,,49,49,2022_Jul_01_1528,2020.2.10,distractmap1,59.98818230793519,"['Left Leg', 'Left Face', 'Left Leg', 'Left Face']",
1,"[-0.2, 0.2]",1,0,5,5,5,,,None,None,"[0, 0, 0]",1770.3272611999419,1772.327266599983,1770.3272611999419,1771.3271945999004,1771.3105917000212,1772.3106275999453,"[0, 0, 0]",1,1770.3272611999419,1772.327266599983,,,,,,,,,,,,,,,,,,,1,M,1,41,r,,49,49,2022_Jul_01_1528,2020.2.10,distractmap1,59.98818230793519,"['Left Leg', 'Left Face', 'Left Leg', 'Left Face']",
2,"[0, 0.2]",0,0,6,6,6,,,None,None,"[0, 0, 0]",1772.3439444999676,1774.343944299966,1772.3439444999676,1773.3439678000286,1773.3272915999405,1774.3272877999116,"[0, 0, 0]",1,1772.3439444999676,1774.343944299966,,,,,,,,,,,,,,,,,,,1,M,1,41,r,,49,49,2022_Jul_01_1528,2020.2.10,distractmap1,59.98818230793519,"['Left Leg', 'Left Face', 'Left Leg', 'Left Face']",
3,"[0.2, 0.2]",0,0,7,7,7,,,None,None,"[0, 0, 0]",1774.3606467000209,1776.36063869996,1774.3606467000209,1775.360653599957,1775.3439553999342,1776.3439696000423,"[0, 0, 0]",1,1774.3606467000209,1776.36063869996,,,,,,,,,,,,,,,,,,,1,M,1,41,r,,49,49,2022_Jul_01_1528,2020.2.10,distractmap1,59.98818230793519,"['Left Leg', 'Left Face', 'Left Leg', 'Left Face']",
6,"[0.2, 0]",0,0,8,8,8,,,None,None,"[0, 0, 0]",1776.3773155000526,1778.377320599975,1776.3773155000526,1777.3773334999569,1777.3606795999222,1778.360653199954,"[0, 0, 0]",1,1776.3773155000526,1778.377320599975,,,,,,,,,,,,,,,,,,,1,M,1,41,r,,49,49,2022_Jul_01_1528,2020.2.10,distractmap1,59.98818230793519,"['Left Leg', 'Left Face', 'Left Leg', 'Left Face']",
3,"[0.2, 0.2]",1,0,9,9,9,,,None,None,"[0, 0, 0]",1778.393998199841,1780.3939992999658,1778.393998199841,1779.3939892000053,1779.3773504998535,1780.3773666999768,"[0, 0, 0]",1,1778.393998199841,1780.3939992999658,,,,,,,,,,,,,,,,,,,1,M,1,41,r,,49,49,2022_Jul_01_1528,2020.2.10,distractmap1,59.98818230793519,"['Left Leg', 'Left Face', 'Left Leg', 'Left Face']",
,,,,,,,,,,,,,,,,,,,,,,1780.4273401000537,None,,,,,,,,,,,,,,,,,1,M,1,41,r,,49,49,2022_Jul_01_1528,2020.2.10,distractmap1,59.98818230793519,"['Left Leg', 'Left Face', 'Left Leg', 'Left Face']",
,,,,,,,,,,,,,,,,,,,,,,,,,,,,,,,,,,20.679012345679013,1742.2967889399733,,,,,1,M,1,41,r,,49,49,2022_Jul_01_1528,2020.2.10,distractmap1,59.98818230793519,"['Left Leg', 'Left Face', 'Left Leg', 'Left Face']",
,,,,,,,1815.4442991998512,None,,,,,,,,,,,,,,,,,,,,,,,,,,28.641975308641975,1776.9953906398732,0.012839460046961904,5.008308460237458,1795.4441302998457,None,1,M,1,41,r,,49,49,2022_Jul_01_1528,2020.2.10,distractmap1,59.98818230793519,"['Left Leg', 'Left Face', 'Left Leg', 'Left Face']",
,,,,,,,1850.4612886998802,None,,,,,,,,,,,,,,,,,,,,,,,,,,34.074074074074076,1809.5602200399153,0.014531960245221853,5.011346560204402,1830.461129100062,None,1,M,1,41,r,,49,49,2022_Jul_01_1528,2020.2.10,distractmap1,59.98818230793519,"['Left Leg', 'Left Face', 'Left Leg', 'Left Face']",
,,,,,,,1885.4782890998758,None,,,,,,,,,,,,,,,,,,,,,,,,,,31.234567901234566,1846.279387439834,0.016682760091498494,5.015823859954253,1865.4781057999935,None,1,M,1,41,r,,49,49,2022_Jul_01_1528,2020.2.10,distractmap1,59.98818230793519,"['Left Leg', 'Left Face', 'Left Leg', 'Left Face']",
2,"[0, 0.2]",None,0,0,0,0,1902.761347600026,None,None,None,"[0, 0, 0]",1905.5451415998396,None,1905.5451415998396,1906.545144099975,1906.5284744999371,1907.5285046999343,"[0, 0, 0]",1,1905.5451415998396,None,,,,,,,,,,,,,,,0.014509560074657202,5.011566860135645,,,1,M,1,41,r,,49,49,2022_Jul_01_1528,2020.2.10,distractmap1,59.98818230793519,"['Left Leg', 'Left Face', 'Left Leg', 'Left Face']",
5,"[0, 0]",None,0,1,1,1,,,None,None,"[0, 0, 0]",1907.5451505000237,1909.5451716999523,1907.5451505000237,1908.5451511000283,1908.528526699869,1909.5285322000273,"[0, 0, 0]",1,1907.5451505000237,1909.5451716999523,,,,,,,,,,,,,,,,,,,1,M,1,41,r,,49,49,2022_Jul_01_1528,2020.2.10,distractmap1,59.98818230793519,"['Left Leg', 'Left Face', 'Left Leg', 'Left Face']",
6,"[0.2, 0]",0,0,2,2,2,,,None,None,"[0, 0, 0]",1909.5618522998411,1911.561854899861,1909.5618522998411,1910.561831699917,1910.5447004998568,1911.5451815999113,"[0, 0, 0]",1,1909.5618522998411,1911.561854899861,,,,,,,,,,,,,,,,,,,1,M,1,41,r,,49,49,2022_Jul_01_1528,2020.2.10,distractmap1,59.98818230793519,"['Left Leg', 'Left Face', 'Left Leg', 'Left Face']",
1,"[-0.2, 0.2]",0,0,3,3,3,,,None,None,"[0, 0, 0]",1911.5785288999323,1913.5785564999096,1911.5785288999323,1912.5784185999073,1912.561866399832,1913.561864099931,"[0, 0, 0]",1,1911.5785288999323,1913.5785564999096,,,,,,,,,,,,,,,,,,,1,M,1,41,r,,49,49,2022_Jul_01_1528,2020.2.10,distractmap1,59.98818230793519,"['Left Leg', 'Left Face', 'Left Leg', 'Left Face']",
6,"[0.2, 0]",1,0,4,4,4,,,None,None,"[0, 0, 0]",1913.6619823998772,None,1913.6619823998772,1914.6618828999344,1914.6618828999344,None,"[0, 0, 0]",1,1913.6619823998772,None,,,,,,,,,,,,,,,,,,,1,M,1,41,r,,49,49,2022_Jul_01_1528,2020.2.10,distractmap1,59.98818230793519,"['Left Leg', 'Left Face', 'Left Leg', 'Left Face']",
6,"[0.2, 0]",0,0,5,5,5,,,None,None,"[0, 0, 0]",1915.6118909998331,1917.6119104998652,1915.6118909998331,1916.6118156998418,1916.5952416998334,1917.5952401999384,"[0, 0, 0]",1,1915.6118909998331,1917.6119104998652,,,,,,,,,,,,,,,,,,,1,M,1,41,r,,49,49,2022_Jul_01_1528,2020.2.10,distractmap1,59.98818230793519,"['Left Leg', 'Left Face', 'Left Leg', 'Left Face']",
9,"[0.2, -0.2]",0,0,6,6,6,,,None,None,"[0, 0, 0]",1917.6285959000234,1919.628598799929,1917.6285959000234,1918.6285889998544,1918.6119178000372,1919.6119333999231,"[0, 0, 0]",1,1917.6285959000234,1919.628598799929,,,,,,,,,,,,,,,,,,,1,M,1,41,r,,49,49,2022_Jul_01_1528,2020.2.10,distractmap1,59.98818230793519,"['Left Leg', 'Left Face', 'Left Leg', 'Left Face']",
6,"[0.2, 0]",1,0,7,7,7,,,None,None,"[0, 0, 0]",1919.645255499985,1921.6452780999243,1919.645255499985,1920.6452712998725,1920.6286265000235,1921.6286180999596,"[0, 0, 0]",1,1919.645255499985,1921.6452780999243,,,,,,,,,,,,,,,,,,,1,M,1,41,r,,49,49,2022_Jul_01_1528,2020.2.10,distractmap1,59.98818230793519,"['Left Leg', 'Left Face', 'Left Leg', 'Left Face']",
3,"[0.2, 0.2]",0,0,8,8,8,,,None,None,"[0, 0, 0]",1921.6619478999637,1923.6619537998922,1921.6619478999637,1922.6619484999683,1922.6452927999198,1923.6452931000385,"[0, 0, 0]",1,1921.6619478999637,1923.6619537998922,,,,,,,,,,,,,,,,,,,1,M,1,41,r,,49,49,2022_Jul_01_1528,2020.2.10,distractmap1,59.98818230793519,"['Left Leg', 'Left Face', 'Left Leg', 'Left Face']",
9,"[0.2, -0.2]",0,0,9,9,9,,,None,None,"[0, 0, 0]",1923.6786402999423,1925.678657699842,1923.6786402999423,1924.6786451998632,1924.6619816999882,1925.6619756000582,"[0, 0, 0]",1,1923.6786402999423,1925.678657699842,,,,,,,,,,,,,,,,,,,1,M,1,41,r,,49,49,2022_Jul_01_1528,2020.2.10,distractmap1,59.98818230793519,"['Left Leg', 'Left Face', 'Left Leg', 'Left Face']",
,,,,,,,,,,,,,,,,,,,,,,1925.7119926000014,None,,,,,,,,,,,,,,,,,1,M,1,41,r,,49,49,2022_Jul_01_1528,2020.2.10,distractmap1,59.98818230793519,"['Left Leg', 'Left Face', 'Left Leg', 'Left Face']",
,,,,,,,,,,,,,,,,,,,,,,,,,,,,,,,,,,22.90123456790123,1882.5653245400172,,,,,1,M,1,41,r,,49,49,2022_Jul_01_1528,2020.2.10,distractmap1,59.98818230793519,"['Left Leg', 'Left Face', 'Left Leg', 'Left Face']",
3,"[0.2, 0.2]",None,0,0,0,0,1938.9791500999127,None,None,None,"[0, 0, 0]",1945.7788436999545,None,1945.7788436999545,1946.7788460999727,1946.7621690998785,1947.7621851000004,"[0, 0, 0]",1,1945.7788436999545,None,,,,,,,,,,,,,,,0.012257860042154789,5.006828360026702,,,1,M,1,41,r,,49,49,2022_Jul_01_1528,2020.2.10,distractmap1,59.98818230793519,"['Left Leg', 'Left Face', 'Left Leg', 'Left Face']",
9,"[0.2, -0.2]",None,0,1,1,1,,,None,None,"[0, 0, 0]",1947.7788700000383,1949.7788916998543,1947.7788700000383,1948.778847699985,1948.7621958998498,1949.7622028000187,"[0, 0, 0]",1,1947.7788700000383,1949.7788916998543,,,,,,,,,,,,,,,,,,,1,M,1,41,r,,49,49,2022_Jul_01_1528,2020.2.10,distractmap1,59.98818230793519,"['Left Leg', 'Left Face', 'Left Leg', 'Left Face']",
3,"[0.2, 0.2]",1,0,2,2,2,,,None,None,"[0, 0, 0]",1949.7955407998525,1951.7955723998602,1949.7955407998525,1950.7954624998383,1950.7788988000248,1951.778919100063,"[0, 0, 0]",1,1949.7955407998525,1951.7955723998602,,,,,,,,,,,,,,,,,,,1,M,1,41,r,,49,49,2022_Jul_01_1528,2020.2.10,distractmap1,59.98818230793519,"['Left Leg', 'Left Face', 'Left Leg', 'Left Face']",
7,"[-0.2, -0.2]",0,0,3,3,3,,,None,None,"[0, 0, 0]",1951.8122198998462,1953.8122324999422,1951.8122198998462,1952.812226000009,1952.7955815999303,1953.7955850998405,"[0, 0, 0]",1,1951.8122198998462,1953.8122324999422,,,,,,,,,,,,,,,,,,,1,M,1,41,r,,49,49,2022_Jul_01_1528,2020.2.10,distractmap1,59.98818230793519,"['Left Leg', 'Left Face', 'Left Leg', 'Left Face']",
8,"[0, -0.2]",0,0,4,4,4,,,None,None,"[0, 0, 0]",1953.8959092998412,None,1953.8959092998412,1954.8955993000418,1954.8789123999886,None,"[0, 0, 0]",1,1953.8959092998412,None,,,,,,,,,,,,,,,,,,,1,M,1,41,r,,49,49,2022_Jul_01_1528,2020.2.10,distractmap1,59.98818230793519,"['Left Leg', 'Left Face', 'Left Leg', 'Left Face']",
4,"[-0.2, 0]",0,0,5,5,5,,,None,None,"[0, 0, 0]",1955.845580099849,1957.845610999968,1955.845580099849,1956.8456059999298,1956.829297499964,1957.8289628999773,"[0, 0, 0]",1,1955.845580099849,1957.845610999968,,,,,,,,,,,,,,,,,,,1,M,1,41,r,,49,49,2022_Jul_01_1528,2020.2.10,distractmap1,59.98818230793519,"['Left Leg', 'Left Face', 'Left Leg', 'Left Face']",
4,"[-0.2, 0]",0,0,6,6,6,,,None,None,"[0, 0, 0]",1957.8622697999235,1959.8622838999145,1957.8622697999235,1958.8622878000606,1958.8456138998736,1959.8456329000182,"[0, 0, 0]",0,1957.8622697999235,1959.8622838999145,,,,,,,,,,,,,,,,,,,1,M,1,41,r,,49,49,2022_Jul_01_1528,2020.2.10,distractmap1,59.98818230793519,"['Left Leg', 'Left Face', 'Left Leg', 'Left Face']",
1,"[-0.2, 0.2]",0,0,7,7,7,,,None,None,"[0, 0, 0]",1959.8789534999523,1961.8789641999174,1959.8789534999523,1960.8789588999934,1960.8622874999419,1961.8623182999436,"[0, 0, 0]",1,1959.8789534999523,1961.8789641999174,,,,,,,,,,,,,,,,,,,1,M,1,41,r,,49,49,2022_Jul_01_1528,2020.2.10,distractmap1,59.98818230793519,"['Left Leg', 'Left Face', 'Left Leg', 'Left Face']",
4,"[-0.2, 0]",1,0,8,8,8,,,None,None,"[0, 0, 0]",1961.8956633999478,1963.8956752000377,1961.8956633999478,1962.8956730999053,1962.8789981999435,1963.8789885998704,"[0, 0, 0]",1,1961.8956633999478,1963.8956752000377,,,,,,,,,,,,,,,,,,,1,M,1,41,r,,49,49,2022_Jul_01_1528,2020.2.10,distractmap1,59.98818230793519,"['Left Leg', 'Left Face', 'Left Leg', 'Left Face']",
8,"[0, -0.2]",0,0,9,9,9,,,None,None,"[0, 0, 0]",1963.912326300051,1965.9123394000344,1963.912326300051,1964.91233309987,1964.8956897000317,1965.8957022000104,"[0, 0, 0]",1,1963.912326300051,1965.9123394000344,,,,,,,,,,,,,,,,,,,1,M,1,41,r,,49,49,2022_Jul_01_1528,2020.2.10,distractmap1,59.98818230793519,"['Left Leg', 'Left Face', 'Left Leg', 'Left Face']",
,,,,,,,,,,,,,,,,,,,,,,1965.9457016999368,None,,,,,,,,,,,,,,,,,1,M,1,41,r,,49,49,2022_Jul_01_1528,2020.2.10,distractmap1,59.98818230793519,"['Left Leg', 'Left Face', 'Left Leg', 'Left Face']",
,,,,,,,,,,,,,,,,,,,,,,,,,,,,,,,,,,23.271604938271608,1924.4649553399067,,,,,1,M,1,41,r,,49,49,2022_Jul_01_1528,2020.2.10,distractmap1,59.98818230793519,"['Left Leg', 'Left Face', 'Left Leg', 'Left Face']",
2,"[0, 0.2]",None,0,0,0,0,1983.1959057999775,None,None,None,"[0, 0, 0]",1986.0125555999111,None,1986.0125555999111,1987.0125661999919,1986.9958794000559,1987.995888599893,"[0, 0, 0]",1,1986.0125555999111,None,,,,,,,,,,,,,,,0.012984659988433123,5.008380759973079,,,1,M,1,41,r,,49,49,2022_Jul_01_1528,2020.2.10,distractmap1,59.98818230793519,"['Left Leg', 'Left Face', 'Left Leg', 'Left Face']",
5,"[0, 0]",None,0,1,1,1,,,None,None,"[0, 0, 0]",1988.0125698999036,1990.0125766999554,1988.0125698999036,1989.01257120003,1988.995885899989,1989.9958877000026,"[0, 0, 0]",1,1988.0125698999036,1990.0125766999554,,,,,,,,,,,,,,,,,,,1,M,1,41,r,,49,49,2022_Jul_01_1528,2020.2.10,distractmap1,59.98818230793519,"['Left Leg', 'Left Face', 'Left Leg', 'Left Face']",
3,"[0.2, 0.2]",0,0,2,2,2,,,None,None,"[0, 0, 0]",1990.0292409998365,1992.0292421998456,1990.0292409998365,1991.0291470999364,1991.012573499931,1992.0125887000468,"[0, 0, 0]",1,1990.0292409998365,1992.0292421998456,,,,,,,,,,,,,,,,,,,1,M,1,41,r,,49,49,2022_Jul_01_1528,2020.2.10,distractmap1,59.98818230793519,"['Left Leg', 'Left Face', 'Left Leg', 'Left Face']",
5,"[0, 0]",1,0,3,3,3,,,None,None,"[0, 0, 0]",1992.045919999946,1994.0459208998363,1992.045919999946,1993.045923099853,1993.02925459994,1994.029276699992,"[0, 0, 0]",0,1992.045919999946,1994.0459208998363,,,,,,,,,,,,,,,,,,,1,M,1,41,r,,49,49,2022_Jul_01_1528,2020.2.10,distractmap1,59.98818230793519,"['Left Leg', 'Left Face', 'Left Leg', 'Left Face']",
2,"[0, 0.2]",0,0,4,4,4,,,None,None,"[0, 0, 0]",1994.1296238000505,None,1994.1296238000505,1995.1292762998492,1995.1126105999574,None,"[0, 0, 0]",1,1994.1296238000505,None,,,,,,,,,,,,,,,,,,,1,M,1,41,r,,49,49,2022_Jul_01_1528,2020.2.10,distractmap1,59.98818230793519,"['Left Leg', 'Left Face', 'Left Leg', 'Left Face']",
8,"[0, -0.2]",0,0,5,5,5,,,None,None,"[0, 0, 0]",1996.079269599868,1998.0793031000067,1996.079269599868,1997.0793033000082,1997.0626560000237,1998.0626421000343,"[0, 0, 0]",1,1996.079269599868,1998.0793031000067,,,,,,,,,,,,,,,,,,,1,M,1,41,r,,49,49,2022_Jul_01_1528,2020.2.10,distractmap1,59.98818230793519,"['Left Leg', 'Left Face', 'Left Leg', 'Left Face']",
4,"[-0.2, 0]",0,0,6,6,6,,,None,None,"[0, 0, 0]",1998.0959810998756,2000.0959884000476,1998.0959810998756,1999.0959795999806,1999.079324200051,2000.0793194000144,"[0, 0, 0]",1,1998.0959810998756,2000.0959884000476,,,,,,,,,,,,,,,,,,,1,M,1,41,r,,49,49,2022_Jul_01_1528,2020.2.10,distractmap1,59.98818230793519,"['Left Leg', 'Left Face', 'Left Leg', 'Left Face']",
8,"[0, -0.2]",1,0,7,7,7,,,None,None,"[0, 0, 0]",2000.1126559998374,2002.1126866999548,2000.1126559998374,2001.1126667999197,2001.0960078998469,2002.0960208000615,"[0, 0, 0]",1,2000.1126559998374,2002.1126866999548,,,,,,,,,,,,,,,,,,,1,M,1,41,r,,49,49,2022_Jul_01_1528,2020.2.10,distractmap1,59.98818230793519,"['Left Leg', 'Left Face', 'Left Leg', 'Left Face']",
7,"[-0.2, -0.2]",0,0,8,8,8,,,None,None,"[0, 0, 0]",2002.1293452000245,2004.1293657999486,2002.1293452000245,2003.1293442999013,2003.1126951000188,2004.1126965000294,"[0, 0, 0]",1,2002.1293452000245,2004.1293657999486,,,,,,,,,,,,,,,,,,,1,M,1,41,r,,49,49,2022_Jul_01_1528,2020.2.10,distractmap1,59.98818230793519,"['Left Leg', 'Left Face', 'Left Leg', 'Left Face']",
8,"[0, -0.2]",1,0,9,9,9,,,None,None,"[0, 0, 0]",2004.1460217998829,2006.1460454000626,2004.1460217998829,2005.1460020998493,2005.129279299872,2006.1293707999866,"[0, 0, 0]",1,2004.1460217998829,2006.1460454000626,,,,,,,,,,,,,,,,,,,1,M,1,41,r,,49,49,2022_Jul_01_1528,2020.2.10,distractmap1,59.98818230793519,"['Left Leg', 'Left Face', 'Left Leg', 'Left Face']",
,,,,,,,,,,,,,,,,,,,,,,2006.162731999997,None,,,,,,,,,,,,,,,,,1,M,1,41,r,,49,49,2022_Jul_01_1528,2020.2.10,distractmap1,59.98818230793519,"['Left Leg', 'Left Face', 'Left Leg', 'Left Face']",
,,,,,,,,,,,,,,,,,,,,,,,,,,,,,,,,,,23.641975308641975,1963.9656847398728,,,,,1,M,1,41,r,,49,49,2022_Jul_01_1528,2020.2.10,distractmap1,59.98818230793519,"['Left Leg', 'Left Face', 'Left Leg', 'Left Face']",
,,,,,,,2131.180538999848,None,,,,,,,,,,,,,,,,,,,,,,,,,,30.06172839506173,2087.2821620397735,0.012627860065549612,5.007659560069442,2111.1803830999415,None,1,M,1,41,r,,49,49,2022_Jul_01_1528,2020.2.10,distractmap1,59.98818230793519,"['Left Leg', 'Left Face', 'Left Leg', 'Left Face']",
,,,,,,,2166.197496099863,None,,,,,,,,,,,,,,,,,,,,,,,,,,29.691358024691354,2122.9654267400037,0.013960860203951597,5.010394860059023,2146.197285000002,None,1,M,1,41,r,,49,49,2022_Jul_01_1528,2020.2.10,distractmap1,59.98818230793519,"['Left Leg', 'Left Face', 'Left Leg', 'Left Face']",
,,,,,,,2201.2144857998937,None,,,,,,,,,,,,,,,,,,,,,,,,,,35.432098765432094,2156.465162339853,0.014358360087499022,5.011228060116991,2181.214311499847,None,1,M,1,41,r,,49,49,2022_Jul_01_1528,2020.2.10,distractmap1,59.98818230793519,"['Left Leg', 'Left Face', 'Left Leg', 'Left Face']",
2,"[0, 0.2]",None,0,0,0,0,2214.247960199835,None,None,None,"[0, 0, 0]",2221.264664700022,None,2221.264664700022,2222.264680299908,2222.2480164999142,2223.24800459994,"[0, 0, 0]",1,2221.264664700022,None,,,,,,,,,,,,,,,0.014910160098224878,5.012248860206455,,,1,M,1,41,r,,49,49,2022_Jul_01_1528,2020.2.10,distractmap1,59.98818230793519,"['Left Leg', 'Left Face', 'Left Leg', 'Left Face']",
2,"[0, 0.2]",None,0,1,1,1,,,None,None,"[0, 0, 0]",2223.264701399952,2225.264706699876,2223.264701399952,2224.2647053999826,2224.248024899978,2225.2480397999752,"[0, 0, 0]",1,2223.264701399952,2225.264706699876,,,,,,,,,,,,,,,,,,,1,M,1,41,r,,49,49,2022_Jul_01_1528,2020.2.10,distractmap1,59.98818230793519,"['Left Leg', 'Left Face', 'Left Leg', 'Left Face']",
2,"[0, 0.2]",1,0,2,2,2,,,None,None,"[0, 0, 0]",2225.2813821998425,2227.281377499923,2225.2813821998425,2226.281388599891,2226.264732199954,2227.264719599858,"[0, 0, 0]",1,2225.2813821998425,2227.281377499923,,,,,,,,,,,,,,,,,,,1,M,1,41,r,,49,49,2022_Jul_01_1528,2020.2.10,distractmap1,59.98818230793519,"['Left Leg', 'Left Face', 'Left Leg', 'Left Face']",
8,"[0, -0.2]",0,0,3,3,3,,,None,None,"[0, 0, 0]",2227.2980762999505,2229.2980835000053,2227.2980762999505,2228.2980696999,2228.2813935999293,2229.2814324998762,"[0, 0, 0]",1,2227.2980762999505,2229.2980835000053,,,,,,,,,,,,,,,,,,,1,M,1,41,r,,49,49,2022_Jul_01_1528,2020.2.10,distractmap1,59.98818230793519,"['Left Leg', 'Left Face', 'Left Leg', 'Left Face']",
2,"[0, 0.2]",1,0,4,4,4,,,None,None,"[0, 0, 0]",2229.3147455998696,2231.3147535999306,2229.3147455998696,2230.3147638998926,2230.2980948998593,2231.2980961999856,"[0, 0, 0]",1,2229.3147455998696,2231.3147535999306,,,,,,,,,,,,,,,,,,,1,M,1,41,r,,49,49,2022_Jul_01_1528,2020.2.10,distractmap1,59.98818230793519,"['Left Leg', 'Left Face', 'Left Leg', 'Left Face']",
5,"[0, 0]",0,0,5,5,5,,,None,None,"[0, 0, 0]",2231.3314070999622,2233.3314741000067,2231.3314070999622,2232.3314473000355,2232.314763000002,2233.314787799958,"[0, 0, 0]",1,2231.3314070999622,2233.3314741000067,,,,,,,,,,,,,,,,,,,1,M,1,41,r,,49,49,2022_Jul_01_1528,2020.2.10,distractmap1,59.98818230793519,"['Left Leg', 'Left Face', 'Left Leg', 'Left Face']",
1,"[-0.2, 0.2]",0,0,6,6,6,,,None,None,"[0, 0, 0]",2233.3480978999287,2235.348134999862,2233.3480978999287,2234.3481335998513,2234.331455799984,2235.331505900016,"[0, 0, 0]",1,2233.3480978999287,2235.348134999862,,,,,,,,,,,,,,,,,,,1,M,1,41,r,,49,49,2022_Jul_01_1528,2020.2.10,distractmap1,59.98818230793519,"['Left Leg', 'Left Face', 'Left Leg', 'Left Face']",
1,"[-0.2, 0.2]",0,0,7,7,7,,,None,None,"[0, 0, 0]",2235.364794699941,2237.3648188998923,2235.364794699941,2236.364808799932,2236.3481600999366,2237.3481623998377,"[0, 0, 0]",1,2235.364794699941,2237.3648188998923,,,,,,,,,,,,,,,,,,,1,M,1,41,r,,49,49,2022_Jul_01_1528,2020.2.10,distractmap1,59.98818230793519,"['Left Leg', 'Left Face', 'Left Leg', 'Left Face']",
6,"[0.2, 0]",0,0,8,8,8,,,None,None,"[0, 0, 0]",2237.381461699959,2239.3815118998755,2237.381461699959,2238.3815019999165,2238.3648210000247,2239.3648432998452,"[0, 0, 0]",1,2237.381461699959,2239.3815118998755,,,,,,,,,,,,,,,,,,,1,M,1,41,r,,49,49,2022_Jul_01_1528,2020.2.10,distractmap1,59.98818230793519,"['Left Leg', 'Left Face', 'Left Leg', 'Left Face']",
1,"[-0.2, 0.2]",1,0,9,9,9,,,None,None,"[0, 0, 0]",2239.3981768998783,2241.398187099956,2239.3981768998783,2240.398225700017,2240.3815206999425,2241.3815405999776,"[0, 0, 0]",0,2239.3981768998783,2241.398187099956,,,,,,,,,,,,,,,,,,,1,M,1,41,r,,49,49,2022_Jul_01_1528,2020.2.10,distractmap1,59.98818230793519,"['Left Leg', 'Left Face', 'Left Leg', 'Left Face']",
,,,,,,,,,,,,,,,,,,,,,,2241.4148742000107,None,,,,,,,,,,,,,,,,,1,M,1,41,r,,49,49,2022_Jul_01_1528,2020.2.10,distractmap1,59.98818230793519,"['Left Leg', 'Left Face', 'Left Leg', 'Left Face']",
3,"[0.2, 0.2]",None,0,0,0,0,2251.448302899953,None,None,None,"[0, 0, 0]",2256.4649986999575,None,2256.4649986999575,2257.4649985998403,2257.448334999848,2258.4483451000415,"[0, 0, 0]",1,2256.4649986999575,None,,,,,,,,,,,,,,,,,,,1,M,1,41,r,,49,49,2022_Jul_01_1528,2020.2.10,distractmap1,59.98818230793519,"['Left Leg', 'Left Face', 'Left Leg', 'Left Face']",
3,"[0.2, 0.2]",None,0,1,1,1,,,None,None,"[0, 0, 0]",2258.4650055998936,2260.465036599897,2258.4650055998936,2259.4650043,2259.4483467000537,2260.4483580000233,"[0, 0, 0]",1,2258.4650055998936,2260.465036599897,,,,,,,,,,,,,,,,,,,1,M,1,41,r,,49,49,2022_Jul_01_1528,2020.2.10,distractmap1,59.98818230793519,"['Left Leg', 'Left Face', 'Left Leg', 'Left Face']",
5,"[0, 0]",0,0,2,2,2,,,None,None,"[0, 0, 0]",2260.4817053999286,2262.4817232999485,2260.4817053999286,2261.481709699845,2261.4650246999227,2262.4650326999836,"[0, 0, 0]",1,2260.4817053999286,2262.4817232999485,,,,,,,,,,,,,,,,,,,1,M,1,41,r,,49,49,2022_Jul_01_1528,2020.2.10,distractmap1,59.98818230793519,"['Left Leg', 'Left Face', 'Left Leg', 'Left Face']",
1,"[-0.2, 0.2]",0,0,3,3,3,,,None,None,"[0, 0, 0]",2262.4983989999164,2264.498419899959,2262.4983989999164,2263.4983965000138,2263.4817263998557,2264.4817327999044,"[0, 0, 0]",1,2262.4983989999164,2264.498419899959,,,,,,,,,,,,,,,,,,,1,M,1,41,r,,49,49,2022_Jul_01_1528,2020.2.10,distractmap1,59.98818230793519,"['Left Leg', 'Left Face', 'Left Leg', 'Left Face']",
5,"[0, 0]",1,0,4,4,4,,,None,None,"[0, 0, 0]",2264.5150579998735,2266.5150955000427,2264.5150579998735,2265.5151082999073,2265.4986723999027,2266.4984289000276,"[0, 0, 0]",1,2264.5150579998735,2266.5150955000427,,,,,,,,,,,,,,,,,,,1,M,1,41,r,,49,49,2022_Jul_01_1528,2020.2.10,distractmap1,59.98818230793519,"['Left Leg', 'Left Face', 'Left Leg', 'Left Face']",
8,"[0, -0.2]",0,0,5,5,5,,,None,None,"[0, 0, 0]",2266.5317653999664,2268.531764399959,2266.5317653999664,2267.5317485998385,2267.515094900038,2268.5151114999317,"[0, 0, 0]",1,2266.5317653999664,2268.531764399959,,,,,,,,,,,,,,,,,,,1,M,1,41,r,,49,49,2022_Jul_01_1528,2020.2.10,distractmap1,59.98818230793519,"['Left Leg', 'Left Face', 'Left Leg', 'Left Face']",
5,"[0, 0]",1,0,6,6,6,,,None,None,"[0, 0, 0]",2268.5484565000515,2270.548479199875,2268.5484565000515,2269.5484613999724,2269.5317936998326,2270.531801600009,"[0, 0, 0]",1,2268.5484565000515,2270.548479199875,,,,,,,,,,,,,,,,,,,1,M,1,41,r,,49,49,2022_Jul_01_1528,2020.2.10,distractmap1,59.98818230793519,"['Left Leg', 'Left Face', 'Left Leg', 'Left Face']",
7,"[-0.2, -0.2]",0,0,7,7,7,,,None,None,"[0, 0, 0]",2270.5651340999175,2272.5651417998597,2270.5651340999175,2271.565128199989,2271.5484724999405,2272.548504399834,"[0, 0, 0]",1,2270.5651340999175,2272.5651417998597,,,,,,,,,,,,,,,,,,,1,M,1,41,r,,49,49,2022_Jul_01_1528,2020.2.10,distractmap1,59.98818230793519,"['Left Leg', 'Left Face', 'Left Leg', 'Left Face']",
5,"[0, 0]",1,0,8,8,8,,,None,None,"[0, 0, 0]",2272.581798899919,2274.581828699913,2272.581798899919,2273.5818006999325,2273.565167200053,2274.5651646000333,"[0, 0, 0]",1,2272.581798899919,2274.581828699913,,,,,,,,,,,,,,,,,,,1,M,1,41,r,,49,49,2022_Jul_01_1528,2020.2.10,distractmap1,59.98818230793519,"['Left Leg', 'Left Face', 'Left Leg', 'Left Face']",
7,"[-0.2, -0.2]",1,0,9,9,9,,,None,None,"[0, 0, 0]",2274.5984898000024,2276.5984946999233,2274.5984898000024,2275.5985031998716,2275.581853499869,2276.5818606000394,"[0, 0, 0]",1,2274.5984898000024,2276.5984946999233,,,,,,,,,,,,,,,,,,,1,M,1,41,r,,49,49,2022_Jul_01_1528,2020.2.10,distractmap1,59.98818230793519,"['Left Leg', 'Left Face', 'Left Leg', 'Left Face']",
,,,,,,,,,,,,,,,,,,,,,,2276.6318677000236,None,,,,,,,,,,,,,,,,,1,M,1,41,r,,49,49,2022_Jul_01_1528,2020.2.10,distractmap1,59.98818230793519,"['Left Leg', 'Left Face', 'Left Leg', 'Left Face']",
6,"[0.2, 0]",None,0,0,0,0,2284.6652742000297,None,None,None,"[0, 0, 0]",2291.6819048998877,None,2291.6819048998877,2292.681990599958,2292.6653122999705,2293.6653274998534,"[0, 0, 0]",1,2291.6819048998877,None,,,,,,,,,,,,,,,,,,,1,M,1,41,r,,49,49,2022_Jul_01_1528,2020.2.10,distractmap1,59.98818230793519,"['Left Leg', 'Left Face', 'Left Leg', 'Left Face']",
1,"[-0.2, 0.2]",None,0,1,1,1,,,None,None,"[0, 0, 0]",2293.681995499879,2295.6820097998716,2293.681995499879,2294.682008399861,2294.6653513000347,2295.665355999954,"[0, 0, 0]",1,2293.681995499879,2295.6820097998716,,,,,,,,,,,,,,,,,,,1,M,1,41,r,,49,49,2022_Jul_01_1528,2020.2.10,distractmap1,59.98818230793519,"['Left Leg', 'Left Face', 'Left Leg', 'Left Face']",
6,"[0.2, 0]",1,0,2,2,2,,,None,None,"[0, 0, 0]",2295.6986885999795,2297.698690299876,2295.6986885999795,2296.6986777998973,2296.6820173999295,2297.6820334000513,"[0, 0, 0]",1,2295.6986885999795,2297.698690299876,,,,,,,,,,,,,,,,,,,1,M,1,41,r,,49,49,2022_Jul_01_1528,2020.2.10,distractmap1,59.98818230793519,"['Left Leg', 'Left Face', 'Left Leg', 'Left Face']",
4,"[-0.2, 0]",0,0,3,3,3,,,None,None,"[0, 0, 0]",2297.715383199975,2299.7153985998593,2297.715383199975,2298.715363400057,2298.698716699844,2299.6987127000466,"[0, 0, 0]",1,2297.715383199975,2299.7153985998593,,,,,,,,,,,,,,,,,,,1,M,1,41,r,,49,49,2022_Jul_01_1528,2020.2.10,distractmap1,59.98818230793519,"['Left Leg', 'Left Face', 'Left Leg', 'Left Face']",
1,"[-0.2, 0.2]",0,0,4,4,4,,,None,None,"[0, 0, 0]",2299.7320453999564,2301.732052499894,2299.7320453999564,2300.7320721999276,2300.7153642999474,2301.7154142998625,"[0, 0, 0]",1,2299.7320453999564,2301.732052499894,,,,,,,,,,,,,,,,,,,1,M,1,41,r,,49,49,2022_Jul_01_1528,2020.2.10,distractmap1,59.98818230793519,"['Left Leg', 'Left Face', 'Left Leg', 'Left Face']",
8,"[0, -0.2]",0,0,5,5,5,,,None,None,"[0, 0, 0]",2301.748740399955,2303.748757999856,2301.748740399955,2302.748769399943,2302.732076599961,2303.7320995999034,"[0, 0, 0]",1,2301.748740399955,2303.748757999856,,,,,,,,,,,,,,,,,,,1,M,1,41,r,,49,49,2022_Jul_01_1528,2020.2.10,distractmap1,59.98818230793519,"['Left Leg', 'Left Face', 'Left Leg', 'Left Face']",
1,"[-0.2, 0.2]",1,0,6,6,6,,,None,None,"[0, 0, 0]",2303.76543150004,2305.765452499967,2303.76543150004,2304.7654611000326,2304.7487625000067,2305.7487882999703,"[0, 0, 0]",0,2303.76543150004,2305.765452499967,,,,,,,,,,,,,,,,,,,1,M,1,41,r,,49,49,2022_Jul_01_1528,2020.2.10,distractmap1,59.98818230793519,"['Left Leg', 'Left Face', 'Left Leg', 'Left Face']",
8,"[0, -0.2]",1,0,7,7,7,,,None,None,"[0, 0, 0]",2305.782129399944,2307.7821352998726,2305.782129399944,2306.782114499947,2306.7654823998455,2307.7654748000205,"[0, 0, 0]",1,2305.782129399944,2307.7821352998726,,,,,,,,,,,,,,,,,,,1,M,1,41,r,,49,49,2022_Jul_01_1528,2020.2.10,distractmap1,59.98818230793519,"['Left Leg', 'Left Face', 'Left Leg', 'Left Face']",
1,"[-0.2, 0.2]",1,0,8,8,8,,,None,None,"[0, 0, 0]",2307.7987991999835,2309.798808600055,2307.7987991999835,2308.7987943000626,2308.7821436999366,2309.782148499973,"[0, 0, 0]",1,2307.7987991999835,2309.798808600055,,,,,,,,,,,,,,,,,,,1,M,1,41,r,,49,49,2022_Jul_01_1528,2020.2.10,distractmap1,59.98818230793519,"['Left Leg', 'Left Face', 'Left Leg', 'Left Face']",
6,"[0.2, 0]",0,0,9,9,9,,,None,None,"[0, 0, 0]",2309.815514799906,2311.8154984998982,2309.815514799906,2310.8154954998754,2310.79883460002,2311.79885510006,"[0, 0, 0]",1,2309.815514799906,2311.8154984998982,,,,,,,,,,,,,,,,,,,1,M,1,41,r,,49,49,2022_Jul_01_1528,2020.2.10,distractmap1,59.98818230793519,"['Left Leg', 'Left Face', 'Left Leg', 'Left Face']",
,,,,,,,,,,,,,,,,,,,,,,2311.848826299887,None,,,,,,,,,,,,,,,,,1,M,1,41,r,,49,49,2022_Jul_01_1528,2020.2.10,distractmap1,59.98818230793519,"['Left Leg', 'Left Face', 'Left Leg', 'Left Face']",
7,"[-0.2, -0.2]",None,0,0,0,0,2529.201120499987,None,None,None,"[0, 0, 0]",2533.9341841998976,None,2533.9341841998976,2534.934179099975,2534.9175122999586,2535.9175286998507,"[0, 0, 0]",1,2533.9341841998976,None,,,,,,2391.9162892999593,2391.9162892999593,None,space,115.59586629993282,2391.9162892999593,None,,,,,,,1,M,1,41,r,,49,49,2022_Jul_01_1528,2020.2.10,distractmap1,59.98818230793519,"['Left Leg', 'Left Face', 'Left Leg', 'Left Face']",
7,"[-0.2, -0.2]",None,0,1,1,1,,,None,None,"[0, 0, 0]",2535.934185100021,2537.9342124999966,2535.934185100021,2536.934196899878,2536.917525399942,2537.917541499948,"[0, 0, 0]",1,2535.934185100021,2537.9342124999966,,,,,,,,,,,,,,,,,,,1,M,1,41,r,,49,49,2022_Jul_01_1528,2020.2.10,distractmap1,59.98818230793519,"['Left Leg', 'Left Face', 'Left Leg', 'Left Face']",
7,"[-0.2, -0.2]",1,0,2,2,2,,,None,None,"[0, 0, 0]",2537.950898400042,2539.950920399977,2537.950898400042,2538.950909300009,2538.9342394999694,2539.934221299831,"[0, 0, 0]",1,2537.950898400042,2539.950920399977,,,,,,,,,,,,,,,,,,,1,M,1,41,r,,49,49,2022_Jul_01_1528,2020.2.10,distractmap1,59.98818230793519,"['Left Leg', 'Left Face', 'Left Leg', 'Left Face']",
5,"[0, 0]",0,0,3,3,3,,,None,None,"[0, 0, 0]",2539.967549999943,2541.967580599943,2539.967549999943,2540.96755880001,2540.9509155999403,2541.9509137000423,"[0, 0, 0]",1,2539.967549999943,2541.967580599943,,,,,,,,,,,,,,,,,,,1,M,1,41,r,,49,49,2022_Jul_01_1528,2020.2.10,distractmap1,59.98818230793519,"['Left Leg', 'Left Face', 'Left Leg', 'Left Face']",
1,"[-0.2, 0.2]",0,0,4,4,4,,,None,None,"[0, 0, 0]",2542.01753870002,None,2542.01753870002,2543.0175854000263,2543.0175854000263,None,"[0, 0, 0]",1,2542.01753870002,None,,,,,,,,,,,,,,,,,,,1,M,1,41,r,,49,49,2022_Jul_01_1528,2020.2.10,distractmap1,59.98818230793519,"['Left Leg', 'Left Face', 'Left Leg', 'Left Face']",
6,"[0.2, 0]",0,0,5,5,5,,,None,None,"[0, 0, 0]",2544.0004201000556,2546.0009856999386,2544.0004201000556,2545.0009510000236,2544.9842745000497,2545.9842749000527,"[0, 0, 0]",1,2544.0004201000556,2546.0009856999386,,,,,,,,,,,,,,,,,,,1,M,1,41,r,,49,49,2022_Jul_01_1528,2020.2.10,distractmap1,59.98818230793519,"['Left Leg', 'Left Face', 'Left Leg', 'Left Face']",
1,"[-0.2, 0.2]",1,0,6,6,6,,,None,None,"[0, 0, 0]",2546.0176121999975,2548.0176254999824,2546.0176121999975,2547.0176162999123,2547.000983099919,2548.0009836999234,"[0, 0, 0]",1,2546.0176121999975,2548.0176254999824,,,,,,,,,,,,,,,,,,,1,M,1,41,r,,49,49,2022_Jul_01_1528,2020.2.10,distractmap1,59.98818230793519,"['Left Leg', 'Left Face', 'Left Leg', 'Left Face']",
7,"[-0.2, -0.2]",0,0,7,7,7,,,None,None,"[0, 0, 0]",2548.0342981999274,2550.0343313999474,2548.0342981999274,2549.034318699967,2549.0176476000343,2550.01764179999,"[0, 0, 0]",1,2548.0342981999274,2550.0343313999474,,,,,,,,,,,,,,,,,,,1,M,1,41,r,,49,49,2022_Jul_01_1528,2020.2.10,distractmap1,59.98818230793519,"['Left Leg', 'Left Face', 'Left Leg', 'Left Face']",
6,"[0.2, 0]",0,0,8,8,8,,,None,None,"[0, 0, 0]",2550.051004800014,2552.0510251000524,2550.051004800014,2551.051015799865,2551.0343343999702,2552.0343404999003,"[0, 0, 0]",0,2550.051004800014,2552.0510251000524,,,,,,,,,,,,,,,,,,,1,M,1,41,r,,49,49,2022_Jul_01_1528,2020.2.10,distractmap1,59.98818230793519,"['Left Leg', 'Left Face', 'Left Leg', 'Left Face']",
7,"[-0.2, -0.2]",1,0,9,9,9,,,None,None,"[0, 0, 0]",2552.067669800017,2554.067680499982,2552.067669800017,2553.0676748999394,2553.0510178999975,2554.0510559999384,"[0, 0, 0]",1,2552.067669800017,2554.067680499982,,,,,,,,,,,,,,,,,,,1,M,1,41,r,,49,49,2022_Jul_01_1528,2020.2.10,distractmap1,59.98818230793519,"['Left Leg', 'Left Face', 'Left Leg', 'Left Face']",
,,,,,,,,,,,,,,,,,,,,,,2554.0843674000353,None,,,,,,,,,,,,,,,,,1,M,1,41,r,,49,49,2022_Jul_01_1528,2020.2.10,distractmap1,59.98818230793519,"['Left Leg', 'Left Face', 'Left Leg', 'Left Face']",
,,,,,,,,,,,,,,,,,,,,,,,,,,,,,,,,,,39.32098765432099,2508.4697834397666,,,,,1,M,1,41,r,,49,49,2022_Jul_01_1528,2020.2.10,distractmap1,59.98818230793519,"['Left Leg', 'Left Face', 'Left Leg', 'Left Face']",
4,"[-0.2, 0]",None,0,0,0,0,2568.0848757999483,None,None,None,"[0, 0, 0]",2574.1512303999625,None,2574.1512303999625,2575.151262699859,2575.1345442999154,2576.1345589000266,"[0, 0, 0]",1,2574.1512303999625,None,,,,,,,,,,,,,,,0.013477560132741928,5.009418860310689,,,1,M,1,41,r,,49,49,2022_Jul_01_1528,2020.2.10,distractmap1,59.98818230793519,"['Left Leg', 'Left Face', 'Left Leg', 'Left Face']",
5,"[0, 0]",None,0,1,1,1,,,None,None,"[0, 0, 0]",2576.1512257999275,2578.151248899987,2576.1512257999275,2577.151250399882,2577.134556399891,2578.1345728999004,"[0, 0, 0]",1,2576.1512257999275,2578.151248899987,,,,,,,,,,,,,,,,,,,1,M,1,41,r,,49,49,2022_Jul_01_1528,2020.2.10,distractmap1,59.98818230793519,"['Left Leg', 'Left Face', 'Left Leg', 'Left Face']",
6,"[0.2, 0]",0,0,2,2,2,,,None,None,"[0, 0, 0]",2578.1679310000036,2580.167933099903,2578.1679310000036,2579.1679382999428,2579.1512638998684,2580.1511456000153,"[0, 0, 0]",1,2578.1679310000036,2580.167933099903,,,,,,,,,,,,,,,,,,,1,M,1,41,r,,49,49,2022_Jul_01_1528,2020.2.10,distractmap1,59.98818230793519,"['Left Leg', 'Left Face', 'Left Leg', 'Left Face']",
1,"[-0.2, 0.2]",0,0,3,3,3,,,None,None,"[0, 0, 0]",2580.184653799981,2582.184711099835,2580.184653799981,2581.184593499871,2581.167935400037,2582.1679519000463,"[0, 0, 0]",1,2580.184653799981,2582.184711099835,,,,,,,,,,,,,,,,,,,1,M,1,41,r,,49,49,2022_Jul_01_1528,2020.2.10,distractmap1,59.98818230793519,"['Left Leg', 'Left Face', 'Left Leg', 'Left Face']",
6,"[0.2, 0]",1,0,4,4,4,,,None,None,"[0, 0, 0]",2582.251623600023,None,2582.251623600023,2583.251300300006,2583.2346216998994,None,"[0, 0, 0]",1,2582.251623600023,None,,,,,,,,,,,,,,,,,,,1,M,1,41,r,,49,49,2022_Jul_01_1528,2020.2.10,distractmap1,59.98818230793519,"['Left Leg', 'Left Face', 'Left Leg', 'Left Face']",
1,"[-0.2, 0.2]",1,0,5,5,5,,,None,None,"[0, 0, 0]",2584.217974900035,2586.2179767999332,2584.217974900035,2585.217973199906,2585.201302099973,2586.201331099961,"[0, 0, 0]",1,2584.217974900035,2586.2179767999332,,,,,,,,,,,,,,,,,,,1,M,1,41,r,,49,49,2022_Jul_01_1528,2020.2.10,distractmap1,59.98818230793519,"['Left Leg', 'Left Face', 'Left Leg', 'Left Face']",
2,"[0, 0.2]",0,0,6,6,6,,,None,None,"[0, 0, 0]",2586.2346395999193,2588.234670799924,2586.2346395999193,2587.234665099997,2587.218023699941,2588.218020600034,"[0, 0, 0]",1,2586.2346395999193,2588.234670799924,,,,,,,,,,,,,,,,,,,1,M,1,41,r,,49,49,2022_Jul_01_1528,2020.2.10,distractmap1,59.98818230793519,"['Left Leg', 'Left Face', 'Left Leg', 'Left Face']",
3,"[0.2, 0.2]",0,0,7,7,7,,,None,None,"[0, 0, 0]",2588.2513394998387,2590.2513524999376,2588.2513394998387,2589.2513307000045,2589.2346693999134,2590.234679999994,"[0, 0, 0]",1,2588.2513394998387,2590.2513524999376,,,,,,,,,,,,,,,,,,,1,M,1,41,r,,49,49,2022_Jul_01_1528,2020.2.10,distractmap1,59.98818230793519,"['Left Leg', 'Left Face', 'Left Leg', 'Left Face']",
6,"[0.2, 0]",0,0,8,8,8,,,None,None,"[0, 0, 0]",2590.268053599866,2592.268071099883,2590.268053599866,2591.2680297999177,2591.251377800014,2592.251341099851,"[0, 0, 0]",1,2590.268053599866,2592.268071099883,,,,,,,,,,,,,,,,,,,1,M,1,41,r,,49,49,2022_Jul_01_1528,2020.2.10,distractmap1,59.98818230793519,"['Left Leg', 'Left Face', 'Left Leg', 'Left Face']",
3,"[0.2, 0.2]",1,0,9,9,9,,,None,None,"[0, 0, 0]",2592.2847088999115,2594.2847370998934,2592.2847088999115,2593.2847082000226,2593.2680577000137,2594.2680593999103,"[0, 0, 0]",1,2592.2847088999115,2594.2847370998934,,,,,,,,,,,,,,,,,,,1,M,1,41,r,,49,49,2022_Jul_01_1528,2020.2.10,distractmap1,59.98818230793519,"['Left Leg', 'Left Face', 'Left Leg', 'Left Face']",
,,,,,,,,,,,,,,,,,,,,,,2594.3180686999112,None,,,,,,,,,,,,,,,,,1,M,1,41,r,,49,49,2022_Jul_01_1528,2020.2.10,distractmap1,59.98818230793519,"['Left Leg', 'Left Face', 'Left Leg', 'Left Face']",
,,,,,,,,,,,,,,,,,,,,,,,,,,,,,,,,,,22.77777777777778,2554.437212239718,,,,,1,M,1,41,r,,49,49,2022_Jul_01_1528,2020.2.10,distractmap1,59.98818230793519,"['Left Leg', 'Left Face', 'Left Leg', 'Left Face']",
2,"[0, 0.2]",None,0,0,0,0,2611.618640600005,None,None,None,"[0, 0, 0]",2614.384916999843,None,2614.384916999843,2615.3849241000134,2615.368254199857,2616.368250799831,"[0, 0, 0]",1,2614.384916999843,None,,,,,,,,,,,,,,,0.013123860349878669,5.008733460213989,,,1,M,1,41,r,,49,49,2022_Jul_01_1528,2020.2.10,distractmap1,59.98818230793519,"['Left Leg', 'Left Face', 'Left Leg', 'Left Face']",
5,"[0, 0]",None,0,1,1,1,,,None,None,"[0, 0, 0]",2616.3849259999115,2618.3849766999483,2616.3849259999115,2617.384924300015,2617.3682547998615,2618.3682637000456,"[0, 0, 0]",1,2616.3849259999115,2618.3849766999483,,,,,,,,,,,,,,,,,,,1,M,1,41,r,,49,49,2022_Jul_01_1528,2020.2.10,distractmap1,59.98818230793519,"['Left Leg', 'Left Face', 'Left Leg', 'Left Face']",
6,"[0.2, 0]",0,0,2,2,2,,,None,None,"[0, 0, 0]",2618.4016334000044,2620.4016348998994,2618.4016334000044,2619.4016052000225,2619.3849591999315,2620.3849652998615,"[0, 0, 0]",1,2618.4016334000044,2620.4016348998994,,,,,,,,,,,,,,,,,,,1,M,1,41,r,,49,49,2022_Jul_01_1528,2020.2.10,distractmap1,59.98818230793519,"['Left Leg', 'Left Face', 'Left Leg', 'Left Face']",
1,"[-0.2, 0.2]",0,0,3,3,3,,,None,None,"[0, 0, 0]",2620.4182851999067,2622.418303600047,2620.4182851999067,2621.4182897999417,2621.4016432999633,2622.401630899869,"[0, 0, 0]",1,2620.4182851999067,2622.418303600047,,,,,,,,,,,,,,,,,,,1,M,1,41,r,,49,49,2022_Jul_01_1528,2020.2.10,distractmap1,59.98818230793519,"['Left Leg', 'Left Face', 'Left Leg', 'Left Face']",
6,"[0.2, 0]",1,0,4,4,4,,,None,None,"[0, 0, 0]",2622.501713699894,None,2622.501713699894,2623.5016707999166,2623.484478799859,None,"[0, 0, 0]",1,2622.501713699894,None,,,,,,,,,,,,,,,,,,,1,M,1,41,r,,49,49,2022_Jul_01_1528,2020.2.10,distractmap1,59.98818230793519,"['Left Leg', 'Left Face', 'Left Leg', 'Left Face']",
6,"[0.2, 0]",0,0,5,5,5,,,None,None,"[0, 0, 0]",2624.4516712999903,2626.4516870998777,2624.4516712999903,2625.451671499992,2625.4350234000012,2626.4350214998703,"[0, 0, 0]",1,2624.4516712999903,2626.4516870998777,,,,,,,,,,,,,,,,,,,1,M,1,41,r,,49,49,2022_Jul_01_1528,2020.2.10,distractmap1,59.98818230793519,"['Left Leg', 'Left Face', 'Left Leg', 'Left Face']",
9,"[0.2, -0.2]",0,0,6,6,6,,,None,None,"[0, 0, 0]",2626.4683466998395,2628.4683703999035,2626.4683466998395,2627.468373700045,2627.4517091000453,2628.4515881999396,"[0, 0, 0]",1,2626.4683466998395,2628.4683703999035,,,,,,,,,,,,,,,,,,,1,M,1,41,r,,49,49,2022_Jul_01_1528,2020.2.10,distractmap1,59.98818230793519,"['Left Leg', 'Left Face', 'Left Leg', 'Left Face']",
6,"[0.2, 0]",1,0,7,7,7,,,None,None,"[0, 0, 0]",2628.485056299949,2630.4850586999673,2628.485056299949,2629.485023400048,2629.468387699919,2630.46837779996,"[0, 0, 0]",1,2628.485056299949,2630.4850586999673,,,,,,,,,,,,,,,,,,,1,M,1,41,r,,49,49,2022_Jul_01_1528,2020.2.10,distractmap1,59.98818230793519,"['Left Leg', 'Left Face', 'Left Leg', 'Left Face']",
3,"[0.2, 0.2]",0,0,8,8,8,,,None,None,"[0, 0, 0]",2630.501703399932,2632.5017268999945,2630.501703399932,2631.501756499987,2631.485066300025,2632.4850731999613,"[0, 0, 0]",1,2630.501703399932,2632.5017268999945,,,,,,,,,,,,,,,,,,,1,M,1,41,r,,49,49,2022_Jul_01_1528,2020.2.10,distractmap1,59.98818230793519,"['Left Leg', 'Left Face', 'Left Leg', 'Left Face']",
9,"[0.2, -0.2]",0,0,9,9,9,,,None,None,"[0, 0, 0]",2632.518395500025,2634.518408099888,2632.518395500025,2633.518357799854,2633.5017607999034,2634.5017535998486,"[0, 0, 0]",0,2632.518395500025,2634.518408099888,,,,,,,,,,,,,,,,,,,1,M,1,41,r,,49,49,2022_Jul_01_1528,2020.2.10,distractmap1,59.98818230793519,"['Left Leg', 'Left Face', 'Left Leg', 'Left Face']",
,,,,,,,,,,,,,,,,,,,,,,2634.551778299967,None,,,,,,,,,,,,,,,,,1,M,1,41,r,,49,49,2022_Jul_01_1528,2020.2.10,distractmap1,59.98818230793519,"['Left Leg', 'Left Face', 'Left Leg', 'Left Face']",
,,,,,,,,,,,,,,,,,,,,,,,,,,,,,,,,,,23.76543209876543,2593.271439539967,,,,,1,M,1,41,r,,49,49,2022_Jul_01_1528,2020.2.10,distractmap1,59.98818230793519,"['Left Leg', 'Left Face', 'Left Leg', 'Left Face']",
3,"[0.2, 0.2]",None,0,0,0,0,2649.585255800048,None,None,None,"[0, 0, 0]",2654.6019653999247,None,2654.6019653999247,2655.6019836000632,2655.585270999931,2656.585306199966,"[0, 0, 0]",1,2654.6019653999247,None,,,,,,,,,,,,,,,0.012593160150572658,5.007565060164779,,,1,M,1,41,r,,49,49,2022_Jul_01_1528,2020.2.10,distractmap1,59.98818230793519,"['Left Leg', 'Left Face', 'Left Leg', 'Left Face']",
9,"[0.2, -0.2]",None,0,1,1,1,,,None,None,"[0, 0, 0]",2656.6019673000555,2658.6019951999187,2656.6019673000555,2657.601982800057,2657.5853349999525,2658.5853823998477,"[0, 0, 0]",1,2656.6019673000555,2658.6019951999187,,,,,,,,,,,,,,,,,,,1,M,1,41,r,,49,49,2022_Jul_01_1528,2020.2.10,distractmap1,59.98818230793519,"['Left Leg', 'Left Face', 'Left Leg', 'Left Face']",
3,"[0.2, 0.2]",1,0,2,2,2,,,None,None,"[0, 0, 0]",2658.6186414000113,2660.6186557000037,2658.6186414000113,2659.618644299917,2659.601996100042,2660.602005199995,"[0, 0, 0]",1,2658.6186414000113,2660.6186557000037,,,,,,,,,,,,,,,,,,,1,M,1,41,r,,49,49,2022_Jul_01_1528,2020.2.10,distractmap1,59.98818230793519,"['Left Leg', 'Left Face', 'Left Leg', 'Left Face']",
7,"[-0.2, -0.2]",0,0,3,3,3,,,None,None,"[0, 0, 0]",2660.635319299996,2662.6353462999687,2660.635319299996,2661.635328100063,2661.6186703999992,2662.6186720000114,"[0, 0, 0]",1,2660.635319299996,2662.6353462999687,,,,,,,,,,,,,,,,,,,1,M,1,41,r,,49,49,2022_Jul_01_1528,2020.2.10,distractmap1,59.98818230793519,"['Left Leg', 'Left Face', 'Left Leg', 'Left Face']",
8,"[0, -0.2]",0,0,4,4,4,,,None,None,"[0, 0, 0]",2662.6520302998833,2664.6520299999975,2662.6520302998833,2663.651912200032,2663.635344899958,2664.6353488999885,"[0, 0, 0]",1,2662.6520302998833,2664.6520299999975,,,,,,,,,,,,,,,,,,,1,M,1,41,r,,49,49,2022_Jul_01_1528,2020.2.10,distractmap1,59.98818230793519,"['Left Leg', 'Left Face', 'Left Leg', 'Left Face']",
