	SID	day	sex	session	handedness	scanner	onset	duration	value	body_site	skin_site	temperature	condition	keys	rt	phase	biopac_channel
0	2428	3	m	3	r	MH MS			39.75308641975312	Left Leg	3	47.5	Threat		5.066881400067359	Control	
1	2428	3	m	3	r	MH MS			60.30864197530864	Left Leg	3	47.5	Stress		2.6188172000693157	Control	
2	2428	3	m	3	r	MH MS			50.0	Left Leg	3	47.5	PainAnxiety		0.4336546000558883	Control	
3	2428	3	m	3	r	MH MS			75.12345679012346	Left Leg	3	47.5	OtherAnxiety		2.33367870002985	Control	
4	2428	3	m	3	r	MH MS			25.679012345679013	Left Leg	3	47.5	PainConfidence		2.300258500035852	Control	
5	2428	3	m	3	r	MH MS	2.7743559000082314	5.018169707269408		Left Leg	3	47.5	Instructions			Control	19
6	2428	3	m	3	r	MH MS	8.277301300084218	5.0167562502902	45.49382716049382	Left Leg	3	47.5	Expectancy		2.0165818999521434	Control	51
7	2428	3	m	3	r	MH MS	13.66946830006782	1.9995484001701698		Left Leg	3	47.5	Cue			Control	6
8	2428	3	m	3	r	MH MS	15.679518799996004	8.014075500075705		Left Leg	3	47.5	Pre-Jitter			Control	7
9	2428	3	m	3	r	MH MS	23.7196095000254	15.000751050072722		Left Leg	3	47.5	Control Heat 			Control	15
10	2428	3	m	3	r	MH MS	38.72215790010523	6.995998349972069		Left Leg	3	47.5	Mid-Jitter			Control	8
11	2428	3	m	3	r	MH MS	45.74222460004967	5.005962000112049	1.0	Left Leg	3	47.5	PainBinary		2.2853194000199437	Control	20
12	2428	3	m	3	r	MH MS	50.77308750001248	5.011002100072801	32.901234567901234	Left Leg	3	47.5	IntensityRating		2.8833697999361902	Control	21
13	2428	3	m	3	r	MH MS	55.791976700071245	7.006668849964626		Left Leg	3	47.5	Post-Q-Jitter			Control	9
14	2428	3	m	3	r	MH MS	63.06350640009623	5.01286505011376	17.098765432098766	Left Leg	3	47.5	Expectancy		2.6335836000507697	Control	51
15	2428	3	m	3	r	MH MS	68.45081980002578	2.004607500275597		Left Leg	3	47.5	Cue			Control	6
16	2428	3	m	3	r	MH MS	70.4581205000868	4.007977850036696		Left Leg	3	47.5	Pre-Jitter			Control	7
17	2428	3	m	3	r	MH MS	74.49335830006748	15.004314899910241		Left Leg	3	47.5	Control Heat 			Control	15
18	2428	3	m	3	r	MH MS	89.50522140006069	8.997544150101021		Left Leg	3	47.5	Mid-Jitter			Control	8
19	2428	3	m	3	r	MH MS	98.52486760006286	5.008358999970369	1.0	Left Leg	3	47.5	PainBinary		1.9333470999263227	Control	20
20	2428	3	m	3	r	MH MS	103.55900970008224	5.0068600999657065	19.69135802469136	Left Leg	3	47.5	IntensityRating		2.2000124000478536	Control	21
21	2428	3	m	3	r	MH MS	108.57668010005727	9.005007650121115		Left Leg	3	47.5	Post-Q-Jitter			Control	9
22	2428	3	m	3	r	MH MS	117.86905450001359	5.002823100076057	12.345679012345682	Left Leg	3	47.5	Expectancy		2.84965160000138	Control	51
23	2428	3	m	3	r	MH MS	123.23992600000929	2.0108742502052337		Left Leg	3	47.5	Cue			Control	6
24	2428	3	m	3	r	MH MS	125.25925350002944	8.006853249971755		Left Leg	3	47.5	Pre-Jitter			Control	7
25	2428	3	m	3	r	MH MS	133.3286744999932	15.001407700125128		Left Leg	3	47.5	Control Heat 			Control	15
26	2428	3	m	3	r	MH MS	148.33992749999743	6.995945249916986		Left Leg	3	47.5	Mid-Jitter			Control	8
27	2428	3	m	3	r	MH MS	155.3580690000672	5.009743500035256	1.0	Left Leg	3	47.5	PainBinary		2.0499723000684753	Control	20
28	2428	3	m	3	r	MH MS	160.39142050000373	5.009815900004469	13.395061728395063	Left Leg	3	47.5	IntensityRating		4.152908700052649	Control	21
29	2428	3	m	3	r	MH MS	165.40962310007308	7.006909550051205		Left Leg	3	47.5	Post-Q-Jitter			Control	9
30	2428	3	m	3	r	MH MS	173.46403270005248	5.011454300489277	0.0	Left Leg	3	47.5	Expectancy		2.2833078000694513	Control	51
31	2428	3	m	3	r	MH MS	178.84651649999432	2.0154501001816243		Left Leg	3	47.5	Cue			Control	6
32	2428	3	m	3	r	MH MS	180.85932650009636	4.007790050003678		Left Leg	3	47.5	Pre-Jitter			Control	7
33	2428	3	m	3	r	MH MS	184.92897310003173	15.001832400099374		Left Leg	3	47.5	Control Heat 			Control	15
34	2428	3	m	3	r	MH MS	199.94024970009923	6.996352849993855		Left Leg	3	47.5	Mid-Jitter			Control	8
35	2428	3	m	3	r	MH MS	206.96076050004922	5.005381099996157	1.0	Left Leg	3	47.5	PainBinary		1.4169220000039786	Control	20
36	2428	3	m	3	r	MH MS	211.9910258000018	5.011619100114331	11.851851851851853	Left Leg	3	47.5	IntensityRating		2.7666634999914095	Control	21
37	2428	3	m	3	r	MH MS	217.0100469000172	7.007077550049871		Left Leg	3	47.5	Post-Q-Jitter			Control	9
38	2428	3	m	3	r	MH MS	225.117018799996	5.006318850326352	0.0	Left Leg	3	47.5	Expectancy		4.05034129996784	Control	51
39	2428	3	m	3	r	MH MS	230.50712730002124	2.0118718000594527		Left Leg	3	47.5	Cue			Control	6
40	2428	3	m	3	r	MH MS	232.52637940004934	6.008055250043981		Left Leg	3	47.5	Pre-Jitter			Control	7
41	2428	3	m	3	r	MH MS	238.58874880010262	15.000010899966583		Left Leg	3	47.5	Control Heat 			Control	15
42	2428	3	m	3	r	MH MS	253.59056490007788	4.996749250101857		Left Leg	3	47.5	Mid-Jitter			Control	8
43	2428	3	m	3	r	MH MS	258.6084962000605	5.010961799998768	-1.0	Left Leg	3	47.5	PainBinary		1.5357363000512123	Control	20
44	2428	3	m	3	r	MH MS	268.6320454000961	5.014220052165911		Left Leg	3	47.5	Post-Q-Jitter			Control	9
45	2428	3	m	3	r	MH MS	274.7300727000693	5.014633150422014	10.432098765432096	Left Leg	3	47.5	Expectancy			Control	51
46	2428	3	m	3	r	MH MS	280.1124521000311	2.0022323502926156		Left Leg	3	47.5	Cue			Control	6
47	2428	3	m	3	r	MH MS	282.1278352000518	4.005963349947706		Left Leg	3	47.5	Pre-Jitter			Control	7
48	2428	3	m	3	r	MH MS	286.183340699994	15.011697000009008		Left Leg	3	47.5	Control Heat 			Control	15
49	2428	3	m	3	r	MH MS	301.19140040001366	6.99605644994881		Left Leg	3	47.5	Mid-Jitter			Control	8
50	2428	3	m	3	r	MH MS	308.21173270000145	5.005464200046845	-1.0	Left Leg	3	47.5	PainBinary		2.467462999979034	Control	20
51	2428	3	m	3	r	MH MS	318.2335631001042	7.012203452177346		Left Leg	3	47.5	Post-Q-Jitter			Control	9
52	2428	3	m	3	r	MH MS	325.26772160001565	3.177198150078766	31.851851851851876	Left Leg	3	47.5	ComfortRating		3.1503209000220522	Control	26
53	2428	3	m	3	r	MH MS	328.46563770005014	2.0147411500802264	57.160493827160494	Left Leg	3	47.5	ValenceRating		1.983400100027211	Control	24
54	2428	3	m	3	r	MH MS	330.4905601000646	1.5150019000284374	61.72839506172839	Left Leg	3	47.5	IntensityRating		1.5003442000597715	Control	26
55	2428	3	m	3	r	MH MS	332.0276538000908	2.790861999965273	59.50617283950618	Left Leg	3	47.5	AvoidanceRating		2.766702799941413	Control	27
56	2428	3	m	3	r	MH MS	334.83872490003705	2.3854098001029342	37.53086419753087	Left Leg	3	47.5	RelaxationRating		2.3670702999224886	Control	28
57	2428	3	m	3	r	MH MS	337.24295480002183	1.8769956999458373	35.18518518518518	Left Leg	3	47.5	AttentionRating		1.8500064000254497	Control	29
58	2428	3	m	3	r	MH MS	339.13913750008214	3.001374499872327	61.419753086419746	Left Leg	3	47.5	BoredomRating		2.9691765001043677	Control	30
59	2428	3	m	3	r	MH MS	342.1580019000685	15.530484599992633	-56.79012345679013	Left Leg	3	47.5	AlertnessRating		15.517190699931234	Control	31
60	2428	3	m	3	r	MH MS	357.7079093999928	2.814173400052823	34.197530864197546	Left Leg	3	47.5	PosThxRating		2.80043350008782	Control	32
61	2428	3	m	3	r	MH MS	360.54244520002976	1.4951846001204103	-37.77777777777778	Left Leg	3	47.5	NegThxRating		1.4668794999597594	Control	33
62	2428	3	m	3	r	MH MS	362.0571532000322	1.7658325001830235	48.271604938271594	Left Leg	3	47.5	SelfRating		1.7504636000376195	Control	34
63	2428	3	m	3	r	MH MS	363.84154140006285	1.6137545000528917	-62.345679012345684	Left Leg	3	47.5	OtherRating		1.5688421999802813	Control	35
64	2428	3	m	3	r	MH MS	365.47574640007224	1.8786983999889344	13.82716049382718	Left Leg	3	47.5	ImageryRating		1.8500502000097185	Control	32
65	2428	3	m	3	r	MH MS	367.3776724000927	6.974940299987793	33.333333333333314	Left Leg	3	47.5	PresentRating		6.950099000008777	Control	37
