RestT1,TaskT1,square,location,corrAns,counterbalancer.thisRepN,counterbalancer.thisTrialN,counterbalancer.thisN,counterbalancer.thisIndex,RestT1Loop.thisRepN,RestT1Loop.thisTrialN,RestT1Loop.thisN,RestT1Loop.thisIndex,TaskT1Loop.thisRepN,TaskT1Loop.thisTrialN,TaskT1Loop.thisN,TaskT1Loop.thisIndex,trials_2.thisRepN,trials_2.thisTrialN,trials_2.thisN,trials_2.thisIndex,NbackInstructions.started,NbackInstructions.stopped,NbackStart.keys,NbackStart.rt,NbackStart.started,NbackStart.stopped,fixation_2.started,fixation_2.stopped,response_2.x,response_2.y,response_2.leftButton,grid_lines_2.started,grid_lines_2.stopped,target_square_2.started,target_square_2.stopped,fixation_3.started,fixation_3.stopped,response_2.click,response_2.corr,response_2.started,response_2.stopped,response_2.rt,fixation_1.started,fixation_1.stopped,subject number,gender,session,handedness,scanner,date,expName,psychopyVersion,frameRate,
0,1,,,,0,0,0,0,,,,,0,0,0,0,,,,,18.929623699979857,None,space,58.107077799970284,18.929623699979857,None,,,,,,,,,,,,,,,,,,,2,m,8,r,MS,2021_Jun_16_1634,WASABI Nback,2020.2.10,59.99016165031541,
0,1,5,"[0, 0]",None,0,0,0,0,,,,,0,0,0,0,0,0,0,0,,,,,,,None,None,None,None,0,79.58158150000963,None,79.58158150000963,None,None,None,0,1,79.58158150000963,None,,,,2,m,8,r,MS,2021_Jun_16_1634,WASABI Nback,2020.2.10,59.99016165031541,
0,1,2,"[0, 0.2]",None,0,0,0,0,,,,,0,0,0,0,0,1,1,1,,,,,,,,,None,None,0,80.08159549999982,None,80.08159549999982,81.08157010003924,81.06489289994352,82.06491399998777,0,1,80.08159549999982,None,,,,2,m,8,r,MS,2021_Jun_16_1634,WASABI Nback,2020.2.10,59.99016165031541,
0,1,6,"[0.2, 0]",None,0,0,0,0,,,,,0,0,0,0,0,2,2,2,,,,,,,,,None,None,0,82.08159610000439,None,82.08159610000439,83.08162029995583,83.06491429999005,84.06494169996586,0,1,82.08159610000439,None,,,,2,m,8,r,MS,2021_Jun_16_1634,WASABI Nback,2020.2.10,59.99016165031541,
0,1,9,"[0.2, -0.2]",None,0,0,0,0,,,,,0,0,0,0,0,3,3,3,,,,,,,,,None,None,0,84.08164270000998,None,84.08164270000998,85.08162279997487,85.0649288999848,86.06495959998574,0,1,84.08164270000998,None,,,,2,m,8,r,MS,2021_Jun_16_1634,WASABI Nback,2020.2.10,59.99016165031541,
0,1,3,"[0.2, 0.2]",None,0,0,0,0,,,,,0,0,0,0,0,4,4,4,,,,,,,,,None,None,0,86.08163699996658,None,86.08163699996658,87.08161859994289,87.064937200048,88.06495829997584,0,1,86.08163699996658,None,,,,2,m,8,r,MS,2021_Jun_16_1634,WASABI Nback,2020.2.10,59.99016165031541,
0,1,9,"[0.2, -0.2]",1,0,0,0,0,,,,,0,0,0,0,0,5,5,5,,,,,,,,,None,None,0,88.08163789997343,None,88.08163789997343,89.08164820005186,89.06495569995604,90.06496820005123,0,1,88.08163789997343,None,,,,2,m,8,r,MS,2021_Jun_16_1634,WASABI Nback,2020.2.10,59.99016165031541,
0,1,7,"[-0.2, -0.2]",None,0,0,0,0,,,,,0,0,0,0,0,6,6,6,,,,,,,,,None,None,0,90.08163300005253,None,90.08163300005253,91.08167800004594,91.06498350005131,92.06498499994632,0,1,90.08163300005253,None,,,,2,m,8,r,MS,2021_Jun_16_1634,WASABI Nback,2020.2.10,59.99016165031541,
0,1,1,"[-0.2, 0.2]",None,0,0,0,0,,,,,0,0,0,0,0,7,7,7,,,,,,,,,None,None,0,92.08165109995753,None,92.08165109995753,93.08166260004509,93.06497850001324,94.06500349997077,0,1,92.08165109995753,None,,,,2,m,8,r,MS,2021_Jun_16_1634,WASABI Nback,2020.2.10,59.99016165031541,
0,1,5,"[0, 0]",None,0,0,0,0,,,,,0,0,0,0,0,8,8,8,,,,,,,,,None,None,0,94.08166449994314,None,94.08166449994314,95.08168679999653,95.06500689999666,96.06500469997991,0,1,94.08166449994314,None,,,,2,m,8,r,MS,2021_Jun_16_1634,WASABI Nback,2020.2.10,59.99016165031541,
0,1,7,"[-0.2, -0.2]",None,0,0,0,0,,,,,0,0,0,0,0,9,9,9,,,,,,,,,None,None,0,96.08169030002318,None,96.08169030002318,97.08170179999433,97.06502530002035,98.06505560001824,0,1,96.08169030002318,None,,,,2,m,8,r,MS,2021_Jun_16_1634,WASABI Nback,2020.2.10,59.99016165031541,
0,1,5,"[0, 0]",1,0,0,0,0,,,,,0,0,0,0,0,10,10,10,,,,,,,,,None,None,0,98.08170790004078,None,98.08170790004078,99.08175010001287,99.06508500000928,100.06504679995123,0,1,98.08170790004078,None,,,,2,m,8,r,MS,2021_Jun_16_1634,WASABI Nback,2020.2.10,59.99016165031541,
0,1,6,"[0.2, 0]",None,0,0,0,0,,,,,0,0,0,0,0,11,11,11,,,,,,,,,None,None,0,100.08172420004848,None,100.08172420004848,101.08172480005305,101.0650552000152,102.06507050001528,0,1,100.08172420004848,None,,,,2,m,8,r,MS,2021_Jun_16_1634,WASABI Nback,2020.2.10,59.99016165031541,
0,1,3,"[0.2, 0.2]",None,0,0,0,0,,,,,0,0,0,0,0,12,12,12,,,,,,,,,None,None,0,102.08173249999527,None,102.08173249999527,103.0817481999984,103.06504969997332,104.06506870000158,0,1,102.08173249999527,None,,,,2,m,8,r,MS,2021_Jun_16_1634,WASABI Nback,2020.2.10,59.99016165031541,
0,1,6,"[0.2, 0]",1,0,0,0,0,,,,,0,0,0,0,0,13,13,13,,,,,,,,,None,None,0,104.08175719995052,None,104.08175719995052,105.0817592999665,105.06510659994092,106.06508680002298,0,1,104.08175719995052,None,,,,2,m,8,r,MS,2021_Jun_16_1634,WASABI Nback,2020.2.10,59.99016165031541,
0,1,8,"[0, -0.2]",None,0,0,0,0,,,,,0,0,0,0,0,14,14,14,,,,,,,,,None,None,0,106.08176920004189,None,106.08176920004189,107.08177369995974,107.06509469996672,108.06511880003382,0,1,106.08176920004189,None,,,,2,m,8,r,MS,2021_Jun_16_1634,WASABI Nback,2020.2.10,59.99016165031541,
0,1,9,"[0.2, -0.2]",None,0,0,0,0,,,,,0,0,0,0,0,15,15,15,,,,,,,,,None,None,0,108.0817869999446,None,108.0817869999446,109.08178849995602,109.06510580005124,110.06512459996156,0,1,108.0817869999446,None,,,,2,m,8,r,MS,2021_Jun_16_1634,WASABI Nback,2020.2.10,59.99016165031541,
0,1,9,"[0.2, -0.2]",None,0,0,0,0,,,,,0,0,0,0,0,16,16,16,,,,,,,,,None,None,0,110.0818024999462,None,110.0818024999462,111.08180759998504,111.0651270999806,112.06513959995937,0,0,110.0818024999462,None,,,,2,m,8,r,MS,2021_Jun_16_1634,WASABI Nback,2020.2.10,59.99016165031541,
0,1,1,"[-0.2, 0.2]",None,0,0,0,0,,,,,0,0,0,0,0,17,17,17,,,,,,,,,None,None,0,112.08176370000001,None,112.08176370000001,113.08181350002997,113.0651478000218,114.06516929995269,0,1,112.08176370000001,None,,,,2,m,8,r,MS,2021_Jun_16_1634,WASABI Nback,2020.2.10,59.99016165031541,
0,1,3,"[0.2, 0.2]",None,0,0,0,0,,,,,0,0,0,0,0,18,18,18,,,,,,,,,None,None,0,114.08182540000416,None,114.08182540000416,115.08183359995019,115.06516550004017,116.06517670000903,0,1,114.08182540000416,None,,,,2,m,8,r,MS,2021_Jun_16_1634,WASABI Nback,2020.2.10,59.99016165031541,
0,1,5,"[0, 0]",None,0,0,0,0,,,,,0,0,0,0,0,19,19,19,,,,,,,,,None,None,0,116.08185590000357,None,116.08185590000357,117.08189150004182,117.0652094000252,118.06519690004643,0,1,116.08185590000357,None,,,,2,m,8,r,MS,2021_Jun_16_1634,WASABI Nback,2020.2.10,59.99016165031541,
0,1,3,"[0.2, 0.2]",1,0,0,0,0,,,,,0,0,0,0,0,20,20,20,,,,,,,,,None,None,0,118.08185940003023,None,118.08185940003023,119.08173730003182,119.06518899998628,120.06521290005185,0,1,118.08185940003023,None,,,,2,m,8,r,MS,2021_Jun_16_1634,WASABI Nback,2020.2.10,59.99016165031541,
0,1,4,"[-0.2, 0]",None,0,0,0,0,,,,,0,0,0,0,0,21,21,21,,,,,,,,,None,None,0,120.08193210000172,None,120.08193210000172,121.08186020003632,121.06519630004186,122.06521539995447,0,1,120.08193210000172,None,,,,2,m,8,r,MS,2021_Jun_16_1634,WASABI Nback,2020.2.10,59.99016165031541,
0,1,7,"[-0.2, -0.2]",None,0,0,0,0,,,,,0,0,0,0,0,22,22,22,,,,,,,,,None,None,0,122.08190999994986,None,122.08190999994986,123.08190710004419,123.06520409998484,124.06522899994161,0,1,122.08190999994986,None,,,,2,m,8,r,MS,2021_Jun_16_1634,WASABI Nback,2020.2.10,59.99016165031541,
0,1,4,"[-0.2, 0]",1,0,0,0,0,,,,,0,0,0,0,0,23,23,23,,,,,,,,,None,None,0,124.08191379997879,None,124.08191379997879,125.08192010002676,125.06522840005346,126.06526049994864,0,1,124.08191379997879,None,,,,2,m,8,r,MS,2021_Jun_16_1634,WASABI Nback,2020.2.10,59.99016165031541,
0,1,4,"[-0.2, 0]",None,0,0,0,0,,,,,0,0,0,0,0,24,24,24,,,,,,,,,None,None,0,126.08191840001382,None,126.08191840001382,127.08193880005274,127.06525740004145,128.06525670003612,0,1,126.08191840001382,None,,,,2,m,8,r,MS,2021_Jun_16_1634,WASABI Nback,2020.2.10,59.99016165031541,
0,1,5,"[0, 0]",None,0,0,0,0,,,,,0,0,0,0,0,25,25,25,,,,,,,,,None,None,1,128.08194890001323,None,128.08194890001323,129.0819393999409,129.06528930005152,130.0652984000044,1,0,128.08194890001323,None,1.3002531999954954,,,2,m,8,r,MS,2021_Jun_16_1634,WASABI Nback,2020.2.10,59.99016165031541,
0,1,2,"[0, 0.2]",None,0,0,0,0,,,,,0,0,0,0,0,26,26,26,,,,,,,,,None,None,0,130.08196490001865,None,130.08196490001865,131.08195909997448,131.0652831000043,132.0652857000241,0,1,130.08196490001865,None,,,,2,m,8,r,MS,2021_Jun_16_1634,WASABI Nback,2020.2.10,59.99016165031541,
0,1,6,"[0.2, 0]",None,0,0,0,0,,,,,0,0,0,0,0,27,27,27,,,,,,,,,None,None,0,132.08197059994563,None,132.08197059994563,133.08198450005148,133.06532589998096,134.06530849996489,0,1,132.08197059994563,None,,,,2,m,8,r,MS,2021_Jun_16_1634,WASABI Nback,2020.2.10,59.99016165031541,
0,1,7,"[-0.2, -0.2]",None,0,0,0,0,,,,,0,0,0,0,0,28,28,28,,,,,,,,,None,None,0,134.08197920001112,None,134.08197920001112,135.08199069998227,135.06532769999467,136.06533090001903,0,1,134.08197920001112,None,,,,2,m,8,r,MS,2021_Jun_16_1634,WASABI Nback,2020.2.10,59.99016165031541,
0,1,6,"[0.2, 0]",1,0,0,0,0,,,,,0,0,0,0,0,29,29,29,,,,,,,,,None,None,0,136.08202370000072,None,136.08202370000072,137.0820068999892,137.06532439996954,138.06533599994145,0,1,136.08202370000072,None,,,,2,m,8,r,MS,2021_Jun_16_1634,WASABI Nback,2020.2.10,59.99016165031541,
0,1,6,"[0.2, 0]",None,0,0,0,0,,,,,0,0,0,0,0,30,30,30,,,,,,,,,None,None,0,138.08200940000825,None,138.08200940000825,139.08202540001366,139.06534059997648,140.0653578999918,0,1,138.08200940000825,None,,,,2,m,8,r,MS,2021_Jun_16_1634,WASABI Nback,2020.2.10,59.99016165031541,
0,1,7,"[-0.2, -0.2]",None,0,0,0,0,,,,,0,0,0,0,0,31,31,31,,,,,,,,,None,None,0,140.08201869996265,None,140.08201869996265,141.0820345999673,141.06537179998122,142.06538060004823,0,1,140.08201869996265,None,,,,2,m,8,r,MS,2021_Jun_16_1634,WASABI Nback,2020.2.10,59.99016165031541,
0,1,6,"[0.2, 0]",1,0,0,0,0,,,,,0,0,0,0,0,32,32,32,,,,,,,,,None,None,1,142.08205069997348,None,142.08205069997348,143.08205179998185,143.0653723999858,144.06539590004832,1,1,142.08205069997348,None,0.900300299981609,,,2,m,8,r,MS,2021_Jun_16_1634,WASABI Nback,2020.2.10,59.99016165031541,
0,1,2,"[0, 0.2]",None,0,0,0,0,,,,,0,0,0,0,0,33,33,33,,,,,,,,,None,None,0,144.08205680001993,None,144.08205680001993,145.0820511999773,145.0653905000072,146.06540399999358,0,1,144.08205680001993,None,,,,2,m,8,r,MS,2021_Jun_16_1634,WASABI Nback,2020.2.10,59.99016165031541,
0,1,5,"[0, 0]",None,0,0,0,0,,,,,0,0,0,0,0,34,34,34,,,,,,,,,None,None,0,146.0820745000383,None,146.0820745000383,147.08207819995005,147.06541849998757,148.06542670005,0,1,146.0820745000383,None,,,,2,m,8,r,MS,2021_Jun_16_1634,WASABI Nback,2020.2.10,59.99016165031541,
0,1,4,"[-0.2, 0]",None,0,0,0,0,,,,,0,0,0,0,0,35,35,35,,,,,,,,,None,None,0,148.08211810002103,None,148.08211810002103,149.0820703000063,149.06541459995788,150.06543529999908,0,1,148.08211810002103,None,,,,2,m,8,r,MS,2021_Jun_16_1634,WASABI Nback,2020.2.10,59.99016165031541,
0,1,4,"[-0.2, 0]",None,0,0,0,0,,,,,0,0,0,0,0,36,36,36,,,,,,,,,None,None,1,150.082103200024,None,150.082103200024,151.08210330002476,151.06544669996947,152.06545200000983,1,0,150.082103200024,None,1.400344599969685,,,2,m,8,r,MS,2021_Jun_16_1634,WASABI Nback,2020.2.10,59.99016165031541,
0,1,7,"[-0.2, -0.2]",None,0,0,0,0,,,,,0,0,0,0,0,37,37,37,,,,,,,,,None,None,0,152.08212729997467,None,152.08212729997467,153.08213460003026,153.06545670004562,154.06547329993919,0,1,152.08212729997467,None,,,,2,m,8,r,MS,2021_Jun_16_1634,WASABI Nback,2020.2.10,59.99016165031541,
0,1,4,"[-0.2, 0]",1,0,0,0,0,,,,,0,0,0,0,0,38,38,38,,,,,,,,,None,None,1,154.082117700018,None,154.082117700018,155.08214780001435,155.0654791999841,156.06547699996736,1,1,154.082117700018,None,1.0003507999936119,,,2,m,8,r,MS,2021_Jun_16_1634,WASABI Nback,2020.2.10,59.99016165031541,
0,1,3,"[0.2, 0.2]",None,0,0,0,0,,,,,0,0,0,0,0,39,39,39,,,,,,,,,None,None,0,156.08215230004862,None,156.08215230004862,157.0821535999421,157.0654887999408,158.06549980002455,0,1,156.08215230004862,None,,,,2,m,8,r,MS,2021_Jun_16_1634,WASABI Nback,2020.2.10,59.99016165031541,
0,1,5,"[0, 0]",None,0,0,0,0,,,,,0,0,0,0,0,40,40,40,,,,,,,,,None,None,0,158.08217339997645,None,158.08217339997645,159.0821698999498,159.06551119999494,160.06551460002083,0,1,158.08217339997645,None,,,,2,m,8,r,MS,2021_Jun_16_1634,WASABI Nback,2020.2.10,59.99016165031541,
0,1,3,"[0.2, 0.2]",1,0,0,0,0,,,,,0,0,0,0,0,41,41,41,,,,,,,,,None,None,1,160.0821816000389,None,160.0821816000389,161.08219510002527,161.0655694999732,162.06552519998513,1,1,160.0821816000389,None,0.8336742999963462,,,2,m,8,r,MS,2021_Jun_16_1634,WASABI Nback,2020.2.10,59.99016165031541,
0,1,1,"[-0.2, 0.2]",None,0,0,0,0,,,,,0,0,0,0,0,42,42,42,,,,,,,,,None,None,0,162.0821979000466,None,162.0821979000466,163.08223569998518,163.06555589998607,164.0655399999814,0,1,162.0821979000466,None,,,,2,m,8,r,MS,2021_Jun_16_1634,WASABI Nback,2020.2.10,59.99016165031541,
0,1,9,"[0.2, -0.2]",None,0,0,0,0,,,,,0,0,0,0,0,43,43,43,,,,,,,,,None,None,0,164.08222149999347,None,164.08222149999347,165.08222670003306,165.06555960001424,166.06557330000214,0,1,164.08222149999347,None,,,,2,m,8,r,MS,2021_Jun_16_1634,WASABI Nback,2020.2.10,59.99016165031541,
0,1,9,"[0.2, -0.2]",None,0,0,0,0,,,,,0,0,0,0,0,44,44,44,,,,,,,,,None,None,1,166.08223159995396,None,166.08223159995396,167.08223780000117,167.0655663999496,168.065588700003,1,0,166.08223159995396,None,0.8669819000642747,,,2,m,8,r,MS,2021_Jun_16_1634,WASABI Nback,2020.2.10,59.99016165031541,
0,1,8,"[0, -0.2]",None,0,0,0,0,,,,,0,0,0,0,0,45,45,45,,,,,,,,,None,None,0,168.0822274000384,None,168.0822274000384,169.082255300018,169.0655915000243,170.06558910000604,0,1,168.0822274000384,None,,,,2,m,8,r,MS,2021_Jun_16_1634,WASABI Nback,2020.2.10,59.99016165031541,
0,1,6,"[0.2, 0]",None,0,0,0,0,,,,,0,0,0,0,0,46,46,46,,,,,,,,,None,None,0,170.08226699999068,None,170.08226699999068,171.08226549997926,171.0655997999711,172.0656323999865,0,1,170.08226699999068,None,,,,2,m,8,r,MS,2021_Jun_16_1634,WASABI Nback,2020.2.10,59.99016165031541,
0,1,3,"[0.2, 0.2]",None,0,0,0,0,,,,,0,0,0,0,0,47,47,47,,,,,,,,,None,None,0,172.08228470000904,None,172.08228470000904,173.08227230003104,173.0656333999941,174.06563620001543,0,1,172.08228470000904,None,,,,2,m,8,r,MS,2021_Jun_16_1634,WASABI Nback,2020.2.10,59.99016165031541,
0,1,6,"[0.2, 0]",1,0,0,0,0,,,,,0,0,0,0,0,48,48,48,,,,,,,,,None,None,1,174.0822829999961,None,174.0822829999961,175.08230180002283,175.0656310999766,176.06563910003752,1,1,174.0822829999961,None,0.7169584999792278,,,2,m,8,r,MS,2021_Jun_16_1634,WASABI Nback,2020.2.10,59.99016165031541,
0,1,5,"[0, 0]",None,0,0,0,0,,,,,0,0,0,0,0,49,49,49,,,,,,,,,None,None,0,176.082344800001,None,176.082344800001,177.08231460000388,177.06565789994784,178.0656536000315,0,1,176.082344800001,None,,,,2,m,8,r,MS,2021_Jun_16_1634,WASABI Nback,2020.2.10,59.99016165031541,
0,1,7,"[-0.2, -0.2]",None,0,0,0,0,,,,,0,0,0,0,0,50,50,50,,,,,,,,,None,None,0,178.08233310002834,None,178.08233310002834,179.0823535999516,179.06565829995088,180.0656605999684,0,1,178.08233310002834,None,,,,2,m,8,r,MS,2021_Jun_16_1634,WASABI Nback,2020.2.10,59.99016165031541,
0,1,5,"[0, 0]",1,0,0,0,0,,,,,0,0,0,0,0,51,51,51,,,,,,,,,None,None,1,180.08233819995075,None,180.08233819995075,181.08236100000795,181.06567489996087,182.06568370002788,1,1,180.08233819995075,None,0.9669774000067264,,,2,m,8,r,MS,2021_Jun_16_1634,WASABI Nback,2020.2.10,59.99016165031541,
0,1,1,"[-0.2, 0.2]",None,0,0,0,0,,,,,0,0,0,0,0,52,52,52,,,,,,,,,None,None,0,182.0823561999714,None,182.0823561999714,183.08235819998663,183.06556210003328,184.06570489995647,0,1,182.0823561999714,None,,,,2,m,8,r,MS,2021_Jun_16_1634,WASABI Nback,2020.2.10,59.99016165031541,
0,1,7,"[-0.2, -0.2]",None,0,0,0,0,,,,,0,0,0,0,0,53,53,53,,,,,,,,,None,None,0,184.0823745999951,None,184.0823745999951,185.08237780001946,185.06570030003786,186.0657221999718,0,1,184.0823745999951,None,,,,2,m,8,r,MS,2021_Jun_16_1634,WASABI Nback,2020.2.10,59.99016165031541,
0,1,9,"[0.2, -0.2]",None,0,0,0,0,,,,,0,0,0,0,0,54,54,54,,,,,,,,,None,None,0,186.08230929996353,None,186.08230929996353,187.08240189997014,187.0657234999817,188.06559609994292,0,1,186.08230929996353,None,,,,2,m,8,r,MS,2021_Jun_16_1634,WASABI Nback,2020.2.10,59.99016165031541,
0,1,3,"[0.2, 0.2]",None,0,0,0,0,,,,,0,0,0,0,0,55,55,55,,,,,,,,,None,None,0,188.08239929995034,None,188.08239929995034,189.08240930002648,189.06575079995673,190.06575339997653,0,1,188.08239929995034,None,,,,2,m,8,r,MS,2021_Jun_16_1634,WASABI Nback,2020.2.10,59.99016165031541,
0,1,9,"[0.2, -0.2]",1,0,0,0,0,,,,,0,0,0,0,0,56,56,56,,,,,,,,,None,None,1,190.08240610000212,None,190.08240610000212,191.08243780001067,191.06575800001156,192.06576649995986,1,1,190.08240610000212,None,0.9362499000271782,,,2,m,8,r,MS,2021_Jun_16_1634,WASABI Nback,2020.2.10,59.99016165031541,
0,1,6,"[0.2, 0]",None,0,0,0,0,,,,,0,0,0,0,0,57,57,57,,,,,,,,,None,None,0,192.08253410004545,None,192.08253410004545,193.08242810005322,193.06576190004125,194.06574370001908,0,1,192.08253410004545,None,,,,2,m,8,r,MS,2021_Jun_16_1634,WASABI Nback,2020.2.10,59.99016165031541,
0,1,2,"[0, 0.2]",None,0,0,0,0,,,,,0,0,0,0,0,58,58,58,,,,,,,,,None,None,0,194.08244769996963,None,194.08244769996963,195.0824548000237,195.065794599941,196.06578720000107,0,1,194.08244769996963,None,,,,2,m,8,r,MS,2021_Jun_16_1634,WASABI Nback,2020.2.10,59.99016165031541,
0,1,5,"[0, 0]",None,0,0,0,0,,,,,0,0,0,0,0,59,59,59,,,,,,,,,None,None,0,196.0824685000116,None,196.0824685000116,197.08247479994316,197.06579659995623,198.06581960001495,0,1,196.0824685000116,None,,,,2,m,8,r,MS,2021_Jun_16_1634,WASABI Nback,2020.2.10,59.99016165031541,
0,1,5,"[0, 0]",None,0,0,0,0,,,,,0,0,0,0,0,60,60,60,,,,,,,,,None,None,0,198.08247819996905,None,198.08247819996905,199.0825072999578,199.06581069994718,200.0658116999548,0,1,198.08247819996905,None,,,,2,m,8,r,MS,2021_Jun_16_1634,WASABI Nback,2020.2.10,59.99016165031541,
0,1,2,"[0, 0.2]",None,0,0,0,0,,,,,0,0,0,0,0,61,61,61,,,,,,,,,None,None,0,200.08251750003546,None,200.08251750003546,201.08251009997912,201.06581900001038,202.06583480001427,0,1,200.08251750003546,None,,,,2,m,8,r,MS,2021_Jun_16_1634,WASABI Nback,2020.2.10,59.99016165031541,
0,1,6,"[0.2, 0]",None,0,0,0,0,,,,,0,0,0,0,0,62,62,62,,,,,,,,,None,None,0,202.08251750003546,None,202.08251750003546,203.08252059994265,203.06585649994668,204.06584449997172,0,1,202.08251750003546,None,,,,2,m,8,r,MS,2021_Jun_16_1634,WASABI Nback,2020.2.10,59.99016165031541,
0,1,9,"[0.2, -0.2]",None,0,0,0,0,,,,,0,0,0,0,0,63,63,63,,,,,,,,,None,None,0,204.0825316000264,None,204.0825316000264,205.08253510005306,205.06587709998712,206.06586510001216,0,1,204.0825316000264,None,,,,2,m,8,r,MS,2021_Jun_16_1634,WASABI Nback,2020.2.10,59.99016165031541,
0,1,3,"[0.2, 0.2]",None,0,0,0,0,,,,,0,0,0,0,0,64,64,64,,,,,,,,,None,None,0,206.0825522999512,None,206.0825522999512,207.0825746000046,207.06587729998864,208.06587990000844,0,1,206.0825522999512,None,,,,2,m,8,r,MS,2021_Jun_16_1634,WASABI Nback,2020.2.10,59.99016165031541,
0,1,9,"[0.2, -0.2]",1,0,0,0,0,,,,,0,0,0,0,0,65,65,65,,,,,,,,,None,None,1,208.08256330003496,None,208.08256330003496,209.08260940003674,209.06590829999186,210.06591480004136,1,1,208.08256330003496,None,1.2503008999628946,,,2,m,8,r,MS,2021_Jun_16_1634,WASABI Nback,2020.2.10,59.99016165031541,
0,1,7,"[-0.2, -0.2]",None,0,0,0,0,,,,,0,0,0,0,0,66,66,66,,,,,,,,,None,None,0,210.0825732999947,None,210.0825732999947,211.08258090005256,211.06589329999406,212.06592029996682,0,1,210.0825732999947,None,,,,2,m,8,r,MS,2021_Jun_16_1634,WASABI Nback,2020.2.10,59.99016165031541,
0,1,1,"[-0.2, 0.2]",None,0,0,0,0,,,,,0,0,0,0,0,67,67,67,,,,,,,,,None,None,0,212.0826301999623,None,212.0826301999623,213.082578200032,213.06592720001936,214.06595860002562,0,1,212.0826301999623,None,,,,2,m,8,r,MS,2021_Jun_16_1634,WASABI Nback,2020.2.10,59.99016165031541,
0,1,5,"[0, 0]",None,0,0,0,0,,,,,0,0,0,0,0,68,68,68,,,,,,,,,None,None,0,214.08263189997524,None,214.08263189997524,215.0826332999859,215.0659329999471,216.06596519995946,0,1,214.08263189997524,None,,,,2,m,8,r,MS,2021_Jun_16_1634,WASABI Nback,2020.2.10,59.99016165031541,
0,1,7,"[-0.2, -0.2]",None,0,0,0,0,,,,,0,0,0,0,0,69,69,69,,,,,,,,,None,None,0,216.08263369998895,None,216.08263369998895,217.0826324999798,217.06596060004085,218.06596140004694,0,1,216.08263369998895,None,,,,2,m,8,r,MS,2021_Jun_16_1634,WASABI Nback,2020.2.10,59.99016165031541,
0,1,5,"[0, 0]",1,0,0,0,0,,,,,0,0,0,0,0,70,70,70,,,,,,,,,None,None,1,218.0826369000133,None,218.0826369000133,219.08265600004233,219.0659676999785,220.0659708000021,1,1,218.0826369000133,None,1.1169519999530166,,,2,m,8,r,MS,2021_Jun_16_1634,WASABI Nback,2020.2.10,59.99016165031541,
0,1,6,"[0.2, 0]",None,0,0,0,0,,,,,0,0,0,0,0,71,71,71,,,,,,,,,None,None,0,220.08263870002702,None,220.08263870002702,221.082648599986,221.06596729997545,222.06587060005404,0,1,220.08263870002702,None,,,,2,m,8,r,MS,2021_Jun_16_1634,WASABI Nback,2020.2.10,59.99016165031541,
0,1,3,"[0.2, 0.2]",None,0,0,0,0,,,,,0,0,0,0,0,72,72,72,,,,,,,,,None,None,0,222.08266630000435,None,222.08266630000435,223.08267589996103,223.06600969994906,224.06599619996268,0,1,222.08266630000435,None,,,,2,m,8,r,MS,2021_Jun_16_1634,WASABI Nback,2020.2.10,59.99016165031541,
0,1,6,"[0.2, 0]",1,0,0,0,0,,,,,0,0,0,0,0,73,73,73,,,,,,,,,None,None,1,224.08265979995485,None,224.08265979995485,225.08265520003624,225.0660144999856,226.06603410001844,1,1,224.08265979995485,None,1.1538654000032693,,,2,m,8,r,MS,2021_Jun_16_1634,WASABI Nback,2020.2.10,59.99016165031541,
0,1,8,"[0, -0.2]",None,0,0,0,0,,,,,0,0,0,0,0,74,74,74,,,,,,,,,None,None,0,226.08270999998786,None,226.08270999998786,227.082711199997,227.0660297999857,228.06603690003976,0,1,226.08270999998786,None,,,,2,m,8,r,MS,2021_Jun_16_1634,WASABI Nback,2020.2.10,59.99016165031541,
0,1,9,"[0.2, -0.2]",None,0,0,0,0,,,,,0,0,0,0,0,75,75,75,,,,,,,,,None,None,0,228.08271180000156,None,228.08271180000156,229.082653200021,229.06606209999882,230.06597630004399,0,1,228.08271180000156,None,,,,2,m,8,r,MS,2021_Jun_16_1634,WASABI Nback,2020.2.10,59.99016165031541,
0,1,9,"[0.2, -0.2]",None,0,0,0,0,,,,,0,0,0,0,0,76,76,76,,,,,,,,,None,None,0,230.08273969998118,None,230.08273969998118,231.08274230000097,231.06607930001337,232.06605999998283,0,0,230.08273969998118,None,,,,2,m,8,r,MS,2021_Jun_16_1634,WASABI Nback,2020.2.10,59.99016165031541,
0,1,1,"[-0.2, 0.2]",None,0,0,0,0,,,,,0,0,0,0,0,77,77,77,,,,,,,,,None,None,0,232.08272249996662,None,232.08272249996662,233.08275639999192,233.0660716999555,234.06609330000356,0,1,232.08272249996662,None,,,,2,m,8,r,MS,2021_Jun_16_1634,WASABI Nback,2020.2.10,59.99016165031541,
0,1,3,"[0.2, 0.2]",None,0,0,0,0,,,,,0,0,0,0,0,78,78,78,,,,,,,,,None,None,0,234.082764999941,None,234.082764999941,235.08277340000495,235.0660848999396,236.0661045999732,0,1,234.082764999941,None,,,,2,m,8,r,MS,2021_Jun_16_1634,WASABI Nback,2020.2.10,59.99016165031541,
0,1,5,"[0, 0]",None,0,0,0,0,,,,,0,0,0,0,0,79,79,79,,,,,,,,,None,None,0,236.08277390000876,None,236.08277390000876,237.08277239999734,237.06612440000754,238.06618700001854,0,1,236.08277390000876,None,,,,2,m,8,r,MS,2021_Jun_16_1634,WASABI Nback,2020.2.10,59.99016165031541,
0,1,3,"[0.2, 0.2]",1,0,0,0,0,,,,,0,0,0,0,0,80,80,80,,,,,,,,,None,None,0,238.08278319996316,None,238.08278319996316,239.08280470001046,239.066119599971,240.06614979996812,0,1,238.08278319996316,None,,,,2,m,8,r,MS,2021_Jun_16_1634,WASABI Nback,2020.2.10,59.99016165031541,
0,1,4,"[-0.2, 0]",None,0,0,0,0,,,,,0,0,0,0,0,81,81,81,,,,,,,,,None,None,0,240.0828077000333,None,240.0828077000333,241.08281119994354,241.0661358999787,242.06614629994147,0,1,240.0828077000333,None,,,,2,m,8,r,MS,2021_Jun_16_1634,WASABI Nback,2020.2.10,59.99016165031541,
0,1,7,"[-0.2, -0.2]",None,0,0,0,0,,,,,0,0,0,0,0,82,82,82,,,,,,,,,None,None,0,242.0828283999581,None,242.0828283999581,243.08283289999235,243.06616879999638,244.06616080005188,0,1,242.0828283999581,None,,,,2,m,8,r,MS,2021_Jun_16_1634,WASABI Nback,2020.2.10,59.99016165031541,
0,1,4,"[-0.2, 0]",1,0,0,0,0,,,,,0,0,0,0,0,83,83,83,,,,,,,,,None,None,0,244.082838500035,None,244.082838500035,245.08285000000615,245.06617440003902,246.06623690004926,0,1,244.082838500035,None,,,,2,m,8,r,MS,2021_Jun_16_1634,WASABI Nback,2020.2.10,59.99016165031541,
0,1,4,"[-0.2, 0]",None,0,0,0,0,,,,,0,0,0,0,0,84,84,84,,,,,,,,,None,None,0,246.08285500004422,None,246.08285500004422,247.08293070003856,247.0661839999957,248.0662021000171,0,1,246.08285500004422,None,,,,2,m,8,r,MS,2021_Jun_16_1634,WASABI Nback,2020.2.10,59.99016165031541,
0,1,5,"[0, 0]",None,0,0,0,0,,,,,0,0,0,0,0,85,85,85,,,,,,,,,None,None,0,248.08287329995073,None,248.08287329995073,249.0828809000086,249.0662008000072,250.06619759998284,0,1,248.08287329995073,None,,,,2,m,8,r,MS,2021_Jun_16_1634,WASABI Nback,2020.2.10,59.99016165031541,
0,1,2,"[0, 0.2]",None,0,0,0,0,,,,,0,0,0,0,0,86,86,86,,,,,,,,,None,None,0,250.08290319994558,None,250.08290319994558,251.08291019999888,251.06623460003175,252.0662232999457,0,1,250.08290319994558,None,,,,2,m,8,r,MS,2021_Jun_16_1634,WASABI Nback,2020.2.10,59.99016165031541,
0,1,6,"[0.2, 0]",None,0,0,0,0,,,,,0,0,0,0,0,87,87,87,,,,,,,,,None,None,0,252.08291130000725,None,252.08291130000725,253.08291540003847,253.06624389998615,254.06622559996322,0,1,252.08291130000725,None,,,,2,m,8,r,MS,2021_Jun_16_1634,WASABI Nback,2020.2.10,59.99016165031541,
0,1,7,"[-0.2, -0.2]",None,0,0,0,0,,,,,0,0,0,0,0,88,88,88,,,,,,,,,None,None,0,254.08291929995175,None,254.08291929995175,255.0829496999504,255.0662526000524,256.066249400028,0,1,254.08291929995175,None,,,,2,m,8,r,MS,2021_Jun_16_1634,WASABI Nback,2020.2.10,59.99016165031541,
0,1,6,"[0.2, 0]",1,0,0,0,0,,,,,0,0,0,0,0,89,89,89,,,,,,,,,None,None,1,256.0829488999443,None,256.0829488999443,257.08295710000675,257.0662708999589,258.06630239996593,1,1,256.0829488999443,None,1.2336136000230908,,,2,m,8,r,MS,2021_Jun_16_1634,WASABI Nback,2020.2.10,59.99016165031541,
0,1,6,"[0.2, 0]",None,0,0,0,0,,,,,0,0,0,0,0,90,90,90,,,,,,,,,None,None,0,258.0829483999405,None,258.0829483999405,259.08293349994346,259.06629510002676,260.06628549995366,0,1,258.0829483999405,None,,,,2,m,8,r,MS,2021_Jun_16_1634,WASABI Nback,2020.2.10,59.99016165031541,
0,1,7,"[-0.2, -0.2]",None,0,0,0,0,,,,,0,0,0,0,0,91,91,91,,,,,,,,,None,None,0,260.0829638999421,None,260.0829638999421,261.082979699946,261.0663037999766,262.06631330004893,0,1,260.0829638999421,None,,,,2,m,8,r,MS,2021_Jun_16_1634,WASABI Nback,2020.2.10,59.99016165031541,
0,1,6,"[0.2, 0]",1,0,0,0,0,,,,,0,0,0,0,0,92,92,92,,,,,,,,,None,None,0,262.08297979994677,None,262.08297979994677,263.08296250004787,263.06632490002085,264.06631999998353,0,0,262.08297979994677,None,,,,2,m,8,r,MS,2021_Jun_16_1634,WASABI Nback,2020.2.10,59.99016165031541,
0,1,2,"[0, 0.2]",None,0,0,0,0,,,,,0,0,0,0,0,93,93,93,,,,,,,,,None,None,0,264.0830046000192,None,264.0830046000192,265.08299150003586,265.06633990001865,266.0663337999722,0,1,264.0830046000192,None,,,,2,m,8,r,MS,2021_Jun_16_1634,WASABI Nback,2020.2.10,59.99016165031541,
0,1,5,"[0, 0]",None,0,0,0,0,,,,,0,0,0,0,0,94,94,94,,,,,,,,,None,None,0,266.08301169995684,None,266.08301169995684,267.0829967999598,267.06634270003997,268.06636579998303,0,1,266.08301169995684,None,,,,2,m,8,r,MS,2021_Jun_16_1634,WASABI Nback,2020.2.10,59.99016165031541,
0,1,4,"[-0.2, 0]",None,0,0,0,0,,,,,0,0,0,0,0,95,95,95,,,,,,,,,None,None,0,268.0830328000011,None,268.0830328000011,269.0830546000507,269.0663769999519,270.06636389996856,0,1,268.0830328000011,None,,,,2,m,8,r,MS,2021_Jun_16_1634,WASABI Nback,2020.2.10,59.99016165031541,
0,1,4,"[-0.2, 0]",None,0,0,0,0,,,,,0,0,0,0,0,96,96,96,,,,,,,,,None,None,0,270.0830433999654,None,270.0830433999654,271.083098800038,271.0663713000249,272.0663876000326,0,1,270.0830433999654,None,,,,2,m,8,r,MS,2021_Jun_16_1634,WASABI Nback,2020.2.10,59.99016165031541,
0,1,7,"[-0.2, -0.2]",None,0,0,0,0,,,,,0,0,0,0,0,97,97,97,,,,,,,,,None,None,0,272.0830370000331,None,272.0830370000331,273.0830364000285,273.0664082999574,274.0664103999734,0,1,272.0830370000331,None,,,,2,m,8,r,MS,2021_Jun_16_1634,WASABI Nback,2020.2.10,59.99016165031541,
0,1,4,"[-0.2, 0]",1,0,0,0,0,,,,,0,0,0,0,0,98,98,98,,,,,,,,,None,None,1,274.0830774999922,None,274.0830774999922,275.08307429996785,275.06639549997635,276.06641490000766,1,1,274.0830774999922,None,0.6003141000401229,,,2,m,8,r,MS,2021_Jun_16_1634,WASABI Nback,2020.2.10,59.99016165031541,
0,1,3,"[0.2, 0.2]",None,0,0,0,0,,,,,0,0,0,0,0,99,99,99,,,,,,,,,None,None,0,276.08308959996793,None,276.08308959996793,277.08310199994594,277.06643659994006,278.0664352000458,0,1,276.08308959996793,None,,,,2,m,8,r,MS,2021_Jun_16_1634,WASABI Nback,2020.2.10,59.99016165031541,
0,1,5,"[0, 0]",None,0,0,0,0,,,,,0,0,0,0,0,100,100,100,,,,,,,,,None,None,0,278.0831043999642,None,278.0831043999642,279.0831598000368,279.0664516000543,280.0664606000064,0,1,278.0831043999642,None,,,,2,m,8,r,MS,2021_Jun_16_1634,WASABI Nback,2020.2.10,59.99016165031541,
0,1,3,"[0.2, 0.2]",1,0,0,0,0,,,,,0,0,0,0,0,101,101,101,,,,,,,,,None,None,1,280.08311230002437,None,280.08311230002437,281.08313669997733,281.06645209994167,282.0664800000377,1,1,280.08311230002437,None,1.4836506999563426,,,2,m,8,r,MS,2021_Jun_16_1634,WASABI Nback,2020.2.10,59.99016165031541,
0,1,1,"[-0.2, 0.2]",None,0,0,0,0,,,,,0,0,0,0,0,102,102,102,,,,,,,,,None,None,0,282.083135999972,None,282.083135999972,283.08315429999493,283.06647570000496,284.0664890999906,0,1,282.083135999972,None,,,,2,m,8,r,MS,2021_Jun_16_1634,WASABI Nback,2020.2.10,59.99016165031541,
0,1,9,"[0.2, -0.2]",None,0,0,0,0,,,,,0,0,0,0,0,103,103,103,,,,,,,,,None,None,0,284.0831489999546,None,284.0831489999546,285.0831590000307,285.0664995999541,286.06650730001274,0,1,284.0831489999546,None,,,,2,m,8,r,MS,2021_Jun_16_1634,WASABI Nback,2020.2.10,59.99016165031541,
0,1,9,"[0.2, -0.2]",None,0,0,0,0,,,,,0,0,0,0,0,104,104,104,,,,,,,,,None,None,0,286.0831664999714,None,286.0831664999714,287.08317650004756,287.06651369994506,288.06651200004853,0,1,286.0831664999714,None,,,,2,m,8,r,MS,2021_Jun_16_1634,WASABI Nback,2020.2.10,59.99016165031541,
0,1,8,"[0, -0.2]",None,0,0,0,0,,,,,0,0,0,0,0,105,105,105,,,,,,,,,None,None,0,288.0831843999913,None,288.0831843999913,289.0831804999616,289.0664137999993,290.0665411000373,0,1,288.0831843999913,None,,,,2,m,8,r,MS,2021_Jun_16_1634,WASABI Nback,2020.2.10,59.99016165031541,
0,1,6,"[0.2, 0]",None,0,0,0,0,,,,,0,0,0,0,0,106,106,106,,,,,,,,,None,None,0,290.0831878000172,None,290.0831878000172,291.0832096999511,291.0665590999415,292.0665477999719,0,1,290.0831878000172,None,,,,2,m,8,r,MS,2021_Jun_16_1634,WASABI Nback,2020.2.10,59.99016165031541,
0,1,3,"[0.2, 0.2]",None,0,0,0,0,,,,,0,0,0,0,0,107,107,107,,,,,,,,,None,None,0,292.0832156999968,None,292.0832156999968,293.0832351000281,293.0665748999454,294.0665558000328,0,1,292.0832156999968,None,,,,2,m,8,r,MS,2021_Jun_16_1634,WASABI Nback,2020.2.10,59.99016165031541,
0,1,6,"[0.2, 0]",1,0,0,0,0,,,,,0,0,0,0,0,108,108,108,,,,,,,,,None,None,1,294.0832317000022,None,294.0832317000022,295.0832410999574,295.0665739000542,296.06659910001326,1,1,294.0832317000022,None,1.4169599999440834,,,2,m,8,r,MS,2021_Jun_16_1634,WASABI Nback,2020.2.10,59.99016165031541,
0,1,5,"[0, 0]",None,0,0,0,0,,,,,0,0,0,0,0,109,109,109,,,,,,,,,None,None,0,296.0832480000099,None,296.0832480000099,297.08328879997134,297.06665529997554,298.0666074999608,0,1,296.0832480000099,None,,,,2,m,8,r,MS,2021_Jun_16_1634,WASABI Nback,2020.2.10,59.99016165031541,
0,1,7,"[-0.2, -0.2]",None,0,0,0,0,,,,,0,0,0,0,0,110,110,110,,,,,,,,,None,None,0,298.0832692999393,None,298.0832692999393,299.08328390005045,299.0666150000179,300.06661129998975,0,1,298.0832692999393,None,,,,2,m,8,r,MS,2021_Jun_16_1634,WASABI Nback,2020.2.10,59.99016165031541,
0,1,5,"[0, 0]",1,0,0,0,0,,,,,0,0,0,0,0,111,111,111,,,,,,,,,None,None,0,300.0832542999415,None,300.0832542999415,301.08328829996753,301.06663450005,302.0666319000302,0,0,300.0832542999415,None,,,,2,m,8,r,MS,2021_Jun_16_1634,WASABI Nback,2020.2.10,59.99016165031541,
0,1,1,"[-0.2, 0.2]",None,0,0,0,0,,,,,0,0,0,0,0,112,112,112,,,,,,,,,None,None,0,302.08331180003006,None,302.08331180003006,303.0833002999425,303.06663739995565,304.0666421999922,0,1,302.08331180003006,None,,,,2,m,8,r,MS,2021_Jun_16_1634,WASABI Nback,2020.2.10,59.99016165031541,
0,1,7,"[-0.2, -0.2]",None,0,0,0,0,,,,,0,0,0,0,0,113,113,113,,,,,,,,,None,None,0,304.0833181999624,None,304.0833181999624,305.08332500001416,305.0666584999999,306.06668269995134,0,1,304.0833181999624,None,,,,2,m,8,r,MS,2021_Jun_16_1634,WASABI Nback,2020.2.10,59.99016165031541,
0,1,9,"[0.2, -0.2]",None,0,0,0,0,,,,,0,0,0,0,0,114,114,114,,,,,,,,,None,None,0,306.0833278000355,None,306.0833278000355,307.0833206999814,307.0666736999992,308.0667314999737,0,1,306.0833278000355,None,,,,2,m,8,r,MS,2021_Jun_16_1634,WASABI Nback,2020.2.10,59.99016165031541,
0,1,3,"[0.2, 0.2]",None,0,0,0,0,,,,,0,0,0,0,0,115,115,115,,,,,,,,,None,None,0,308.0833359999815,None,308.0833359999815,309.0832199000288,309.06667129998095,310.0666909000138,0,1,308.0833359999815,None,,,,2,m,8,r,MS,2021_Jun_16_1634,WASABI Nback,2020.2.10,59.99016165031541,
0,1,9,"[0.2, -0.2]",1,0,0,0,0,,,,,0,0,0,0,0,116,116,116,,,,,,,,,None,None,1,310.0833667999832,None,310.0833667999832,311.08335680002347,311.06670760002453,312.06669440004043,1,1,310.0833667999832,None,0.8503193999640644,,,2,m,8,r,MS,2021_Jun_16_1634,WASABI Nback,2020.2.10,59.99016165031541,
0,1,6,"[0.2, 0]",None,0,0,0,0,,,,,0,0,0,0,0,117,117,117,,,,,,,,,None,None,0,312.08337210002355,None,312.08337210002355,313.08339020004496,313.066702799988,314.06671349995304,0,1,312.08337210002355,None,,,,2,m,8,r,MS,2021_Jun_16_1634,WASABI Nback,2020.2.10,59.99016165031541,
0,1,2,"[0, 0.2]",None,0,0,0,0,,,,,0,0,0,0,0,118,118,118,,,,,,,,,None,None,0,314.08338710002135,None,314.08338710002135,315.08339749998413,315.0667332999874,316.066730099963,0,1,314.08338710002135,None,,,,2,m,8,r,MS,2021_Jun_16_1634,WASABI Nback,2020.2.10,59.99016165031541,
0,1,5,"[0, 0]",None,0,0,0,0,,,,,0,0,0,0,0,119,119,119,,,,,,,,,None,None,0,316.0834099999629,None,316.0834099999629,317.0834053000435,317.06674629996996,318.0667427999433,0,1,316.0834099999629,None,,,,2,m,8,r,MS,2021_Jun_16_1634,WASABI Nback,2020.2.10,59.99016165031541,
1,0,,,,0,1,1,1,0,0,0,0,,,,,,,,,,,,,,,,,,,,,,,,,,,,,,,356.6837201999733,None,2,m,8,r,MS,2021_Jun_16_1634,WASABI Nback,2020.2.10,59.99016165031541,
