	SID	date	sex	session	handedness	scanner	onset	duration	repetition	rating	body_site	keys	temperature	conditionrt	mouseclick	biopac_channel	condition	rt	value
0	2988	2024_Jun_21_1700	m	1	r	SS MRS	2.774662400013767	5.002279618289322								19	Instructions		
1	2988	2024_Jun_21_1700	m	1	r	SS MRS	9.00237699993886	1.9996477200184017								6	Cue		
2	2988	2024_Jun_21_1700	m	1	r	SS MRS	11.012904800008982	5.994385730009526								7	Pre-Jitter		
3	2988	2024_Jun_21_1700	m	1	r	SS MRS	17.055493399966508	15.009493520017713			Chest		48.0			17	Heat-Stimulation		
4	2988	2024_Jun_21_1700	m	1	r	SS MRS	32.13899789995048	9.009468980017118								8	Mid-Jitter		
5	2988	2024_Jun_21_1700	m	1	r	SS MRS	41.162023199955	4.9968494600616395								20	PainBinary	1.5503466000081971	1.0
6	2988	2024_Jun_21_1700	m	1	r	SS MRS	46.18103360000532	5.008958559832536								21	IntensityRating	4.13357669999823	46.79012345679012
7	2988	2024_Jun_21_1700	m	1	r	SS MRS	51.20997379999608	5.001179959974252								22	ToleranceRating	4.700378299923614	-1.0
8	2988	2024_Jun_21_1700	m	1	r	SS MRS	56.21462939993944	9.008664430119097								9	Post-Q-Jitter		
9	2988	2024_Jun_21_1700	m	1	r	SS MRS	66.65394739992917	2.0146255099680275								6	Cue		
10	2988	2024_Jun_21_1700	m	1	r	SS MRS	68.66233389999252	3.996833930024877								7	Pre-Jitter		
11	2988	2024_Jun_21_1700	m	1	r	SS MRS	72.68593019992113	15.016599689959548			Chest		47.5			17	Heat-Stimulation		
12	2988	2024_Jun_21_1700	m	1	r	SS MRS	87.77156010002363	5.012260379968211								8	Mid-Jitter		
13	2988	2024_Jun_21_1700	m	1	r	SS MRS	92.79809509997722	5.0092421600129455								20	PainBinary	1.5171578999143094	1.0
14	2988	2024_Jun_21_1700	m	1	r	SS MRS	97.82997640001122	5.012308559846133								21	IntensityRating	4.583560100058094	37.407407407407405
15	2988	2024_Jun_21_1700	m	1	r	SS MRS	102.86045449995436	5.001446660025977								22	ToleranceRating	1.633655000012368	1.0
16	2988	2024_Jun_21_1700	m	1	r	SS MRS	107.86511709995102	4.9921916300663725								9	Post-Q-Jitter		
17	2988	2024_Jun_21_1700	m	1	r	SS MRS	114.30193159996998	2.0031567099504173								6	Cue		
18	2988	2024_Jun_21_1700	m	1	r	SS MRS	116.31306810001843	3.996491530095227								7	Pre-Jitter		
19	2988	2024_Jun_21_1700	m	1	r	SS MRS	120.35837719996925	15.006130020017736			Chest		47.5			17	Heat-Stimulation		
20	2988	2024_Jun_21_1700	m	1	r	SS MRS	135.43729779997375	7.0152314798906446								8	Mid-Jitter		
21	2988	2024_Jun_21_1700	m	1	r	SS MRS	142.46470959996805	5.010509560001083								20	PainBinary	1.1336642999667674	1.0
22	2988	2024_Jun_21_1700	m	1	r	SS MRS	147.49769360001665	5.011330059845932								21	IntensityRating	3.083639399963431	32.77777777777778
23	2988	2024_Jun_21_1700	m	1	r	SS MRS	152.52858139993623	4.999702159897424								22	ToleranceRating	2.183725900016725	1.0
24	2988	2024_Jun_21_1700	m	1	r	SS MRS	157.5332409000257	7.007168730022386								9	Post-Q-Jitter		
25	2988	2024_Jun_21_1700	m	1	r	SS MRS	165.38014999998268	2.0141250300221145								6	Cue		
26	2988	2024_Jun_21_1700	m	1	r	SS MRS	167.39660919993185	3.9972821299452335								7	Pre-Jitter		
27	2988	2024_Jun_21_1700	m	1	r	SS MRS	171.43248419999145	15.009113089879975			Chest		47.5			17	Heat-Stimulation		
28	2988	2024_Jun_21_1700	m	1	r	SS MRS	186.52122749993578	7.015260779997334								8	Mid-Jitter		
29	2988	2024_Jun_21_1700	m	1	r	SS MRS	193.548001499963	5.01178596005775								20	PainBinary	2.801853399956599	1.0
30	2988	2024_Jun_21_1700	m	1	r	SS MRS	198.58137359993998	5.0118182599544525								21	IntensityRating	4.71695070003625	32.03703703703704
31	2988	2024_Jun_21_1700	m	1	r	SS MRS	203.6122068000259	5.000212660059333								22	ToleranceRating	1.800330900005065	1.0
32	2988	2024_Jun_21_1700	m	1	r	SS MRS	208.61718990001827	7.007004329934716								9	Post-Q-Jitter		
33	2988	2024_Jun_21_1700	m	1	r	SS MRS	217.1566787000047	2.0127684897743165								6	Cue		
34	2988	2024_Jun_21_1700	m	1	r	SS MRS	219.16387859999668	3.9972829300677404								7	Pre-Jitter		
35	2988	2024_Jun_21_1700	m	1	r	SS MRS	223.20531989994925	15.014652820071205			Chest		47.5			17	Heat-Stimulation		
36	2988	2024_Jun_21_1700	m	1	r	SS MRS	238.28980739996769	5.01260438002646								8	Mid-Jitter		
37	2988	2024_Jun_21_1700	m	1	r	SS MRS	243.3155236999737	5.011234359932132								20	PainBinary	2.683604000019841	1.0
38	2988	2024_Jun_21_1700	m	1	r	SS MRS	248.348890400026	5.011289960006252								21	IntensityRating	3.866929900017567	32.65432098765432
39	2988	2024_Jun_21_1700	m	1	r	SS MRS	253.3797304999316	4.999734159908257								22	ToleranceRating	1.8669864000985399	1.0
40	2988	2024_Jun_21_1700	m	1	r	SS MRS	258.3844899999676	5.006956430035643								9	Post-Q-Jitter		
41	2988	2024_Jun_21_1700	m	1	r	SS MRS	264.8297499999171	2.001020109746605								6	Cue		
42	2988	2024_Jun_21_1700	m	1	r	SS MRS	266.8314277000027	7.996603530133143								7	Pre-Jitter		
43	2988	2024_Jun_21_1700	m	1	r	SS MRS	274.8698005999904	15.003528489964083			Chest		47.5			17	Heat-Stimulation		
44	2988	2024_Jun_21_1700	m	1	r	SS MRS	289.9587331999792	5.009318779921159								8	Mid-Jitter		
45	2988	2024_Jun_21_1700	m	1	r	SS MRS	294.98358320002444	5.00969606009312								20	PainBinary	0.0	1.0
46	2988	2024_Jun_21_1700	m	1	r	SS MRS	300.01658579998184	5.010448159882799								21	IntensityRating	3.8670243999222293	37.65432098765433
47	2988	2024_Jun_21_1700	m	1	r	SS MRS	305.0466575999744	5.000414159963839								22	ToleranceRating	2.2170105000259355	1.0
48	2988	2024_Jun_21_1700	m	1	r	SS MRS	310.0514903999865	5.0075172301149								9	Post-Q-Jitter		
49	2988	2024_Jun_21_1700	m	1	r	SS MRS	316.4866747999331	2.0050432798452675								6	Cue		
50	2988	2024_Jun_21_1700	m	1	r	SS MRS	318.49862269998994	5.996789230033755								7	Pre-Jitter		
51	2988	2024_Jun_21_1700	m	1	r	SS MRS	324.51996790000703	15.004370859940536			Chest		47.5			17	Heat-Stimulation		
52	2988	2024_Jun_21_1700	m	1	r	SS MRS	339.60665869992226	9.014669179916382								8	Mid-Jitter		
53	2988	2024_Jun_21_1700	m	1	r	SS MRS	348.6345014999388	5.009117659996264								20	PainBinary	1.1002485000062734	1.0
54	2988	2024_Jun_21_1700	m	1	r	SS MRS	353.665434799972	5.014040359994397								21	IntensityRating	3.3002343999687582	29.32098765432099
55	2988	2024_Jun_21_1700	m	1	r	SS MRS	358.6970386999892	5.000972360023297								22	ToleranceRating	2.2855154999997467	1.0
56	2988	2024_Jun_21_1700	m	1	r	SS MRS	363.7021277999738	9.007558130077086								9	Post-Q-Jitter		
57	2988	2024_Jun_21_1700	m	1	r	SS MRS	372.7410374999745	7.030085589969531								26	ComfortRating	7.0003555000294	32.09876543209876
58	2988	2024_Jun_21_1700	m	1	r	SS MRS	379.7873092999216	7.271038559963927								24	ValenceRating	7.236765399924479	35.67901234567901
59	2988	2024_Jun_21_1700	m	1	r	SS MRS	387.080218099989	5.835335259907879								26	IntensityRating	5.817026500008069	46.60493827160494
60	2988	2024_Jun_21_1700	m	1	r	SS MRS	392.93357559992	4.895415759878233								27	AvoidanceRating	4.852144599892199	-12.098765432098773
61	2988	2024_Jun_21_1700	m	1	r	SS MRS	397.8456772000063	4.1379875598941								28	RelaxationRating	4.117050900007598	57.098765432098766
62	2988	2024_Jun_21_1700	m	1	r	SS MRS	401.9992657999974	7.364315759972669								29	AttentionRating	7.333645100006834	63.33333333333333
63	2988	2024_Jun_21_1700	m	1	r	SS MRS	409.3803936999757	5.135526260011829								30	BoredomRating	5.117022300022654	36.851851851851855
64	2988	2024_Jun_21_1700	m	1	r	SS MRS	414.53182079992257	7.599472259869799								31	AlertnessRating	7.583732999977656	20.98765432098766
65	2988	2024_Jun_21_1700	m	1	r	SS MRS	422.14917480002623	7.54827875981573								32	PosThxRating	7.533744500018656	-24.5679012345679
66	2988	2024_Jun_21_1700	m	1	r	SS MRS	429.7152015999891	7.883067359915003								33	NegThxRating	7.8671268000034615	21.23456790123457
67	2988	2024_Jun_21_1700	m	1	r	SS MRS	437.61417269997764	5.501961759873666								34	SelfRating	5.483709100051783	10.740740740740733
68	2988	2024_Jun_21_1700	m	1	r	SS MRS	443.1316026999848	6.800585759920068								35	OtherRating	6.78373649995774	-1.728395061728392
69	2988	2024_Jun_21_1700	m	1	r	SS MRS	449.949565500021	9.048174259834923								32	ImageryRating	9.034608200076036	-32.83950617283949
70	2988	2024_Jun_21_1700	m	1	r	SS MRS	459.017723799916	6.045376759953797								37	PresentRating	6.016945800045505	40.987654320987644
