	SID	date	sex	session	handedness	scanner	onset	duration	repetition	rating	body_site	keys	temperature	conditionrt	mouseclick	biopac_channel	condition	rt	value
0	3005	2024_Jul_30_1909	f	1	r	SS MRS	2.774390399979893	5.005735720391385								19	Instructions		
1	3005	2024_Jul_30_1909	f	1	r	SS MRS	9.031953900004737	2.006545240059495								6	Cue		
2	3005	2024_Jul_30_1909	f	1	r	SS MRS	11.046811199979857	7.993528740014881								7	Pre-Jitter		
3	3005	2024_Jul_30_1909	f	1	r	SS MRS	19.097393599979114	15.00934235996101			Right Leg		48.0			16	Heat-Stimulation		
4	3005	2024_Jul_30_1909	f	1	r	SS MRS	34.1915399999707	7.004610140051227								8	Mid-Jitter		
5	3005	2024_Jul_30_1909	f	1	r	SS MRS	41.2137910000165	5.010231380001642								20	PainBinary	1.4835611000307836	1.0
6	3005	2024_Jul_30_1909	f	1	r	SS MRS	46.246002100000624	5.012602280068677								21	IntensityRating	2.0501667999778874	47.34567901234568
7	3005	2024_Jul_30_1909	f	1	r	SS MRS	51.27693039999576	5.000846180017106								22	ToleranceRating	1.0336818000068888	-1.0
8	3005	2024_Jul_30_1909	f	1	r	SS MRS	56.28148250002414	7.008523539931048								9	Post-Q-Jitter		
9	3005	2024_Jul_30_1909	f	1	r	SS MRS	63.87052539997967	2.013956440030597								6	Cue		
10	3005	2024_Jul_30_1909	f	1	r	SS MRS	65.87893559999065	5.997188740002457								7	Pre-Jitter		
11	3005	2024_Jul_30_1909	f	1	r	SS MRS	71.91119070001878	14.999598719994538			Right Leg		47.5			16	Heat-Stimulation		
12	3005	2024_Jul_30_1909	f	1	r	SS MRS	86.98967589996755	5.009525039989967								8	Mid-Jitter		
13	3005	2024_Jul_30_1909	f	1	r	SS MRS	92.01407279999694	5.010834880056791								20	PainBinary	1.7166976000298746	1.0
14	3005	2024_Jul_30_1909	f	1	r	SS MRS	97.04691899998579	5.011955480033066								21	IntensityRating	1.9836459999787621	45.617283950617285
15	3005	2024_Jul_30_1909	f	1	r	SS MRS	102.076719100005	5.002462179982103								22	ToleranceRating	0.83372379996581	-1.0
16	3005	2024_Jul_30_1909	f	1	r	SS MRS	107.08254809997743	5.007594240014441								9	Post-Q-Jitter		
17	3005	2024_Jul_30_1909	f	1	r	SS MRS	112.67668189998949	2.002780740032904								6	Cue		
18	3005	2024_Jul_30_1909	f	1	r	SS MRS	114.67925320001086	7.997730039991438								7	Pre-Jitter		
19	3005	2024_Jul_30_1909	f	1	r	SS MRS	122.69816259999061	15.01014057995053			Right Leg		47.0			16	Heat-Stimulation		
20	3005	2024_Jul_30_1909	f	1	r	SS MRS	137.78835089999484	5.01335583999753								8	Mid-Jitter		
21	3005	2024_Jul_30_1909	f	1	r	SS MRS	142.81334489997244	4.996837780054193								20	PainBinary	1.6002184000099078	1.0
22	3005	2024_Jul_30_1909	f	1	r	SS MRS	147.83035379997455	5.012938380066771								21	IntensityRating	3.017456699977629	43.7037037037037
23	3005	2024_Jul_30_1909	f	1	r	SS MRS	152.8619629999739	4.999844280071557								22	ToleranceRating	1.6171168999862857	-1.0
24	3005	2024_Jul_30_1909	f	1	r	SS MRS	157.86619079997763	5.008126439992338								9	Post-Q-Jitter		
25	3005	2024_Jul_30_1909	f	1	r	SS MRS	164.0476837999886	2.0119758400251158								6	Cue		
26	3005	2024_Jul_30_1909	f	1	r	SS MRS	166.06301649997476	5.9980302400072105								7	Pre-Jitter		
27	3005	2024_Jul_30_1909	f	1	r	SS MRS	172.08802419999847	15.014922319969628			Right Leg		46.5			16	Heat-Stimulation		
28	3005	2024_Jul_30_1909	f	1	r	SS MRS	187.17119359999197	9.015534039994236								8	Mid-Jitter		
29	3005	2024_Jul_30_1909	f	1	r	SS MRS	196.19810849998612	5.011892279959284								20	PainBinary	1.3862592999939807	1.0
30	3005	2024_Jul_30_1909	f	1	r	SS MRS	201.23208569997223	5.0107364800642245								21	IntensityRating	4.016894600004889	38.76543209876544
31	3005	2024_Jul_30_1909	f	1	r	SS MRS	206.26195219997317	5.001105580013245								22	ToleranceRating	3.5005853999755345	1.0
32	3005	2024_Jul_30_1909	f	1	r	SS MRS	211.26738129998557	9.007040139986202								9	Post-Q-Jitter		
33	3005	2024_Jul_30_1909	f	1	r	SS MRS	221.44334920000983	2.005330140062142								6	Cue		
34	3005	2024_Jul_30_1909	f	1	r	SS MRS	223.44728780002333	5.99751523998566								7	Pre-Jitter		
35	3005	2024_Jul_30_1909	f	1	r	SS MRS	229.49961619998794	15.009789259987883			Right Leg		46.5			16	Heat-Stimulation		
36	3005	2024_Jul_30_1909	f	1	r	SS MRS	244.58837589999894	7.015811140008736								8	Mid-Jitter		
37	3005	2024_Jul_30_1909	f	1	r	SS MRS	251.6163882999681	5.009955080051441								20	PainBinary	1.3196009999956004	1.0
38	3005	2024_Jul_30_1909	f	1	r	SS MRS	256.6486236000201	5.012281180010177								21	IntensityRating	2.1835628999979235	39.75308641975309
39	3005	2024_Jul_30_1909	f	1	r	SS MRS	261.67892470001243	5.001779680023901								22	ToleranceRating	2.3672765999799594	1.0
40	3005	2024_Jul_30_1909	f	1	r	SS MRS	266.68467849999433	7.007031940040179								9	Post-Q-Jitter		
41	3005	2024_Jul_30_1909	f	1	r	SS MRS	274.8726538000046	2.01462068001274								6	Cue		
42	3005	2024_Jul_30_1909	f	1	r	SS MRS	276.8809342000168	3.998072639980819								7	Pre-Jitter		
43	3005	2024_Jul_30_1909	f	1	r	SS MRS	280.919923199981	15.003648419980891			Right Leg		46.5			16	Heat-Stimulation		
44	3005	2024_Jul_30_1909	f	1	r	SS MRS	296.0057100999984	9.015680840064306								8	Mid-Jitter		
45	3005	2024_Jul_30_1909	f	1	r	SS MRS	305.0341821999755	5.0089046800276265								20	PainBinary	1.0168021999998018	1.0
46	3005	2024_Jul_30_1909	f	1	r	SS MRS	310.0658246999956	5.012458780023735								21	IntensityRating	1.983668899978511	44.69135802469136
47	3005	2024_Jul_30_1909	f	1	r	SS MRS	315.0957096000202	5.002808980061673								22	ToleranceRating	1.58365019998746	1.0
48	3005	2024_Jul_30_1909	f	1	r	SS MRS	320.10135279997485	9.008277940039989								9	Post-Q-Jitter		
49	3005	2024_Jul_30_1909	f	1	r	SS MRS	330.28248709999025	2.012917840038426								6	Cue		
50	3005	2024_Jul_30_1909	f	1	r	SS MRS	332.2988630000036	3.9968364399974234								7	Pre-Jitter		
51	3005	2024_Jul_30_1909	f	1	r	SS MRS	336.30588040000293	15.01633968000533			Right Leg		46.5			16	Heat-Stimulation		
52	3005	2024_Jul_30_1909	f	1	r	SS MRS	351.38854569999967	7.001302299962845								8	Mid-Jitter		
53	3005	2024_Jul_30_1909	f	1	r	SS MRS	358.41755860002013	5.0100510800257325								20	PainBinary	1.0834331000223756	1.0
54	3005	2024_Jul_30_1909	f	1	r	SS MRS	363.44918940000935	5.0135816800175235								21	IntensityRating	2.3002854000078514	45.0
55	3005	2024_Jul_30_1909	f	1	r	SS MRS	368.4805150000029	5.001073780062143								22	ToleranceRating	2.536536400031764	-1.0
56	3005	2024_Jul_30_1909	f	1	r	SS MRS	373.485228799982	7.008413439965807								9	Post-Q-Jitter		
57	3005	2024_Jul_30_1909	f	1	r	SS MRS	380.5245140999905	6.6468175199697725								26	ComfortRating	6.61704500002088	-6.296296296296305
58	3005	2024_Jul_30_1909	f	1	r	SS MRS	387.1881381999701	3.053009880008176								24	ValenceRating	3.033583300013561	45.49382716049382
59	3005	2024_Jul_30_1909	f	1	r	SS MRS	390.2641216000193	7.751193380041514								26	IntensityRating	7.733769699989352	71.04938271604938
60	3005	2024_Jul_30_1909	f	1	r	SS MRS	398.03229429997737	6.131660080049187								27	AvoidanceRating	6.117175799969118	-14.320987654320987
61	3005	2024_Jul_30_1909	f	1	r	SS MRS	404.1793430999969	3.571000680036377								28	RelaxationRating	3.5503338999697007	23.703703703703706
62	3005	2024_Jul_30_1909	f	1	r	SS MRS	407.76616950001335	5.647438379994128								29	AttentionRating	5.634546099987347	68.39506172839506
63	3005	2024_Jul_30_1909	f	1	r	SS MRS	413.42945419996977	2.6376642800169066								30	BoredomRating	2.617033699993044	32.22222222222222
64	3005	2024_Jul_30_1909	f	1	r	SS MRS	416.08218379999744	3.798965080000926								31	AlertnessRating	3.7837092999834567	30.987654320987644
65	3005	2024_Jul_30_1909	f	1	r	SS MRS	419.8983167000115	4.883452280017082								32	PosThxRating	4.8670702000381425	15.308641975308632
66	3005	2024_Jul_30_1909	f	1	r	SS MRS	424.79819180001505	1.3671048800460994								33	NegThxRating	1.350356200011447	-12.098765432098773
67	3005	2024_Jul_30_1909	f	1	r	SS MRS	426.1811314999941	3.3512885800446384								34	SelfRating	3.3337045999942347	18.765432098765416
68	3005	2024_Jul_30_1909	f	1	r	SS MRS	429.5473840999766	3.502184280077927								35	OtherRating	3.4836783000500873	17.160493827160494
69	3005	2024_Jul_30_1909	f	1	r	SS MRS	433.06618720002007	3.3146652800496668								32	ImageryRating	3.2865486000082456	-28.024691358024697
70	3005	2024_Jul_30_1909	f	1	r	SS MRS	436.39988959999755	3.7306723800720647								37	PresentRating	3.6863553000148386	18.641975308641975
