	onset	duration	rt	response	correct	bodySite	temperature	condition	pretrial-jitter
0	2.785200700018322	7.805122600024333				Left Arm	46.5	2back Instructions	
1	14.825531800015597	1.9924710800114553			1.0	Left Arm	46.5	2back	
2	16.82742500002496	2.0055027899798006			1.0	Left Arm	46.5	2back	7.0
3	18.843143100006273	2.0074228899902664	0.0	2.0	1.0	Left Arm	46.5	2back	
4	20.85993590002181	2.007151989993872	0.0	2.0	1.0	Left Arm	46.5	2back	
5	22.906492100009928	1.980625170021085	0.33290739997755736	0.0	1.0	Left Arm	46.5	2back	
6	24.893303100019693	2.00717689000885	0.0	2.0	1.0	Left Arm	46.5	2back	
7	26.909883700020146	2.0074118899938185	0.0	2.0	0.0	Left Arm	46.5	2back	
8	28.926562900014687	2.0073656900203787	0.0	2.0	1.0	Left Arm	46.5	2back	
9	30.943490700010443	2.0069012900057714	0.4527155999967363	0.0	1.0	Left Arm	46.5	2back	
10	32.95995660001063	2.0073040899878833	0.41979640000499785	0.0	1.0	Left Arm	46.5	2back	
11	39.97479770000791	5.011748089978937		37.03703703703704		Left Arm	46.5	2back Rating	5.0
12	44.980065800016746	49.98914880002849				Left Arm	46.5	2back Instructions	
13	55.02497230001609	1.9942030800157227			1.0	Left Arm	46.5	2back	
14	57.02768210001523	2.0055532899859827			1.0	Left Arm	46.5	2back	5.0
15	59.04344840001431	2.0073995900165755	0.4839020000072196	0.0	1.0	Left Arm	46.5	2back	
16	61.060417400003644	2.006730890017934	0.0	2.0	1.0	Left Arm	46.5	2back	
17	63.119270500028506	1.9557006699906196	0.0	2.0	1.0	Left Arm	46.5	2back	
18	65.09366110002156	2.007051689986838	0.0	2.0	1.0	Left Arm	46.5	2back	
19	67.11021730001085	2.0073204899963457	0.43370670001604594	0.0	1.0	Left Arm	46.5	2back	
20	69.12695360000362	2.0072002899833024	0.45042609999654815	0.0	1.0	Left Arm	46.5	2back	
21	71.14353510001092	2.0074173900065944	0.5170326000079513	0.0	1.0	Left Arm	46.5	2back	
22	73.1603278000257	2.0072463899850845	0.0	2.0	1.0	Left Arm	46.5	2back	
23	82.1746954000264	5.012614389968803		21.7283950617284		Left Arm	46.5	2back Rating	7.0
24	87.1997618000023	92.20584249999956				Left Arm	46.5	1back Instructions	
25	95.2391027000267	1.9999426800059155			1.0	Left Arm	46.5	1back	
26	97.24453820000053	2.00579468999058			0.0	Left Arm	46.5	1back	3.0
27	99.24517490001745	2.004547789983917	0.5460576000041328	2.0	1.0	Left Arm	46.5	1back	
28	101.2451468000072	2.004628690017853	0.5963373999984469	2.0	1.0	Left Arm	46.5	1back	
29	103.28838890002226	1.9514076699852012	0.4457068000047002	2.0	1.0	Left Arm	46.5	1back	
30	105.26048560001072	2.0073505899927113	0.37974250002298504	2.0	1.0	Left Arm	46.5	1back	
31	107.26267770002596	2.0029995900113136	0.39652949999435805	2.0	1.0	Left Arm	46.5	1back	
32	109.26294550002785	2.0025061900087167	0.3826765999838244	2.0	1.0	Left Arm	46.5	1back	
33	111.26310550002381	2.00222218997078	0.6656733999843709	2.0	1.0	Left Arm	46.5	1back	
34	113.26276940002572	2.0029435899923556	0.5963412999990396	2.0	0.0	Left Arm	46.5	1back	
35	118.25884360002237	5.011461989983218		7.222222222222219		Left Arm	46.5	1back Rating	3.0
36	123.28451780002797	128.28945430001477				Left Arm	46.5	2back Instructions	
37	135.32492700000876	1.9955528800201137			1.0	Left Arm	46.5	2back	
38	137.32835560000967	2.0054699899919797			1.0	Left Arm	46.5	2back	7.0
39	139.3440543000179	2.007328289997531	0.7533287999976892	0.0	1.0	Left Arm	46.5	2back	
40	141.36066260002553	2.0075643899617717	0.0	2.0	1.0	Left Arm	46.5	2back	
41	143.43593920001877	1.9402109600196127	0.0	2.0	1.0	Left Arm	46.5	2back	
42	145.39408500000718	2.007363290002104	0.0	2.0	1.0	Left Arm	46.5	2back	
43	147.41148470001644	2.006006490002619	0.0	2.0	0.0	Left Arm	46.5	2back	
44	149.4275284000032	2.007282689999556	0.0	2.0	1.0	Left Arm	46.5	2back	
45	151.4444908000005	2.0067440899729263	0.0	2.0	1.0	Left Arm	46.5	2back	
46	153.46089230000507	2.007314390008105	0.6003411000128835	0.0	1.0	Left Arm	46.5	2back	
47	158.47574940000777	5.011632789974101		14.567901234567904		Left Arm	46.5	2back Rating	3.0
48	163.48167269999976	168.49000220000744				Left Arm	46.5	2back Instructions	
49	175.5255148000142	1.9782573799893726			1.0	Left Arm	46.5	2back	
50	177.51192800002173	2.005604689999018			1.0	Left Arm	46.5	2back	7.0
51	179.52803210000275	2.006754389993148	0.0	2.0	1.0	Left Arm	46.5	2back	
52	181.5445056000026	2.0071703899884596	0.0	2.0	1.0	Left Arm	46.5	2back	
53	183.59372870001243	1.975304870022228	0.5502034999954049	0.0	1.0	Left Arm	46.5	2back	
54	185.5778453000239	2.0072196899564005	0.5529327999975067	0.0	1.0	Left Arm	46.5	2back	
55	187.59515690000262	2.0059963899839204	0.0	2.0	1.0	Left Arm	46.5	2back	
56	189.61127320001833	2.0070844900037628	0.0	2.0	1.0	Left Arm	46.5	2back	
57	191.62778110001818	2.0074361900042277	0.0	2.0	1.0	Left Arm	46.5	2back	
58	193.64448740001535	2.007400089991279	0.35054759998456575	0.0	1.0	Left Arm	46.5	2back	
59	200.6596432000224	5.01114418997895		10.432098765432096		Left Arm	46.5	2back Rating	5.0
60	205.66490190001787	210.6737078000151				Left Arm	46.5	2back Instructions	
61	215.7097122000123	1.9938718800258357			1.0	Left Arm	46.5	2back	
62	217.71210370000335	2.0058645899698604			1.0	Left Arm	46.5	2back	5.0
63	219.72810310000204	2.00724279001588	0.0	2.0	1.0	Left Arm	46.5	2back	
64	221.74470110001857	2.007401589973597	0.0	2.0	1.0	Left Arm	46.5	2back	
65	223.80758540000534	1.9648064600187354	0.5168762999819592	0.0	1.0	Left Arm	46.5	2back	
66	225.77826490000007	2.00701398999081	0.0	2.0	1.0	Left Arm	46.5	2back	
67	227.79476830002386	2.0073704899987206	0.0	2.0	1.0	Left Arm	46.5	2back	
68	229.81153820001055	2.0071912900020834	0.35066809999989346	0.0	1.0	Left Arm	46.5	2back	
69	231.82821640002658	2.0071797899727244	0.0	2.0	1.0	Left Arm	46.5	2back	
70	233.84478030001628	2.007426289987052	0.0	2.0	1.0	Left Arm	46.5	2back	
71	240.85961580000003	5.011884389998158		13.765432098765432		Left Arm	46.5	2back Rating	5.0
72	245.88418420002563	250.8904121000087				Left Arm	46.5	1back Instructions	
73	255.92356910000672	1.9835001899919007			1.0	Left Arm	46.5	1back	
74	257.9292096999998	2.0055955900170375			0.0	Left Arm	46.5	1back	5.0
75	259.93082190002315	2.002410589979263	0.4956640000164043	2.0	1.0	Left Arm	46.5	1back	
76	261.9305263000133	2.003046590019949	0.39575299998978153	2.0	1.0	Left Arm	46.5	1back	
77	263.9679554000031	1.9614480700111017	0.36564229999203235	2.0	0.0	Left Arm	46.5	1back	
78	265.945143000019	2.007304889993975	0.6464413000212517	2.0	1.0	Left Arm	46.5	1back	
79	267.94744120002724	2.0027410900220275	0.3989735000068322	2.0	1.0	Left Arm	46.5	1back	
80	269.9471748000069	2.0031941900087986	0.42976989998715	2.0	0.0	Left Arm	46.5	1back	
81	271.9479474000109	2.001689489989076	0.36278550000861287	2.0	1.0	Left Arm	46.5	1back	
82	273.94729190002545	2.0030364899721462	0.41296849999343976	2.0	1.0	Left Arm	46.5	1back	
83	280.94362030000775	5.011192289995961		19.62962962962963		Left Arm	46.5	1back Rating	5.0
84	285.96827670000494	290.974065300019				Left Arm	46.5	2back Instructions	
85	296.0096239000268	1.99533937999513	0.0	2.0	0.0	Left Arm	46.5	2back	
86	298.0130093000189	2.0053037900070194			1.0	Left Arm	46.5	2back	5.0
87	300.0288857000123	2.006902489985805	0.5672730000223964	0.0	1.0	Left Arm	46.5	2back	
88	302.04539030001615	2.0073252900037915	0.0	2.0	1.0	Left Arm	46.5	2back	
89	304.10887809999986	1.9634670600062236	0.0	2.0	1.0	Left Arm	46.5	2back	
90	306.07876830000896	2.007236390025355	0.0	2.0	1.0	Left Arm	46.5	2back	
91	308.0954690000217	2.007209289993625	0.0	2.0	1.0	Left Arm	46.5	2back	
92	310.11206740001217	2.0073645900120027	0.0	2.0	1.0	Left Arm	46.5	2back	
93	312.12870380000095	2.007458489999408	0.3838194999843836	0.0	1.0	Left Arm	46.5	2back	
94	314.1454554000229	2.0073587899969425	0.0	2.0	1.0	Left Arm	46.5	2back	
95	319.1601809000131	5.011916490009753		10.61728395061728		Left Arm	46.5	2back Rating	3.0
96	324.18449400001555	329.19104570001946				Left Arm	46.5	1back Instructions	
97	336.22426980000455	1.9999883800337557			1.0	Left Arm	46.5	1back	
98	338.2297581000021	2.0057629899820313			0.0	Left Arm	46.5	1back	7.0
99	340.2304323000135	2.004459890013095	0.8320549000054598	2.0	1.0	Left Arm	46.5	1back	
100	342.2307225000113	2.0038997899973765	0.3962525999813806	2.0	1.0	Left Arm	46.5	1back	
101	344.26575970000704	1.96705227001803	0.3296849000034854	2.0	1.0	Left Arm	46.5	1back	
102	346.24568460002774	2.007365289988229	0.4129333000164479	2.0	1.0	Left Arm	46.5	1back	
103	348.24766070002806	2.0034503899805713	0.3964380999968853	2.0	1.0	Left Arm	46.5	1back	
104	350.2475620000041	2.003671989979921	0.36303330000373535	2.0	1.0	Left Arm	46.5	1back	
105	352.2476886000077	2.003443689987762	0.3963577999966219	2.0	0.0	Left Arm	46.5	1back	
106	354.2475690000283	2.0037307899910957	0.6492423000163399	0.0	1.0	Left Arm	46.5	1back	
107	363.24370090002776	5.012262389995158		22.469135802469133		Left Arm	46.5	1back Rating	7.0
108	368.24941620000754	373.258198800002				Left Arm	46.5	1back Instructions	
109	376.29161060001934	1.999274379981216			1.0	Left Arm	46.5	1back	
110	378.29675410001073	2.0057330900162924			0.0	Left Arm	46.5	1back	3.0
111	380.2983453000197	2.0025651899632066	0.4964740999857895	0.0	1.0	Left Arm	46.5	1back	
112	382.2984445000184	2.0024018900003284	0.6627889999945182	2.0	1.0	Left Arm	46.5	1back	
113	384.3258272000239	1.980876569985412	0.5456556999997701	2.0	1.0	Left Arm	46.5	1back	
114	386.31266700002016	2.0073527899803594	0.4117967000056524	2.0	1.0	Left Arm	46.5	1back	
115	388.31514460002654	2.00247998998384	0.3794622999848798	2.0	1.0	Left Arm	46.5	1back	
116	390.31518670002697	2.002431989996694	0.39630469999974594	2.0	1.0	Left Arm	46.5	1back	
117	392.3151257999998	2.002530889993068	0.37951269999030046	2.0	1.0	Left Arm	46.5	1back	
118	394.31557740000426	2.001656690001255	0.3296537999995053	0.0	1.0	Left Arm	46.5	1back	
119	399.31149630001164	5.010538089991314		23.086419753086417		Left Arm	46.5	1back Rating	3.0
120	404.316788600001	409.3251088000252				Left Arm	46.5	1back Instructions	
121	416.35824220001814	1.9999709800176788			1.0	Left Arm	46.5	1back	
122	418.36372560000746	2.0057381899969187			0.0	Left Arm	46.5	1back	7.0
123	420.3652422000014	2.0027344900008757	0.4964054999873042	0.0	1.0	Left Arm	46.5	1back	
124	422.36510620001354	2.003034889989067	0.4830744999926537	2.0	1.0	Left Arm	46.5	1back	
125	424.4035998000181	1.9592905699973926	0.578764100006083	2.0	1.0	Left Arm	46.5	1back	
126	426.3796962000197	2.007258389989147	0.4797433999774512	2.0	1.0	Left Arm	46.5	1back	
127	428.3821034000139	2.002482190000592	0.41291159999673255	2.0	1.0	Left Arm	46.5	1back	
128	430.38147400002345	2.0037743899738416	0.39639339997665957	2.0	1.0	Left Arm	46.5	1back	
129	432.3816364000086	2.0034706899896264	0.4629438999982085	2.0	1.0	Left Arm	46.5	1back	
130	434.3815077000181	2.0037533899885602	0.39918360000592656	2.0	0.0	Left Arm	46.5	1back	
131	443.3779588000034	5.011625489976723		25.0		Left Arm	46.5	1back Rating	7.0
132	448.4026848000067	453.4086613000254				Left Arm	46.5	2back Instructions	
133	456.4441883000254	1.995346680021612			1.0	Left Arm	46.5	2back	
134	458.44726240000455	2.0058644899982028			1.0	Left Arm	46.5	2back	3.0
135	460.4633561000228	2.007148889970267	0.0	2.0	1.0	Left Arm	46.5	2back	
136	462.4798209000146	2.007566290005343	0.40037840002332814	0.0	1.0	Left Arm	46.5	2back	
137	464.54961760001606	1.9511725600168575	0.0	2.0	1.0	Left Arm	46.5	2back	
138	466.5133728000219	2.0071987900009844	0.0	2.0	1.0	Left Arm	46.5	2back	
139	468.5300523000187	2.0072150899795815	0.0	2.0	1.0	Left Arm	46.5	2back	
140	470.54706450001686	2.0065382900065742	0.43373910000082105	0.0	1.0	Left Arm	46.5	2back	
141	472.5634162000206	2.007205489993794	0.0	2.0	1.0	Left Arm	46.5	2back	
142	474.5800007000216	2.0074076899909414	0.383719800011022	0.0	1.0	Left Arm	46.5	2back	
143	481.5947203000251	5.012110890005715		18.827160493827158		Left Arm	46.5	2back Rating	5.0
144	486.6200650000246	491.62559670000337				Left Arm	46.5	1back Instructions	
145	496.659000500018	1.99970788002247			1.0	Left Arm	46.5	1back	
146	498.6643870000262	2.005685190000804			0.0	Left Arm	46.5	1back	5.0
147	500.66578420001315	2.002929790003691	0.7462055999785662	2.0	1.0	Left Arm	46.5	1back	
148	502.6650012000173	2.0045127899793442	0.49641359999077395	2.0	1.0	Left Arm	46.5	1back	
149	504.7064528000192	1.9548508699808735	0.4125179999973625	0.0	1.0	Left Arm	46.5	1back	
150	506.68023410000023	2.007450389995938	0.5797112000000197	2.0	1.0	Left Arm	46.5	1back	
151	508.6825113000232	2.002920289960457	0.4458388999919407	2.0	1.0	Left Arm	46.5	1back	
152	510.68264150002506	2.0026921899989247	0.34642379998695105	0.0	1.0	Left Arm	46.5	1back	
153	512.6824508000282	2.0031006899953354	0.5127985999861266	2.0	1.0	Left Arm	46.5	1back	
154	514.6824589000025	2.0031096899765544	0.42973620002157986	2.0	1.0	Left Arm	46.5	1back	
155	519.6785587000195	5.011656089976896		23.39506172839506		Left Arm	46.5	1back Rating	3.0
156	524.6840815000178	529.6927258000069				Left Arm	46.5	1back Instructions	
157	536.7260790000146	1.9994933800189756			1.0	Left Arm	46.5	1back	
158	538.7313180000056	2.005743790010456			0.0	Left Arm	46.5	1back	7.0
159	540.7326511000283	2.003167390008457			0.0	Left Arm	46.5	1back	
160	542.733011400007	2.0024675900058355	0.39598130001104437	2.0	1.0	Left Arm	46.5	1back	
161	544.7732302000222	1.9552593699772842	0.9957525999925565	2.0	0.0	Left Arm	46.5	1back	
162	546.7473923000216	2.007065589976264	0.796209899999667	2.0	1.0	Left Arm	46.5	1back	
163	548.7502333000011	2.00140968998312	0.5298594000050798	2.0	1.0	Left Arm	46.5	1back	
164	550.7498975000053	2.002140189986676	0.4964149000006728	2.0	1.0	Left Arm	46.5	1back	
165	552.7499313000008	2.0021126899810042	0.46584119999897666	2.0	1.0	Left Arm	46.5	1back	
166	554.7497915000131	2.002416789997369	0.5629278999986127	0.0	1.0	Left Arm	46.5	1back	
167	563.7457076999999	5.011400289979065		16.666666666666664		Left Arm	46.5	1back Rating	7.0
168	568.7512403000146	573.7598534999997				Left Arm	46.5	1back Instructions	
169	576.7935719000234	1.998451280000154			1.0	Left Arm	46.5	1back	
170	578.7988534000178	2.0046759899996687			0.0	Left Arm	46.5	1back	3.0
171	580.8002302000241	2.0019511900027283	1.0798598999972455	0.0	1.0	Left Arm	46.5	1back	
172	582.7997226000007	2.002988690015627	0.61257110000588	2.0	1.0	Left Arm	46.5	1back	
173	584.8293747999996	1.9769248700176831	0.6789884000027087	2.0	1.0	Left Arm	46.5	1back	
174	586.8142465000274	2.0073433899960946	0.6130382999836002	2.0	1.0	Left Arm	46.5	1back	
175	588.8165941000043	2.0026618900010362	0.4964297000260558	2.0	1.0	Left Arm	46.5	1back	
176	590.8164430000179	2.0029962899861857	0.47962830000324175	2.0	1.0	Left Arm	46.5	1back	
177	592.8168163000082	2.0022865899954922	0.629655599972466	0.0	1.0	Left Arm	46.5	1back	
178	594.8162738000101	2.003418790001888	0.5796650999982376	2.0	1.0	Left Arm	46.5	1back	
179	601.8125338000245	5.011636289971648		15.123456790123457		Left Arm	46.5	1back Rating	5.0
180	606.8372980000277	611.8432177000213				Left Arm	46.5	2back Instructions	
181	616.8786563000176	1.9955975799821317			1.0	Left Arm	46.5	2back	
182	618.8820154000132	2.005565090017626			1.0	Left Arm	46.5	2back	5.0
183	620.8978403000219	2.007345889986027	0.8503478999773506	0.0	1.0	Left Arm	46.5	2back	
184	622.9146123000246	2.007187889976194	0.0	2.0	1.0	Left Arm	46.5	2back	
185	625.001561800018	1.933079850015929	0.6497341000067536	0.0	1.0	Left Arm	46.5	2back	
186	626.94793200001	2.007257290009875	0.0	2.0	1.0	Left Arm	46.5	2back	
187	628.9646647000045	2.0071743900189176	0.0	2.0	1.0	Left Arm	46.5	2back	
188	630.9817474000156	2.006364589993609	0.0	2.0	1.0	Left Arm	46.5	2back	
189	632.9979580000218	2.0073045899625868	0.0	2.0	1.0	Left Arm	46.5	2back	
190	635.014628600009	2.0073342900141142	0.6670649999869056	0.0	1.0	Left Arm	46.5	2back	
191	640.0300092000107	5.010647889983375		19.38271604938272		Left Arm	46.5	2back Rating	3.0
