RestT1,TaskT1,square,location,corrAns,counterbalancer.thisRepN,counterbalancer.thisTrialN,counterbalancer.thisN,counterbalancer.thisIndex,RestT1Loop.thisRepN,RestT1Loop.thisTrialN,RestT1Loop.thisN,RestT1Loop.thisIndex,TaskT1Loop.thisRepN,TaskT1Loop.thisTrialN,TaskT1Loop.thisN,TaskT1Loop.thisIndex,trials_2.thisRepN,trials_2.thisTrialN,trials_2.thisN,trials_2.thisIndex,NbackInstructions.started,NbackInstructions.stopped,NbackStart.keys,NbackStart.rt,NbackStart.started,NbackStart.stopped,fixation_2.started,fixation_2.stopped,response_2.x,response_2.y,response_2.leftButton,grid_lines_2.started,grid_lines_2.stopped,target_square_2.started,target_square_2.stopped,fixation_3.started,fixation_3.stopped,response_2.click,response_2.corr,response_2.started,response_2.stopped,fixation_1.started,fixation_1.stopped,subject number,gender,session,handedness,scanner,date,expName,psychopyVersion,frameRate,
0,1,,,,0,0,0,0,,,,,0,0,0,0,,,,,15.662273100111634,None,space,39.213994400110096,15.662273100111634,None,,,,,,,,,,,,,,,,,,4,m,2,l,KB,2021_Jun_03_1436,WASABI Nback,2020.2.10,59.95998272391065,
0,1,5,"[0, 0]",None,0,0,0,0,,,,,0,0,0,0,0,0,0,0,,,,,,,None,None,None,None,[],None,None,None,None,None,None,[],[],None,None,,,4,m,2,l,KB,2021_Jun_03_1436,WASABI Nback,2020.2.10,59.95998272391065,
0,1,2,"[0, 0.2]",None,0,0,0,0,,,,,0,0,0,0,0,1,1,1,,,,,,,,,None,None,0,58.08143150014803,None,58.08143150014803,59.081443400122225,59.06479350011796,None,0,1,58.08143150014803,None,,,4,m,2,l,KB,2021_Jun_03_1436,WASABI Nback,2020.2.10,59.95998272391065,
0,1,6,"[0.2, 0]",None,0,0,0,0,,,,,0,0,0,0,0,2,2,2,,,,,,,,,None,None,0,59.91480500018224,None,59.91480500018224,60.91482810000889,60.89813129999675,61.89813970006071,0,1,59.91480500018224,None,,,4,m,2,l,KB,2021_Jun_03_1436,WASABI Nback,2020.2.10,59.95998272391065,
0,1,9,"[0.2, -0.2]",None,0,0,0,0,,,,,0,0,0,0,0,3,3,3,,,,,,,,,None,None,0,61.91481880005449,None,61.91481880005449,62.91488450020552,62.898158400086686,63.89815300004557,0,1,61.91481880005449,None,,,4,m,2,l,KB,2021_Jun_03_1436,WASABI Nback,2020.2.10,59.95998272391065,
0,1,3,"[0.2, 0.2]",None,0,0,0,0,,,,,0,0,0,0,0,4,4,4,,,,,,,,,None,None,0,63.91485940013081,None,63.91485940013081,64.91483770008199,64.89817599998787,65.89818570017815,0,1,63.91485940013081,None,,,4,m,2,l,KB,2021_Jun_03_1436,WASABI Nback,2020.2.10,59.95998272391065,
0,1,9,"[0.2, -0.2]",1,0,0,0,0,,,,,0,0,0,0,0,5,5,5,,,,,,,,,None,None,0,65.91484190011397,None,65.91484190011397,66.91485660010949,66.89818370016292,67.89820550009608,0,0,65.91484190011397,None,,,4,m,2,l,KB,2021_Jun_03_1436,WASABI Nback,2020.2.10,59.95998272391065,
0,1,7,"[-0.2, -0.2]",None,0,0,0,0,,,,,0,0,0,0,0,6,6,6,,,,,,,,,None,None,0,67.91485190019011,None,67.91485190019011,68.91489200014621,68.8982065001037,69.89820750011131,0,1,67.91485190019011,None,,,4,m,2,l,KB,2021_Jun_03_1436,WASABI Nback,2020.2.10,59.95998272391065,
0,1,1,"[-0.2, 0.2]",None,0,0,0,0,,,,,0,0,0,0,0,7,7,7,,,,,,,,,None,None,0,69.91488649998792,None,69.91488649998792,70.91488509997725,70.89821600005962,71.89823450008407,0,1,69.91488649998792,None,,,4,m,2,l,KB,2021_Jun_03_1436,WASABI Nback,2020.2.10,59.95998272391065,
0,1,5,"[0, 0]",None,0,0,0,0,,,,,0,0,0,0,0,8,8,8,,,,,,,,,None,None,0,71.9149065001402,None,71.9149065001402,72.91489430004731,72.898252800107,73.89823679998517,0,1,71.9149065001402,None,,,4,m,2,l,KB,2021_Jun_03_1436,WASABI Nback,2020.2.10,59.95998272391065,
0,1,7,"[-0.2, -0.2]",None,0,0,0,0,,,,,0,0,0,0,0,9,9,9,,,,,,,,,None,None,0,73.91491360007785,None,73.91491360007785,74.91493860003538,74.89827240002342,75.8982743001543,0,1,73.91491360007785,None,,,4,m,2,l,KB,2021_Jun_03_1436,WASABI Nback,2020.2.10,59.95998272391065,
0,1,5,"[0, 0]",1,0,0,0,0,,,,,0,0,0,0,0,10,10,10,,,,,,,,,None,None,0,75.91492160013877,None,75.91492160013877,76.91494050016627,76.89826830010861,77.89828740013763,0,0,75.91492160013877,None,,,4,m,2,l,KB,2021_Jun_03_1436,WASABI Nback,2020.2.10,59.95998272391065,
0,1,6,"[0.2, 0]",None,0,0,0,0,,,,,0,0,0,0,0,11,11,11,,,,,,,,,None,None,0,77.91496439999901,None,77.91496439999901,78.9149678000249,78.89817100018263,79.89830780006014,0,1,77.91496439999901,None,,,4,m,2,l,KB,2021_Jun_03_1436,WASABI Nback,2020.2.10,59.95998272391065,
0,1,3,"[0.2, 0.2]",None,0,0,0,0,,,,,0,0,0,0,0,12,12,12,,,,,,,,,None,None,0,79.91496319998987,None,79.91496319998987,80.9149577000644,80.89831220009364,81.89830540004186,0,1,79.91496319998987,None,,,4,m,2,l,KB,2021_Jun_03_1436,WASABI Nback,2020.2.10,59.95998272391065,
0,1,6,"[0.2, 0]",1,0,0,0,0,,,,,0,0,0,0,0,13,13,13,,,,,,,,,None,None,0,81.91485330020078,None,81.91485330020078,82.91495870007202,82.89833330013789,83.89833890018053,0,0,81.91485330020078,None,,,4,m,2,l,KB,2021_Jun_03_1436,WASABI Nback,2020.2.10,59.95998272391065,
0,1,8,"[0, -0.2]",None,0,0,0,0,,,,,0,0,0,0,0,14,14,14,,,,,,,,,None,None,0,83.91497560008429,None,83.91497560008429,84.91500240005553,84.89834200008772,85.89833860006183,0,1,83.91497560008429,None,,,4,m,2,l,KB,2021_Jun_03_1436,WASABI Nback,2020.2.10,59.95998272391065,
0,1,9,"[0.2, -0.2]",None,0,0,0,0,,,,,0,0,0,0,0,15,15,15,,,,,,,,,None,None,0,85.91499479999766,None,85.91499479999766,86.91502290009521,86.89836720004678,87.89838490006514,0,1,85.91499479999766,None,,,4,m,2,l,KB,2021_Jun_03_1436,WASABI Nback,2020.2.10,59.95998272391065,
0,1,9,"[0.2, -0.2]",None,0,0,0,0,,,,,0,0,0,0,0,16,16,16,,,,,,,,,None,None,0,87.9150233999826,None,87.9150233999826,88.91503450018354,88.89838710008189,89.89837190019898,0,1,87.9150233999826,None,,,4,m,2,l,KB,2021_Jun_03_1436,WASABI Nback,2020.2.10,59.95998272391065,
0,1,1,"[-0.2, 0.2]",None,0,0,0,0,,,,,0,0,0,0,0,17,17,17,,,,,,,,,None,None,0,89.91505930013955,None,89.91505930013955,90.9150501000695,90.89839170011692,91.8984078001231,0,1,89.91505930013955,None,,,4,m,2,l,KB,2021_Jun_03_1436,WASABI Nback,2020.2.10,59.95998272391065,
0,1,3,"[0.2, 0.2]",None,0,0,0,0,,,,,0,0,0,0,0,18,18,18,,,,,,,,,None,None,0,91.91504220012575,None,91.91504220012575,92.91508490010165,92.89841240015812,93.89844240015373,0,1,91.91504220012575,None,,,4,m,2,l,KB,2021_Jun_03_1436,WASABI Nback,2020.2.10,59.95998272391065,
0,1,5,"[0, 0]",None,0,0,0,0,,,,,0,0,0,0,0,19,19,19,,,,,,,,,None,None,0,93.91508590010926,None,93.91508590010926,94.91507680015638,94.89842070010491,95.89844560017809,0,1,93.91508590010926,None,,,4,m,2,l,KB,2021_Jun_03_1436,WASABI Nback,2020.2.10,59.95998272391065,
0,1,3,"[0.2, 0.2]",1,0,0,0,0,,,,,0,0,0,0,0,20,20,20,,,,,,,,,None,None,0,95.91511370008811,None,95.91511370008811,96.91511719999835,96.89843689999543,97.8984704001341,0,0,95.91511370008811,None,,,4,m,2,l,KB,2021_Jun_03_1436,WASABI Nback,2020.2.10,59.95998272391065,
0,1,4,"[-0.2, 0]",None,0,0,0,0,,,,,0,0,0,0,0,21,21,21,,,,,,,,,None,None,0,97.91511340020224,None,97.91511340020224,98.91513040009886,98.89846589998342,99.89848820003681,0,1,97.91511340020224,None,,,4,m,2,l,KB,2021_Jun_03_1436,WASABI Nback,2020.2.10,59.95998272391065,
0,1,7,"[-0.2, -0.2]",None,0,0,0,0,,,,,0,0,0,0,0,22,22,22,,,,,,,,,None,None,0,99.91513189999387,None,99.91513189999387,100.91517230006866,100.89847770007327,101.89852330018766,0,1,99.91513189999387,None,,,4,m,2,l,KB,2021_Jun_03_1436,WASABI Nback,2020.2.10,59.95998272391065,
0,1,4,"[-0.2, 0]",1,0,0,0,0,,,,,0,0,0,0,0,23,23,23,,,,,,,,,None,None,0,101.91515810019337,None,101.91515810019337,102.91516660014167,102.89850990008563,103.89851610013284,0,0,101.91515810019337,None,,,4,m,2,l,KB,2021_Jun_03_1436,WASABI Nback,2020.2.10,59.95998272391065,
0,1,4,"[-0.2, 0]",None,0,0,0,0,,,,,0,0,0,0,0,24,24,24,,,,,,,,,None,None,0,103.91516810003668,None,103.91516810003668,104.91518590017222,104.89852050016634,105.89852780010551,0,1,103.91516810003668,None,,,4,m,2,l,KB,2021_Jun_03_1436,WASABI Nback,2020.2.10,59.95998272391065,
0,1,5,"[0, 0]",None,0,0,0,0,,,,,0,0,0,0,0,25,25,25,,,,,,,,,None,None,0,105.91517250007018,None,105.91517250007018,106.91519870003685,106.89853650005534,107.89856630004942,0,1,105.91517250007018,None,,,4,m,2,l,KB,2021_Jun_03_1436,WASABI Nback,2020.2.10,59.95998272391065,
0,1,2,"[0, 0.2]",None,0,0,0,0,,,,,0,0,0,0,0,26,26,26,,,,,,,,,None,None,0,107.91519400011748,None,107.91519400011748,108.91521710017696,108.89854680001736,109.89857439999469,0,1,107.91519400011748,None,,,4,m,2,l,KB,2021_Jun_03_1436,WASABI Nback,2020.2.10,59.95998272391065,
0,1,6,"[0.2, 0]",None,0,0,0,0,,,,,0,0,0,0,0,27,27,27,,,,,,,,,None,None,0,109.91522600012831,None,109.91522600012831,110.91522180009633,110.89856450003572,111.89854940003715,0,1,109.91522600012831,None,,,4,m,2,l,KB,2021_Jun_03_1436,WASABI Nback,2020.2.10,59.95998272391065,
0,1,7,"[-0.2, -0.2]",None,0,0,0,0,,,,,0,0,0,0,0,28,28,28,,,,,,,,,None,None,0,111.91524770017713,None,111.91524770017713,112.91524760005996,112.89857010007836,113.89857690013014,0,1,111.91524770017713,None,,,4,m,2,l,KB,2021_Jun_03_1436,WASABI Nback,2020.2.10,59.95998272391065,
0,1,6,"[0.2, 0]",1,0,0,0,0,,,,,0,0,0,0,0,29,29,29,,,,,,,,,None,None,0,113.91524580004625,None,113.91524580004625,114.91525930003263,114.89859040011652,115.89859150000848,0,0,113.91524580004625,None,,,4,m,2,l,KB,2021_Jun_03_1436,WASABI Nback,2020.2.10,59.95998272391065,
0,1,6,"[0.2, 0]",None,0,0,0,0,,,,,0,0,0,0,0,30,30,30,,,,,,,,,None,None,0,115.91526380018331,None,115.91526380018331,116.91528830002062,116.89866710011847,117.89861200004816,0,1,115.91526380018331,None,,,4,m,2,l,KB,2021_Jun_03_1436,WASABI Nback,2020.2.10,59.95998272391065,
0,1,7,"[-0.2, -0.2]",None,0,0,0,0,,,,,0,0,0,0,0,31,31,31,,,,,,,,,None,None,0,117.91529340017587,None,117.91529340017587,118.91529260016978,118.89861980010755,119.89865920017473,0,1,117.91529340017587,None,,,4,m,2,l,KB,2021_Jun_03_1436,WASABI Nback,2020.2.10,59.95998272391065,
0,1,6,"[0.2, 0]",1,0,0,0,0,,,,,0,0,0,0,0,32,32,32,,,,,,,,,None,None,0,119.91530560003594,None,119.91530560003594,120.915316300001,120.89864740008488,121.89863680000417,0,0,119.91530560003594,None,,,4,m,2,l,KB,2021_Jun_03_1436,WASABI Nback,2020.2.10,59.95998272391065,
0,1,2,"[0, 0.2]",None,0,0,0,0,,,,,0,0,0,0,0,33,33,33,,,,,,,,,None,None,0,121.91532050003298,None,121.91532050003298,122.91533170011826,122.89870130014606,123.89865630003624,0,1,121.91532050003298,None,,,4,m,2,l,KB,2021_Jun_03_1436,WASABI Nback,2020.2.10,59.95998272391065,
0,1,5,"[0, 0]",None,0,0,0,0,,,,,0,0,0,0,0,34,34,34,,,,,,,,,None,None,0,123.9153422000818,None,123.9153422000818,124.91536090010777,124.89865860017017,125.89867270016111,0,1,123.9153422000818,None,,,4,m,2,l,KB,2021_Jun_03_1436,WASABI Nback,2020.2.10,59.95998272391065,
0,1,4,"[-0.2, 0]",None,0,0,0,0,,,,,0,0,0,0,0,35,35,35,,,,,,,,,None,None,0,125.91535810008645,None,125.91535810008645,126.91537830000743,126.8986973001156,127.89870370016433,0,1,125.91535810008645,None,,,4,m,2,l,KB,2021_Jun_03_1436,WASABI Nback,2020.2.10,59.95998272391065,
0,1,4,"[-0.2, 0]",None,0,0,0,0,,,,,0,0,0,0,0,36,36,36,,,,,,,,,None,None,0,127.9153867000714,None,127.9153867000714,128.91539199999534,128.89871200011112,129.89872250007465,0,1,127.9153867000714,None,,,4,m,2,l,KB,2021_Jun_03_1436,WASABI Nback,2020.2.10,59.95998272391065,
0,1,7,"[-0.2, -0.2]",None,0,0,0,0,,,,,0,0,0,0,0,37,37,37,,,,,,,,,None,None,0,129.91540620010346,None,129.91540620010346,130.9153925999999,130.89871380012482,131.8987172001507,0,1,129.91540620010346,None,,,4,m,2,l,KB,2021_Jun_03_1436,WASABI Nback,2020.2.10,59.95998272391065,
0,1,4,"[-0.2, 0]",1,0,0,0,0,,,,,0,0,0,0,0,38,38,38,,,,,,,,,None,None,0,131.915393400006,None,131.915393400006,132.9153963001445,132.89873080002144,133.89876010012813,0,0,131.915393400006,None,,,4,m,2,l,KB,2021_Jun_03_1436,WASABI Nback,2020.2.10,59.95998272391065,
0,1,3,"[0.2, 0.2]",None,0,0,0,0,,,,,0,0,0,0,0,39,39,39,,,,,,,,,None,None,0,133.9154299001675,None,133.9154299001675,134.91548080020584,134.89876580005512,135.89875520020723,0,1,133.9154299001675,None,,,4,m,2,l,KB,2021_Jun_03_1436,WASABI Nback,2020.2.10,59.95998272391065,
0,1,5,"[0, 0]",None,0,0,0,0,,,,,0,0,0,0,0,40,40,40,,,,,,,,,None,None,0,135.91544280014932,None,135.91544280014932,136.91546400007792,136.89879470015876,137.89879280002788,0,1,135.91544280014932,None,,,4,m,2,l,KB,2021_Jun_03_1436,WASABI Nback,2020.2.10,59.95998272391065,
0,1,3,"[0.2, 0.2]",1,0,0,0,0,,,,,0,0,0,0,0,41,41,41,,,,,,,,,None,None,0,137.91545730014332,None,137.91545730014332,138.91547300014645,138.89882350014523,139.89880940015428,0,0,137.91545730014332,None,,,4,m,2,l,KB,2021_Jun_03_1436,WASABI Nback,2020.2.10,59.95998272391065,
0,1,1,"[-0.2, 0.2]",None,0,0,0,0,,,,,0,0,0,0,0,42,42,42,,,,,,,,,None,None,0,139.9154742001556,None,139.9154742001556,140.91550770006143,140.89881930011325,141.89884180016816,0,1,139.9154742001556,None,,,4,m,2,l,KB,2021_Jun_03_1436,WASABI Nback,2020.2.10,59.95998272391065,
0,1,9,"[0.2, -0.2]",None,0,0,0,0,,,,,0,0,0,0,0,43,43,43,,,,,,,,,None,None,0,141.9155259002,None,141.9155259002,142.91550730005838,142.8988481000997,143.8988481000997,0,1,141.9155259002,None,,,4,m,2,l,KB,2021_Jun_03_1436,WASABI Nback,2020.2.10,59.95998272391065,
0,1,9,"[0.2, -0.2]",None,0,0,0,0,,,,,0,0,0,0,0,44,44,44,,,,,,,,,None,None,0,143.9155286999885,None,143.9155286999885,144.91548830014654,144.8988719000481,145.89884590008296,0,1,143.9155286999885,None,,,4,m,2,l,KB,2021_Jun_03_1436,WASABI Nback,2020.2.10,59.95998272391065,
0,1,8,"[0, -0.2]",None,0,0,0,0,,,,,0,0,0,0,0,45,45,45,,,,,,,,,None,None,0,145.91553040011786,None,145.91553040011786,146.91554230009206,146.89885570015758,147.89888920006342,0,1,145.91553040011786,None,,,4,m,2,l,KB,2021_Jun_03_1436,WASABI Nback,2020.2.10,59.95998272391065,
0,1,6,"[0.2, 0]",None,0,0,0,0,,,,,0,0,0,0,0,46,46,46,,,,,,,,,None,None,0,147.9155559001956,None,147.9155559001956,148.9155427000951,148.89887490007095,149.89888700004667,0,1,147.9155559001956,None,,,4,m,2,l,KB,2021_Jun_03_1436,WASABI Nback,2020.2.10,59.95998272391065,
0,1,3,"[0.2, 0.2]",None,0,0,0,0,,,,,0,0,0,0,0,47,47,47,,,,,,,,,None,None,0,149.91554560000077,None,149.91554560000077,150.91556290001608,150.89879100001417,151.8989048001822,0,1,149.91554560000077,None,,,4,m,2,l,KB,2021_Jun_03_1436,WASABI Nback,2020.2.10,59.95998272391065,
0,1,6,"[0.2, 0]",1,0,0,0,0,,,,,0,0,0,0,0,48,48,48,,,,,,,,,None,None,0,151.91556120011955,None,151.91556120011955,152.9155676001683,152.8989335000515,153.89893320016563,0,0,151.91556120011955,None,,,4,m,2,l,KB,2021_Jun_03_1436,WASABI Nback,2020.2.10,59.95998272391065,
0,1,5,"[0, 0]",None,0,0,0,0,,,,,0,0,0,0,0,49,49,49,,,,,,,,,None,None,0,153.91557299997658,None,153.91557299997658,154.91557980002835,154.89891560003161,155.89894220000133,0,1,153.91557299997658,None,,,4,m,2,l,KB,2021_Jun_03_1436,WASABI Nback,2020.2.10,59.95998272391065,
0,1,7,"[-0.2, -0.2]",None,0,0,0,0,,,,,0,0,0,0,0,50,50,50,,,,,,,,,None,None,0,155.91561340005137,None,155.91561340005137,156.91561960009858,156.8989374001976,157.89885090012103,0,1,155.91561340005137,None,,,4,m,2,l,KB,2021_Jun_03_1436,WASABI Nback,2020.2.10,59.95998272391065,
0,1,5,"[0, 0]",1,0,0,0,0,,,,,0,0,0,0,0,51,51,51,,,,,,,,,None,None,0,157.9156118000392,None,157.9156118000392,158.91563400020823,158.8989793001674,159.89892820012756,0,0,157.9156118000392,None,,,4,m,2,l,KB,2021_Jun_03_1436,WASABI Nback,2020.2.10,59.95998272391065,
0,1,1,"[-0.2, 0.2]",None,0,0,0,0,,,,,0,0,0,0,0,52,52,52,,,,,,,,,None,None,0,159.9156431001611,None,159.9156431001611,160.91563100018539,160.89898480009288,161.89899810007773,0,1,159.9156431001611,None,,,4,m,2,l,KB,2021_Jun_03_1436,WASABI Nback,2020.2.10,59.95998272391065,
0,1,7,"[-0.2, -0.2]",None,0,0,0,0,,,,,0,0,0,0,0,53,53,53,,,,,,,,,None,None,0,161.915662500076,None,161.915662500076,162.91567450016737,162.8990116000641,163.89900250011124,0,1,161.915662500076,None,,,4,m,2,l,KB,2021_Jun_03_1436,WASABI Nback,2020.2.10,59.95998272391065,
0,1,9,"[0.2, -0.2]",None,0,0,0,0,,,,,0,0,0,0,0,54,54,54,,,,,,,,,None,None,0,163.9156643000897,None,163.9156643000897,164.91567660006694,164.89902840019204,165.89902420016006,0,1,163.9156643000897,None,,,4,m,2,l,KB,2021_Jun_03_1436,WASABI Nback,2020.2.10,59.95998272391065,
0,1,3,"[0.2, 0.2]",None,0,0,0,0,,,,,0,0,0,0,0,55,55,55,,,,,,,,,None,None,0,165.91568300011568,None,165.91568300011568,166.91568600013852,166.89903199998662,167.89904200006276,0,1,165.91568300011568,None,,,4,m,2,l,KB,2021_Jun_03_1436,WASABI Nback,2020.2.10,59.95998272391065,
0,1,9,"[0.2, -0.2]",1,0,0,0,0,,,,,0,0,0,0,0,56,56,56,,,,,,,,,None,None,0,167.91575879999436,None,167.91575879999436,168.91572310007177,168.8990507000126,169.89905420015566,0,0,167.91575879999436,None,,,4,m,2,l,KB,2021_Jun_03_1436,WASABI Nback,2020.2.10,59.95998272391065,
0,1,6,"[0.2, 0]",None,0,0,0,0,,,,,0,0,0,0,0,57,57,57,,,,,,,,,None,None,0,169.91570820007473,None,169.91570820007473,170.91573320003226,170.8990724000614,171.89906820002943,0,1,169.91570820007473,None,,,4,m,2,l,KB,2021_Jun_03_1436,WASABI Nback,2020.2.10,59.95998272391065,
0,1,2,"[0, 0.2]",None,0,0,0,0,,,,,0,0,0,0,0,58,58,58,,,,,,,,,None,None,0,171.91572560020722,None,171.91572560020722,172.91573160002008,172.89908890007064,173.89909740001895,0,1,171.91572560020722,None,,,4,m,2,l,KB,2021_Jun_03_1436,WASABI Nback,2020.2.10,59.95998272391065,
0,1,5,"[0, 0]",None,0,0,0,0,,,,,0,0,0,0,0,59,59,59,,,,,,,,,None,None,0,173.91575910011306,None,173.91575910011306,174.9157756001223,174.89908940019086,175.89911530003883,0,1,173.91575910011306,None,,,4,m,2,l,KB,2021_Jun_03_1436,WASABI Nback,2020.2.10,59.95998272391065,
0,1,5,"[0, 0]",None,0,0,0,0,,,,,0,0,0,0,0,60,60,60,,,,,,,,,None,None,0,175.9157497000415,None,175.9157497000415,176.9157937001437,176.89919140003622,177.89913420006633,0,1,175.9157497000415,None,,,4,m,2,l,KB,2021_Jun_03_1436,WASABI Nback,2020.2.10,59.95998272391065,
0,1,2,"[0, 0.2]",None,0,0,0,0,,,,,0,0,0,0,0,61,61,61,,,,,,,,,None,None,0,177.915777400136,None,177.915777400136,178.9158044999931,178.89914610004053,179.8991255001165,0,1,177.915777400136,None,,,4,m,2,l,KB,2021_Jun_03_1436,WASABI Nback,2020.2.10,59.95998272391065,
0,1,6,"[0.2, 0]",None,0,0,0,0,,,,,0,0,0,0,0,62,62,62,,,,,,,,,None,None,0,179.91579690016806,None,179.91579690016806,180.9158304000739,180.89914910006337,181.89916800009087,0,1,179.91579690016806,None,,,4,m,2,l,KB,2021_Jun_03_1436,WASABI Nback,2020.2.10,59.95998272391065,
0,1,9,"[0.2, -0.2]",None,0,0,0,0,,,,,0,0,0,0,0,63,63,63,,,,,,,,,None,None,0,181.91584939998575,None,181.91584939998575,182.9158371000085,182.89920970005915,183.89916849997826,0,1,181.91584939998575,None,,,4,m,2,l,KB,2021_Jun_03_1436,WASABI Nback,2020.2.10,59.95998272391065,
0,1,3,"[0.2, 0.2]",None,0,0,0,0,,,,,0,0,0,0,0,64,64,64,,,,,,,,,None,None,0,183.9157942000311,None,183.9157942000311,184.91585330013186,184.8991770001594,185.899198200088,0,1,183.9157942000311,None,,,4,m,2,l,KB,2021_Jun_03_1436,WASABI Nback,2020.2.10,59.95998272391065,
0,1,9,"[0.2, -0.2]",1,0,0,0,0,,,,,0,0,0,0,0,65,65,65,,,,,,,,,None,None,0,185.91585650015622,None,185.91585650015622,186.91585119999945,186.89920650003478,187.89920060010627,0,0,185.91585650015622,None,,,4,m,2,l,KB,2021_Jun_03_1436,WASABI Nback,2020.2.10,59.95998272391065,
0,1,7,"[-0.2, -0.2]",None,0,0,0,0,,,,,0,0,0,0,0,66,66,66,,,,,,,,,None,None,0,187.91588070010766,None,187.91588070010766,188.91588039998896,188.89920860016719,189.89922780008055,0,1,187.91588070010766,None,,,4,m,2,l,KB,2021_Jun_03_1436,WASABI Nback,2020.2.10,59.95998272391065,
0,1,1,"[-0.2, 0.2]",None,0,0,0,0,,,,,0,0,0,0,0,67,67,67,,,,,,,,,None,None,0,189.91590380016714,None,189.91590380016714,190.91589890001342,190.89922790019773,191.89924180018716,0,1,189.91590380016714,None,,,4,m,2,l,KB,2021_Jun_03_1436,WASABI Nback,2020.2.10,59.95998272391065,
0,1,5,"[0, 0]",None,0,0,0,0,,,,,0,0,0,0,0,68,68,68,,,,,,,,,None,None,0,191.91590200015344,None,191.91590200015344,192.91592440009117,192.89926630002446,193.89927320019342,0,1,191.91590200015344,None,,,4,m,2,l,KB,2021_Jun_03_1436,WASABI Nback,2020.2.10,59.95998272391065,
0,1,7,"[-0.2, -0.2]",None,0,0,0,0,,,,,0,0,0,0,0,69,69,69,,,,,,,,,None,None,0,193.91592910001054,None,193.91592910001054,194.91593110002577,194.8992678001523,195.89928780007176,0,1,193.91592910001054,None,,,4,m,2,l,KB,2021_Jun_03_1436,WASABI Nback,2020.2.10,59.95998272391065,
0,1,5,"[0, 0]",1,0,0,0,0,,,,,0,0,0,0,0,70,70,70,,,,,,,,,None,None,0,195.9159471001476,None,195.9159471001476,196.91597250010818,196.89928710018285,197.89931030012667,0,0,195.9159471001476,None,,,4,m,2,l,KB,2021_Jun_03_1436,WASABI Nback,2020.2.10,59.95998272391065,
0,1,6,"[0.2, 0]",None,0,0,0,0,,,,,0,0,0,0,0,71,71,71,,,,,,,,,None,None,0,197.91595760011114,None,197.91595760011114,198.91597980004735,198.89931210014038,199.8993115001358,0,1,197.91595760011114,None,,,4,m,2,l,KB,2021_Jun_03_1436,WASABI Nback,2020.2.10,59.95998272391065,
0,1,3,"[0.2, 0.2]",None,0,0,0,0,,,,,0,0,0,0,0,72,72,72,,,,,,,,,None,None,0,199.9159642001614,None,199.9159642001614,200.9159916001372,200.8993257000111,201.8993367999792,0,1,199.9159642001614,None,,,4,m,2,l,KB,2021_Jun_03_1436,WASABI Nback,2020.2.10,59.95998272391065,
0,1,6,"[0.2, 0]",1,0,0,0,0,,,,,0,0,0,0,0,73,73,73,,,,,,,,,None,None,0,201.91600930015557,None,201.91600930015557,202.9160043001175,202.8993410000112,203.89934270014055,0,0,201.91600930015557,None,,,4,m,2,l,KB,2021_Jun_03_1436,WASABI Nback,2020.2.10,59.95998272391065,
0,1,8,"[0, -0.2]",None,0,0,0,0,,,,,0,0,0,0,0,74,74,74,,,,,,,,,None,None,0,203.91600550012663,None,203.91600550012663,204.91601510019973,204.8993591000326,205.89935590000823,0,1,203.91600550012663,None,,,4,m,2,l,KB,2021_Jun_03_1436,WASABI Nback,2020.2.10,59.95998272391065,
0,1,9,"[0.2, -0.2]",None,0,0,0,0,,,,,0,0,0,0,0,75,75,75,,,,,,,,,None,None,0,205.9160284001846,None,205.9160284001846,206.91592340008356,206.8993838999886,207.8993964002002,0,1,205.9160284001846,None,,,4,m,2,l,KB,2021_Jun_03_1436,WASABI Nback,2020.2.10,59.95998272391065,
0,1,9,"[0.2, -0.2]",None,0,0,0,0,,,,,0,0,0,0,0,76,76,76,,,,,,,,,None,None,0,207.91605170001276,None,207.91605170001276,208.9160643001087,208.89938210020773,209.89940590015613,0,1,207.91605170001276,None,,,4,m,2,l,KB,2021_Jun_03_1436,WASABI Nback,2020.2.10,59.95998272391065,
0,1,1,"[-0.2, 0.2]",None,0,0,0,0,,,,,0,0,0,0,0,77,77,77,,,,,,,,,None,None,0,209.91605530004017,None,209.91605530004017,210.91608440014534,210.89940190012567,211.89940710016526,0,1,209.91605530004017,None,,,4,m,2,l,KB,2021_Jun_03_1436,WASABI Nback,2020.2.10,59.95998272391065,
0,1,3,"[0.2, 0.2]",None,0,0,0,0,,,,,0,0,0,0,0,78,78,78,,,,,,,,,None,None,0,211.91607900010422,None,211.91607900010422,212.91608360013925,212.89943760004826,213.89943940006196,0,1,211.91607900010422,None,,,4,m,2,l,KB,2021_Jun_03_1436,WASABI Nback,2020.2.10,59.95998272391065,
0,1,5,"[0, 0]",None,0,0,0,0,,,,,0,0,0,0,0,79,79,79,,,,,,,,,None,None,0,213.91610460006632,None,213.91610460006632,214.91610380006023,214.89943059999496,215.89946170011535,0,1,213.91610460006632,None,,,4,m,2,l,KB,2021_Jun_03_1436,WASABI Nback,2020.2.10,59.95998272391065,
0,1,3,"[0.2, 0.2]",1,0,0,0,0,,,,,0,0,0,0,0,80,80,80,,,,,,,,,None,None,0,215.91613310016692,None,215.91613310016692,216.91613560006954,216.89946560002863,217.89947960013524,0,0,215.91613310016692,None,,,4,m,2,l,KB,2021_Jun_03_1436,WASABI Nback,2020.2.10,59.95998272391065,
0,1,4,"[-0.2, 0]",None,0,0,0,0,,,,,0,0,0,0,0,81,81,81,,,,,,,,,None,None,0,217.91611950006336,None,217.91611950006336,218.91613190015778,218.8995199999772,219.8994872001931,0,1,217.91611950006336,None,,,4,m,2,l,KB,2021_Jun_03_1436,WASABI Nback,2020.2.10,59.95998272391065,
0,1,7,"[-0.2, -0.2]",None,0,0,0,0,,,,,0,0,0,0,0,82,82,82,,,,,,,,,None,None,0,219.9161595001351,None,219.9161595001351,220.91614900017157,220.89948120014742,221.89952820003964,0,1,219.9161595001351,None,,,4,m,2,l,KB,2021_Jun_03_1436,WASABI Nback,2020.2.10,59.95998272391065,
0,1,4,"[-0.2, 0]",1,0,0,0,0,,,,,0,0,0,0,0,83,83,83,,,,,,,,,None,None,0,221.9161818001885,None,221.9161818001885,222.9161859001033,222.89952560001984,223.89952500001527,0,0,221.9161818001885,None,,,4,m,2,l,KB,2021_Jun_03_1436,WASABI Nback,2020.2.10,59.95998272391065,
0,1,4,"[-0.2, 0]",None,0,0,0,0,,,,,0,0,0,0,0,84,84,84,,,,,,,,,None,None,0,223.9161756001413,None,223.9161756001413,224.91621030005626,224.89955119998194,225.89952430012636,0,1,223.9161756001413,None,,,4,m,2,l,KB,2021_Jun_03_1436,WASABI Nback,2020.2.10,59.95998272391065,
0,1,5,"[0, 0]",None,0,0,0,0,,,,,0,0,0,0,0,85,85,85,,,,,,,,,None,None,0,225.91618980001658,None,225.91618980001658,226.91619920008816,226.89955239999108,227.8995519001037,0,1,225.91618980001658,None,,,4,m,2,l,KB,2021_Jun_03_1436,WASABI Nback,2020.2.10,59.95998272391065,
0,1,2,"[0, 0.2]",None,0,0,0,0,,,,,0,0,0,0,0,86,86,86,,,,,,,,,None,None,0,227.91623209998943,None,227.91623209998943,228.91624610009603,228.89953760011122,229.8995452001691,0,1,227.91623209998943,None,,,4,m,2,l,KB,2021_Jun_03_1436,WASABI Nback,2020.2.10,59.95998272391065,
0,1,6,"[0.2, 0]",None,0,0,0,0,,,,,0,0,0,0,0,87,87,87,,,,,,,,,None,None,0,229.91624250006862,None,229.91624250006862,230.9162578000687,230.89955940004438,231.89956390019506,0,1,229.91624250006862,None,,,4,m,2,l,KB,2021_Jun_03_1436,WASABI Nback,2020.2.10,59.95998272391065,
0,1,7,"[-0.2, -0.2]",None,0,0,0,0,,,,,0,0,0,0,0,88,88,88,,,,,,,,,None,None,0,231.9162622001022,None,231.9162622001022,232.91625590017065,232.8995811000932,233.89960040012375,0,1,231.9162622001022,None,,,4,m,2,l,KB,2021_Jun_03_1436,WASABI Nback,2020.2.10,59.95998272391065,
0,1,6,"[0.2, 0]",1,0,0,0,0,,,,,0,0,0,0,0,89,89,89,,,,,,,,,None,None,0,233.91626229998656,None,233.91626229998656,234.91627120017074,234.89960800018162,235.89962160005234,0,0,233.91626229998656,None,,,4,m,2,l,KB,2021_Jun_03_1436,WASABI Nback,2020.2.10,59.95998272391065,
0,1,6,"[0.2, 0]",None,0,0,0,0,,,,,0,0,0,0,0,90,90,90,,,,,,,,,None,None,0,235.91628730017692,None,235.91628730017692,236.9163313000463,236.89967620000243,237.89971140003763,0,1,235.91628730017692,None,,,4,m,2,l,KB,2021_Jun_03_1436,WASABI Nback,2020.2.10,59.95998272391065,
0,1,7,"[-0.2, -0.2]",None,0,0,0,0,,,,,0,0,0,0,0,91,91,91,,,,,,,,,None,None,0,237.91634080000222,None,237.91634080000222,238.91631480003707,238.8996401000768,239.89963220013306,0,1,237.91634080000222,None,,,4,m,2,l,KB,2021_Jun_03_1436,WASABI Nback,2020.2.10,59.95998272391065,
0,1,6,"[0.2, 0]",1,0,0,0,0,,,,,0,0,0,0,0,92,92,92,,,,,,,,,None,None,0,239.91631440003403,None,239.91631440003403,240.91632550000213,240.89965880010277,241.8996572000906,0,0,239.91631440003403,None,,,4,m,2,l,KB,2021_Jun_03_1436,WASABI Nback,2020.2.10,59.95998272391065,
0,1,2,"[0, 0.2]",None,0,0,0,0,,,,,0,0,0,0,0,93,93,93,,,,,,,,,None,None,0,241.91634150012396,None,241.91634150012396,242.91637220000848,242.89966820017435,243.89967290009372,0,1,241.91634150012396,None,,,4,m,2,l,KB,2021_Jun_03_1436,WASABI Nback,2020.2.10,59.95998272391065,
0,1,5,"[0, 0]",None,0,0,0,0,,,,,0,0,0,0,0,94,94,94,,,,,,,,,None,None,0,243.9163550999947,None,243.9163550999947,244.91635780013166,244.8996833001729,245.8997030002065,0,1,243.9163550999947,None,,,4,m,2,l,KB,2021_Jun_03_1436,WASABI Nback,2020.2.10,59.95998272391065,
0,1,4,"[-0.2, 0]",None,0,0,0,0,,,,,0,0,0,0,0,95,95,95,,,,,,,,,None,None,0,245.91639090003446,None,245.91639090003446,246.91638270020485,246.89969190000556,247.90003400016576,0,1,245.91639090003446,None,,,4,m,2,l,KB,2021_Jun_03_1436,WASABI Nback,2020.2.10,59.95998272391065,
0,1,4,"[-0.2, 0]",None,0,0,0,0,,,,,0,0,0,0,0,96,96,96,,,,,,,,,None,None,0,247.91640990017913,None,247.91640990017913,248.91641250019893,248.89972300012596,249.8997431001626,0,1,247.91640990017913,None,,,4,m,2,l,KB,2021_Jun_03_1436,WASABI Nback,2020.2.10,59.95998272391065,
0,1,7,"[-0.2, -0.2]",None,0,0,0,0,,,,,0,0,0,0,0,97,97,97,,,,,,,,,None,None,0,249.91642180015333,None,249.91642180015333,250.91642540018074,250.89974160003476,251.8997457001824,0,1,249.91642180015333,None,,,4,m,2,l,KB,2021_Jun_03_1436,WASABI Nback,2020.2.10,59.95998272391065,
0,1,4,"[-0.2, 0]",1,0,0,0,0,,,,,0,0,0,0,0,98,98,98,,,,,,,,,None,None,0,251.9164444000926,None,251.9164444000926,252.9164632000029,252.8997594001703,253.89970539999194,0,0,251.9164444000926,None,,,4,m,2,l,KB,2021_Jun_03_1436,WASABI Nback,2020.2.10,59.95998272391065,
0,1,3,"[0.2, 0.2]",None,0,0,0,0,,,,,0,0,0,0,0,99,99,99,,,,,,,,,None,None,0,253.9164361001458,None,253.9164361001458,254.91645190003328,254.8997630001977,255.89980950020254,0,1,253.9164361001458,None,,,4,m,2,l,KB,2021_Jun_03_1436,WASABI Nback,2020.2.10,59.95998272391065,
0,1,5,"[0, 0]",None,0,0,0,0,,,,,0,0,0,0,0,100,100,100,,,,,,,,,None,None,0,255.9163298001513,None,255.9163298001513,256.9164403001778,256.89980940008536,257.8998217000626,0,1,255.9163298001513,None,,,4,m,2,l,KB,2021_Jun_03_1436,WASABI Nback,2020.2.10,59.95998272391065,
0,1,3,"[0.2, 0.2]",1,0,0,0,0,,,,,0,0,0,0,0,101,101,101,,,,,,,,,None,None,0,257.9164778001141,None,257.9164778001141,258.91647240007296,258.89981700014323,259.8998396000825,0,0,257.9164778001141,None,,,4,m,2,l,KB,2021_Jun_03_1436,WASABI Nback,2020.2.10,59.95998272391065,
0,1,1,"[-0.2, 0.2]",None,0,0,0,0,,,,,0,0,0,0,0,102,102,102,,,,,,,,,None,None,0,259.91649620002136,None,259.91649620002136,260.9165275001433,260.89983870019205,261.8998391001951,0,1,259.91649620002136,None,,,4,m,2,l,KB,2021_Jun_03_1436,WASABI Nback,2020.2.10,59.95998272391065,
0,1,9,"[0.2, -0.2]",None,0,0,0,0,,,,,0,0,0,0,0,103,103,103,,,,,,,,,None,None,0,261.9165256000124,None,261.9165256000124,262.9165101000108,262.8998475000262,263.8998593001161,0,1,261.9165256000124,None,,,4,m,2,l,KB,2021_Jun_03_1436,WASABI Nback,2020.2.10,59.95998272391065,
0,1,9,"[0.2, -0.2]",None,0,0,0,0,,,,,0,0,0,0,0,104,104,104,,,,,,,,,None,None,0,263.91654490004294,None,263.91654490004294,264.91654980019666,264.8998605001252,265.8998828001786,0,1,263.91654490004294,None,,,4,m,2,l,KB,2021_Jun_03_1436,WASABI Nback,2020.2.10,59.95998272391065,
0,1,8,"[0, -0.2]",None,0,0,0,0,,,,,0,0,0,0,0,105,105,105,,,,,,,,,None,None,0,265.9165619001724,None,265.9165619001724,266.91656410018913,266.89987800014205,267.8998844001908,0,1,265.9165619001724,None,,,4,m,2,l,KB,2021_Jun_03_1436,WASABI Nback,2020.2.10,59.95998272391065,
0,1,6,"[0.2, 0]",None,0,0,0,0,,,,,0,0,0,0,0,106,106,106,,,,,,,,,None,None,0,267.91655259998515,None,267.91655259998515,268.9165515000932,268.899910800159,269.8999170002062,0,1,267.91655259998515,None,,,4,m,2,l,KB,2021_Jun_03_1436,WASABI Nback,2020.2.10,59.95998272391065,
0,1,3,"[0.2, 0.2]",None,0,0,0,0,,,,,0,0,0,0,0,107,107,107,,,,,,,,,None,None,0,269.91656410018913,None,269.91656410018913,270.91646520001814,270.8999149000738,271.8999346001074,0,1,269.91656410018913,None,,,4,m,2,l,KB,2021_Jun_03_1436,WASABI Nback,2020.2.10,59.95998272391065,
0,1,6,"[0.2, 0]",1,0,0,0,0,,,,,0,0,0,0,0,108,108,108,,,,,,,,,None,None,0,271.91659610019997,None,271.91659610019997,272.9165970000904,272.89994320017286,273.8999324000906,0,0,271.91659610019997,None,,,4,m,2,l,KB,2021_Jun_03_1436,WASABI Nback,2020.2.10,59.95998272391065,
0,1,5,"[0, 0]",None,0,0,0,0,,,,,0,0,0,0,0,109,109,109,,,,,,,,,None,None,0,273.91660340013914,None,273.91660340013914,274.9165880000219,274.89995640004054,275.8999662999995,0,1,273.91660340013914,None,,,4,m,2,l,KB,2021_Jun_03_1436,WASABI Nback,2020.2.10,59.95998272391065,
0,1,7,"[-0.2, -0.2]",None,0,0,0,0,,,,,0,0,0,0,0,110,110,110,,,,,,,,,None,None,0,275.9166164000053,None,275.9166164000053,276.9166265001986,276.89997350005433,277.8999897001777,0,1,275.9166164000053,None,,,4,m,2,l,KB,2021_Jun_03_1436,WASABI Nback,2020.2.10,59.95998272391065,
0,1,5,"[0, 0]",1,0,0,0,0,,,,,0,0,0,0,0,111,111,111,,,,,,,,,None,None,0,277.9166469001211,None,277.9166469001211,278.916698000161,278.9000117001124,279.89999770000577,0,0,277.9166469001211,None,,,4,m,2,l,KB,2021_Jun_03_1436,WASABI Nback,2020.2.10,59.95998272391065,
0,1,1,"[-0.2, 0.2]",None,0,0,0,0,,,,,0,0,0,0,0,112,112,112,,,,,,,,,None,None,0,279.91666880017146,None,279.91666880017146,280.9166638001334,280.9000111001078,281.90000630007125,0,1,279.91666880017146,None,,,4,m,2,l,KB,2021_Jun_03_1436,WASABI Nback,2020.2.10,59.95998272391065,
0,1,7,"[-0.2, -0.2]",None,0,0,0,0,,,,,0,0,0,0,0,113,113,113,,,,,,,,,None,None,0,281.91665720008314,None,281.91665720008314,282.9166800000239,282.90001800004393,283.90003450005315,0,1,281.91665720008314,None,,,4,m,2,l,KB,2021_Jun_03_1436,WASABI Nback,2020.2.10,59.95998272391065,
0,1,9,"[0.2, -0.2]",None,0,0,0,0,,,,,0,0,0,0,0,114,114,114,,,,,,,,,None,None,0,283.9166930001229,None,283.9166930001229,284.91667220019735,284.9000481001567,285.89992060000077,0,1,283.9166930001229,None,,,4,m,2,l,KB,2021_Jun_03_1436,WASABI Nback,2020.2.10,59.95998272391065,
0,1,3,"[0.2, 0.2]",None,0,0,0,0,,,,,0,0,0,0,0,115,115,115,,,,,,,,,None,None,0,285.91670810012147,None,285.91670810012147,286.9167173001915,286.9000587000046,287.8999751000665,0,1,285.91670810012147,None,,,4,m,2,l,KB,2021_Jun_03_1436,WASABI Nback,2020.2.10,59.95998272391065,
0,1,9,"[0.2, -0.2]",1,0,0,0,0,,,,,0,0,0,0,0,116,116,116,,,,,,,,,None,None,0,287.91670110006817,None,287.91670110006817,288.9167277000379,288.90006640017964,289.90008930000477,0,0,287.91670110006817,None,,,4,m,2,l,KB,2021_Jun_03_1436,WASABI Nback,2020.2.10,59.95998272391065,
0,1,6,"[0.2, 0]",None,0,0,0,0,,,,,0,0,0,0,0,117,117,117,,,,,,,,,None,None,0,289.91672390000895,None,289.91672390000895,290.91674980008975,290.90008729998954,291.90008030016907,0,1,289.91672390000895,None,,,4,m,2,l,KB,2021_Jun_03_1436,WASABI Nback,2020.2.10,59.95998272391065,
0,1,2,"[0, 0.2]",None,0,0,0,0,,,,,0,0,0,0,0,118,118,118,,,,,,,,,None,None,0,291.9167310001794,None,291.9167310001794,292.91674490016885,292.9001139001921,293.90011729998514,0,1,291.9167310001794,None,,,4,m,2,l,KB,2021_Jun_03_1436,WASABI Nback,2020.2.10,59.95998272391065,
0,1,5,"[0, 0]",None,0,0,0,0,,,,,0,0,0,0,0,119,119,119,,,,,,,,,None,None,0,293.91680000000633,None,293.91680000000633,294.91678400011733,294.9001147001982,295.9001395001542,0,1,293.91680000000633,None,,,4,m,2,l,KB,2021_Jun_03_1436,WASABI Nback,2020.2.10,59.95998272391065,
1,0,,,,0,1,1,1,0,0,0,0,,,,,,,,,,,,,,,,,,,,,,,,,,,,,,355.65065050008707,None,4,m,2,l,KB,2021_Jun_03_1436,WASABI Nback,2020.2.10,59.95998272391065,
