RestT1,TaskT1,square,location,corrAns,counterbalancer.thisRepN,counterbalancer.thisTrialN,counterbalancer.thisN,counterbalancer.thisIndex,RestT1Loop.thisRepN,RestT1Loop.thisTrialN,RestT1Loop.thisN,RestT1Loop.thisIndex,TaskT1Loop.thisRepN,TaskT1Loop.thisTrialN,TaskT1Loop.thisN,TaskT1Loop.thisIndex,trials_2.thisRepN,trials_2.thisTrialN,trials_2.thisN,trials_2.thisIndex,fixation_1.started,fixation_1.stopped,NbackInstructions.started,NbackInstructions.stopped,NbackStart.keys,NbackStart.rt,NbackStart.started,NbackStart.stopped,fixation_2.started,fixation_2.stopped,response_2.x,response_2.y,response_2.leftButton,grid_lines_2.started,grid_lines_2.stopped,target_square_2.started,target_square_2.stopped,fixation_3.started,fixation_3.stopped,response_2.click,response_2.corr,response_2.started,response_2.stopped,response_2.rt,subject number,gender,session,handedness,scanner,date,expName,psychopyVersion,frameRate,
1,0,,,,0,0,0,0,0,0,0,0,,,,,,,,,58.293767699971795,None,,,,,,,,,,,,,,,,,,,,,,,5,m,1,r,CIB,2021_Jun_07_1511,WASABI Nback,2020.2.10,59.99955598593516,
0,1,,,,0,1,1,1,,,,,0,0,0,0,,,,,,,348.61288599995896,None,space,66.42156899999827,348.61288599995896,None,,,,,,,,,,,,,,,,,5,m,1,r,CIB,2021_Jun_07_1511,WASABI Nback,2020.2.10,59.99955598593516,
0,1,5,"[0, 0]",None,0,1,1,1,,,,,0,0,0,0,0,0,0,0,,,,,,,,,415.8634119001217,None,None,None,0,416.12963860016316,None,416.12963860016316,417.13008280005306,417.13008280005306,None,0,1,416.12963860016316,None,,5,m,1,r,CIB,2021_Jun_07_1511,WASABI Nback,2020.2.10,59.99955598593516,
0,1,2,"[0, 0.2]",None,0,1,1,1,,,,,0,0,0,0,0,1,1,1,,,,,,,,,,,None,None,0,418.08008279977366,None,418.08008279977366,419.08011629991233,419.06344129983336,420.06345980009064,0,1,418.08008279977366,None,,5,m,1,r,CIB,2021_Jun_07_1511,WASABI Nback,2020.2.10,59.99955598593516,
0,1,6,"[0.2, 0]",None,0,1,1,1,,,,,0,0,0,0,0,2,2,2,,,,,,,,,,,None,None,0,420.08012969978154,None,420.08012969978154,421.0801165997982,421.06346199987456,422.063477399759,0,1,420.08012969978154,None,,5,m,1,r,CIB,2021_Jun_07_1511,WASABI Nback,2020.2.10,59.99955598593516,
0,1,9,"[0.2, -0.2]",None,0,1,1,1,,,,,0,0,0,0,0,3,3,3,,,,,,,,,,,None,None,0,422.0801284997724,None,422.0801284997724,423.0801542000845,423.06347779976204,424.06350799975917,0,1,422.0801284997724,None,,5,m,1,r,CIB,2021_Jun_07_1511,WASABI Nback,2020.2.10,59.99955598593516,
0,1,3,"[0.2, 0.2]",None,0,1,1,1,,,,,0,0,0,0,0,4,4,4,,,,,,,,,,,None,None,0,424.080149800051,None,424.080149800051,425.08014870015904,425.06350519973785,426.0635365997441,0,1,424.080149800051,None,,5,m,1,r,CIB,2021_Jun_07_1511,WASABI Nback,2020.2.10,59.99955598593516,
0,1,9,"[0.2, -0.2]",1,0,1,1,1,,,,,0,0,0,0,0,5,5,5,,,,,,,,,,,None,None,0,426.0801793001592,None,426.0801793001592,427.08005459979177,427.06352229975164,428.0635373000987,0,1,426.0801793001592,None,,5,m,1,r,CIB,2021_Jun_07_1511,WASABI Nback,2020.2.10,59.99955598593516,
0,1,7,"[-0.2, -0.2]",None,0,1,1,1,,,,,0,0,0,0,0,6,6,6,,,,,,,,,,,None,None,0,428.0801794999279,None,428.0801794999279,429.0802016998641,429.06351910019293,430.0635311999358,0,1,428.0801794999279,None,,5,m,1,r,CIB,2021_Jun_07_1511,WASABI Nback,2020.2.10,59.99955598593516,
0,1,1,"[-0.2, 0.2]",None,0,1,1,1,,,,,0,0,0,0,0,7,7,7,,,,,,,,,,,None,None,0,430.08017840003595,None,430.08017840003595,431.0801988001913,431.0635655000806,432.06357769994065,0,1,430.08017840003595,None,,5,m,1,r,CIB,2021_Jun_07_1511,WASABI Nback,2020.2.10,59.99955598593516,
0,1,5,"[0, 0]",None,0,1,1,1,,,,,0,0,0,0,0,8,8,8,,,,,,,,,,,None,None,0,432.08021119982004,None,432.08021119982004,433.08021020004526,433.06357609992847,434.0635839998722,0,1,432.08021119982004,None,,5,m,1,r,CIB,2021_Jun_07_1511,WASABI Nback,2020.2.10,59.99955598593516,
0,1,7,"[-0.2, -0.2]",None,0,1,1,1,,,,,0,0,0,0,0,9,9,9,,,,,,,,,,,None,None,0,434.0802409001626,None,434.0802409001626,435.08026000019163,435.0634610000998,436.0635922001675,0,1,434.0802409001626,None,,5,m,1,r,CIB,2021_Jun_07_1511,WASABI Nback,2020.2.10,59.99955598593516,
0,1,5,"[0, 0]",1,0,1,1,1,,,,,0,0,0,0,0,10,10,10,,,,,,,,,,,None,None,0,436.08024130016565,None,436.08024130016565,437.0802531000227,437.06351609993726,438.06361419986933,0,1,436.08024130016565,None,,5,m,1,r,CIB,2021_Jun_07_1511,WASABI Nback,2020.2.10,59.99955598593516,
0,1,6,"[0.2, 0]",None,0,1,1,1,,,,,0,0,0,0,0,11,11,11,,,,,,,,,,,None,None,0,438.0802795998752,None,438.0802795998752,439.08029319997877,439.0636130999774,440.0636261999607,0,1,438.0802795998752,None,,5,m,1,r,CIB,2021_Jun_07_1511,WASABI Nback,2020.2.10,59.99955598593516,
0,1,3,"[0.2, 0.2]",None,0,1,1,1,,,,,0,0,0,0,0,12,12,12,,,,,,,,,,,None,None,0,440.08028810005635,None,440.08028810005635,441.0802906001918,441.06363540003076,442.0636454997584,0,1,440.08028810005635,None,,5,m,1,r,CIB,2021_Jun_07_1511,WASABI Nback,2020.2.10,59.99955598593516,
0,1,6,"[0.2, 0]",1,0,1,1,1,,,,,0,0,0,0,0,13,13,13,,,,,,,,,,,None,None,0,442.08030360005796,None,442.08030360005796,443.0803057998419,443.06365349981934,444.0636521000415,0,1,442.08030360005796,None,,5,m,1,r,CIB,2021_Jun_07_1511,WASABI Nback,2020.2.10,59.99955598593516,
0,1,8,"[0, -0.2]",None,0,1,1,1,,,,,0,0,0,0,0,14,14,14,,,,,,,,,,,None,None,0,444.08032430009916,None,444.08032430009916,445.08031470002607,445.0636610998772,446.06366800004616,0,1,444.08032430009916,None,,5,m,1,r,CIB,2021_Jun_07_1511,WASABI Nback,2020.2.10,59.99955598593516,
0,1,9,"[0.2, -0.2]",None,0,1,1,1,,,,,0,0,0,0,0,15,15,15,,,,,,,,,,,None,None,0,446.08036469994113,None,446.08036469994113,447.08035789988935,447.06368019990623,448.06369769992307,0,1,446.08036469994113,None,,5,m,1,r,CIB,2021_Jun_07_1511,WASABI Nback,2020.2.10,59.99955598593516,
0,1,9,"[0.2, -0.2]",None,0,1,1,1,,,,,0,0,0,0,0,16,16,16,,,,,,,,,,,None,None,0,448.0803494001739,None,448.0803494001739,449.0803561001085,449.0637114997953,450.0637042997405,0,1,448.0803494001739,None,,5,m,1,r,CIB,2021_Jun_07_1511,WASABI Nback,2020.2.10,59.99955598593516,
0,1,1,"[-0.2, 0.2]",None,0,1,1,1,,,,,0,0,0,0,0,17,17,17,,,,,,,,,,,None,None,0,450.08038150006905,None,450.08038150006905,451.08037579990923,451.063703100197,452.06360290013254,0,1,450.08038150006905,None,,5,m,1,r,CIB,2021_Jun_07_1511,WASABI Nback,2020.2.10,59.99955598593516,
0,1,3,"[0.2, 0.2]",None,0,1,1,1,,,,,0,0,0,0,0,18,18,18,,,,,,,,,,,None,None,0,452.0803824001923,None,452.0803824001923,453.08039270015433,453.06373200006783,454.0637480998412,0,1,452.0803824001923,None,,5,m,1,r,CIB,2021_Jun_07_1511,WASABI Nback,2020.2.10,59.99955598593516,
0,1,5,"[0, 0]",None,0,1,1,1,,,,,0,0,0,0,0,19,19,19,,,,,,,,,,,None,None,0,454.0803886000067,None,454.0803886000067,455.080414599739,455.06375259999186,456.0637566000223,0,1,454.0803886000067,None,,5,m,1,r,CIB,2021_Jun_07_1511,WASABI Nback,2020.2.10,59.99955598593516,
0,1,3,"[0.2, 0.2]",1,0,1,1,1,,,,,0,0,0,0,0,20,20,20,,,,,,,,,,,None,None,0,456.0804131999612,None,456.0804131999612,457.0804241001606,457.0637587001547,458.0637787999585,0,1,456.0804131999612,None,,5,m,1,r,CIB,2021_Jun_07_1511,WASABI Nback,2020.2.10,59.99955598593516,
0,1,4,"[-0.2, 0]",None,0,1,1,1,,,,,0,0,0,0,0,21,21,21,,,,,,,,,,,None,None,0,458.0804436998442,None,458.0804436998442,459.08046159986407,459.06377199990675,460.06379109993577,0,1,458.0804436998442,None,,5,m,1,r,CIB,2021_Jun_07_1511,WASABI Nback,2020.2.10,59.99955598593516,
0,1,7,"[-0.2, -0.2]",None,0,1,1,1,,,,,0,0,0,0,0,22,22,22,,,,,,,,,,,None,None,0,460.08045569993556,None,460.08045569993556,461.0804806998931,461.06380880018696,462.0638055000454,0,1,460.08045569993556,None,,5,m,1,r,CIB,2021_Jun_07_1511,WASABI Nback,2020.2.10,59.99955598593516,
0,1,4,"[-0.2, 0]",1,0,1,1,1,,,,,0,0,0,0,0,23,23,23,,,,,,,,,,,None,None,0,462.0804789997637,None,462.0804789997637,463.0804706001654,463.0638116998598,464.06382599985227,0,1,462.0804789997637,None,,5,m,1,r,CIB,2021_Jun_07_1511,WASABI Nback,2020.2.10,59.99955598593516,
0,1,4,"[-0.2, 0]",None,0,1,1,1,,,,,0,0,0,0,0,24,24,24,,,,,,,,,,,None,None,0,464.08050639973953,None,464.08050639973953,465.0805107001215,465.0638251998462,466.06384010007605,0,1,464.08050639973953,None,,5,m,1,r,CIB,2021_Jun_07_1511,WASABI Nback,2020.2.10,59.99955598593516,
0,1,5,"[0, 0]",None,0,1,1,1,,,,,0,0,0,0,0,25,25,25,,,,,,,,,,,None,None,0,466.0804981999099,None,466.0804981999099,467.0805146000348,467.0638596001081,468.0638628001325,0,1,466.0804981999099,None,,5,m,1,r,CIB,2021_Jun_07_1511,WASABI Nback,2020.2.10,59.99955598593516,
0,1,2,"[0, 0.2]",None,0,1,1,1,,,,,0,0,0,0,0,26,26,26,,,,,,,,,,,None,None,0,468.08054320001975,None,468.08054320001975,469.08052709978074,469.063877500128,470.063879000023,0,1,468.08054320001975,None,,5,m,1,r,CIB,2021_Jun_07_1511,WASABI Nback,2020.2.10,59.99955598593516,
0,1,6,"[0.2, 0]",None,0,1,1,1,,,,,0,0,0,0,0,27,27,27,,,,,,,,,,,None,None,0,470.080555499997,None,470.080555499997,471.0806022998877,471.063879000023,472.0639414000325,0,1,470.080555499997,None,,5,m,1,r,CIB,2021_Jun_07_1511,WASABI Nback,2020.2.10,59.99955598593516,
0,1,7,"[-0.2, -0.2]",None,0,1,1,1,,,,,0,0,0,0,0,28,28,28,,,,,,,,,,,None,None,0,472.0805679000914,None,472.0805679000914,473.08058629976586,473.0639077001251,474.0639184997417,0,1,472.0805679000914,None,,5,m,1,r,CIB,2021_Jun_07_1511,WASABI Nback,2020.2.10,59.99955598593516,
0,1,6,"[0.2, 0]",1,0,1,1,1,,,,,0,0,0,0,0,29,29,29,,,,,,,,,,,None,None,0,474.08057510014623,None,474.08057510014623,475.0805867998861,475.0639138999395,476.0639204001054,0,1,474.08057510014623,None,,5,m,1,r,CIB,2021_Jun_07_1511,WASABI Nback,2020.2.10,59.99955598593516,
0,1,6,"[0.2, 0]",None,0,1,1,1,,,,,0,0,0,0,0,30,30,30,,,,,,,,,,,None,None,0,476.0806096000597,None,476.0806096000597,477.080612400081,477.06394119979814,478.0639382000081,0,1,476.0806096000597,None,,5,m,1,r,CIB,2021_Jun_07_1511,WASABI Nback,2020.2.10,59.99955598593516,
0,1,7,"[-0.2, -0.2]",None,0,1,1,1,,,,,0,0,0,0,0,31,31,31,,,,,,,,,,,None,None,0,478.0806249999441,None,478.0806249999441,479.08061139984056,479.0639605000615,480.06395589979365,0,1,478.0806249999441,None,,5,m,1,r,CIB,2021_Jun_07_1511,WASABI Nback,2020.2.10,59.99955598593516,
0,1,6,"[0.2, 0]",1,0,1,1,1,,,,,0,0,0,0,0,32,32,32,,,,,,,,,,,None,None,0,480.0806293999776,None,480.0806293999776,481.08068320015445,481.06396530009806,482.0639880001545,0,1,480.0806293999776,None,,5,m,1,r,CIB,2021_Jun_07_1511,WASABI Nback,2020.2.10,59.99955598593516,
0,1,2,"[0, 0.2]",None,0,1,1,1,,,,,0,0,0,0,0,33,33,33,,,,,,,,,,,None,None,0,482.08063599979505,None,482.08063599979505,483.0806423998438,483.0639733998105,484.0639932998456,0,1,482.08063599979505,None,,5,m,1,r,CIB,2021_Jun_07_1511,WASABI Nback,2020.2.10,59.99955598593516,
0,1,5,"[0, 0]",None,0,1,1,1,,,,,0,0,0,0,0,34,34,34,,,,,,,,,,,None,None,0,484.08065439993516,None,484.08065439993516,485.08065890008584,485.06396330008283,486.06402250006795,0,1,484.08065439993516,None,,5,m,1,r,CIB,2021_Jun_07_1511,WASABI Nback,2020.2.10,59.99955598593516,
0,1,4,"[-0.2, 0]",None,0,1,1,1,,,,,0,0,0,0,0,35,35,35,,,,,,,,,,,None,None,0,486.0806872998364,None,486.0806872998364,487.0806808997877,487.06403280002996,488.06404259987175,0,1,486.0806872998364,None,,5,m,1,r,CIB,2021_Jun_07_1511,WASABI Nback,2020.2.10,59.99955598593516,
0,1,4,"[-0.2, 0]",None,0,1,1,1,,,,,0,0,0,0,0,36,36,36,,,,,,,,,,,None,None,0,488.08069959981367,None,488.08069959981367,489.0807039998472,489.0640281997621,490.0640401998535,0,1,488.08069959981367,None,,5,m,1,r,CIB,2021_Jun_07_1511,WASABI Nback,2020.2.10,59.99955598593516,
0,1,7,"[-0.2, -0.2]",None,0,1,1,1,,,,,0,0,0,0,0,37,37,37,,,,,,,,,,,None,None,0,490.08072429988533,None,490.08072429988533,491.08070489997044,491.0640555000864,492.0640593999997,0,1,490.08072429988533,None,,5,m,1,r,CIB,2021_Jun_07_1511,WASABI Nback,2020.2.10,59.99955598593516,
0,1,4,"[-0.2, 0]",1,0,1,1,1,,,,,0,0,0,0,0,38,38,38,,,,,,,,,,,None,None,0,492.0807235999964,None,492.0807235999964,493.0807318999432,493.06406689994037,494.06408039992675,0,1,492.0807235999964,None,,5,m,1,r,CIB,2021_Jun_07_1511,WASABI Nback,2020.2.10,59.99955598593516,
0,1,3,"[0.2, 0.2]",None,0,1,1,1,,,,,0,0,0,0,0,39,39,39,,,,,,,,,,,None,None,0,494.08075169986114,None,494.08075169986114,495.08076270017773,495.06408930011094,496.0640933997929,0,1,494.08075169986114,None,,5,m,1,r,CIB,2021_Jun_07_1511,WASABI Nback,2020.2.10,59.99955598593516,
0,1,5,"[0, 0]",None,0,1,1,1,,,,,0,0,0,0,0,40,40,40,,,,,,,,,,,None,None,0,496.0807705000043,None,496.0807705000043,497.0807884000242,497.064140799921,498.06409509992227,0,1,496.0807705000043,None,,5,m,1,r,CIB,2021_Jun_07_1511,WASABI Nback,2020.2.10,59.99955598593516,
0,1,3,"[0.2, 0.2]",1,0,1,1,1,,,,,0,0,0,0,0,41,41,41,,,,,,,,,,,None,None,0,498.0807660999708,None,498.0807660999708,499.0807815999724,499.064120199997,500.06413839990273,0,1,498.0807660999708,None,,5,m,1,r,CIB,2021_Jun_07_1511,WASABI Nback,2020.2.10,59.99955598593516,
0,1,1,"[-0.2, 0.2]",None,0,1,1,1,,,,,0,0,0,0,0,42,42,42,,,,,,,,,,,None,None,0,500.0807920000516,None,500.0807920000516,501.08081329986453,501.0641776002012,502.06415530014783,0,1,500.0807920000516,None,,5,m,1,r,CIB,2021_Jun_07_1511,WASABI Nback,2020.2.10,59.99955598593516,
0,1,9,"[0.2, -0.2]",None,0,1,1,1,,,,,0,0,0,0,0,43,43,43,,,,,,,,,,,None,None,0,502.0808104998432,None,502.0808104998432,503.0808276999742,503.06418550014496,504.0641592000611,0,1,502.0808104998432,None,,5,m,1,r,CIB,2021_Jun_07_1511,WASABI Nback,2020.2.10,59.99955598593516,
0,1,9,"[0.2, -0.2]",None,0,1,1,1,,,,,0,0,0,0,0,44,44,44,,,,,,,,,,,None,None,0,504.08082420006394,None,504.08082420006394,505.08083109976724,505.0641958997585,506.0641935998574,0,1,504.08082420006394,None,,5,m,1,r,CIB,2021_Jun_07_1511,WASABI Nback,2020.2.10,59.99955598593516,
0,1,8,"[0, -0.2]",None,0,1,1,1,,,,,0,0,0,0,0,45,45,45,,,,,,,,,,,None,None,0,506.080852500163,None,506.080852500163,507.080863900017,507.06418279977515,508.0642113997601,0,1,506.080852500163,None,,5,m,1,r,CIB,2021_Jun_07_1511,WASABI Nback,2020.2.10,59.99955598593516,
0,1,6,"[0.2, 0]",None,0,1,1,1,,,,,0,0,0,0,0,46,46,46,,,,,,,,,,,None,None,0,508.08086659992114,None,508.08086659992114,509.0808631000109,509.06417979998514,510.0642114998773,0,1,508.08086659992114,None,,5,m,1,r,CIB,2021_Jun_07_1511,WASABI Nback,2020.2.10,59.99955598593516,
0,1,3,"[0.2, 0.2]",None,0,1,1,1,,,,,0,0,0,0,0,47,47,47,,,,,,,,,,,None,None,0,510.08088780008256,None,510.08088780008256,511.0808823001571,511.0642400998622,512.0642297999002,0,1,510.08088780008256,None,,5,m,1,r,CIB,2021_Jun_07_1511,WASABI Nback,2020.2.10,59.99955598593516,
0,1,6,"[0.2, 0]",1,0,1,1,1,,,,,0,0,0,0,0,48,48,48,,,,,,,,,,,None,None,0,512.0808306001127,None,512.0808306001127,513.0809157001786,513.0642340998165,514.0642654998228,0,1,512.0808306001127,None,,5,m,1,r,CIB,2021_Jun_07_1511,WASABI Nback,2020.2.10,59.99955598593516,
0,1,5,"[0, 0]",None,0,1,1,1,,,,,0,0,0,0,0,49,49,49,,,,,,,,,,,None,None,0,514.0809153001755,None,514.0809153001755,515.080929600168,515.0642546997406,516.0642589000054,0,1,514.0809153001755,None,,5,m,1,r,CIB,2021_Jun_07_1511,WASABI Nback,2020.2.10,59.99955598593516,
0,1,7,"[-0.2, -0.2]",None,0,1,1,1,,,,,0,0,0,0,0,50,50,50,,,,,,,,,,,None,None,0,516.0809248001315,None,516.0809248001315,517.0809419997968,517.0642829001881,518.0642912997864,0,1,516.0809248001315,None,,5,m,1,r,CIB,2021_Jun_07_1511,WASABI Nback,2020.2.10,59.99955598593516,
0,1,5,"[0, 0]",1,0,1,1,1,,,,,0,0,0,0,0,51,51,51,,,,,,,,,,,None,None,0,518.0810114000924,None,518.0810114000924,519.0809705001302,519.0642882999964,520.0643223999068,0,1,518.0810114000924,None,,5,m,1,r,CIB,2021_Jun_07_1511,WASABI Nback,2020.2.10,59.99955598593516,
0,1,1,"[-0.2, 0.2]",None,0,1,1,1,,,,,0,0,0,0,0,52,52,52,,,,,,,,,,,None,None,0,520.0809633000754,None,520.0809633000754,521.0809706998989,521.0643071001396,522.0643128999509,0,1,520.0809633000754,None,,5,m,1,r,CIB,2021_Jun_07_1511,WASABI Nback,2020.2.10,59.99955598593516,
0,1,7,"[-0.2, -0.2]",None,0,1,1,1,,,,,0,0,0,0,0,53,53,53,,,,,,,,,,,None,None,0,522.0809810999781,None,522.0809810999781,523.0809694998898,523.0643468997441,524.0643317997456,0,1,522.0809810999781,None,,5,m,1,r,CIB,2021_Jun_07_1511,WASABI Nback,2020.2.10,59.99955598593516,
0,1,9,"[0.2, -0.2]",None,0,1,1,1,,,,,0,0,0,0,0,54,54,54,,,,,,,,,,,None,None,0,524.0810126001015,None,524.0810126001015,525.0810035998002,525.0643393001519,526.0643635001034,0,1,524.0810126001015,None,,5,m,1,r,CIB,2021_Jun_07_1511,WASABI Nback,2020.2.10,59.99955598593516,
0,1,3,"[0.2, 0.2]",None,0,1,1,1,,,,,0,0,0,0,0,55,55,55,,,,,,,,,,,None,None,0,526.0810163998976,None,526.0810163998976,527.0810205000453,527.0643563000485,528.064361799974,0,1,526.0810163998976,None,,5,m,1,r,CIB,2021_Jun_07_1511,WASABI Nback,2020.2.10,59.99955598593516,
0,1,9,"[0.2, -0.2]",1,0,1,1,1,,,,,0,0,0,0,0,56,56,56,,,,,,,,,,,None,None,0,528.0810345001519,None,528.0810345001519,529.0810424997471,529.064393399749,530.0643934998661,0,1,528.0810345001519,None,,5,m,1,r,CIB,2021_Jun_07_1511,WASABI Nback,2020.2.10,59.99955598593516,
0,1,6,"[0.2, 0]",None,0,1,1,1,,,,,0,0,0,0,0,57,57,57,,,,,,,,,,,None,None,0,530.0810444997624,None,530.0810444997624,531.0810568998568,531.0643929997459,532.0644160001539,0,1,530.0810444997624,None,,5,m,1,r,CIB,2021_Jun_07_1511,WASABI Nback,2020.2.10,59.99955598593516,
0,1,2,"[0, 0.2]",None,0,1,1,1,,,,,0,0,0,0,0,58,58,58,,,,,,,,,,,None,None,0,532.0810678000562,None,532.0810678000562,533.0810965001583,533.064408800099,534.0644828001969,0,1,532.0810678000562,None,,5,m,1,r,CIB,2021_Jun_07_1511,WASABI Nback,2020.2.10,59.99955598593516,
0,1,5,"[0, 0]",None,0,1,1,1,,,,,0,0,0,0,0,59,59,59,,,,,,,,,,,None,None,0,534.0810704999603,None,534.0810704999603,535.0811083000153,535.0644387998618,536.0644387998618,0,1,534.0810704999603,None,,5,m,1,r,CIB,2021_Jun_07_1511,WASABI Nback,2020.2.10,59.99955598593516,
0,1,5,"[0, 0]",None,0,1,1,1,,,,,0,0,0,0,0,60,60,60,,,,,,,,,,,None,None,0,536.0810929997824,None,536.0810929997824,537.0810929997824,537.064438499976,538.0643641999923,0,1,536.0810929997824,None,,5,m,1,r,CIB,2021_Jun_07_1511,WASABI Nback,2020.2.10,59.99955598593516,
0,1,2,"[0, 0.2]",None,0,1,1,1,,,,,0,0,0,0,0,61,61,61,,,,,,,,,,,None,None,0,538.0811151000671,None,538.0811151000671,539.0811268999241,539.0644622999243,540.0644685998559,0,1,538.0811151000671,None,,5,m,1,r,CIB,2021_Jun_07_1511,WASABI Nback,2020.2.10,59.99955598593516,
0,1,6,"[0.2, 0]",None,0,1,1,1,,,,,0,0,0,0,0,62,62,62,,,,,,,,,,,None,None,0,540.0811490998603,None,540.0811490998603,541.081142900046,541.0645026001148,542.0644946000539,0,1,540.0811490998603,None,,5,m,1,r,CIB,2021_Jun_07_1511,WASABI Nback,2020.2.10,59.99955598593516,
0,1,9,"[0.2, -0.2]",None,0,1,1,1,,,,,0,0,0,0,0,63,63,63,,,,,,,,,,,None,None,0,542.0811477000825,None,542.0811477000825,543.081172300037,543.064508699812,544.064516399987,0,1,542.0811477000825,None,,5,m,1,r,CIB,2021_Jun_07_1511,WASABI Nback,2020.2.10,59.99955598593516,
0,1,3,"[0.2, 0.2]",None,0,1,1,1,,,,,0,0,0,0,0,64,64,64,,,,,,,,,,,None,None,0,544.0811709999107,None,544.0811709999107,545.0811752001755,545.0645268000662,546.0645570000634,0,1,544.0811709999107,None,,5,m,1,r,CIB,2021_Jun_07_1511,WASABI Nback,2020.2.10,59.99955598593516,
0,1,9,"[0.2, -0.2]",1,0,1,1,1,,,,,0,0,0,0,0,65,65,65,,,,,,,,,,,None,None,0,546.0811982001178,None,546.0811982001178,547.0811904999427,547.0645610997453,548.064457600005,0,1,546.0811982001178,None,,5,m,1,r,CIB,2021_Jun_07_1511,WASABI Nback,2020.2.10,59.99955598593516,
0,1,7,"[-0.2, -0.2]",None,0,1,1,1,,,,,0,0,0,0,0,66,66,66,,,,,,,,,,,None,None,0,548.0812018001452,None,548.0812018001452,549.0807159999385,549.064572900068,550.0645695999265,0,1,548.0812018001452,None,,5,m,1,r,CIB,2021_Jun_07_1511,WASABI Nback,2020.2.10,59.99955598593516,
0,1,1,"[-0.2, 0.2]",None,0,1,1,1,,,,,0,0,0,0,0,67,67,67,,,,,,,,,,,None,None,0,550.0812157997862,None,550.0812157997862,551.0812833001837,551.0645694001578,552.064595699776,0,1,550.0812157997862,None,,5,m,1,r,CIB,2021_Jun_07_1511,WASABI Nback,2020.2.10,59.99955598593516,
0,1,5,"[0, 0]",None,0,1,1,1,,,,,0,0,0,0,0,68,68,68,,,,,,,,,,,None,None,1,552.0812448998913,None,552.0812448998913,553.08124209987,553.0646139997989,554.0646155998111,1,0,552.0812448998913,None,1.8532308000139892,5,m,1,r,CIB,2021_Jun_07_1511,WASABI Nback,2020.2.10,59.99955598593516,
0,1,7,"[-0.2, -0.2]",None,0,1,1,1,,,,,0,0,0,0,0,69,69,69,,,,,,,,,,,None,None,0,554.0812492999248,None,554.0812492999248,555.0812792000361,555.0646036998369,556.0646183001809,0,1,554.0812492999248,None,,5,m,1,r,CIB,2021_Jun_07_1511,WASABI Nback,2020.2.10,59.99955598593516,
0,1,5,"[0, 0]",1,0,1,1,1,,,,,0,0,0,0,0,70,70,70,,,,,,,,,,,None,None,0,556.0812633000314,None,556.0812633000314,557.0812876001,557.0646262001246,558.0646346001886,0,1,556.0812633000314,None,,5,m,1,r,CIB,2021_Jun_07_1511,WASABI Nback,2020.2.10,59.99955598593516,
0,1,6,"[0.2, 0]",None,0,1,1,1,,,,,0,0,0,0,0,71,71,71,,,,,,,,,,,None,None,0,558.0813020998612,None,558.0813020998612,559.0812854999676,559.064640100114,560.0646362002008,0,1,558.0813020998612,None,,5,m,1,r,CIB,2021_Jun_07_1511,WASABI Nback,2020.2.10,59.99955598593516,
0,1,3,"[0.2, 0.2]",None,0,1,1,1,,,,,0,0,0,0,0,72,72,72,,,,,,,,,,,None,None,0,560.0813005999662,None,560.0813005999662,561.0813293000683,561.0646485998295,562.0646470999345,0,1,560.0813005999662,None,,5,m,1,r,CIB,2021_Jun_07_1511,WASABI Nback,2020.2.10,59.99955598593516,
0,1,6,"[0.2, 0]",1,0,1,1,1,,,,,0,0,0,0,0,73,73,73,,,,,,,,,,,None,None,0,562.0813239999115,None,562.0813239999115,563.0813238001429,563.0646830000915,564.0646763001569,0,1,562.0813239999115,None,,5,m,1,r,CIB,2021_Jun_07_1511,WASABI Nback,2020.2.10,59.99955598593516,
0,1,8,"[0, -0.2]",None,0,1,1,1,,,,,0,0,0,0,0,74,74,74,,,,,,,,,,,None,None,0,564.0813675001264,None,564.0813675001264,565.0813465001993,565.0647032000124,566.0646930001676,0,1,564.0813675001264,None,,5,m,1,r,CIB,2021_Jun_07_1511,WASABI Nback,2020.2.10,59.99955598593516,
0,1,9,"[0.2, -0.2]",None,0,1,1,1,,,,,0,0,0,0,0,75,75,75,,,,,,,,,,,None,None,0,566.0813710000366,None,566.0813710000366,567.081378699746,567.0647081001662,568.0647045997903,0,1,566.0813710000366,None,,5,m,1,r,CIB,2021_Jun_07_1511,WASABI Nback,2020.2.10,59.99955598593516,
0,1,9,"[0.2, -0.2]",None,0,1,1,1,,,,,0,0,0,0,0,76,76,76,,,,,,,,,,,None,None,0,568.0813666000031,None,568.0813666000031,569.0813795998693,569.0647231000476,570.0647291000932,0,1,568.0813666000031,None,,5,m,1,r,CIB,2021_Jun_07_1511,WASABI Nback,2020.2.10,59.99955598593516,
0,1,1,"[-0.2, 0.2]",None,0,1,1,1,,,,,0,0,0,0,0,77,77,77,,,,,,,,,,,None,None,0,570.081406199839,None,570.081406199839,571.0813865000382,571.0647264998406,572.0647471998818,0,1,570.081406199839,None,,5,m,1,r,CIB,2021_Jun_07_1511,WASABI Nback,2020.2.10,59.99955598593516,
0,1,3,"[0.2, 0.2]",None,0,1,1,1,,,,,0,0,0,0,0,78,78,78,,,,,,,,,,,None,None,0,572.0814100001007,None,572.0814100001007,573.0814352999441,573.064747299999,574.0647530001588,0,1,572.0814100001007,None,,5,m,1,r,CIB,2021_Jun_07_1511,WASABI Nback,2020.2.10,59.99955598593516,
0,1,5,"[0, 0]",None,0,1,1,1,,,,,0,0,0,0,0,79,79,79,,,,,,,,,,,None,None,0,574.0814282000065,None,574.0814282000065,575.0814314000309,575.0647701998241,576.0647734999657,0,1,574.0814282000065,None,,5,m,1,r,CIB,2021_Jun_07_1511,WASABI Nback,2020.2.10,59.99955598593516,
0,1,3,"[0.2, 0.2]",1,0,1,1,1,,,,,0,0,0,0,0,80,80,80,,,,,,,,,,,None,None,0,576.0814573997632,None,576.0814573997632,577.0814463999122,577.0647863000631,578.0647996999323,0,1,576.0814573997632,None,,5,m,1,r,CIB,2021_Jun_07_1511,WASABI Nback,2020.2.10,59.99955598593516,
0,1,4,"[-0.2, 0]",None,0,1,1,1,,,,,0,0,0,0,0,81,81,81,,,,,,,,,,,None,None,0,578.081453199964,None,578.081453199964,579.0814820001833,579.0648026000708,580.0646902001463,0,1,578.081453199964,None,,5,m,1,r,CIB,2021_Jun_07_1511,WASABI Nback,2020.2.10,59.99955598593516,
0,1,7,"[-0.2, -0.2]",None,0,1,1,1,,,,,0,0,0,0,0,82,82,82,,,,,,,,,,,None,None,0,580.0814963998273,None,580.0814963998273,581.0814829999581,581.0648171999492,582.0648272000253,0,1,580.0814963998273,None,,5,m,1,r,CIB,2021_Jun_07_1511,WASABI Nback,2020.2.10,59.99955598593516,
0,1,4,"[-0.2, 0]",1,0,1,1,1,,,,,0,0,0,0,0,83,83,83,,,,,,,,,,,None,None,0,582.0815077000298,None,582.0815077000298,583.0815424001776,583.0648390999995,584.06484609982,0,1,582.0815077000298,None,,5,m,1,r,CIB,2021_Jun_07_1511,WASABI Nback,2020.2.10,59.99955598593516,
0,1,4,"[-0.2, 0]",None,0,1,1,1,,,,,0,0,0,0,0,84,84,84,,,,,,,,,,,None,None,0,584.0815071999095,None,584.0815071999095,585.081532899756,585.0648571997881,586.0648582000285,0,1,584.0815071999095,None,,5,m,1,r,CIB,2021_Jun_07_1511,WASABI Nback,2020.2.10,59.99955598593516,
0,1,5,"[0, 0]",None,0,1,1,1,,,,,0,0,0,0,0,85,85,85,,,,,,,,,,,None,None,0,586.0815333998762,None,586.0815333998762,587.0815404001623,587.0648507997394,588.0648766998202,0,1,586.0815333998762,None,,5,m,1,r,CIB,2021_Jun_07_1511,WASABI Nback,2020.2.10,59.99955598593516,
0,1,2,"[0, 0.2]",None,0,1,1,1,,,,,0,0,0,0,0,86,86,86,,,,,,,,,,,None,None,0,588.0815616999753,None,588.0815616999753,589.0815876000561,589.0648889001459,590.0649145999923,0,1,588.0815616999753,None,,5,m,1,r,CIB,2021_Jun_07_1511,WASABI Nback,2020.2.10,59.99955598593516,
0,1,6,"[0.2, 0]",None,0,1,1,1,,,,,0,0,0,0,0,87,87,87,,,,,,,,,,,None,None,0,590.0815648999996,None,590.0815648999996,591.0815866999328,591.0649017998949,592.0649282000959,0,1,590.0815648999996,None,,5,m,1,r,CIB,2021_Jun_07_1511,WASABI Nback,2020.2.10,59.99955598593516,
0,1,7,"[-0.2, -0.2]",None,0,1,1,1,,,,,0,0,0,0,0,88,88,88,,,,,,,,,,,None,None,0,592.0815950999968,None,592.0815950999968,593.0815889001824,593.0649309,594.0649306001142,0,1,592.0815950999968,None,,5,m,1,r,CIB,2021_Jun_07_1511,WASABI Nback,2020.2.10,59.99955598593516,
0,1,6,"[0.2, 0]",1,0,1,1,1,,,,,0,0,0,0,0,89,89,89,,,,,,,,,,,None,None,0,594.0816202000715,None,594.0816202000715,595.0815587998368,595.0649589998648,596.0649489997886,0,1,594.0816202000715,None,,5,m,1,r,CIB,2021_Jun_07_1511,WASABI Nback,2020.2.10,59.99955598593516,
0,1,6,"[0.2, 0]",None,0,1,1,1,,,,,0,0,0,0,0,90,90,90,,,,,,,,,,,None,None,0,596.0816478999332,None,596.0816478999332,597.0816584001295,597.0649581998587,598.0649684001692,0,1,596.0816478999332,None,,5,m,1,r,CIB,2021_Jun_07_1511,WASABI Nback,2020.2.10,59.99955598593516,
0,1,7,"[-0.2, -0.2]",None,0,1,1,1,,,,,0,0,0,0,0,91,91,91,,,,,,,,,,,None,None,0,598.081644800026,None,598.081644800026,599.0816346998326,599.0649859998375,600.064987800084,0,1,598.081644800026,None,,5,m,1,r,CIB,2021_Jun_07_1511,WASABI Nback,2020.2.10,59.99955598593516,
0,1,6,"[0.2, 0]",1,0,1,1,1,,,,,0,0,0,0,0,92,92,92,,,,,,,,,,,None,None,0,600.0816676001996,None,600.0816676001996,601.0816481001675,601.0649974001572,602.064999199938,0,1,600.0816676001996,None,,5,m,1,r,CIB,2021_Jun_07_1511,WASABI Nback,2020.2.10,59.99955598593516,
0,1,2,"[0, 0.2]",None,0,1,1,1,,,,,0,0,0,0,0,93,93,93,,,,,,,,,,,None,None,0,602.0816616998054,None,602.0816616998054,603.0816946998239,603.0650121998042,604.0650213998742,0,1,602.0816616998054,None,,5,m,1,r,CIB,2021_Jun_07_1511,WASABI Nback,2020.2.10,59.99955598593516,
0,1,5,"[0, 0]",None,0,1,1,1,,,,,0,0,0,0,0,94,94,94,,,,,,,,,,,None,None,0,604.08167460002,None,604.08167460002,605.0816842997447,605.065028199926,606.0650324001908,0,1,604.08167460002,None,,5,m,1,r,CIB,2021_Jun_07_1511,WASABI Nback,2020.2.10,59.99955598593516,
0,1,4,"[-0.2, 0]",None,0,1,1,1,,,,,0,0,0,0,0,95,95,95,,,,,,,,,,,None,None,0,606.0817215000279,None,606.0817215000279,607.081705099903,607.0650386000052,608.0650434000418,0,1,606.0817215000279,None,,5,m,1,r,CIB,2021_Jun_07_1511,WASABI Nback,2020.2.10,59.99955598593516,
0,1,4,"[-0.2, 0]",None,0,1,1,1,,,,,0,0,0,0,0,96,96,96,,,,,,,,,,,None,None,0,608.0817121001892,None,608.0817121001892,609.0817217999138,609.0650622001849,610.0650806999765,0,1,608.0817121001892,None,,5,m,1,r,CIB,2021_Jun_07_1511,WASABI Nback,2020.2.10,59.99955598593516,
0,1,7,"[-0.2, -0.2]",None,0,1,1,1,,,,,0,0,0,0,0,97,97,97,,,,,,,,,,,None,None,0,610.0817256998271,None,610.0817256998271,611.0817501000129,611.0650928998366,612.065093100071,0,1,610.0817256998271,None,,5,m,1,r,CIB,2021_Jun_07_1511,WASABI Nback,2020.2.10,59.99955598593516,
0,1,4,"[-0.2, 0]",1,0,1,1,1,,,,,0,0,0,0,0,98,98,98,,,,,,,,,,,None,None,0,612.0817670999095,None,612.0817670999095,613.0817642998882,613.0650892998092,614.0651114000939,0,1,612.0817670999095,None,,5,m,1,r,CIB,2021_Jun_07_1511,WASABI Nback,2020.2.10,59.99955598593516,
0,1,3,"[0.2, 0.2]",None,0,1,1,1,,,,,0,0,0,0,0,99,99,99,,,,,,,,,,,None,None,0,614.0817681998014,None,614.0817681998014,615.0817907997407,615.0651106000878,616.0651373998262,0,1,614.0817681998014,None,,5,m,1,r,CIB,2021_Jun_07_1511,WASABI Nback,2020.2.10,59.99955598593516,
0,1,5,"[0, 0]",None,0,1,1,1,,,,,0,0,0,0,0,100,100,100,,,,,,,,,,,None,None,0,616.0817728000693,None,616.0817728000693,617.0817908998579,617.0651289001107,618.0651366999373,0,1,616.0817728000693,None,,5,m,1,r,CIB,2021_Jun_07_1511,WASABI Nback,2020.2.10,59.99955598593516,
0,1,3,"[0.2, 0.2]",1,0,1,1,1,,,,,0,0,0,0,0,101,101,101,,,,,,,,,,,None,None,0,618.0818282999098,None,618.0818282999098,619.0818113000132,619.0651398999617,620.0651553999633,0,1,618.0818282999098,None,,5,m,1,r,CIB,2021_Jun_07_1511,WASABI Nback,2020.2.10,59.99955598593516,
0,1,1,"[-0.2, 0.2]",None,0,1,1,1,,,,,0,0,0,0,0,102,102,102,,,,,,,,,,,None,None,0,620.0817702999339,None,620.0817702999339,621.0818324000575,621.0651647001505,622.0651688999496,0,1,620.0817702999339,None,,5,m,1,r,CIB,2021_Jun_07_1511,WASABI Nback,2020.2.10,59.99955598593516,
0,1,9,"[0.2, -0.2]",None,0,1,1,1,,,,,0,0,0,0,0,103,103,103,,,,,,,,,,,None,None,0,622.0818320000544,None,622.0818320000544,623.0818500001915,623.0651806001551,624.0651874998584,0,1,622.0818320000544,None,,5,m,1,r,CIB,2021_Jun_07_1511,WASABI Nback,2020.2.10,59.99955598593516,
0,1,9,"[0.2, -0.2]",None,0,1,1,1,,,,,0,0,0,0,0,104,104,104,,,,,,,,,,,None,None,0,624.0818718001246,None,624.0818718001246,625.0818666997366,625.0652199997567,626.0650909999385,0,1,624.0818718001246,None,,5,m,1,r,CIB,2021_Jun_07_1511,WASABI Nback,2020.2.10,59.99955598593516,
0,1,8,"[0, -0.2]",None,0,1,1,1,,,,,0,0,0,0,0,105,105,105,,,,,,,,,,,None,None,0,626.0818623998202,None,626.0818623998202,627.0818888000213,627.065200699959,628.065218300093,0,1,626.0818623998202,None,,5,m,1,r,CIB,2021_Jun_07_1511,WASABI Nback,2020.2.10,59.99955598593516,
0,1,6,"[0.2, 0]",None,0,1,1,1,,,,,0,0,0,0,0,106,106,106,,,,,,,,,,,None,None,0,628.0818849997595,None,628.0818849997595,629.0818941998295,629.0652402997948,630.0652406997979,0,1,628.0818849997595,None,,5,m,1,r,CIB,2021_Jun_07_1511,WASABI Nback,2020.2.10,59.99955598593516,
0,1,3,"[0.2, 0.2]",None,0,1,1,1,,,,,0,0,0,0,0,107,107,107,,,,,,,,,,,None,None,0,630.0819171001203,None,630.0819171001203,631.0819092001766,631.0652617001906,632.0652544000186,0,1,630.0819171001203,None,,5,m,1,r,CIB,2021_Jun_07_1511,WASABI Nback,2020.2.10,59.99955598593516,
0,1,6,"[0.2, 0]",1,0,1,1,1,,,,,0,0,0,0,0,108,108,108,,,,,,,,,,,None,None,0,632.081817000173,None,632.081817000173,633.0822204998694,633.0652657998726,634.0653054998256,0,1,632.081817000173,None,,5,m,1,r,CIB,2021_Jun_07_1511,WASABI Nback,2020.2.10,59.99955598593516,
0,1,5,"[0, 0]",None,0,1,1,1,,,,,0,0,0,0,0,109,109,109,,,,,,,,,,,None,None,0,634.081945899874,None,634.081945899874,635.0819557998329,635.0652820998803,636.0652914000675,0,1,634.081945899874,None,,5,m,1,r,CIB,2021_Jun_07_1511,WASABI Nback,2020.2.10,59.99955598593516,
0,1,7,"[-0.2, -0.2]",None,0,1,1,1,,,,,0,0,0,0,0,110,110,110,,,,,,,,,,,None,None,0,636.08197080018,None,636.08197080018,637.081965399906,637.0652962001041,638.0653209001757,0,1,636.08197080018,None,,5,m,1,r,CIB,2021_Jun_07_1511,WASABI Nback,2020.2.10,59.99955598593516,
0,1,5,"[0, 0]",1,0,1,1,1,,,,,0,0,0,0,0,111,111,111,,,,,,,,,,,None,None,0,638.0819667000324,None,638.0819667000324,639.0819791997783,639.0653189001605,640.0653280001134,0,1,638.0819667000324,None,,5,m,1,r,CIB,2021_Jun_07_1511,WASABI Nback,2020.2.10,59.99955598593516,
0,1,1,"[-0.2, 0.2]",None,0,1,1,1,,,,,0,0,0,0,0,112,112,112,,,,,,,,,,,None,None,0,640.0819900999777,None,640.0819900999777,641.0820037000813,641.0652358001098,642.0653391000815,0,1,640.0819900999777,None,,5,m,1,r,CIB,2021_Jun_07_1511,WASABI Nback,2020.2.10,59.99955598593516,
0,1,7,"[-0.2, -0.2]",None,0,1,1,1,,,,,0,0,0,0,0,113,113,113,,,,,,,,,,,None,None,0,642.082024899777,None,642.082024899777,643.0820428999141,643.065358299762,644.0653659999371,0,1,642.082024899777,None,,5,m,1,r,CIB,2021_Jun_07_1511,WASABI Nback,2020.2.10,59.99955598593516,
0,1,9,"[0.2, -0.2]",None,0,1,1,1,,,,,0,0,0,0,0,114,114,114,,,,,,,,,,,None,None,0,644.0820324998349,None,644.0820324998349,645.0820367000997,645.0653610001318,646.0653905998915,0,1,644.0820324998349,None,,5,m,1,r,CIB,2021_Jun_07_1511,WASABI Nback,2020.2.10,59.99955598593516,
0,1,3,"[0.2, 0.2]",None,0,1,1,1,,,,,0,0,0,0,0,115,115,115,,,,,,,,,,,None,None,0,646.082050499972,None,646.082050499972,647.0820842999965,647.0653979000635,648.0654071001336,0,1,646.082050499972,None,,5,m,1,r,CIB,2021_Jun_07_1511,WASABI Nback,2020.2.10,59.99955598593516,
0,1,9,"[0.2, -0.2]",1,0,1,1,1,,,,,0,0,0,0,0,116,116,116,,,,,,,,,,,None,None,0,648.0820706998929,None,648.0820706998929,649.0820704000071,649.0654274998233,650.0654130000621,0,1,648.0820706998929,None,,5,m,1,r,CIB,2021_Jun_07_1511,WASABI Nback,2020.2.10,59.99955598593516,
0,1,6,"[0.2, 0]",None,0,1,1,1,,,,,0,0,0,0,0,117,117,117,,,,,,,,,,,None,None,0,650.0819517998025,None,650.0819517998025,651.0820988998748,651.0654172999784,652.0654414999299,0,1,650.0819517998025,None,,5,m,1,r,CIB,2021_Jun_07_1511,WASABI Nback,2020.2.10,59.99955598593516,
0,1,2,"[0, 0.2]",None,0,1,1,1,,,,,0,0,0,0,0,118,118,118,,,,,,,,,,,None,None,0,652.0821006000042,None,652.0821006000042,653.0820948998444,653.0654413001612,654.0654420000501,0,1,652.0821006000042,None,,5,m,1,r,CIB,2021_Jun_07_1511,WASABI Nback,2020.2.10,59.99955598593516,
0,1,5,"[0, 0]",None,0,1,1,1,,,,,0,0,0,0,0,119,119,119,,,,,,,,,,,None,None,0,654.0821031997912,None,654.0821031997912,655.08213099977,655.0654738000594,656.0654969001189,0,1,654.0821031997912,None,,5,m,1,r,CIB,2021_Jun_07_1511,WASABI Nback,2020.2.10,59.99955598593516,
