	order	onset	duration	rt	correct
0	1		2	[]	[]
1	1	525.5319755999371	2		1
2	1	526.0486439999659	2		1
3	1	528.0486567998305	2		1
4	1	530.0486667999066	2		1
5	1	532.0486854999326	2		0
6	1	534.0487112000119	2		1
7	1	536.0487124999054	2		1
8	1	538.0487306998111	2		1
9	1	540.0487577000167	2		1
10	1	542.0487720998935	2		0
11	1	544.048780299956	2		1
12	1	546.048809299944	2		1
13	1	548.0488223999273	2		0
14	1	550.0488342000172	2		1
15	1	552.0488495999016	2		1
16	1	554.0488628000021	2		1
17	1	556.0488705998287	2		1
18	1	558.048897799803	2		1
19	1	560.0489142998122	2		1
20	1	562.0489361998625	2		0
21	1	564.0489483999554	2		1
22	1	566.0489632999524	2		1
23	1	568.048982599983	2		0
24	1	570.0490089999512	2		1
25	1	572.0490103999618	2		1
26	1	574.04902759986	2		1
27	1	576.0490635999013	2		1
28	1	578.0490742998663	2		1
29	1	580.0490786998998	2		0
30	1	582.0490977999289	2		1
31	1	584.0491225000005	2		1
32	1	586.049134099856	2		0
33	1	588.0491444999352	2		1
34	1	590.049166899873	2		1
35	1	592.049182199873	2		1
36	1	594.0492064999416	2		1
37	1	596.0492120999843	2		1
38	1	598.0492341998033	2		0
39	1	600.0492495999206	2		1
40	1	602.0492647998035	2		1
41	1	604.0492736999877	2		0
42	1	606.0492987998296	2		1
43	1	608.0493258999195	2		1
44	1	610.0493393000215	2		1
45	1	612.0493528998923	2		1
46	1	614.0493496998679	2		1
47	1	616.0492716999725	2		1
48	1	618.0494140998926	2		0
49	1	620.0494165997952	2		1
50	1	622.0494094998576	2		1
51	1	624.049465799937	2		0
52	1	626.049465399934	2		1
53	1	628.0494883998763	2		1
54	1	630.049521900015	2		1
55	1	632.0495190999936	2		1
56	1	634.049513899954	2		0
57	1	636.0495579999406	2		1
58	1	638.0495740999468	2		1
59	1	640.049581799889	2		1
60	1	642.0496007998008	2		1
61	1	644.0496165999211	2		1
62	1	646.0496236998588	2		1
63	1	648.0496403998695	2		1
64	1	650.0496808998287	2		1
65	1	652.049692499917	2		0
66	1	654.0497082998045	2		1
67	1	656.0497198998928	2		1
68	1	658.0497388998047	2		1
69	1	660.0497711999342	2		1
70	1	662.0497804000042	2		0
71	1	664.0497931998689	2		1
72	1	666.0498038998339	2		1
73	1	668.0498139997944	2		0
74	1	670.0498691999819	2		1
75	1	672.0498581000138	2		1
76	1	674.0498680998571	2		1
77	1	676.049892099807	2		1
78	1	678.0499285999686	2		1
79	1	680.0499276998453	2		1
80	1	682.0499405998271	2		0
81	1	684.0499638000038	2		1
82	1	686.0499684999231	2		1
83	1	688.0499831999186	2		0
84	1	690.0500133999158	2		1
85	1	692.0500323998276	2		1
86	1	694.0499566998333	2		1
87	1	696.0500693998765	2		1
88	1	698.050083699869	2		1
89	1	700.0500952999573	2		0
90	1	702.0499972999096	2		1
91	1	704.0501247998327	2		1
92	1	706.0501413999591	2		0
93	1	708.050156599842	2		1
94	1	710.0501786998939	2		1
95	1	712.0501906999853	2		1
96	1	714.0502104000188	2		1
97	1	716.0502324998379	2		1
98	1	718.0502524999902	2		0
99	1	720.0502618998289	2		1
100	1	722.0502383999992	2		1
101	1	724.0502987999935	2		0
102	1	726.0503094999585	2		1
103	1	728.0503226998262	2		1
104	1	730.0503553999588	2		1
105	1	732.0503713998478	2		1
106	1	734.0503767998889	2		1
107	1	736.0503942999057	2		1
108	1	738.0504113999195	2		0
109	1	740.0504204998724	2		1
110	1	742.0504424998071	2		1
111	1	744.0503566998523	2		0
112	1	746.0504948999733	2		1
113	1	748.05049709999	2		1
114	1	750.0505536999553	2		1
115	1	752.0505361999385	2		1
116	1	754.0505482999142	2		0
117	1	756.0505758000072	2		1
118	1	758.0506209998857	2		1
119	1	760.0506120999344	2		1
