	SID	date	sex	session	handedness	scanner	onset	duration	repetition	rating	body_site	keys	temperature	conditionrt	mouseclick	biopac_channel	condition	rt	value
0	2878	2024_Mar_25_1121	m	1	r	MS SS	2.7743032998405397	5.002167693339288								19	Instructions		
1	2878	2024_Mar_25_1121	m	1	r	MS SS	9.96127299987711	2.0179158991668373								6	Cue		
2	2878	2024_Mar_25_1121	m	1	r	MS SS	11.976361699867994	3.995050600031391								7	Pre-Jitter		
3	2878	2024_Mar_25_1121	m	1	r	MS SS	15.999038900015876	15.016474299831316			Abdomen		48.0			18	Heat-Stimulation		
4	2878	2024_Mar_25_1121	m	1	r	MS SS	31.086160499835387	9.008996700169519								8	Mid-Jitter		
5	2878	2024_Mar_25_1121	m	1	r	MS SS	40.11009299987927	4.994835899909958								20	PainBinary	1.4170420998707414	1.0
6	2878	2024_Mar_25_1121	m	1	r	MS SS	45.126057899789885	4.9963674996979535								21	IntensityRating	3.851056999992579	41.66666666666667
7	2878	2024_Mar_25_1121	m	1	r	MS SS	50.140045000007376	5.001841199817136								22	ToleranceRating	0.7169482000172138	1.0
8	2878	2024_Mar_25_1121	m	1	r	MS SS	55.146125599974766	9.006524299969897								9	Post-Q-Jitter		
9	2878	2024_Mar_25_1121	m	1	r	MS SS	66.1582366998773	1.9925173993688077								6	Cue		
10	2878	2024_Mar_25_1121	m	1	r	MS SS	68.15925109991804	3.9971530998591334								7	Pre-Jitter		
11	2878	2024_Mar_25_1121	m	1	r	MS SS	72.19974099984393	15.016236900119111			Abdomen		48.5			18	Heat-Stimulation		
12	2878	2024_Mar_25_1121	m	1	r	MS SS	87.28508009994403	7.012364299967885								8	Mid-Jitter		
13	2878	2024_Mar_25_1121	m	1	r	MS SS	94.3118093998637	5.009231199976057								20	PainBinary	2.017301599960774	1.0
14	2878	2024_Mar_25_1121	m	1	r	MS SS	99.34289809991606	4.997154799988493								21	IntensityRating	2.917121500009671	45.80246913580247
15	2878	2024_Mar_25_1121	m	1	r	MS SS	104.35746319987811	5.001467599766329								22	ToleranceRating	1.500311000039801	1.0
16	2878	2024_Mar_25_1121	m	1	r	MS SS	109.36337939999066	7.00646680011414								9	Post-Q-Jitter		
17	2878	2024_Mar_25_1121	m	1	r	MS SS	117.37501399987377	1.996713699772954								6	Cue		
18	2878	2024_Mar_25_1121	m	1	r	MS SS	119.37617279984988	7.997782399877906								7	Pre-Jitter		
19	2878	2024_Mar_25_1121	m	1	r	MS SS	127.39966779993847	15.001005299855024			Abdomen		48.5			18	Heat-Stimulation		
20	2878	2024_Mar_25_1121	m	1	r	MS SS	142.49004529998638	7.003590099979192								8	Mid-Jitter		
21	2878	2024_Mar_25_1121	m	1	r	MS SS	149.51181479985826	5.010407599853352								20	PainBinary	0.9668440001551062	1.0
22	2878	2024_Mar_25_1121	m	1	r	MS SS	154.54405939998105	5.0128097999840975								21	IntensityRating		47.8395061728395
23	2878	2024_Mar_25_1121	m	1	r	MS SS	159.5752682997845	5.000409199856222								22	ToleranceRating	1.385995299788192	1.0
24	2878	2024_Mar_25_1121	m	1	r	MS SS	164.58010379993357	7.007634100038558								9	Post-Q-Jitter		
25	2878	2024_Mar_25_1121	m	1	r	MS SS	172.59843509993516	2.0176938995718956								6	Cue		
26	2878	2024_Mar_25_1121	m	1	r	MS SS	174.60977659979835	5.998417600058019								7	Pre-Jitter		
27	2878	2024_Mar_25_1121	m	1	r	MS SS	180.68670429987833	15.01120000006631			Abdomen		48.5			18	Heat-Stimulation		
28	2878	2024_Mar_25_1121	m	1	r	MS SS	195.77040509996004	7.010693699819967								8	Mid-Jitter		
29	2878	2024_Mar_25_1121	m	1	r	MS SS	202.79580189986154	5.01027029985562								20	PainBinary	1.1002304998692125	1.0
30	2878	2024_Mar_25_1121	m	1	r	MS SS	207.82786059984937	5.012918499996886								21	IntensityRating	3.633600999834016	50.864197530864196
31	2878	2024_Mar_25_1121	m	1	r	MS SS	212.85990369995125	4.998952099820599								22	ToleranceRating	2.833668999839574	1.0
32	2878	2024_Mar_25_1121	m	1	r	MS SS	217.86346059991047	7.008661499712616								9	Post-Q-Jitter		
33	2878	2024_Mar_25_1121	m	1	r	MS SS	225.9534449998755	2.0086029996164143								6	Cue		
34	2878	2024_Mar_25_1121	m	1	r	MS SS	227.96062949998304	7.997917500091717								7	Pre-Jitter		
35	2878	2024_Mar_25_1121	m	1	r	MS SS	236.03125239978544	15.00673870020546			Abdomen		48.5			18	Heat-Stimulation		
36	2878	2024_Mar_25_1121	m	1	r	MS SS	251.119850799907	5.013003499945626								8	Mid-Jitter		
37	2878	2024_Mar_25_1121	m	1	r	MS SS	256.1457704999484	5.0114968998823315								20	PainBinary	0.9502212998922914	1.0
38	2878	2024_Mar_25_1121	m	1	r	MS SS	261.1780822998844	4.996943299891427								21	IntensityRating	2.2037277999334037	50.617283950617285
39	2878	2024_Mar_25_1121	m	1	r	MS SS	266.1928822998889	5.000781999900937								22	ToleranceRating	1.3336372999474406	1.0
40	2878	2024_Mar_25_1121	m	1	r	MS SS	271.1982420999557	5.006912299897522								9	Post-Q-Jitter		
41	2878	2024_Mar_25_1121	m	1	r	MS SS	277.33698619995266	2.0091344995889813								6	Cue		
42	2878	2024_Mar_25_1121	m	1	r	MS SS	279.34454799978994	7.997840899974108								7	Pre-Jitter		
43	2878	2024_Mar_25_1121	m	1	r	MS SS	287.390728399856	15.005576000083238			Abdomen		48.5			18	Heat-Stimulation		
44	2878	2024_Mar_25_1121	m	1	r	MS SS	302.47002609982155	5.013723699841648								8	Mid-Jitter		
45	2878	2024_Mar_25_1121	m	1	r	MS SS	307.4956965998281	4.996058100135997								20	PainBinary	0.817247899947688	1.0
46	2878	2024_Mar_25_1121	m	1	r	MS SS	312.51345409988426	5.010666300076991								21	IntensityRating	2.7168989998754114	50.802469135802475
47	2878	2024_Mar_25_1121	m	1	r	MS SS	317.5431130998768	5.001456199912354								22	ToleranceRating	1.433673799969256	1.0
48	2878	2024_Mar_25_1121	m	1	r	MS SS	322.54862299980596	5.007246799999848								9	Post-Q-Jitter		
49	2878	2024_Mar_25_1121	m	1	r	MS SS	328.6161770999897	2.018731899559498								6	Cue		
50	2878	2024_Mar_25_1121	m	1	r	MS SS	330.62928280001506	5.996126499958336								7	Pre-Jitter		
51	2878	2024_Mar_25_1121	m	1	r	MS SS	336.65223589981906	15.000418899813667			Abdomen		48.5			18	Heat-Stimulation		
52	2878	2024_Mar_25_1121	m	1	r	MS SS	351.74534279992804	8.997575500048697								8	Mid-Jitter		
53	2878	2024_Mar_25_1121	m	1	r	MS SS	360.7641053998377	5.010413399897516								20	PainBinary	0.9835373999085277	1.0
54	2878	2024_Mar_25_1121	m	1	r	MS SS	365.7961889000144	5.0130151999183								21	IntensityRating	3.066934800008312	50.55555555555556
55	2878	2024_Mar_25_1121	m	1	r	MS SS	370.82795119984075	4.999585399869829								22	ToleranceRating	1.4336486000102013	-1.0
56	2878	2024_Mar_25_1121	m	1	r	MS SS	375.8325188998133	9.007342400029302								9	Post-Q-Jitter		
57	2878	2024_Mar_25_1121	m	1	r	MS SS	384.8725956999697	4.694000200368464								26	ComfortRating	4.667449700180441	-12.592592592592595
58	2878	2024_Mar_25_1121	m	1	r	MS SS	389.5844329998363	3.487134200055152								24	ValenceRating	3.4669230999425054	56.79012345679012
59	2878	2024_Mar_25_1121	m	1	r	MS SS	393.0935618998483	1.61893119988963								26	IntensityRating	1.5861601000651717	58.0246913580247
60	2878	2024_Mar_25_1121	m	1	r	MS SS	394.72997289989144	4.1628375998698175								27	AvoidanceRating	4.133523300057277	51.481481481481495
61	2878	2024_Mar_25_1121	m	1	r	MS SS	398.9087862998713	3.871987799881026								28	RelaxationRating	3.85037020011805	32.407407407407405
62	2878	2024_Mar_25_1121	m	1	r	MS SS	402.79568649991415	3.1482554997783154								29	AttentionRating	3.1337004001252353	78.64197530864197
63	2878	2024_Mar_25_1121	m	1	r	MS SS	405.95972929988056	4.053575499681756								30	BoredomRating	4.033561300020665	31.666666666666664
64	2878	2024_Mar_25_1121	m	1	r	MS SS	410.02838799986057	3.4663493998814374								31	AlertnessRating	3.45037730014883	17.530864197530875
65	2878	2024_Mar_25_1121	m	1	r	MS SS	413.51167899998836	3.7498721999581903								32	PosThxRating	3.733809999888763	-21.234567901234556
66	2878	2024_Mar_25_1121	m	1	r	MS SS	417.28005529986694	5.579872699920088								33	NegThxRating	5.550278899958357	22.34567901234567
67	2878	2024_Mar_25_1121	m	1	r	MS SS	422.8773804998491	1.718608999857679								34	SelfRating	1.7003396002110094	11.604938271604937
68	2878	2024_Mar_25_1121	m	1	r	MS SS	424.61062009981833	2.7521739001385868								35	OtherRating	2.7336996998637915	-55.061728395061735
69	2878	2024_Mar_25_1121	m	1	r	MS SS	427.37892549997196	5.315649800002575								32	ImageryRating	5.300414999946952	-42.71604938271605
70	2878	2024_Mar_25_1121	m	1	r	MS SS	432.7136283998843	3.4963633997831494								37	PresentRating	3.452870899811387	54.32098765432099
