square,location,corrAns,trials_2.thisRepN,trials_2.thisTrialN,trials_2.thisN,trials_2.thisIndex,fixation_1.started,fixation_1.stopped,response_2.x,response_2.y,response_2.leftButton,grid_lines_2.started,grid_lines_2.stopped,target_square_2.started,target_square_2.stopped,fixation_3.started,fixation_3.stopped,response_2.rt_left,response_2.rt_right,response_2.click,response_2.corr,response_2.started,response_2.stopped,ScoreReportText.started,ScoreReportText.stopped,ScoreReportResponse.keys,ScoreReportResponse.started,ScoreReportResponse.stopped,BodySiteInstructionText.started,BodySiteImg.started,BodySiteImg.stopped,BodySiteInstructionRead.keys,BodySiteInstructionRead.rt,BodySiteInstructionRead.started,BodySiteInstructionRead.stopped,IntensityRating.response,IntensityRating.rt,IntensityRating.started,IntensityRating.stopped,fixation_rest.started,fixation_rest.stopped,subject number,gender,distractMap first- or second-half (1 or 2),session,handedness,scanner,bodysite1 temp,bodysite2 temp,date,psychopyVersion,expName,frameRate,body_site_order,
6,"[0.2, 0]",None,0,0,0,0,72.89274710000609,None,None,None,"[0, 0, 1]",73.90940580001916,None,73.90940580001916,74.90943379999953,74.89275830000406,75.8927701000066,0.39862449999782257,1.9030392999993637,"[0, 0, 1]",0,73.90940580001916,None,,,,,,,,,,,,,,,,,,,5,m,3.1,29,r,Mh IN,49,49,2022_Jul_15_1724,2020.2.10,distractmap,59.97217291630973,"['Left Face', 'Right Face', 'Left Face', 'Right Face']",
7,"[-0.2, -0.2]",None,0,1,1,1,,,None,None,"[0, 0, 1]",75.90943930001231,77.90943950001383,75.90943930001231,76.90944750001654,76.89277850001235,77.8927908000187,1.6714120999968145,1.9668450000172015,"[0, 0, 1]",0,75.90943930001231,77.90943950001383,,,,,,,,,,,,,,,,,,,5,m,3.1,29,r,Mh IN,49,49,2022_Jul_15_1724,2020.2.10,distractmap,59.97217291630973,"['Left Face', 'Right Face', 'Left Face', 'Right Face']",
6,"[0.2, 0]",1,0,2,2,2,,,None,None,"[0, 0, 1]",77.92612300001201,79.92612550000194,77.92612300001201,78.92612300001201,78.90947220000089,79.90946140000597,1.4889440000115428,1.7383042000001296,"[0, 0, 1]",1,77.92612300001201,79.92612550000194,,,,,,,,,,,,,,,,,,,5,m,3.1,29,r,Mh IN,49,49,2022_Jul_15_1724,2020.2.10,distractmap,59.97217291630973,"['Left Face', 'Right Face', 'Left Face', 'Right Face']",
2,"[0, 0.2]",0,0,3,3,3,,,None,None,"[1, 0, 0]",79.94282370002475,81.94281590002356,79.94282370002475,80.94283380001434,80.92615340001066,81.9261432000203,1.705128200002946,1.4168071000021882,"[1, 0, 0]",0,79.94282370002475,81.94281590002356,,,,,,,,,,,,,,,,,,,5,m,3.1,29,r,Mh IN,49,49,2022_Jul_15_1724,2020.2.10,distractmap,59.97217291630973,"['Left Face', 'Right Face', 'Left Face', 'Right Face']",
5,"[0, 0]",0,0,4,4,4,,,None,None,"[0, 0, 1]",81.95948230000795,83.95948880002834,81.95948230000795,82.95949540002039,82.94283170002745,83.94285180000588,1.4340687000076286,1.7219724000024144,"[0, 0, 1]",0,81.95948230000795,83.95948880002834,,,,,,,,,,,,,,,,,,,5,m,3.1,29,r,Mh IN,49,49,2022_Jul_15_1724,2020.2.10,distractmap,59.97217291630973,"['Left Face', 'Right Face', 'Left Face', 'Right Face']",
4,"[-0.2, 0]",0,0,5,5,5,,,None,None,"[1, 0, 0]",83.97617100001662,85.97616600000765,83.97617100001662,84.97617650000029,84.9595052000077,85.95950940001057,1.70496929998626,1.417028500000015,"[1, 0, 0]",1,83.97617100001662,85.97616600000765,,,,,,,,,,,,,,,,,,,5,m,3.1,29,r,Mh IN,49,49,2022_Jul_15_1724,2020.2.10,distractmap,59.97217291630973,"['Left Face', 'Right Face', 'Left Face', 'Right Face']",
4,"[-0.2, 0]",0,0,6,6,6,,,None,None,"[1, 0, 0]",85.99286120000761,87.99287370001548,85.99286120000761,86.99289690001751,86.97618510000757,87.9762039000052,1.9002239000110421,1.6335292999865487,"[1, 0, 0]",0,85.99286120000761,87.99287370001548,,,,,,,,,,,,,,,,,,,5,m,3.1,29,r,Mh IN,49,49,2022_Jul_15_1724,2020.2.10,distractmap,59.97217291630973,"['Left Face', 'Right Face', 'Left Face', 'Right Face']",
7,"[-0.2, -0.2]",0,0,7,7,7,,,None,None,"[0, 0, 1]",88.00953280000249,90.00954790000105,88.00953280000249,89.00954620001721,88.99288980002166,89.9928941000253,1.6168287000036798,1.8881051999924239,"[0, 0, 1]",1,88.00953280000249,90.00954790000105,,,,,,,,,,,,,,,,,,,5,m,3.1,29,r,Mh IN,49,49,2022_Jul_15_1724,2020.2.10,distractmap,59.97217291630973,"['Left Face', 'Right Face', 'Left Face', 'Right Face']",
4,"[-0.2, 0]",1,0,8,8,8,,,None,None,"[1, 0, 0]",90.02622590001556,92.02623810002115,90.02622590001556,91.02622820000397,91.00956130001578,92.00957590001053,1.8669276000000536,1.5835359999909997,"[1, 0, 0]",1,90.02622590001556,92.02623810002115,,,,,,,,,,,,,,,,,,,5,m,3.1,29,r,Mh IN,49,49,2022_Jul_15_1724,2020.2.10,distractmap,59.97217291630973,"['Left Face', 'Right Face', 'Left Face', 'Right Face']",
3,"[0.2, 0.2]",0,0,9,9,9,,,None,None,"[0, 0, 1]",92.04291440002271,94.04291930000181,92.04291440002271,93.04292740000528,93.02626560002682,94.0262509000022,1.5668827000190504,1.8168539000034798,"[0, 0, 1]",1,92.04291440002271,94.04291930000181,,,,,,,,,,,,,,,,,,,5,m,3.1,29,r,Mh IN,49,49,2022_Jul_15_1724,2020.2.10,distractmap,59.97217291630973,"['Left Face', 'Right Face', 'Left Face', 'Right Face']",
5,"[0, 0]",0,0,10,10,10,,,None,None,"[1, 0, 0]",94.05958870000904,96.059616500017,94.05958870000904,95.05959900000016,95.04294760001358,96.04294190002838,1.7047450999962166,1.4335962999903131,"[1, 0, 0]",0,94.05958870000904,96.059616500017,,,,,,,,,,,,,,,,,,,5,m,3.1,29,r,Mh IN,49,49,2022_Jul_15_1724,2020.2.10,distractmap,59.97217291630973,"['Left Face', 'Right Face', 'Left Face', 'Right Face']",
3,"[0.2, 0.2]",1,0,11,11,11,,,None,None,"[1, 0, 1]",96.0762795000046,98.07629040000029,96.0762795000046,97.0762878000096,97.05960880001658,98.05962080002064,1.937415599997621,1.687959700007923,"[1, 0, 1]",0,96.0762795000046,98.07629040000029,,,,,,,,,,,,,,,,,,,5,m,3.1,29,r,Mh IN,49,49,2022_Jul_15_1724,2020.2.10,distractmap,59.97217291630973,"['Left Face', 'Right Face', 'Left Face', 'Right Face']",
1,"[-0.2, 0.2]",0,0,12,12,12,,,None,None,"[0, 0, 1]",98.09296180002275,100.09298110002419,98.09296180002275,99.09298770001624,99.07629940001061,100.07630840002093,1.505503199994564,1.7835422000207473,"[0, 0, 1]",1,98.09296180002275,100.09298110002419,,,,,,,,,,,,,,,,,,,5,m,3.1,29,r,Mh IN,49,49,2022_Jul_15_1724,2020.2.10,distractmap,59.97217291630973,"['Left Face', 'Right Face', 'Left Face', 'Right Face']",
9,"[0.2, -0.2]",0,0,13,13,13,,,None,None,"[0, 0, 0]",100.10966860002372,102.10967340000207,100.10966860002372,101.1096459000255,101.0929860000033,102.09300690001692,,,"[0, 0, 0]",0,100.10966860002372,102.10967340000207,,,,,,,,,,,,,,,,,,,5,m,3.1,29,r,Mh IN,49,49,2022_Jul_15_1724,2020.2.10,distractmap,59.97217291630973,"['Left Face', 'Right Face', 'Left Face', 'Right Face']",
9,"[0.2, -0.2]",0,0,14,14,14,,,None,None,"[1, 0, 1]",102.12632540002232,104.12633950001327,102.12632540002232,103.12633630001801,103.10968020002474,104.10968260001391,1.9169452000060119,1.9168592000205535,"[1, 0, 1]",1,102.12632540002232,104.12633950001327,,,,,,,,,,,,,,,,,,,5,m,3.1,29,r,Mh IN,49,49,2022_Jul_15_1724,2020.2.10,distractmap,59.97217291630973,"['Left Face', 'Right Face', 'Left Face', 'Right Face']",
8,"[0, -0.2]",0,0,15,15,15,,,None,None,"[0, 0, 0]",104.14302760001738,106.1430340000079,104.14302760001738,105.14301790000172,105.12636390002444,106.1263609000016,,,"[0, 0, 0]",0,104.14302760001738,106.1430340000079,,,,,,,,,,,,,,,,,,,5,m,3.1,29,r,Mh IN,49,49,2022_Jul_15_1724,2020.2.10,distractmap,59.97217291630973,"['Left Face', 'Right Face', 'Left Face', 'Right Face']",
6,"[0.2, 0]",0,0,16,16,16,,,None,None,"[0, 0, 0]",106.15970460002427,108.15971260002698,106.15970460002427,107.15974160001497,107.1430503000156,108.14304510000511,,,"[0, 0, 0]",1,106.15970460002427,108.15971260002698,,,,,,,,,,,,,,,,,,,5,m,3.1,29,r,Mh IN,49,49,2022_Jul_15_1724,2020.2.10,distractmap,59.97217291630973,"['Left Face', 'Right Face', 'Left Face', 'Right Face']",
3,"[0.2, 0.2]",0,0,17,17,17,,,None,None,"[1, 0, 1]",108.17639280000003,110.17639620002592,108.17639280000003,109.17638980000629,109.15973860002123,110.15974840000854,1.8335334000003058,1.833608799992362,"[1, 0, 1]",1,108.17639280000003,110.17639620002592,,,,,,,,,,,,,,,,,,,5,m,3.1,29,r,Mh IN,49,49,2022_Jul_15_1724,2020.2.10,distractmap,59.97217291630973,"['Left Face', 'Right Face', 'Left Face', 'Right Face']",
6,"[0.2, 0]",1,0,18,18,18,,,None,None,"[1, 0, 1]",110.19307320000371,112.19307570002275,110.19307320000371,111.19309700001031,111.17642210001941,112.17640640001628,1.9544276999949943,1.9545135999796912,"[1, 0, 1]",0,110.19307320000371,112.19307570002275,,,,,,,,,,,,,,,,,,,5,m,3.1,29,r,Mh IN,49,49,2022_Jul_15_1724,2020.2.10,distractmap,59.97217291630973,"['Left Face', 'Right Face', 'Left Face', 'Right Face']",
5,"[0, 0]",0,0,19,19,19,,,None,None,"[0, 0, 0]",112.20975140001974,114.2098030000052,112.20975140001974,113.20975600002566,113.19310800000676,114.19310640002368,,,"[0, 0, 0]",1,112.20975140001974,114.2098030000052,,,,,,,,,,,,,,,,,,,5,m,3.1,29,r,Mh IN,49,49,2022_Jul_15_1724,2020.2.10,distractmap,59.97217291630973,"['Left Face', 'Right Face', 'Left Face', 'Right Face']",
7,"[-0.2, -0.2]",0,0,20,20,20,,,None,None,"[1, 0, 0]",114.2264378000109,116.22645990000456,114.2264378000109,115.22646740000346,115.20980580002652,116.20977540002787,1.8502058000012767,0.787443599983817,"[1, 0, 0]",1,114.2264378000109,116.22645990000456,,,,,,,,,,,,,,,,,,,5,m,3.1,29,r,Mh IN,49,49,2022_Jul_15_1724,2020.2.10,distractmap,59.97217291630973,"['Left Face', 'Right Face', 'Left Face', 'Right Face']",
5,"[0, 0]",1,0,21,21,21,,,None,None,"[1, 0, 0]",116.24312360002659,118.24313770001754,116.24312360002659,117.24308070002007,117.22645800001919,118.22647120000329,1.8878493999945931,0.0,"[1, 0, 0]",1,116.24312360002659,118.24313770001754,,,,,,,,,,,,,,,,,,,5,m,3.1,29,r,Mh IN,49,49,2022_Jul_15_1724,2020.2.10,distractmap,59.97217291630973,"['Left Face', 'Right Face', 'Left Face', 'Right Face']",
1,"[-0.2, 0.2]",0,0,22,22,22,,,None,None,"[0, 0, 0]",118.25981770001817,120.2598152999999,118.25981770001817,119.25983760002418,119.24314810000942,120.24315270001534,,,"[0, 0, 0]",0,118.25981770001817,120.2598152999999,,,,,,,,,,,,,,,,,,,5,m,3.1,29,r,Mh IN,49,49,2022_Jul_15_1724,2020.2.10,distractmap,59.97217291630973,"['Left Face', 'Right Face', 'Left Face', 'Right Face']",
7,"[-0.2, -0.2]",0,0,23,23,23,,,None,None,"[1, 0, 0]",120.27649340001517,122.27649400001974,120.27649340001517,121.27648570001475,121.25984570002765,122.25986120000016,1.7502744999947026,1.5553623999876436,"[1, 0, 0]",0,120.27649340001517,122.27649400001974,,,,,,,,,,,,,,,,,,,5,m,3.1,29,r,Mh IN,49,49,2022_Jul_15_1724,2020.2.10,distractmap,59.97217291630973,"['Left Face', 'Right Face', 'Left Face', 'Right Face']",
9,"[0.2, -0.2]",0,0,24,24,24,,,None,None,"[0, 0, 0]",122.29314140000497,124.29318260002765,122.29314140000497,123.29318490001606,123.27652430001763,124.27652060001856,,,"[0, 0, 0]",1,122.29314140000497,124.29318260002765,,,,,,,,,,,,,,,,,,,5,m,3.1,29,r,Mh IN,49,49,2022_Jul_15_1724,2020.2.10,distractmap,59.97217291630973,"['Left Face', 'Right Face', 'Left Face', 'Right Face']",
3,"[0.2, 0.2]",0,0,25,25,25,,,None,None,"[0, 0, 0]",124.30987490000552,126.30988320001052,124.30987490000552,125.30986320000375,125.29319380002562,126.29321090001031,,,"[0, 0, 0]",0,124.30987490000552,126.30988320001052,,,,,,,,,,,,,,,,,,,5,m,3.1,29,r,Mh IN,49,49,2022_Jul_15_1724,2020.2.10,distractmap,59.97217291630973,"['Left Face', 'Right Face', 'Left Face', 'Right Face']",
9,"[0.2, -0.2]",1,0,26,26,26,,,None,None,"[0, 0, 0]",126.32654950002325,128.32658000002266,126.32654950002325,127.32655260001775,127.30990230001044,128.30991450001602,,,"[0, 0, 0]",1,126.32654950002325,128.32658000002266,,,,,,,,,,,,,,,,,,,5,m,3.1,29,r,Mh IN,49,49,2022_Jul_15_1724,2020.2.10,distractmap,59.97217291630973,"['Left Face', 'Right Face', 'Left Face', 'Right Face']",
6,"[0.2, 0]",0,0,27,27,27,,,None,None,"[0, 0, 0]",128.34322370000882,130.34324260000722,128.34322370000882,129.34325330000138,129.3265690000262,130.32659320000676,,,"[0, 0, 0]",1,128.34322370000882,130.34324260000722,,,,,,,,,,,,,,,,,,,5,m,3.1,29,r,Mh IN,49,49,2022_Jul_15_1724,2020.2.10,distractmap,59.97217291630973,"['Left Face', 'Right Face', 'Left Face', 'Right Face']",
2,"[0, 0.2]",0,0,28,28,28,,,None,None,"[0, 0, 0]",130.3599194000126,132.3599393000186,130.3599194000126,131.35994000002393,131.34325410000747,132.3432548000128,,,"[0, 0, 0]",1,130.3599194000126,132.3599393000186,,,,,,,,,,,,,,,,,,,5,m,3.1,29,r,Mh IN,49,49,2022_Jul_15_1724,2020.2.10,distractmap,59.97217291630973,"['Left Face', 'Right Face', 'Left Face', 'Right Face']",
5,"[0, 0]",0,0,29,29,29,,,None,None,"[0, 0, 0]",132.37659379999968,134.37662180000916,132.37659379999968,133.3766041000199,133.35995010001352,134.35994040002697,,,"[0, 0, 0]",1,132.37659379999968,134.37662180000916,,,,,,,,,,,,,,,,,,,5,m,3.1,29,r,Mh IN,49,49,2022_Jul_15_1724,2020.2.10,distractmap,59.97217291630973,"['Left Face', 'Right Face', 'Left Face', 'Right Face']",
,,,,,,,,,,,,,,,,,,,,,,,,134.39329550002003,None,space,134.39329550002003,None,,,,,,,,,,,,,,5,m,3.1,29,r,Mh IN,49,49,2022_Jul_15_1724,2020.2.10,distractmap,59.97217291630973,"['Left Face', 'Right Face', 'Left Face', 'Right Face']",
6,"[0.2, 0]",None,0,0,0,0,150.44345190000604,None,None,None,"[0, 0, 0]",151.460155400011,None,151.460155400011,152.46011560002808,152.44344210001873,153.4434484000085,,,"[0, 0, 0]",1,151.460155400011,None,,,,,,,,,,,,,,,,,,,5,m,3.1,29,r,Mh IN,49,49,2022_Jul_15_1724,2020.2.10,distractmap,59.97217291630973,"['Left Face', 'Right Face', 'Left Face', 'Right Face']",
7,"[-0.2, -0.2]",None,0,1,1,1,,,None,None,"[0, 0, 0]",153.46011850002105,155.46012370000244,153.46011850002105,154.4601272,154.44345310001518,155.44345780002186,,,"[0, 0, 0]",1,153.46011850002105,155.46012370000244,,,,,,,,,,,,,,,,,,,5,m,3.1,29,r,Mh IN,49,49,2022_Jul_15_1724,2020.2.10,distractmap,59.97217291630973,"['Left Face', 'Right Face', 'Left Face', 'Right Face']",
6,"[0.2, 0]",1,0,2,2,2,,,None,None,"[0, 0, 0]",155.4768008000101,157.47680530001526,155.4768008000101,156.47682090001763,156.4601321000082,157.4601365000126,,,"[0, 0, 0]",1,155.4768008000101,157.47680530001526,,,,,,,,,,,,,,,,,,,5,m,3.1,29,r,Mh IN,49,49,2022_Jul_15_1724,2020.2.10,distractmap,59.97217291630973,"['Left Face', 'Right Face', 'Left Face', 'Right Face']",
2,"[0, 0.2]",0,0,3,3,3,,,None,None,"[0, 0, 0]",157.49340960002155,159.493503900012,157.49340960002155,158.4934868000273,158.47682130002067,159.47684750001645,,,"[0, 0, 0]",1,157.49340960002155,159.493503900012,,,,,,,,,,,,,,,,,,,5,m,3.1,29,r,Mh IN,49,49,2022_Jul_15_1724,2020.2.10,distractmap,59.97217291630973,"['Left Face', 'Right Face', 'Left Face', 'Right Face']",
5,"[0, 0]",0,0,4,4,4,,,None,None,"[0, 0, 0]",159.51018200002727,161.51016540001729,159.51018200002727,160.51017370002228,160.49350380001124,161.49351740002749,,,"[0, 0, 0]",1,159.51018200002727,161.51016540001729,,,,,,,,,,,,,,,,,,,5,m,3.1,29,r,Mh IN,49,49,2022_Jul_15_1724,2020.2.10,distractmap,59.97217291630973,"['Left Face', 'Right Face', 'Left Face', 'Right Face']",
4,"[-0.2, 0]",0,0,5,5,5,,,None,None,"[0, 0, 0]",161.52685620001284,163.52687739999965,161.52685620001284,162.52688770001987,162.5101892000239,163.51019810000435,,,"[0, 0, 0]",1,161.52685620001284,163.52687739999965,,,,,,,,,,,,,,,,,,,5,m,3.1,29,r,Mh IN,49,49,2022_Jul_15_1724,2020.2.10,distractmap,59.97217291630973,"['Left Face', 'Right Face', 'Left Face', 'Right Face']",
4,"[-0.2, 0]",0,0,6,6,6,,,None,None,"[0, 0, 0]",163.54354490002152,165.54355550001492,163.54354490002152,164.54354320000857,164.5268760000181,165.52688800002215,,,"[0, 0, 0]",0,163.54354490002152,165.54355550001492,,,,,,,,,,,,,,,,,,,5,m,3.1,29,r,Mh IN,49,49,2022_Jul_15_1724,2020.2.10,distractmap,59.97217291630973,"['Left Face', 'Right Face', 'Left Face', 'Right Face']",
7,"[-0.2, -0.2]",0,0,7,7,7,,,None,None,"[0, 0, 0]",165.5602100000251,167.56023300002562,165.5602100000251,166.5602188000048,166.54356740001822,167.54356030002236,,,"[0, 0, 0]",1,165.5602100000251,167.56023300002562,,,,,,,,,,,,,,,,,,,5,m,3.1,29,r,Mh IN,49,49,2022_Jul_15_1724,2020.2.10,distractmap,59.97217291630973,"['Left Face', 'Right Face', 'Left Face', 'Right Face']",
4,"[-0.2, 0]",1,0,8,8,8,,,None,None,"[0, 0, 0]",167.57692260001204,169.57692150000366,167.57692260001204,168.57691380000324,168.56023660002393,169.56024540000362,,,"[0, 0, 0]",1,167.57692260001204,169.57692150000366,,,,,,,,,,,,,,,,,,,5,m,3.1,29,r,Mh IN,49,49,2022_Jul_15_1724,2020.2.10,distractmap,59.97217291630973,"['Left Face', 'Right Face', 'Left Face', 'Right Face']",
3,"[0.2, 0.2]",0,0,9,9,9,,,None,None,"[0, 0, 0]",169.59358950000023,171.59360740002012,169.59358950000023,170.59358140002587,170.57694460000494,171.57694840000477,,,"[0, 0, 0]",1,169.59358950000023,171.59360740002012,,,,,,,,,,,,,,,,,,,5,m,3.1,29,r,Mh IN,49,49,2022_Jul_15_1724,2020.2.10,distractmap,59.97217291630973,"['Left Face', 'Right Face', 'Left Face', 'Right Face']",
5,"[0, 0]",0,0,10,10,10,,,None,None,"[0, 0, 0]",171.61027260002447,173.61025770002743,171.61027260002447,172.61028500000248,172.59362130000954,173.5935487000097,,,"[0, 0, 0]",1,171.61027260002447,173.61025770002743,,,,,,,,,,,,,,,,,,,5,m,3.1,29,r,Mh IN,49,49,2022_Jul_15_1724,2020.2.10,distractmap,59.97217291630973,"['Left Face', 'Right Face', 'Left Face', 'Right Face']",
3,"[0.2, 0.2]",1,0,11,11,11,,,None,None,"[0, 0, 0]",173.62695400000666,175.6269839000015,173.62695400000666,174.62698200001614,174.61030390000087,175.61031380001805,,,"[0, 0, 0]",1,173.62695400000666,175.6269839000015,,,,,,,,,,,,,,,,,,,5,m,3.1,29,r,Mh IN,49,49,2022_Jul_15_1724,2020.2.10,distractmap,59.97217291630973,"['Left Face', 'Right Face', 'Left Face', 'Right Face']",
1,"[-0.2, 0.2]",0,0,12,12,12,,,None,None,"[0, 0, 0]",175.64365900002304,177.64365380001254,175.64365900002304,176.64364600001136,176.62698380000074,177.62700890001724,,,"[0, 0, 0]",1,175.64365900002304,177.64365380001254,,,,,,,,,,,,,,,,,,,5,m,3.1,29,r,Mh IN,49,49,2022_Jul_15_1724,2020.2.10,distractmap,59.97217291630973,"['Left Face', 'Right Face', 'Left Face', 'Right Face']",
9,"[0.2, -0.2]",0,0,13,13,13,,,None,None,"[0, 0, 0]",177.6603278000257,179.6603353000246,177.6603278000257,178.6603239000251,178.64367940000375,179.64367320001475,,,"[0, 0, 0]",1,177.6603278000257,179.6603353000246,,,,,,,,,,,,,,,,,,,5,m,3.1,29,r,Mh IN,49,49,2022_Jul_15_1724,2020.2.10,distractmap,59.97217291630973,"['Left Face', 'Right Face', 'Left Face', 'Right Face']",
9,"[0.2, -0.2]",0,0,14,14,14,,,None,None,"[0, 0, 0]",179.6770211000112,181.67702370000188,179.6770211000112,180.6770182000182,180.660352100007,181.66036360000726,,,"[0, 0, 0]",1,179.6770211000112,181.67702370000188,,,,,,,,,,,,,,,,,,,5,m,3.1,29,r,Mh IN,49,49,2022_Jul_15_1724,2020.2.10,distractmap,59.97217291630973,"['Left Face', 'Right Face', 'Left Face', 'Right Face']",
8,"[0, -0.2]",0,0,15,15,15,,,None,None,"[0, 0, 0]",181.69368750002468,183.69370380000328,181.69368750002468,182.6937079000054,182.67704780001077,183.6770539000281,,,"[0, 0, 0]",1,181.69368750002468,183.69370380000328,,,,,,,,,,,,,,,,,,,5,m,3.1,29,r,Mh IN,49,49,2022_Jul_15_1724,2020.2.10,distractmap,59.97217291630973,"['Left Face', 'Right Face', 'Left Face', 'Right Face']",
6,"[0.2, 0]",0,0,16,16,16,,,None,None,"[0, 0, 0]",183.71039920000476,185.71039530000417,183.71039920000476,184.7103890000144,184.69372060001479,185.6937314000097,,,"[0, 0, 0]",1,183.71039920000476,185.71039530000417,,,,,,,,,,,,,,,,,,,5,m,3.1,29,r,Mh IN,49,49,2022_Jul_15_1724,2020.2.10,distractmap,59.97217291630973,"['Left Face', 'Right Face', 'Left Face', 'Right Face']",
3,"[0.2, 0.2]",0,0,17,17,17,,,None,None,"[0, 0, 0]",185.72707410002477,187.72708420001436,185.72707410002477,186.72708390001208,186.71042590000434,187.71049420000054,,,"[0, 0, 0]",1,185.72707410002477,187.72708420001436,,,,,,,,,,,,,,,,,,,5,m,3.1,29,r,Mh IN,49,49,2022_Jul_15_1724,2020.2.10,distractmap,59.97217291630973,"['Left Face', 'Right Face', 'Left Face', 'Right Face']",
6,"[0.2, 0]",1,0,18,18,18,,,None,None,"[0, 0, 0]",187.74375650001457,189.7437626000028,187.74375650001457,188.7437789000105,188.7270929000224,189.72710080002435,,,"[0, 0, 0]",1,187.74375650001457,189.7437626000028,,,,,,,,,,,,,,,,,,,5,m,3.1,29,r,Mh IN,49,49,2022_Jul_15_1724,2020.2.10,distractmap,59.97217291630973,"['Left Face', 'Right Face', 'Left Face', 'Right Face']",
5,"[0, 0]",0,0,19,19,19,,,None,None,"[0, 0, 0]",189.76043190000928,191.76045350002823,189.76043190000928,190.76043510000454,190.7437712000101,191.74377250002,,,"[0, 0, 0]",1,189.76043190000928,191.76045350002823,,,,,,,,,,,,,,,,,,,5,m,3.1,29,r,Mh IN,49,49,2022_Jul_15_1724,2020.2.10,distractmap,59.97217291630973,"['Left Face', 'Right Face', 'Left Face', 'Right Face']",
7,"[-0.2, -0.2]",0,0,20,20,20,,,None,None,"[0, 0, 0]",191.7771088000154,193.7771352000127,191.7771088000154,192.77711960001034,192.76044990000082,193.76046270001098,,,"[0, 0, 0]",1,191.7771088000154,193.7771352000127,,,,,,,,,,,,,,,,,,,5,m,3.1,29,r,Mh IN,49,49,2022_Jul_15_1724,2020.2.10,distractmap,59.97217291630973,"['Left Face', 'Right Face', 'Left Face', 'Right Face']",
5,"[0, 0]",1,0,21,21,21,,,None,None,"[0, 0, 0]",193.79382520000217,195.79382090002764,193.79382520000217,194.79381620002096,194.7771378000034,195.77715320000425,,,"[0, 0, 0]",1,193.79382520000217,195.79382090002764,,,,,,,,,,,,,,,,,,,5,m,3.1,29,r,Mh IN,49,49,2022_Jul_15_1724,2020.2.10,distractmap,59.97217291630973,"['Left Face', 'Right Face', 'Left Face', 'Right Face']",
1,"[-0.2, 0.2]",0,0,22,22,22,,,None,None,"[0, 0, 0]",195.81047450000187,197.81050010002218,195.81047450000187,196.81049750000238,196.7938466000196,197.79389000000083,,,"[0, 0, 0]",1,195.81047450000187,197.81050010002218,,,,,,,,,,,,,,,,,,,5,m,3.1,29,r,Mh IN,49,49,2022_Jul_15_1724,2020.2.10,distractmap,59.97217291630973,"['Left Face', 'Right Face', 'Left Face', 'Right Face']",
7,"[-0.2, -0.2]",0,0,23,23,23,,,None,None,"[0, 0, 0]",197.82717170001706,199.82720180001343,197.82717170001706,198.827182500012,198.81052350002574,199.8105223000166,,,"[0, 0, 0]",1,197.82717170001706,199.82720180001343,,,,,,,,,,,,,,,,,,,5,m,3.1,29,r,Mh IN,49,49,2022_Jul_15_1724,2020.2.10,distractmap,59.97217291630973,"['Left Face', 'Right Face', 'Left Face', 'Right Face']",
9,"[0.2, -0.2]",0,0,24,24,24,,,None,None,"[0, 0, 0]",199.84386079999967,201.84388540001237,199.84386079999967,200.8438809000072,200.82719810001436,201.82720310002333,,,"[0, 0, 0]",1,199.84386079999967,201.84388540001237,,,,,,,,,,,,,,,,,,,5,m,3.1,29,r,Mh IN,49,49,2022_Jul_15_1724,2020.2.10,distractmap,59.97217291630973,"['Left Face', 'Right Face', 'Left Face', 'Right Face']",
3,"[0.2, 0.2]",0,0,25,25,25,,,None,None,"[0, 0, 0]",201.86053610002273,203.86054690001765,201.86053610002273,202.86049770002137,202.84387850001804,203.84390480001457,,,"[0, 0, 0]",1,201.86053610002273,203.86054690001765,,,,,,,,,,,,,,,,,,,5,m,3.1,29,r,Mh IN,49,49,2022_Jul_15_1724,2020.2.10,distractmap,59.97217291630973,"['Left Face', 'Right Face', 'Left Face', 'Right Face']",
9,"[0.2, -0.2]",1,0,26,26,26,,,None,None,"[0, 0, 0]",203.87723110002116,205.8772292000067,203.87723110002116,204.87723500002176,204.8605556000257,205.86056710002595,,,"[0, 0, 0]",1,203.87723110002116,205.8772292000067,,,,,,,,,,,,,,,,,,,5,m,3.1,29,r,Mh IN,49,49,2022_Jul_15_1724,2020.2.10,distractmap,59.97217291630973,"['Left Face', 'Right Face', 'Left Face', 'Right Face']",
6,"[0.2, 0]",0,0,27,27,27,,,None,None,"[0, 0, 0]",205.89392080000835,207.89392600001884,205.89392080000835,206.89392600001884,206.87735730002169,207.87726640002802,,,"[0, 0, 0]",1,205.89392080000835,207.89392600001884,,,,,,,,,,,,,,,,,,,5,m,3.1,29,r,Mh IN,49,49,2022_Jul_15_1724,2020.2.10,distractmap,59.97217291630973,"['Left Face', 'Right Face', 'Left Face', 'Right Face']",
2,"[0, 0.2]",0,0,28,28,28,,,None,None,"[0, 0, 0]",207.91059420001693,209.91060580001795,207.91059420001693,208.9106071999995,208.89394620002713,209.89394770000945,,,"[0, 0, 0]",1,207.91059420001693,209.91060580001795,,,,,,,,,,,,,,,,,,,5,m,3.1,29,r,Mh IN,49,49,2022_Jul_15_1724,2020.2.10,distractmap,59.97217291630973,"['Left Face', 'Right Face', 'Left Face', 'Right Face']",
5,"[0, 0]",0,0,29,29,29,,,None,None,"[0, 0, 0]",209.92727600000217,211.92728590001934,209.92727600000217,210.92727560002822,210.91062800001237,211.91063290002057,,,"[0, 0, 0]",1,209.92727600000217,211.92728590001934,,,,,,,,,,,,,,,,,,,5,m,3.1,29,r,Mh IN,49,49,2022_Jul_15_1724,2020.2.10,distractmap,59.97217291630973,"['Left Face', 'Right Face', 'Left Face', 'Right Face']",
,,,,,,,,,,,,,,,,,,,,,,,,211.9438489000022,None,space,211.9438489000022,None,,,,,,,,,,,,,,5,m,3.1,29,r,Mh IN,49,49,2022_Jul_15_1724,2020.2.10,distractmap,59.97217291630973,"['Left Face', 'Right Face', 'Left Face', 'Right Face']",
3,"[0.2, 0.2]",None,0,0,0,0,376.2120888000063,None,None,None,"[0, 0, 0]",383.21217180002714,385.2121747000201,383.21217180002714,384.2121727000049,384.19549060001737,385.1955017000146,,,"[0, 0, 0]",1,383.21217180002714,385.2121747000201,,,,,,215.64426390000153,215.64426390000153,None,space,143.6589057999954,215.64426390000153,None,,,,,,,5,m,3.1,29,r,Mh IN,49,49,2022_Jul_15_1724,2020.2.10,distractmap,59.97217291630973,"['Left Face', 'Right Face', 'Left Face', 'Right Face']",
3,"[0.2, 0.2]",None,0,1,1,1,,,None,None,"[0, 0, 0]",385.22880140002235,387.228826400009,385.22880140002235,386.22884020002675,386.212180100003,387.2122058000241,,,"[0, 0, 0]",1,385.22880140002235,387.228826400009,,,,,,,,,,,,,,,,,,,5,m,3.1,29,r,Mh IN,49,49,2022_Jul_15_1724,2020.2.10,distractmap,59.97217291630973,"['Left Face', 'Right Face', 'Left Face', 'Right Face']",
5,"[0, 0]",0,0,2,2,2,,,None,None,"[0, 0, 0]",387.24553090002155,389.2455424000218,387.24553090002155,388.24552470000344,388.22887820002506,389.22882670001127,,,"[0, 0, 0]",1,387.24553090002155,389.2455424000218,,,,,,,,,,,,,,,,,,,5,m,3.1,29,r,Mh IN,49,49,2022_Jul_15_1724,2020.2.10,distractmap,59.97217291630973,"['Left Face', 'Right Face', 'Left Face', 'Right Face']",
1,"[-0.2, 0.2]",0,0,3,3,3,,,None,None,"[0, 0, 0]",389.26219810001203,391.2622168000089,389.26219810001203,390.26229840001906,390.2455580000242,391.2455628000025,,,"[0, 0, 0]",1,389.26219810001203,391.2622168000089,,,,,,,,,,,,,,,,,,,5,m,3.1,29,r,Mh IN,49,49,2022_Jul_15_1724,2020.2.10,distractmap,59.97217291630973,"['Left Face', 'Right Face', 'Left Face', 'Right Face']",
5,"[0, 0]",1,0,4,4,4,,,None,None,"[0, 0, 0]",391.2788822000148,393.2787968000048,391.2788822000148,392.27891750002163,392.2622460000275,393.2622390000033,,,"[0, 0, 0]",1,391.2788822000148,393.2787968000048,,,,,,,,,,,,,,,,,,,5,m,3.1,29,r,Mh IN,49,49,2022_Jul_15_1724,2020.2.10,distractmap,59.97217291630973,"['Left Face', 'Right Face', 'Left Face', 'Right Face']",
8,"[0, -0.2]",0,0,5,5,5,,,None,None,"[0, 0, 0]",393.29556990001583,395.2956078000134,393.29556990001583,394.2956003000145,394.2789401000191,395.2789178000239,,,"[0, 0, 0]",1,393.29556990001583,395.2956078000134,,,,,,,,,,,,,,,,,,,5,m,3.1,29,r,Mh IN,49,49,2022_Jul_15_1724,2020.2.10,distractmap,59.97217291630973,"['Left Face', 'Right Face', 'Left Face', 'Right Face']",
5,"[0, 0]",1,0,6,6,6,,,None,None,"[0, 0, 0]",395.3122589000268,397.31226800000877,395.3122589000268,396.312264600012,396.2956184000068,397.2956137000001,,,"[0, 0, 0]",1,395.3122589000268,397.31226800000877,,,,,,,,,,,,,,,,,,,5,m,3.1,29,r,Mh IN,49,49,2022_Jul_15_1724,2020.2.10,distractmap,59.97217291630973,"['Left Face', 'Right Face', 'Left Face', 'Right Face']",
7,"[-0.2, -0.2]",0,0,7,7,7,,,None,None,"[0, 0, 0]",397.3288049000257,399.3289749000105,397.3288049000257,398.3289527000161,398.3122870000079,399.3122827000043,,,"[0, 0, 0]",1,397.3288049000257,399.3289749000105,,,,,,,,,,,,,,,,,,,5,m,3.1,29,r,Mh IN,49,49,2022_Jul_15_1724,2020.2.10,distractmap,59.97217291630973,"['Left Face', 'Right Face', 'Left Face', 'Right Face']",
5,"[0, 0]",1,0,8,8,8,,,None,None,"[0, 0, 0]",399.3456436000124,401.34564680000767,399.3456436000124,400.3456589000125,400.32895410002675,401.3289959000249,,,"[0, 0, 0]",1,399.3456436000124,401.34564680000767,,,,,,,,,,,,,,,,,,,5,m,3.1,29,r,Mh IN,49,49,2022_Jul_15_1724,2020.2.10,distractmap,59.97217291630973,"['Left Face', 'Right Face', 'Left Face', 'Right Face']",
7,"[-0.2, -0.2]",1,0,9,9,9,,,None,None,"[0, 0, 0]",401.36230700000306,403.36232070002006,401.36230700000306,402.3623266000068,402.34559920002357,403.3456648000283,,,"[0, 0, 0]",0,401.36230700000306,403.36232070002006,,,,,,,,,,,,,,,,,,,5,m,3.1,29,r,Mh IN,49,49,2022_Jul_15_1724,2020.2.10,distractmap,59.97217291630973,"['Left Face', 'Right Face', 'Left Face', 'Right Face']",
,,,,,,,,,,,,,,,,,,,,,,,,403.39566900001955,None,,,,,,,,,,,,,,,,,5,m,3.1,29,r,Mh IN,49,49,2022_Jul_15_1724,2020.2.10,distractmap,59.97217291630973,"['Left Face', 'Right Face', 'Left Face', 'Right Face']",
6,"[0.2, 0]",None,0,0,0,0,413.41242200002307,None,None,None,"[0, 0, 0]",418.4124584000092,420.4124737000093,418.4124584000092,419.41246340001817,419.395822600025,420.3958156000008,,,"[0, 0, 0]",1,418.4124584000092,420.4124737000093,,,,,,,,,,,,,,,,,,,5,m,3.1,29,r,Mh IN,49,49,2022_Jul_15_1724,2020.2.10,distractmap,59.97217291630973,"['Left Face', 'Right Face', 'Left Face', 'Right Face']",
1,"[-0.2, 0.2]",None,0,1,1,1,,,None,None,"[0, 0, 0]",420.4291558000259,422.42918050001026,420.4291558000259,421.42915800001356,421.4124799000274,422.4124975000159,,,"[0, 0, 0]",1,420.4291558000259,422.42918050001026,,,,,,,,,,,,,,,,,,,5,m,3.1,29,r,Mh IN,49,49,2022_Jul_15_1724,2020.2.10,distractmap,59.97217291630973,"['Left Face', 'Right Face', 'Left Face', 'Right Face']",
6,"[0.2, 0]",1,0,2,2,2,,,None,None,"[0, 0, 0]",422.44584300002316,424.4458680000098,422.44584300002316,423.4458659000229,423.42918720000307,424.42919940000866,,,"[0, 0, 0]",1,422.44584300002316,424.4458680000098,,,,,,,,,,,,,,,,,,,5,m,3.1,29,r,Mh IN,49,49,2022_Jul_15_1724,2020.2.10,distractmap,59.97217291630973,"['Left Face', 'Right Face', 'Left Face', 'Right Face']",
4,"[-0.2, 0]",0,0,3,3,3,,,None,None,"[0, 0, 0]",424.46242200001143,426.46253680001246,424.46242200001143,425.4625191000232,425.4458788000047,426.4458890000242,,,"[0, 0, 0]",1,424.46242200001143,426.46253680001246,,,,,,,,,,,,,,,,,,,5,m,3.1,29,r,Mh IN,49,49,2022_Jul_15_1724,2020.2.10,distractmap,59.97217291630973,"['Left Face', 'Right Face', 'Left Face', 'Right Face']",
1,"[-0.2, 0.2]",0,0,4,4,4,,,None,None,"[0, 0, 0]",426.47919850001927,428.47921850002604,426.47919850001927,427.47921020002104,427.46255290001864,428.4625463000266,,,"[0, 0, 0]",1,426.47919850001927,428.47921850002604,,,,,,,,,,,,,,,,,,,5,m,3.1,29,r,Mh IN,49,49,2022_Jul_15_1724,2020.2.10,distractmap,59.97217291630973,"['Left Face', 'Right Face', 'Left Face', 'Right Face']",
8,"[0, -0.2]",0,0,5,5,5,,,None,None,"[0, 0, 0]",428.4959041000111,430.4959331000282,428.4959041000111,429.49591360002523,429.4792507000093,430.47924280000734,,,"[0, 0, 0]",1,428.4959041000111,430.4959331000282,,,,,,,,,,,,,,,,,,,5,m,3.1,29,r,Mh IN,49,49,2022_Jul_15_1724,2020.2.10,distractmap,59.97217291630973,"['Left Face', 'Right Face', 'Left Face', 'Right Face']",
1,"[-0.2, 0.2]",1,0,6,6,6,,,None,None,"[0, 0, 0]",430.51256780000404,432.51259880000725,430.51256780000404,431.5125762000098,431.4959308000107,432.4959445000277,,,"[0, 0, 0]",1,430.51256780000404,432.51259880000725,,,,,,,,,,,,,,,,,,,5,m,3.1,29,r,Mh IN,49,49,2022_Jul_15_1724,2020.2.10,distractmap,59.97217291630973,"['Left Face', 'Right Face', 'Left Face', 'Right Face']",
8,"[0, -0.2]",1,0,7,7,7,,,None,None,"[0, 0, 0]",432.52925670001423,434.52928410001914,432.52925670001423,433.5292594000057,433.5126078000176,434.51260290000937,,,"[0, 0, 0]",1,432.52925670001423,434.52928410001914,,,,,,,,,,,,,,,,,,,5,m,3.1,29,r,Mh IN,49,49,2022_Jul_15_1724,2020.2.10,distractmap,59.97217291630973,"['Left Face', 'Right Face', 'Left Face', 'Right Face']",
1,"[-0.2, 0.2]",1,0,8,8,8,,,None,None,"[0, 0, 0]",434.5459496000258,436.54586090001976,434.5459496000258,435.5459666000097,435.52930370002287,436.52928050002083,,,"[0, 0, 0]",1,434.5459496000258,436.54586090001976,,,,,,,,,,,,,,,,,,,5,m,3.1,29,r,Mh IN,49,49,2022_Jul_15_1724,2020.2.10,distractmap,59.97217291630973,"['Left Face', 'Right Face', 'Left Face', 'Right Face']",
6,"[0.2, 0]",0,0,9,9,9,,,None,None,"[0, 0, 0]",436.5626376,438.5626312000095,436.5626376,437.5626472000149,437.5459725000255,438.5460026000219,,,"[0, 0, 0]",1,436.5626376,438.5626312000095,,,,,,,,,,,,,,,,,,,5,m,3.1,29,r,Mh IN,49,49,2022_Jul_15_1724,2020.2.10,distractmap,59.97217291630973,"['Left Face', 'Right Face', 'Left Face', 'Right Face']",
,,,,,,,,,,,,,,,,,,,,,,,,438.59588310000254,None,,,,,,,,,,,,,,,,,5,m,3.1,29,r,Mh IN,49,49,2022_Jul_15_1724,2020.2.10,distractmap,59.97217291630973,"['Left Face', 'Right Face', 'Left Face', 'Right Face']",
7,"[-0.2, -0.2]",None,0,0,0,0,450.612767100014,None,None,None,"[0, 0, 0]",453.61268580000615,455.61280040000565,453.61268580000615,454.61278360002325,454.59613970000646,455.596148200013,,,"[0, 0, 0]",1,453.61268580000615,455.61280040000565,,,,,,,,,,,,,,,,,,,5,m,3.1,29,r,Mh IN,49,49,2022_Jul_15_1724,2020.2.10,distractmap,59.97217291630973,"['Left Face', 'Right Face', 'Left Face', 'Right Face']",
7,"[-0.2, -0.2]",None,0,1,1,1,,,None,None,"[0, 0, 0]",455.62945690000197,457.6294899000204,455.62945690000197,456.6294747000211,456.6128142000234,457.6128300000273,,,"[0, 0, 0]",1,455.62945690000197,457.6294899000204,,,,,,,,,,,,,,,,,,,5,m,3.1,29,r,Mh IN,49,49,2022_Jul_15_1724,2020.2.10,distractmap,59.97217291630973,"['Left Face', 'Right Face', 'Left Face', 'Right Face']",
7,"[-0.2, -0.2]",1,0,2,2,2,,,None,None,"[0, 0, 0]",457.64616960001877,459.646186900005,457.64616960001877,458.6461767000146,458.6294845000084,459.6295008000161,,,"[0, 0, 0]",1,457.64616960001877,459.646186900005,,,,,,,,,,,,,,,,,,,5,m,3.1,29,r,Mh IN,49,49,2022_Jul_15_1724,2020.2.10,distractmap,59.97217291630973,"['Left Face', 'Right Face', 'Left Face', 'Right Face']",
5,"[0, 0]",0,0,3,3,3,,,None,None,"[0, 0, 0]",459.6628429000266,461.6628442000074,459.6628429000266,460.6628447000112,460.6461954000115,461.64619660002063,,,"[0, 0, 0]",1,459.6628429000266,461.6628442000074,,,,,,,,,,,,,,,,,,,5,m,3.1,29,r,Mh IN,49,49,2022_Jul_15_1724,2020.2.10,distractmap,59.97217291630973,"['Left Face', 'Right Face', 'Left Face', 'Right Face']",
1,"[-0.2, 0.2]",0,0,4,4,4,,,None,None,"[0, 0, 0]",461.67952360000345,463.67953320001834,461.67952360000345,462.6795203000074,462.6629394000047,463.6628646000172,,,"[0, 0, 0]",1,461.67952360000345,463.67953320001834,,,,,,,,,,,,,,,,,,,5,m,3.1,29,r,Mh IN,49,49,2022_Jul_15_1724,2020.2.10,distractmap,59.97217291630973,"['Left Face', 'Right Face', 'Left Face', 'Right Face']",
6,"[0.2, 0]",0,0,5,5,5,,,None,None,"[0, 0, 0]",463.6962067000277,465.69622720000916,463.6962067000277,464.6962305000052,464.6795604000217,465.6795455000247,,,"[0, 0, 0]",1,463.6962067000277,465.69622720000916,,,,,,,,,,,,,,,,,,,5,m,3.1,29,r,Mh IN,49,49,2022_Jul_15_1724,2020.2.10,distractmap,59.97217291630973,"['Left Face', 'Right Face', 'Left Face', 'Right Face']",
1,"[-0.2, 0.2]",1,0,6,6,6,,,None,None,"[0, 0, 0]",465.7128868,467.7128953000065,465.7128868,466.71285790001275,466.6962330000242,467.6962599000253,,,"[0, 0, 0]",1,465.7128868,467.7128953000065,,,,,,,,,,,,,,,,,,,5,m,3.1,29,r,Mh IN,49,49,2022_Jul_15_1724,2020.2.10,distractmap,59.97217291630973,"['Left Face', 'Right Face', 'Left Face', 'Right Face']",
7,"[-0.2, -0.2]",0,0,7,7,7,,,None,None,"[0, 0, 0]",467.72958640000434,469.7295891000249,467.72958640000434,468.7295863000036,468.7129343000124,469.71292910000193,,,"[0, 0, 0]",1,467.72958640000434,469.7295891000249,,,,,,,,,,,,,,,,,,,5,m,3.1,29,r,Mh IN,49,49,2022_Jul_15_1724,2020.2.10,distractmap,59.97217291630973,"['Left Face', 'Right Face', 'Left Face', 'Right Face']",
6,"[0.2, 0]",0,0,8,8,8,,,None,None,"[0, 0, 0]",469.7462513000064,471.74627320002764,469.7462513000064,470.7462625000044,470.7296116000216,471.7296145000146,,,"[0, 0, 0]",1,469.7462513000064,471.74627320002764,,,,,,,,,,,,,,,,,,,5,m,3.1,29,r,Mh IN,49,49,2022_Jul_15_1724,2020.2.10,distractmap,59.97217291630973,"['Left Face', 'Right Face', 'Left Face', 'Right Face']",
7,"[-0.2, -0.2]",1,0,9,9,9,,,None,None,"[0, 0, 0]",471.7629384000029,473.76294240000425,471.7629384000029,472.7629457000003,472.7462909000169,473.74628040002426,,,"[0, 0, 0]",1,471.7629384000029,473.76294240000425,,,,,,,,,,,,,,,,,,,5,m,3.1,29,r,Mh IN,49,49,2022_Jul_15_1724,2020.2.10,distractmap,59.97217291630973,"['Left Face', 'Right Face', 'Left Face', 'Right Face']",
,,,,,,,,,,,,,,,,,,,,,,,,473.7796197000134,None,,,,,,,,,,,,,,,,,5,m,3.1,29,r,Mh IN,49,49,2022_Jul_15_1724,2020.2.10,distractmap,59.97217291630973,"['Left Face', 'Right Face', 'Left Face', 'Right Face']",
4,"[-0.2, 0]",None,0,0,0,0,482.246486500022,None,None,None,"[0, 0, 0]",488.79641330000595,490.7964396000025,488.79641330000595,489.7963461000181,489.7797600000049,490.77978240000084,,,"[0, 0, 0]",1,488.79641330000595,490.7964396000025,,,,,,,,,,,,,,,,,,,5,m,3.1,29,r,Mh IN,49,49,2022_Jul_15_1724,2020.2.10,distractmap,59.97217291630973,"['Left Face', 'Right Face', 'Left Face', 'Right Face']",
5,"[0, 0]",None,0,1,1,1,,,None,None,"[0, 0, 0]",490.81310840000515,492.8130257000157,490.81310840000515,491.81312940001953,491.796473400027,492.7964639000129,,,"[0, 0, 0]",1,490.81310840000515,492.8130257000157,,,,,,,,,,,,,,,,,,,5,m,3.1,29,r,Mh IN,49,49,2022_Jul_15_1724,2020.2.10,distractmap,59.97217291630973,"['Left Face', 'Right Face', 'Left Face', 'Right Face']",
6,"[0.2, 0]",0,0,2,2,2,,,None,None,"[0, 0, 1]",492.82978870000807,494.8298207000189,492.82978870000807,493.829799500003,493.81313840000075,494.81317000000854,0.0,1.6336850999796297,"[0, 0, 1]",1,492.82978870000807,494.8298207000189,,,,,,,,,,,,,,,,,,,5,m,3.1,29,r,Mh IN,49,49,2022_Jul_15_1724,2020.2.10,distractmap,59.97217291630973,"['Left Face', 'Right Face', 'Left Face', 'Right Face']",
1,"[-0.2, 0.2]",0,0,3,3,3,,,None,None,"[0, 0, 0]",494.8464789999998,496.84650760001387,494.8464789999998,495.8465008000203,495.82982830001856,496.8298468000139,,,"[0, 0, 0]",1,494.8464789999998,496.84650760001387,,,,,,,,,,,,,,,,,,,5,m,3.1,29,r,Mh IN,49,49,2022_Jul_15_1724,2020.2.10,distractmap,59.97217291630973,"['Left Face', 'Right Face', 'Left Face', 'Right Face']",
6,"[0.2, 0]",1,0,4,4,4,,,None,None,"[0, 0, 0]",496.8968367000052,None,496.8968367000052,497.8965072000283,497.8798460000253,None,,,"[0, 0, 0]",1,496.8968367000052,None,,,,,,,,,,,,,,,,,,,5,m,3.1,29,r,Mh IN,49,49,2022_Jul_15_1724,2020.2.10,distractmap,59.97217291630973,"['Left Face', 'Right Face', 'Left Face', 'Right Face']",
1,"[-0.2, 0.2]",1,0,5,5,5,,,None,None,"[0, 0, 0]",498.8798586000048,500.8798811000015,498.8798586000048,499.8798627000069,499.86320040002465,500.86321390001103,,,"[0, 0, 0]",1,498.8798586000048,500.8798811000015,,,,,,,,,,,,,,,,,,,5,m,3.1,29,r,Mh IN,49,49,2022_Jul_15_1724,2020.2.10,distractmap,59.97217291630973,"['Left Face', 'Right Face', 'Left Face', 'Right Face']",
2,"[0, 0.2]",0,0,6,6,6,,,None,None,"[0, 0, 0]",500.89653920001,502.89655540001695,500.89653920001,501.8965385000047,501.8799409000203,502.87989600002766,,,"[0, 0, 0]",1,500.89653920001,502.89655540001695,,,,,,,,,,,,,,,,,,,5,m,3.1,29,r,Mh IN,49,49,2022_Jul_15_1724,2020.2.10,distractmap,59.97217291630973,"['Left Face', 'Right Face', 'Left Face', 'Right Face']",
3,"[0.2, 0.2]",0,0,7,7,7,,,None,None,"[0, 0, 0]",502.9132349000138,504.9132406000281,502.9132349000138,503.9132465000148,503.89657300000545,504.8965796000266,,,"[0, 0, 0]",1,502.9132349000138,504.9132406000281,,,,,,,,,,,,,,,,,,,5,m,3.1,29,r,Mh IN,49,49,2022_Jul_15_1724,2020.2.10,distractmap,59.97217291630973,"['Left Face', 'Right Face', 'Left Face', 'Right Face']",
6,"[0.2, 0]",0,0,8,8,8,,,None,None,"[0, 0, 0]",504.92989900000975,506.9299247000017,504.92989900000975,505.92992360002245,505.9132835000055,506.91327480002656,,,"[0, 0, 0]",1,504.92989900000975,506.9299247000017,,,,,,,,,,,,,,,,,,,5,m,3.1,29,r,Mh IN,49,49,2022_Jul_15_1724,2020.2.10,distractmap,59.97217291630973,"['Left Face', 'Right Face', 'Left Face', 'Right Face']",
3,"[0.2, 0.2]",1,0,9,9,9,,,None,None,"[0, 0, 0]",506.9465963000257,508.9466084000014,506.9465963000257,507.9466030000185,507.92992310001864,508.92993680000654,,,"[0, 0, 0]",1,506.9465963000257,508.9466084000014,,,,,,,,,,,,,,,,,,,5,m,3.1,29,r,Mh IN,49,49,2022_Jul_15_1724,2020.2.10,distractmap,59.97217291630973,"['Left Face', 'Right Face', 'Left Face', 'Right Face']",
,,,,,,,,,,,,,,,,,,,,,,,,508.96327260002727,None,,,,,,,,,,,,,,,,,5,m,3.1,29,r,Mh IN,49,49,2022_Jul_15_1724,2020.2.10,distractmap,59.97217291630973,"['Left Face', 'Right Face', 'Left Face', 'Right Face']",
,,,,,,,,,,,,,,,,,,,,,,,,,,,,,,,,,,,,30.308641975308642,491.5517029699986,,,,,5,m,3.1,29,r,Mh IN,49,49,2022_Jul_15_1724,2020.2.10,distractmap,59.97217291630973,"['Left Face', 'Right Face', 'Left Face', 'Right Face']",
2,"[0, 0.2]",None,0,0,0,0,526.2304654000036,None,None,None,"[0, 0, 0]",528.9968033000187,530.9968262000184,528.9968033000187,529.9968007999996,529.9801458000147,530.9801370000059,,,"[0, 0, 0]",1,528.9968033000187,530.9968262000184,,,,,,,,,,,,,,,0.013137330010067672,5.009091429994442,,,5,m,3.1,29,r,Mh IN,49,49,2022_Jul_15_1724,2020.2.10,distractmap,59.97217291630973,"['Left Face', 'Right Face', 'Left Face', 'Right Face']",
5,"[0, 0]",None,0,1,1,1,,,None,None,"[0, 0, 0]",531.0134760000219,533.0134883000283,531.0134760000219,532.0134787000134,531.99682510001,532.996835100028,,,"[0, 0, 0]",1,531.0134760000219,533.0134883000283,,,,,,,,,,,,,,,,,,,5,m,3.1,29,r,Mh IN,49,49,2022_Jul_15_1724,2020.2.10,distractmap,59.97217291630973,"['Left Face', 'Right Face', 'Left Face', 'Right Face']",
6,"[0.2, 0]",0,0,2,2,2,,,None,None,"[0, 0, 0]",533.030179000023,535.030166600016,533.030179000023,534.0301696000097,534.0134938000119,535.0135014000116,,,"[0, 0, 0]",1,533.030179000023,535.030166600016,,,,,,,,,,,,,,,,,,,5,m,3.1,29,r,Mh IN,49,49,2022_Jul_15_1724,2020.2.10,distractmap,59.97217291630973,"['Left Face', 'Right Face', 'Left Face', 'Right Face']",
1,"[-0.2, 0.2]",0,0,3,3,3,,,None,None,"[0, 0, 0]",535.0468390000169,537.0468672999996,535.0468390000169,536.0468621000182,536.0301983000245,537.0301930000132,,,"[0, 0, 0]",1,535.0468390000169,537.0468672999996,,,,,,,,,,,,,,,,,,,5,m,3.1,29,r,Mh IN,49,49,2022_Jul_15_1724,2020.2.10,distractmap,59.97217291630973,"['Left Face', 'Right Face', 'Left Face', 'Right Face']",
6,"[0.2, 0]",1,0,4,4,4,,,None,None,"[0, 0, 0]",537.0802142000175,None,537.0802142000175,538.0802241000056,538.0635313000239,539.0635423000203,,,"[0, 0, 0]",1,537.0802142000175,None,,,,,,,,,,,,,,,,,,,5,m,3.1,29,r,Mh IN,49,49,2022_Jul_15_1724,2020.2.10,distractmap,59.97217291630973,"['Left Face', 'Right Face', 'Left Face', 'Right Face']",
6,"[0.2, 0]",0,0,5,5,5,,,None,None,"[0, 0, 0]",539.0802201000042,541.0802311000007,539.0802201000042,540.0802424000285,540.0635463000217,541.0635729000205,,,"[0, 0, 0]",1,539.0802201000042,541.0802311000007,,,,,,,,,,,,,,,,,,,5,m,3.1,29,r,Mh IN,49,49,2022_Jul_15_1724,2020.2.10,distractmap,59.97217291630973,"['Left Face', 'Right Face', 'Left Face', 'Right Face']",
9,"[0.2, -0.2]",0,0,6,6,6,,,None,None,"[0, 0, 0]",541.0969055000169,543.0969322000165,541.0969055000169,542.0969247000176,542.0802391000034,543.0802520000143,,,"[0, 0, 0]",1,541.0969055000169,543.0969322000165,,,,,,,,,,,,,,,,,,,5,m,3.1,29,r,Mh IN,49,49,2022_Jul_15_1724,2020.2.10,distractmap,59.97217291630973,"['Left Face', 'Right Face', 'Left Face', 'Right Face']",
6,"[0.2, 0]",1,0,7,7,7,,,None,None,"[0, 0, 0]",543.1135784000217,545.113593600021,543.1135784000217,544.1135825000238,544.0969170000171,545.0969487000257,,,"[0, 0, 0]",1,543.1135784000217,545.113593600021,,,,,,,,,,,,,,,,,,,5,m,3.1,29,r,Mh IN,49,49,2022_Jul_15_1724,2020.2.10,distractmap,59.97217291630973,"['Left Face', 'Right Face', 'Left Face', 'Right Face']",
3,"[0.2, 0.2]",0,0,8,8,8,,,None,None,"[0, 0, 0]",545.1302818000258,547.1302843000158,545.1302818000258,546.1303032000142,546.1136010000191,547.113608500018,,,"[0, 0, 0]",1,545.1302818000258,547.1302843000158,,,,,,,,,,,,,,,,,,,5,m,3.1,29,r,Mh IN,49,49,2022_Jul_15_1724,2020.2.10,distractmap,59.97217291630973,"['Left Face', 'Right Face', 'Left Face', 'Right Face']",
9,"[0.2, -0.2]",0,0,9,9,9,,,None,None,"[0, 0, 0]",547.146968200017,549.1469680000155,547.146968200017,548.146959500009,548.1302873000095,549.1303001000197,,,"[0, 0, 0]",1,547.146968200017,549.1469680000155,,,,,,,,,,,,,,,,,,,5,m,3.1,29,r,Mh IN,49,49,2022_Jul_15_1724,2020.2.10,distractmap,59.97217291630973,"['Left Face', 'Right Face', 'Left Face', 'Right Face']",
,,,,,,,,,,,,,,,,,,,,,,,,549.1636631000147,None,,,,,,,,,,,,,,,,,5,m,3.1,29,r,Mh IN,49,49,2022_Jul_15_1724,2020.2.10,distractmap,59.97217291630973,"['Left Face', 'Right Face', 'Left Face', 'Right Face']",
,,,,,,,,,,,,,,,,,,,,,,,,,,,,,,,,,,,,12.962962962962962,527.2853028700047,,,,,5,m,3.1,29,r,Mh IN,49,49,2022_Jul_15_1724,2020.2.10,distractmap,59.97217291630973,"['Left Face', 'Right Face', 'Left Face', 'Right Face']",
3,"[0.2, 0.2]",None,0,0,0,0,562.3975306000211,None,None,None,"[0, 0, 0]",569.1971684000164,571.1971601000114,569.1971684000164,570.1971718000132,570.1804845000152,571.1804924000171,,,"[0, 0, 0]",1,569.1971684000164,571.1971601000114,,,,,,,,,,,,,,,0.013191929989261553,5.009100430004764,,,5,m,3.1,29,r,Mh IN,49,49,2022_Jul_15_1724,2020.2.10,distractmap,59.97217291630973,"['Left Face', 'Right Face', 'Left Face', 'Right Face']",
9,"[0.2, -0.2]",None,0,1,1,1,,,None,None,"[0, 0, 0]",571.2138386000006,573.2138541000022,571.2138386000006,572.2138346000283,572.1971911000146,573.1971876000171,,,"[0, 0, 0]",1,571.2138386000006,573.2138541000022,,,,,,,,,,,,,,,,,,,5,m,3.1,29,r,Mh IN,49,49,2022_Jul_15_1724,2020.2.10,distractmap,59.97217291630973,"['Left Face', 'Right Face', 'Left Face', 'Right Face']",
3,"[0.2, 0.2]",1,0,2,2,2,,,None,None,"[0, 0, 0]",573.2305151000037,575.2305346000066,573.2305151000037,574.2305167000159,574.2138510000077,575.2138583000051,,,"[0, 0, 0]",1,573.2305151000037,575.2305346000066,,,,,,,,,,,,,,,,,,,5,m,3.1,29,r,Mh IN,49,49,2022_Jul_15_1724,2020.2.10,distractmap,59.97217291630973,"['Left Face', 'Right Face', 'Left Face', 'Right Face']",
7,"[-0.2, -0.2]",0,0,3,3,3,,,None,None,"[0, 0, 0]",575.2472049000207,577.2472352000186,575.2472049000207,576.2472187000094,576.2305468000122,577.2305563000264,,,"[0, 0, 0]",1,575.2472049000207,577.2472352000186,,,,,,,,,,,,,,,,,,,5,m,3.1,29,r,Mh IN,49,49,2022_Jul_15_1724,2020.2.10,distractmap,59.97217291630973,"['Left Face', 'Right Face', 'Left Face', 'Right Face']",
8,"[0, -0.2]",0,0,4,4,4,,,None,None,"[0, 0, 0]",577.3142409000138,None,577.3142409000138,578.3138865000219,578.2972451000242,None,,,"[0, 0, 0]",1,577.3142409000138,None,,,,,,,,,,,,,,,,,,,5,m,3.1,29,r,Mh IN,49,49,2022_Jul_15_1724,2020.2.10,distractmap,59.97217291630973,"['Left Face', 'Right Face', 'Left Face', 'Right Face']",
4,"[-0.2, 0]",0,0,5,5,5,,,None,None,"[0, 0, 0]",579.2805675000127,581.2805999000266,579.2805675000127,580.2805778000038,580.2639181000122,581.2639223000151,,,"[0, 0, 0]",1,579.2805675000127,581.2805999000266,,,,,,,,,,,,,,,,,,,5,m,3.1,29,r,Mh IN,49,49,2022_Jul_15_1724,2020.2.10,distractmap,59.97217291630973,"['Left Face', 'Right Face', 'Left Face', 'Right Face']",
4,"[-0.2, 0]",0,0,6,6,6,,,None,None,"[0, 0, 0]",581.2972725,583.2973083000106,581.2972725,582.2972701000108,582.2806057000125,583.2806122000038,,,"[0, 0, 0]",1,581.2972725,583.2973083000106,,,,,,,,,,,,,,,,,,,5,m,3.1,29,r,Mh IN,49,49,2022_Jul_15_1724,2020.2.10,distractmap,59.97217291630973,"['Left Face', 'Right Face', 'Left Face', 'Right Face']",
1,"[-0.2, 0.2]",0,0,7,7,7,,,None,None,"[0, 0, 0]",583.3139378000051,585.313954000012,583.3139378000051,584.3139548000181,584.2972868000215,585.2972778000112,,,"[0, 0, 0]",1,583.3139378000051,585.313954000012,,,,,,,,,,,,,,,,,,,5,m,3.1,29,r,Mh IN,49,49,2022_Jul_15_1724,2020.2.10,distractmap,59.97217291630973,"['Left Face', 'Right Face', 'Left Face', 'Right Face']",
4,"[-0.2, 0]",1,0,8,8,8,,,None,None,"[0, 0, 0]",585.330635100021,587.3306366000033,585.330635100021,586.3306400000001,586.3139638000284,587.3139869000006,,,"[0, 0, 0]",1,585.330635100021,587.3306366000033,,,,,,,,,,,,,,,,,,,5,m,3.1,29,r,Mh IN,49,49,2022_Jul_15_1724,2020.2.10,distractmap,59.97217291630973,"['Left Face', 'Right Face', 'Left Face', 'Right Face']",
8,"[0, -0.2]",0,0,9,9,9,,,None,None,"[0, 0, 0]",587.3473088000028,589.3473342000216,587.3473088000028,588.3473204000038,588.3306589000276,589.330667400005,,,"[0, 0, 0]",1,587.3473088000028,589.3473342000216,,,,,,,,,,,,,,,,,,,5,m,3.1,29,r,Mh IN,49,49,2022_Jul_15_1724,2020.2.10,distractmap,59.97217291630973,"['Left Face', 'Right Face', 'Left Face', 'Right Face']",
,,,,,,,,,,,,,,,,,,,,,,,,589.3640154000022,None,,,,,,,,,,,,,,,,,5,m,3.1,29,r,Mh IN,49,49,2022_Jul_15_1724,2020.2.10,distractmap,59.97217291630973,"['Left Face', 'Right Face', 'Left Face', 'Right Face']",
,,,,,,,,,,,,,,,,,,,,,,,,,,,,,,,,,,,,12.901234567901234,571.7023363700428,,,,,5,m,3.1,29,r,Mh IN,49,49,2022_Jul_15_1724,2020.2.10,distractmap,59.97217291630973,"['Left Face', 'Right Face', 'Left Face', 'Right Face']",
,,,,,,,714.3984443000227,None,,,,,,,,,,,,,,,,,,,,,,,,,,,,14.25925925925926,694.7849420700222,0.013185929972678423,5.009286229964346,694.3982883999997,None,5,m,3.1,29,r,Mh IN,49,49,2022_Jul_15_1724,2020.2.10,distractmap,59.97217291630973,"['Left Face', 'Right Face', 'Left Face', 'Right Face']",
,,,,,,,749.4154243000085,None,,,,,,,,,,,,,,,,,,,,,,,,,,,,8.39506172839506,729.2023390700342,0.015048129978822544,5.013070729968604,729.4152775000257,None,5,m,3.1,29,r,Mh IN,49,49,2022_Jul_15_1724,2020.2.10,distractmap,59.97217291630973,"['Left Face', 'Right Face', 'Left Face', 'Right Face']",
,,,,,,,784.4324182000128,None,,,,,,,,,,,,,,,,,,,,,,,,,,,,0.0,767.2506493699912,0.014624729985371232,5.0121094299829565,764.4322512000217,None,5,m,3.1,29,r,Mh IN,49,49,2022_Jul_15_1724,2020.2.10,distractmap,59.97217291630973,"['Left Face', 'Right Face', 'Left Face', 'Right Face']",
2,"[0, 0.2]",None,0,0,0,0,801.6660044000018,None,None,None,"[0, 0, 0]",804.4492839000013,806.449297300016,804.4492839000013,805.4492818000144,805.4326147000247,806.4326112000272,,,"[0, 0, 0]",1,804.4492839000013,806.449297300016,,,,,,,,,,,,,,,0.01666073000524193,5.016127129987581,,,5,m,3.1,29,r,Mh IN,49,49,2022_Jul_15_1724,2020.2.10,distractmap,59.97217291630973,"['Left Face', 'Right Face', 'Left Face', 'Right Face']",
5,"[0, 0]",None,0,1,1,1,,,None,None,"[0, 0, 0]",806.4659462000127,808.4658714000252,806.4659462000127,807.4659509000194,807.4493193000089,808.4493090000178,,,"[0, 0, 0]",1,806.4659462000127,808.4658714000252,,,,,,,,,,,,,,,,,,,5,m,3.1,29,r,Mh IN,49,49,2022_Jul_15_1724,2020.2.10,distractmap,59.97217291630973,"['Left Face', 'Right Face', 'Left Face', 'Right Face']",
3,"[0.2, 0.2]",0,0,2,2,2,,,None,None,"[0, 0, 0]",808.482642100018,810.4826496000169,808.482642100018,809.4826418000157,809.4659715000016,810.4659911000053,,,"[0, 0, 0]",0,808.482642100018,810.4826496000169,,,,,,,,,,,,,,,,,,,5,m,3.1,29,r,Mh IN,49,49,2022_Jul_15_1724,2020.2.10,distractmap,59.97217291630973,"['Left Face', 'Right Face', 'Left Face', 'Right Face']",
5,"[0, 0]",1,0,3,3,3,,,None,None,"[0, 0, 0]",810.4992931000015,812.4993320000067,810.4992931000015,811.4993340000219,811.4826719000121,812.4827284000057,,,"[0, 0, 0]",1,810.4992931000015,812.4993320000067,,,,,,,,,,,,,,,,,,,5,m,3.1,29,r,Mh IN,49,49,2022_Jul_15_1724,2020.2.10,distractmap,59.97217291630973,"['Left Face', 'Right Face', 'Left Face', 'Right Face']",
2,"[0, 0.2]",0,0,4,4,4,,,None,None,"[0, 0, 0]",812.5662226000277,None,812.5662226000277,813.5660095000057,813.5493409000046,None,,,"[0, 0, 0]",1,812.5662226000277,None,,,,,,,,,,,,,,,,,,,5,m,3.1,29,r,Mh IN,49,49,2022_Jul_15_1724,2020.2.10,distractmap,59.97217291630973,"['Left Face', 'Right Face', 'Left Face', 'Right Face']",
8,"[0, -0.2]",0,0,5,5,5,,,None,None,"[0, 0, 0]",814.5326879000058,816.5327114000102,814.5326879000058,815.5326986,815.5160265000013,816.516032900021,,,"[0, 0, 0]",1,814.5326879000058,816.5327114000102,,,,,,,,,,,,,,,,,,,5,m,3.1,29,r,Mh IN,49,49,2022_Jul_15_1724,2020.2.10,distractmap,59.97217291630973,"['Left Face', 'Right Face', 'Left Face', 'Right Face']",
4,"[-0.2, 0]",0,0,6,6,6,,,None,None,"[0, 0, 0]",816.5493886000186,818.5493878000125,816.5493886000186,817.549273600016,817.5327146000054,818.532718100003,,,"[0, 0, 0]",1,816.5493886000186,818.5493878000125,,,,,,,,,,,,,,,,,,,5,m,3.1,29,r,Mh IN,49,49,2022_Jul_15_1724,2020.2.10,distractmap,59.97217291630973,"['Left Face', 'Right Face', 'Left Face', 'Right Face']",
8,"[0, -0.2]",1,0,7,7,7,,,None,None,"[0, 0, 0]",818.5660625000019,820.5660742000036,818.5660625000019,819.5660636000102,819.5494171000028,820.5493013000232,,,"[0, 0, 0]",1,818.5660625000019,820.5660742000036,,,,,,,,,,,,,,,,,,,5,m,3.1,29,r,Mh IN,49,49,2022_Jul_15_1724,2020.2.10,distractmap,59.97217291630973,"['Left Face', 'Right Face', 'Left Face', 'Right Face']",
7,"[-0.2, -0.2]",0,0,8,8,8,,,None,None,"[0, 0, 0]",820.5827487000206,822.5827546000073,820.5827487000206,821.5827582000056,821.5660812999995,822.5660900000075,,,"[0, 0, 0]",1,820.5827487000206,822.5827546000073,,,,,,,,,,,,,,,,,,,5,m,3.1,29,r,Mh IN,49,49,2022_Jul_15_1724,2020.2.10,distractmap,59.97217291630973,"['Left Face', 'Right Face', 'Left Face', 'Right Face']",
8,"[0, -0.2]",1,0,9,9,9,,,None,None,"[0, 0, 0]",822.5993277000089,824.599443700019,822.5993277000089,823.5994558000239,823.5827751000179,824.5827938000148,,,"[0, 0, 0]",1,822.5993277000089,824.599443700019,,,,,,,,,,,,,,,,,,,5,m,3.1,29,r,Mh IN,49,49,2022_Jul_15_1724,2020.2.10,distractmap,59.97217291630973,"['Left Face', 'Right Face', 'Left Face', 'Right Face']",
,,,,,,,,,,,,,,,,,,,,,,,,824.6161230000143,None,,,,,,,,,,,,,,,,,5,m,3.1,29,r,Mh IN,49,49,2022_Jul_15_1724,2020.2.10,distractmap,59.97217291630973,"['Left Face', 'Right Face', 'Left Face', 'Right Face']",
,,,,,,,,,,,,,,,,,,,,,,,,,,,,,,,,,,,,11.358024691358025,805.6879924700188,,,,,5,m,3.1,29,r,Mh IN,49,49,2022_Jul_15_1724,2020.2.10,distractmap,59.97217291630973,"['Left Face', 'Right Face', 'Left Face', 'Right Face']",
2,"[0, 0.2]",None,0,0,0,0,839.8666413000028,None,None,None,"[0, 0, 0]",844.6496466000099,846.6496498000051,844.6496466000099,845.649644500023,845.6329647000239,846.6329731000005,,,"[0, 0, 0]",1,844.6496466000099,846.6496498000051,,,,,,,,,,,,,,,0.013016329990932718,5.008872230013367,,,5,m,3.1,29,r,Mh IN,49,49,2022_Jul_15_1724,2020.2.10,distractmap,59.97217291630973,"['Left Face', 'Right Face', 'Left Face', 'Right Face']",
2,"[0, 0.2]",None,0,1,1,1,,,None,None,"[0, 0, 0]",846.6663302000088,848.666335100017,846.6663302000088,847.6663222000061,847.6496516000188,848.6496819000167,,,"[0, 0, 0]",1,846.6663302000088,848.666335100017,,,,,,,,,,,,,,,,,,,5,m,3.1,29,r,Mh IN,49,49,2022_Jul_15_1724,2020.2.10,distractmap,59.97217291630973,"['Left Face', 'Right Face', 'Left Face', 'Right Face']",
2,"[0, 0.2]",1,0,2,2,2,,,None,None,"[0, 0, 0]",848.6829903000034,850.6830114000186,848.6829903000034,849.6830110000155,849.6663507000194,850.6663542000169,,,"[0, 0, 0]",1,848.6829903000034,850.6830114000186,,,,,,,,,,,,,,,,,,,5,m,3.1,29,r,Mh IN,49,49,2022_Jul_15_1724,2020.2.10,distractmap,59.97217291630973,"['Left Face', 'Right Face', 'Left Face', 'Right Face']",
8,"[0, -0.2]",0,0,3,3,3,,,None,None,"[0, 0, 0]",850.6996764000214,852.6996901000093,850.6996764000214,851.6996891000017,851.6830339000153,852.6830310000223,,,"[0, 0, 0]",1,850.6996764000214,852.6996901000093,,,,,,,,,,,,,,,,,,,5,m,3.1,29,r,Mh IN,49,49,2022_Jul_15_1724,2020.2.10,distractmap,59.97217291630973,"['Left Face', 'Right Face', 'Left Face', 'Right Face']",
2,"[0, 0.2]",1,0,4,4,4,,,None,None,"[0, 0, 0]",852.7666771000077,None,852.7666771000077,853.7663761000149,853.749707800016,None,,,"[0, 0, 0]",1,852.7666771000077,None,,,,,,,,,,,,,,,,,,,5,m,3.1,29,r,Mh IN,49,49,2022_Jul_15_1724,2020.2.10,distractmap,59.97217291630973,"['Left Face', 'Right Face', 'Left Face', 'Right Face']",
5,"[0, 0]",0,0,5,5,5,,,None,None,"[0, 0, 0]",854.7330474000191,856.7330629000207,854.7330474000191,855.7330671000236,855.7164159000095,856.7164207000169,,,"[0, 0, 0]",1,854.7330474000191,856.7330629000207,,,,,,,,,,,,,,,,,,,5,m,3.1,29,r,Mh IN,49,49,2022_Jul_15_1724,2020.2.10,distractmap,59.97217291630973,"['Left Face', 'Right Face', 'Left Face', 'Right Face']",
1,"[-0.2, 0.2]",0,0,6,6,6,,,None,None,"[0, 0, 0]",856.7497514000279,858.7497562000062,856.7497514000279,857.7497510000248,857.7330842000083,858.7331082000164,,,"[0, 0, 0]",1,856.7497514000279,858.7497562000062,,,,,,,,,,,,,,,,,,,5,m,3.1,29,r,Mh IN,49,49,2022_Jul_15_1724,2020.2.10,distractmap,59.97217291630973,"['Left Face', 'Right Face', 'Left Face', 'Right Face']",
1,"[-0.2, 0.2]",0,0,7,7,7,,,None,None,"[0, 0, 0]",858.7664174000092,860.7664415000181,858.7664174000092,859.7664561000129,859.7497736000223,860.749787800014,,,"[0, 0, 0]",1,858.7664174000092,860.7664415000181,,,,,,,,,,,,,,,,,,,5,m,3.1,29,r,Mh IN,49,49,2022_Jul_15_1724,2020.2.10,distractmap,59.97217291630973,"['Left Face', 'Right Face', 'Left Face', 'Right Face']",
6,"[0.2, 0]",0,0,8,8,8,,,None,None,"[0, 0, 0]",860.7831041000027,862.7831455000269,860.7831041000027,861.783130100026,861.7664657000278,862.7664435000042,,,"[0, 0, 0]",1,860.7831041000027,862.7831455000269,,,,,,,,,,,,,,,,,,,5,m,3.1,29,r,Mh IN,49,49,2022_Jul_15_1724,2020.2.10,distractmap,59.97217291630973,"['Left Face', 'Right Face', 'Left Face', 'Right Face']",
1,"[-0.2, 0.2]",1,0,9,9,9,,,None,None,"[0, 0, 0]",862.7997985000256,864.7998636000266,862.7997985000256,863.7997934000159,863.783038100024,864.7831599000201,,,"[0, 0, 0]",1,862.7997985000256,864.7998636000266,,,,,,,,,,,,,,,,,,,5,m,3.1,29,r,Mh IN,49,49,2022_Jul_15_1724,2020.2.10,distractmap,59.97217291630973,"['Left Face', 'Right Face', 'Left Face', 'Right Face']",
,,,,,,,,,,,,,,,,,,,,,,,,864.81639610001,None,,,,,,,,,,,,,,,,,5,m,3.1,29,r,Mh IN,49,49,2022_Jul_15_1724,2020.2.10,distractmap,59.97217291630973,"['Left Face', 'Right Face', 'Left Face', 'Right Face']",
,,,,,,,,,,,,,,,,,,,,,,,,,,,,,,,,,,,,12.03703703703704,844.6043923699763,,,,,5,m,3.1,29,r,Mh IN,49,49,2022_Jul_15_1724,2020.2.10,distractmap,59.97217291630973,"['Left Face', 'Right Face', 'Left Face', 'Right Face']",
3,"[0.2, 0.2]",None,0,0,0,0,880.0499756000063,None,None,None,"[0, 0, 0]",884.8500043000095,886.8500107,884.8500043000095,885.8499991000281,885.8333434000087,886.8333499,,,"[0, 0, 0]",1,884.8500043000095,886.8500107,,,,,,,,,,,,,,,0.013633130030939355,5.010106930043548,,,5,m,3.1,29,r,Mh IN,49,49,2022_Jul_15_1724,2020.2.10,distractmap,59.97217291630973,"['Left Face', 'Right Face', 'Left Face', 'Right Face']",
3,"[0.2, 0.2]",None,0,1,1,1,,,None,None,"[0, 0, 0]",886.8666721000045,888.866683100001,886.8666721000045,887.8666902000259,887.8500186000019,888.8500412000285,,,"[0, 0, 0]",1,886.8666721000045,888.866683100001,,,,,,,,,,,,,,,,,,,5,m,3.1,29,r,Mh IN,49,49,2022_Jul_15_1724,2020.2.10,distractmap,59.97217291630973,"['Left Face', 'Right Face', 'Left Face', 'Right Face']",
5,"[0, 0]",0,0,2,2,2,,,None,None,"[0, 0, 0]",888.8833591000002,890.8833740000264,888.8833591000002,889.8833704999997,889.8667149000103,890.8667145000072,,,"[0, 0, 0]",1,888.8833591000002,890.8833740000264,,,,,,,,,,,,,,,,,,,5,m,3.1,29,r,Mh IN,49,49,2022_Jul_15_1724,2020.2.10,distractmap,59.97217291630973,"['Left Face', 'Right Face', 'Left Face', 'Right Face']",
1,"[-0.2, 0.2]",0,0,3,3,3,,,None,None,"[0, 0, 0]",890.9000411000161,892.9000723000208,890.9000411000161,891.9000585000031,891.8833163000236,892.8833994000161,,,"[0, 0, 0]",1,890.9000411000161,892.9000723000208,,,,,,,,,,,,,,,,,,,5,m,3.1,29,r,Mh IN,49,49,2022_Jul_15_1724,2020.2.10,distractmap,59.97217291630973,"['Left Face', 'Right Face', 'Left Face', 'Right Face']",
5,"[0, 0]",1,0,4,4,4,,,None,None,"[0, 0, 0]",892.9501132000005,None,892.9501132000005,893.9500822000264,893.9334078000102,None,,,"[0, 0, 0]",1,892.9501132000005,None,,,,,,,,,,,,,,,,,,,5,m,3.1,29,r,Mh IN,49,49,2022_Jul_15_1724,2020.2.10,distractmap,59.97217291630973,"['Left Face', 'Right Face', 'Left Face', 'Right Face']",
8,"[0, -0.2]",0,0,5,5,5,,,None,None,"[0, 0, 0]",894.9334196000127,896.933451400022,894.9334196000127,895.9334434000193,895.9167513000139,896.9167602000234,,,"[0, 0, 0]",1,894.9334196000127,896.933451400022,,,,,,,,,,,,,,,,,,,5,m,3.1,29,r,Mh IN,49,49,2022_Jul_15_1724,2020.2.10,distractmap,59.97217291630973,"['Left Face', 'Right Face', 'Left Face', 'Right Face']",
5,"[0, 0]",1,0,6,6,6,,,None,None,"[0, 0, 0]",896.9501073000138,898.9501156000188,896.9501073000138,897.9501094000007,897.9334406000271,898.9334603000025,,,"[0, 0, 0]",1,896.9501073000138,898.9501156000188,,,,,,,,,,,,,,,,,,,5,m,3.1,29,r,Mh IN,49,49,2022_Jul_15_1724,2020.2.10,distractmap,59.97217291630973,"['Left Face', 'Right Face', 'Left Face', 'Right Face']",
7,"[-0.2, -0.2]",0,0,7,7,7,,,None,None,"[0, 0, 0]",898.9667802000185,900.9667946000118,898.9667802000185,899.9667939000065,899.9501364000025,900.9501378000132,,,"[0, 0, 0]",1,898.9667802000185,900.9667946000118,,,,,,,,,,,,,,,,,,,5,m,3.1,29,r,Mh IN,49,49,2022_Jul_15_1724,2020.2.10,distractmap,59.97217291630973,"['Left Face', 'Right Face', 'Left Face', 'Right Face']",
5,"[0, 0]",1,0,8,8,8,,,None,None,"[0, 0, 0]",900.9834747000132,902.9834824000136,900.9834747000132,901.9834717000194,901.9668102000142,902.9668226000213,,,"[0, 0, 0]",1,900.9834747000132,902.9834824000136,,,,,,,,,,,,,,,,,,,5,m,3.1,29,r,Mh IN,49,49,2022_Jul_15_1724,2020.2.10,distractmap,59.97217291630973,"['Left Face', 'Right Face', 'Left Face', 'Right Face']",
7,"[-0.2, -0.2]",1,0,9,9,9,,,None,None,"[0, 0, 0]",903.0001498000056,905.0001665000163,903.0001498000056,904.0001706000185,903.9834874000226,904.9834990000236,,,"[0, 0, 0]",1,903.0001498000056,905.0001665000163,,,,,,,,,,,,,,,,,,,5,m,3.1,29,r,Mh IN,49,49,2022_Jul_15_1724,2020.2.10,distractmap,59.97217291630973,"['Left Face', 'Right Face', 'Left Face', 'Right Face']",
,,,,,,,,,,,,,,,,,,,,,,,,905.0168388000166,None,,,,,,,,,,,,,,,,,5,m,3.1,29,r,Mh IN,49,49,2022_Jul_15_1724,2020.2.10,distractmap,59.97217291630973,"['Left Face', 'Right Face', 'Left Face', 'Right Face']",
,,,,,,,,,,,,,,,,,,,,,,,,,,,,,,,,,,,,16.79012345679012,885.8885775699746,,,,,5,m,3.1,29,r,Mh IN,49,49,2022_Jul_15_1724,2020.2.10,distractmap,59.97217291630973,"['Left Face', 'Right Face', 'Left Face', 'Right Face']",
,,,,,,,940.0338177000231,None,,,,,,,,,,,,,,,,,,,,,,,,,,,,1.2345679012345658,920.5187586700195,0.013154330023098737,5.009167830023216,920.0336481000122,None,5,m,3.1,29,r,Mh IN,49,49,2022_Jul_15_1724,2020.2.10,distractmap,59.97217291630973,"['Left Face', 'Right Face', 'Left Face', 'Right Face']",
,,,,,,,975.0508103000175,None,,,,,,,,,,,,,,,,,,,,,,,,,,,,0.0,957.7857215700205,0.016654329985613003,5.01617602998158,955.0506519000046,None,5,m,3.1,29,r,Mh IN,49,49,2022_Jul_15_1724,2020.2.10,distractmap,59.97217291630973,"['Left Face', 'Right Face', 'Left Face', 'Right Face']",
,,,,,,,1010.067784200015,None,,,,,,,,,,,,,,,,,,,,,,,,,,,,17.40740740740741,990.5360210700019,0.016654529987135902,5.0162280299991835,990.0676024000277,None,5,m,3.1,29,r,Mh IN,49,49,2022_Jul_15_1724,2020.2.10,distractmap,59.97217291630973,"['Left Face', 'Right Face', 'Left Face', 'Right Face']",
,,,,,,,,,,,,,,,,,,,,,,,,,,,,,,,,,,,,,,0.01665023001260124,5.01616903001559,,,,,,,,,,,,,,,,
