BodySiteInstructionText.started,BodySiteImg.started,BodySiteImg.stopped,BodySiteInstructionRead.keys,BodySiteInstructionRead.rt,BodySiteInstructionRead.started,BodySiteInstructionRead.stopped,fixation.started,fixation.stopped,IntensityRating.response,IntensityRating.rt,IntensityRating.started,IntensityRating.stopped,ComfortRating.response,ComfortRating.rt,ComfortRating.started,ComfortRating.stopped,ValenceRating.response,ValenceRating.rt,ValenceRating.started,ValenceRating.stopped,AvoidRating.response,AvoidRating.rt,AvoidRating.started,AvoidRating.stopped,RelaxRating.response,RelaxRating.rt,RelaxRating.started,RelaxRating.stopped,TaskAttentionRating.response,TaskAttentionRating.rt,TaskAttentionRating.started,TaskAttentionRating.stopped,BoredomRating.response,BoredomRating.rt,BoredomRating.started,BoredomRating.stopped,AlertnessRating.response,AlertnessRating.rt,AlertnessRating.started,AlertnessRating.stopped,PosThxRating.response,PosThxRating.rt,PosThxRating.started,PosThxRating.stopped,NegThxRating.response,NegThxRating.rt,NegThxRating.started,NegThxRating.stopped,SelfRating.response,SelfRating.rt,SelfRating.started,SelfRating.stopped,OtherRating.response,OtherRating.rt,OtherRating.started,OtherRating.stopped,ImageryRating.response,ImageryRating.rt,ImageryRating.started,ImageryRating.stopped,PresentRating.response,PresentRating.rt,PresentRating.started,PresentRating.stopped,subject number,gender,session,handedness,scanner,run,experience(1) or regulate(2),date,psychopyVersion,expName,body_site_order,frameRate,
21.818437300004007,21.818437300004007,None,space,170.1523434999981,21.818437300004007,None,226.0536307000002,None,19.814814814814817,220.30215383999894,,,,,,,,,,,,,,,,,,,,,,,,,,,,,,,,,,,,,,,,,,,,,,,,,,,,,,,5,m,28,r,MH,,2,2022_Jul_14_1141,2020.2.10,acceptmap-regulate,"['Right Face', 'Left Face', 'Right Face', 'Left Face']",59.977640334746866,
,,,,,,,254.07057260000147,None,20.61728395061728,244.93581694000022,0.014906160002283286,5.012690660005319,,,,,,,,,,,,,,,,,,,,,,,,,,,,,,,,,,,,,,,,,,,,,,,,,,,,,5,m,28,r,MH,,2,2022_Jul_14_1141,2020.2.10,acceptmap-regulate,"['Right Face', 'Left Face', 'Right Face', 'Left Face']",59.977640334746866,
,,,,,,,282.0874818000011,None,18.580246913580247,272.58631963999505,0.014814160000241827,5.012541059993964,,,,,,,,,,,,,,,,,,,,,,,,,,,,,,,,,,,,,,,,,,,,,,,,,,,,,5,m,28,r,MH,,2,2022_Jul_14_1141,2020.2.10,acceptmap-regulate,"['Right Face', 'Left Face', 'Right Face', 'Left Face']",59.977640334746866,
,,,,,,,310.1044088999988,None,19.444444444444446,303.96790934000455,0.014567960002750624,5.01217675999942,,,,,,,,,,,,,,,,,,,,,,,,,,,,,,,,,,,,,,,,,,,,,,,,,,,,,5,m,28,r,MH,,2,2022_Jul_14_1141,2020.2.10,acceptmap-regulate,"['Right Face', 'Left Face', 'Right Face', 'Left Face']",59.977640334746866,
,,,,,,,338.12133750000066,None,18.580246913580247,329.984833839997,0.016593659995123744,5.016090159995656,,,,,,,,,,,,,,,,,,,,,,,,,,,,,,,,,,,,,,,,,,,,,,,,,,,,,5,m,28,r,MH,,2,2022_Jul_14_1141,2020.2.10,acceptmap-regulate,"['Right Face', 'Left Face', 'Right Face', 'Left Face']",59.977640334746866,
,,,,,,,366.1382553000003,None,19.5679012345679,359.5199076399949,0.016582860000198707,5.016110459997435,,,,,,,,,,,,,,,,,,,,,,,,,,,,,,,,,,,,,,,,,,,,,,,,,,,,,5,m,28,r,MH,,2,2022_Jul_14_1141,2020.2.10,acceptmap-regulate,"['Right Face', 'Left Face', 'Right Face', 'Left Face']",59.977640334746866,
,,,,,,,394.1551802000031,None,19.62962962962963,388.2853672400015,0.01510165999934543,5.013172159997339,,,,,,,,,,,,,,,,,,,,,,,,,,,,,,,,,,,,,,,,,,,,,,,,,,,,,5,m,28,r,MH,,2,2022_Jul_14_1141,2020.2.10,acceptmap-regulate,"['Right Face', 'Left Face', 'Right Face', 'Left Face']",59.977640334746866,
,,,,,,,422.17210960000375,None,21.11111111111111,412.55370863999997,0.016586359997745603,5.01609525999811,,,,,,,,,,,,,,,,,,,,,,,,,,,,,,,,,,,,,,,,,,,,,,,,,,,,,5,m,28,r,MH,,2,2022_Jul_14_1141,2020.2.10,acceptmap-regulate,"['Right Face', 'Left Face', 'Right Face', 'Left Face']",59.977640334746866,
,,,,,,,450.18903280000086,None,19.012345679012345,440.0204818399943,0.015085059996636119,5.013206360003096,,,,,,,,,,,,,,,,,,,,,,,,,,,,,,,,,,,,,,,,,,,,,,,,,,,,,5,m,28,r,MH,,2,2022_Jul_14_1141,2020.2.10,acceptmap-regulate,"['Right Face', 'Left Face', 'Right Face', 'Left Face']",59.977640334746866,
,,,,,,,478.20596320000186,None,19.62962962962963,469.2207721399973,0.015268460003426298,5.013333360002434,,,,,,,,,,,,,,,,,,,,,,,,,,,,,,,,,,,,,,,,,,,,,,,,,,,,,5,m,28,r,MH,,2,2022_Jul_14_1141,2020.2.10,acceptmap-regulate,"['Right Face', 'Left Face', 'Right Face', 'Left Face']",59.977640334746866,
,,,,,,,506.222883800001,None,20.061728395061728,498.2718245399956,0.015269360003003385,5.013309560003108,,,,,,,,,,,,,,,,,,,,,,,,,,,,,,,,,,,,,,,,,,,,,,,,,,,,,5,m,28,r,MH,,2,2022_Jul_14_1141,2020.2.10,acceptmap-regulate,"['Right Face', 'Left Face', 'Right Face', 'Left Face']",59.977640334746866,
,,,,,,,534.2398040000044,None,19.38271604938272,524.1549946399973,0.014466360000369605,5.011974660003034,,,,,,,,,,,,,,,,,,,,,,,,,,,,,,,,,,,,,,,,,,,,,,,,,,,,,5,m,28,r,MH,,2,2022_Jul_14_1141,2020.2.10,acceptmap-regulate,"['Right Face', 'Left Face', 'Right Face', 'Left Face']",59.977640334746866,
,,,,,,,562.256724400002,None,18.950617283950617,555.8535729400028,0.014881859999150038,5.012674760000664,,,,,,,,,,,,,,,,,,,,,,,,,,,,,,,,,,,,,,,,,,,,,,,,,,,,,5,m,28,r,MH,,2,2022_Jul_14_1141,2020.2.10,acceptmap-regulate,"['Right Face', 'Left Face', 'Right Face', 'Left Face']",59.977640334746866,
,,,,,,,590.2735885000002,None,19.50617283950617,584.5704893399961,0.01659405999816954,5.016133359997184,,,,,,,,,,,,,,,,,,,,,,,,,,,,,,,,,,,,,,,,,,,,,,,,,,,,,5,m,28,r,MH,,2,2022_Jul_14_1141,2020.2.10,acceptmap-regulate,"['Right Face', 'Left Face', 'Right Face', 'Left Face']",59.977640334746866,
,,,,,,,618.2905794000035,None,19.19753086419753,611.9040671399998,0.01659626000036951,5.016124759997183,,,,,,,,,,,,,,,,,,,,,,,,,,,,,,,,,,,,,,,,,,,,,,,,,,,,,5,m,28,r,MH,,2,2022_Jul_14_1141,2020.2.10,acceptmap-regulate,"['Right Face', 'Left Face', 'Right Face', 'Left Face']",59.977640334746866,
,,,,,,,646.3075001000034,None,19.1358024691358,636.123048339985,0.016612560000794474,5.016139359999215,,,,,,,,,,,,,,,,,,,,,,,,,,,,,,,,,,,,,,,,,,,,,,,,,,,,,5,m,28,r,MH,,2,2022_Jul_14_1141,2020.2.10,acceptmap-regulate,"['Right Face', 'Left Face', 'Right Face', 'Left Face']",59.977640334746866,
,,,,,,,,,,,0.014516260009258986,5.011973760003457,-3.827160493827151,641.6069645400057,,,,,,,,,,,,,,,,,,,,,,,,,,,,,,,,,,,,,,,,,,,,,,,,,,,5,m,28,r,MH,,2,2022_Jul_14_1141,2020.2.10,acceptmap-regulate,"['Right Face', 'Left Face', 'Right Face', 'Left Face']",59.977640334746866,
,,,,,,,,,,,,,,,0.013999459988554008,None,-75.18518518518519,645.8569875399917,,,,,,,,,,,,,,,,,,,,,,,,,,,,,,,,,,,,,,,,,,,,,,,5,m,28,r,MH,,2,2022_Jul_14_1141,2020.2.10,acceptmap-regulate,"['Right Face', 'Left Face', 'Right Face', 'Left Face']",59.977640334746866,
,,,,,,,,,25.493827160493826,647.9583031799921,,,,,,,,,0.014006260003952775,None,,,,,,,,,,,,,,,,,,,,,,,,,,,,,,,,,,,,,,,,,,,,,5,m,28,r,MH,,2,2022_Jul_14_1141,2020.2.10,acceptmap-regulate,"['Right Face', 'Left Face', 'Right Face', 'Left Face']",59.977640334746866,
,,,,,,,,,,,0.012690020004811231,None,,,,,,,,,16.97530864197531,652.6069588399914,,,,,,,,,,,,,,,,,,,,,,,,,,,,,,,,,,,,,,,,,,,5,m,28,r,MH,,2,2022_Jul_14_1141,2020.2.10,acceptmap-regulate,"['Right Face', 'Left Face', 'Right Face', 'Left Face']",59.977640334746866,
,,,,,,,,,,,,,,,,,,,,,,,0.014077160005399492,None,68.14814814814815,655.2905378400028,,,,,,,,,,,,,,,,,,,,,,,,,,,,,,,,,,,,,,,5,m,28,r,MH,,2,2022_Jul_14_1141,2020.2.10,acceptmap-regulate,"['Right Face', 'Left Face', 'Right Face', 'Left Face']",59.977640334746866,
,,,,,,,,,,,,,,,,,,,,,,,,,,,0.013871359995391686,None,59.814814814814824,659.1066287399954,,,,,,,,,,,,,,,,,,,,,,,,,,,,,,,,,,,5,m,28,r,MH,,2,2022_Jul_14_1141,2020.2.10,acceptmap-regulate,"['Right Face', 'Left Face', 'Right Face', 'Left Face']",59.977640334746866,
,,,,,,,,,,,,,,,,,,,,,,,,,,,,,,,0.014497260002826806,None,35.98765432098765,662.1072950400048,,,,,,,,,,,,,,,,,,,,,,,,,,,,,,,5,m,28,r,MH,,2,2022_Jul_14_1141,2020.2.10,acceptmap-regulate,"['Right Face', 'Left Face', 'Right Face', 'Left Face']",59.977640334746866,
,,,,,,,,,,,,,,,,,,,,,,,,,,,,,,,,,,,0.013853959993866738,None,9.753086419753103,665.1402418399957,,,,,,,,,,,,,,,,,,,,,,,,,,,5,m,28,r,MH,,2,2022_Jul_14_1141,2020.2.10,acceptmap-regulate,"['Right Face', 'Left Face', 'Right Face', 'Left Face']",59.977640334746866,
,,,,,,,,,,,,,,,,,,,,,,,,,,,,,,,,,,,,,,,0.014254959998652339,None,9.259259259259252,668.7567373399943,,,,,,,,,,,,,,,,,,,,,,,5,m,28,r,MH,,2,2022_Jul_14_1141,2020.2.10,acceptmap-regulate,"['Right Face', 'Left Face', 'Right Face', 'Left Face']",59.977640334746866,
,,,,,,,,,,,,,,,,,,,,,,,,,,,,,,,,,,,,,,,,,,,0.014472560003923718,None,-13.580246913580254,673.9735604400048,,,,,,,,,,,,,,,,,,,5,m,28,r,MH,,2,2022_Jul_14_1141,2020.2.10,acceptmap-regulate,"['Right Face', 'Left Face', 'Right Face', 'Left Face']",59.977640334746866,
,,,,,,,,,,,,,,,,,,,,,,,,,,,,,,,,,,,,,,,,,,,,,,,0.014350159995956346,None,-33.20987654320989,678.1574928399932,,,,,,,,,,,,,,,5,m,28,r,MH,,2,2022_Jul_14_1141,2020.2.10,acceptmap-regulate,"['Right Face', 'Left Face', 'Right Face', 'Left Face']",59.977640334746866,
,,,,,,,,,,,,,,,,,,,,,,,,,,,,,,,,,,,,,,,,,,,,,,,,,,,0.01379956000164384,None,0.0,681.0072238400026,,,,,,,,,,,5,m,28,r,MH,,2,2022_Jul_14_1141,2020.2.10,acceptmap-regulate,"['Right Face', 'Left Face', 'Right Face', 'Left Face']",59.977640334746866,
,,,,,,,,,,,,,,,,,,,,,,,,,,,,,,,,,,,,,,,,,,,,,,,,,,,,,,,0.014089359996432904,None,29.259259259259238,684.6571493399897,,,,,,,5,m,28,r,MH,,2,2022_Jul_14_1141,2020.2.10,acceptmap-regulate,"['Right Face', 'Left Face', 'Right Face', 'Left Face']",59.977640334746866,
,,,,,,,,,,,,,,,,,,,,,,,,,,,,,,,,,,,,,,,,,,,,,,,,,,,,,,,,,,,0.014204160004737787,None,-100.0,687.3570350399896,,,5,m,28,r,MH,,2,2022_Jul_14_1141,2020.2.10,acceptmap-regulate,"['Right Face', 'Left Face', 'Right Face', 'Left Face']",59.977640334746866,
814.8757186000003,814.8757186000003,None,space,177.1115043999962,814.8757186000003,None,1037.0943606,None,28.333333333333332,1029.791273640003,,,,,,,,,,,,,,,,,,,,,,,,,,,,,,,,,,,,,,,,,,,,,,,,,,,,,0.01434376000543125,None,5,m,28,r,MH,,2,2022_Jul_14_1141,2020.2.10,acceptmap-regulate,"['Right Face', 'Left Face', 'Right Face', 'Left Face']",59.977640334746866,
,,,,,,,1065.1112876000043,None,23.580246913580247,1059.4581005400032,0.016489859997818712,5.01592215999699,,,,,,,,,,,,,,,,,,,,,,,,,,,,,,,,,,,,,,,,,,,,,,,,,,,,,5,m,28,r,MH,,2,2022_Jul_14_1141,2020.2.10,acceptmap-regulate,"['Right Face', 'Left Face', 'Right Face', 'Left Face']",59.977640334746866,
,,,,,,,1093.1281958000036,None,15.432098765432102,1083.343501739997,0.01660155999707058,5.016159659993718,,,,,,,,,,,,,,,,,,,,,,,,,,,,,,,,,,,,,,,,,,,,,,,,,,,,,5,m,28,r,MH,,2,2022_Jul_14_1141,2020.2.10,acceptmap-regulate,"['Right Face', 'Left Face', 'Right Face', 'Left Face']",59.977640334746866,
,,,,,,,1121.1451319000043,None,23.271604938271608,1115.4752528399986,0.014835759997367859,5.012614059996849,,,,,,,,,,,,,,,,,,,,,,,,,,,,,,,,,,,,,,,,,,,,,,,,,,,,,5,m,28,r,MH,,2,2022_Jul_14_1141,2020.2.10,acceptmap-regulate,"['Right Face', 'Left Face', 'Right Face', 'Left Face']",59.977640334746866,
,,,,,,,1149.1620280999996,None,23.45679012345679,1139.1268506399938,0.016639759996905923,5.016148959999555,,,,,,,,,,,,,,,,,,,,,,,,,,,,,,,,,,,,,,,,,,,,,,,,,,,,,5,m,28,r,MH,,2,2022_Jul_14_1141,2020.2.10,acceptmap-regulate,"['Right Face', 'Left Face', 'Right Face', 'Left Face']",59.977640334746866,
,,,,,,,1177.1789422000002,None,23.333333333333332,1171.892362639992,0.015244860005623195,5.0134303600061685,,,,,,,,,,,,,,,,,,,,,,,,,,,,,,,,,,,,,,,,,,,,,,,,,,,,,5,m,28,r,MH,,2,2022_Jul_14_1141,2020.2.10,acceptmap-regulate,"['Right Face', 'Left Face', 'Right Face', 'Left Face']",59.977640334746866,
,,,,,,,1205.1958607999986,None,23.14814814814815,1196.6275755399984,0.016589860002568457,5.016116960003274,,,,,,,,,,,,,,,,,,,,,,,,,,,,,,,,,,,,,,,,,,,,,,,,,,,,,5,m,28,r,MH,,2,2022_Jul_14_1141,2020.2.10,acceptmap-regulate,"['Right Face', 'Left Face', 'Right Face', 'Left Face']",59.977640334746866,
,,,,,,,1233.2127882999994,None,22.839506172839506,1222.9782471399958,0.015032859999337234,5.013013160001719,,,,,,,,,,,,,,,,,,,,,,,,,,,,,,,,,,,,,,,,,,,,,,,,,,,,,5,m,28,r,MH,,2,2022_Jul_14_1141,2020.2.10,acceptmap-regulate,"['Right Face', 'Left Face', 'Right Face', 'Left Face']",59.977640334746866,
,,,,,,,1261.2297107999984,None,25.55555555555556,1251.1118454399984,0.014593860003515147,5.0121162600044045,,,,,,,,,,,,,,,,,,,,,,,,,,,,,,,,,,,,,,,,,,,,,,,,,,,,,5,m,28,r,MH,,2,2022_Jul_14_1141,2020.2.10,acceptmap-regulate,"['Right Face', 'Left Face', 'Right Face', 'Left Face']",59.977640334746866,
,,,,,,,1289.246621600003,None,24.753086419753085,1282.1616068399962,0.01457366000249749,5.0120838599978015,,,,,,,,,,,,,,,,,,,,,,,,,,,,,,,,,,,,,,,,,,,,,,,,,,,,,5,m,28,r,MH,,2,2022_Jul_14_1141,2020.2.10,acceptmap-regulate,"['Right Face', 'Left Face', 'Right Face', 'Left Face']",59.977640334746866,
,,,,,,,1317.2635435999982,None,24.320987654320987,1309.7603535400049,0.015096959999937098,5.0131524600001285,,,,,,,,,,,,,,,,,,,,,,,,,,,,,,,,,,,,,,,,,,,,,,,,,,,,,5,m,28,r,MH,,2,2022_Jul_14_1141,2020.2.10,acceptmap-regulate,"['Right Face', 'Left Face', 'Right Face', 'Left Face']",59.977640334746866,
,,,,,,,1345.2804582000026,None,23.51851851851852,1336.0451599399967,0.016600759990978986,5.016149359995325,,,,,,,,,,,,,,,,,,,,,,,,,,,,,,,,,,,,,,,,,,,,,,,,,,,,,5,m,28,r,MH,,2,2022_Jul_14_1141,2020.2.10,acceptmap-regulate,"['Right Face', 'Left Face', 'Right Face', 'Left Face']",59.977640334746866,
,,,,,,,1373.2973850999988,None,22.901234567901234,1367.6959506400017,0.015375060000224039,5.013685059995623,,,,,,,,,,,,,,,,,,,,,,,,,,,,,,,,,,,,,,,,,,,,,,,,,,,,,5,m,28,r,MH,,2,2022_Jul_14_1141,2020.2.10,acceptmap-regulate,"['Right Face', 'Left Face', 'Right Face', 'Left Face']",59.977640334746866,
,,,,,,,1401.3143113000042,None,23.45679012345679,1392.779830239997,0.014861859992379323,5.012663059998886,,,,,,,,,,,,,,,,,,,,,,,,,,,,,,,,,,,,,,,,,,,,,,,,,,,,,5,m,28,r,MH,,2,2022_Jul_14_1141,2020.2.10,acceptmap-regulate,"['Right Face', 'Left Face', 'Right Face', 'Left Face']",59.977640334746866,
,,,,,,,1429.331213700003,None,22.592592592592595,1419.0131437399978,0.014545860001817346,5.012017360000755,,,,,,,,,,,,,,,,,,,,,,,,,,,,,,,,,,,,,,,,,,,,,,,,,,,,,5,m,28,r,MH,,2,2022_Jul_14_1141,2020.2.10,acceptmap-regulate,"['Right Face', 'Left Face', 'Right Face', 'Left Face']",59.977640334746866,
,,,,,,,1457.3481333000018,None,23.39506172839506,1447.7139402400062,0.014784159997361712,5.012501559998782,,,,,,,,,,,,,,,,,,,,,,,,,,,,,,,,,,,,,,,,,,,,,,,,,,,,,5,m,28,r,MH,,2,2022_Jul_14_1141,2020.2.10,acceptmap-regulate,"['Right Face', 'Left Face', 'Right Face', 'Left Face']",59.977640334746866,
,,,,,,,,,,,0.014251959990360774,5.011401659990952,0.0,1451.014298239992,,,,,,,,,,,,,,,,,,,,,,,,,,,,,,,,,,,,,,,,,,,,,,,,,,,5,m,28,r,MH,,2,2022_Jul_14_1141,2020.2.10,acceptmap-regulate,"['Right Face', 'Left Face', 'Right Face', 'Left Face']",59.977640334746866,
,,,,,,,,,,,,,,,0.013920960001996718,None,-40.864197530864196,1453.1647616400078,,,,,,,,,,,,,,,,,,,,,,,,,,,,,,,,,,,,,,,,,,,,,,,5,m,28,r,MH,,2,2022_Jul_14_1141,2020.2.10,acceptmap-regulate,"['Right Face', 'Left Face', 'Right Face', 'Left Face']",59.977640334746866,
,,,,,,,,,30.123456790123456,1455.6945912399897,,,,,,,,,0.013484659990353975,None,,,,,,,,,,,,,,,,,,,,,,,,,,,,,,,,,,,,,,,,,,,,,5,m,28,r,MH,,2,2022_Jul_14_1141,2020.2.10,acceptmap-regulate,"['Right Face', 'Left Face', 'Right Face', 'Left Face']",59.977640334746866,
,,,,,,,,,,,0.0003191600044374354,None,,,,,,,,,26.728395061728392,1458.1306990399971,,,,,,,,,,,,,,,,,,,,,,,,,,,,,,,,,,,,,,,,,,,5,m,28,r,MH,,2,2022_Jul_14_1141,2020.2.10,acceptmap-regulate,"['Right Face', 'Left Face', 'Right Face', 'Left Face']",59.977640334746866,
,,,,,,,,,,,,,,,,,,,,,,,0.01427415999933146,None,58.2716049382716,1459.7472058399944,,,,,,,,,,,,,,,,,,,,,,,,,,,,,,,,,,,,,,,5,m,28,r,MH,,2,2022_Jul_14_1141,2020.2.10,acceptmap-regulate,"['Right Face', 'Left Face', 'Right Face', 'Left Face']",59.977640334746866,
,,,,,,,,,,,,,,,,,,,,,,,,,,,0.01446226000552997,None,55.4320987654321,1462.0975160399903,,,,,,,,,,,,,,,,,,,,,,,,,,,,,,,,,,,5,m,28,r,MH,,2,2022_Jul_14_1141,2020.2.10,acceptmap-regulate,"['Right Face', 'Left Face', 'Right Face', 'Left Face']",59.977640334746866,
,,,,,,,,,,,,,,,,,,,,,,,,,,,,,,,0.01414776000456186,None,56.851851851851855,1464.447592739998,,,,,,,,,,,,,,,,,,,,,,,,,,,,,,,5,m,28,r,MH,,2,2022_Jul_14_1141,2020.2.10,acceptmap-regulate,"['Right Face', 'Left Face', 'Right Face', 'Left Face']",59.977640334746866,
,,,,,,,,,,,,,,,,,,,,,,,,,,,,,,,,,,,0.014108960000157822,None,0.0,1466.4308190400043,,,,,,,,,,,,,,,,,,,,,,,,,,,5,m,28,r,MH,,2,2022_Jul_14_1141,2020.2.10,acceptmap-regulate,"['Right Face', 'Left Face', 'Right Face', 'Left Face']",59.977640334746866,
,,,,,,,,,,,,,,,,,,,,,,,,,,,,,,,,,,,,,,,0.01422105999517953,None,15.802469135802454,1468.7307899399893,,,,,,,,,,,,,,,,,,,,,,,5,m,28,r,MH,,2,2022_Jul_14_1141,2020.2.10,acceptmap-regulate,"['Right Face', 'Left Face', 'Right Face', 'Left Face']",59.977640334746866,
,,,,,,,,,,,,,,,,,,,,,,,,,,,,,,,,,,,,,,,,,,,0.014269160004914738,None,-22.469135802469125,1470.930506739991,,,,,,,,,,,,,,,,,,,5,m,28,r,MH,,2,2022_Jul_14_1141,2020.2.10,acceptmap-regulate,"['Right Face', 'Left Face', 'Right Face', 'Left Face']",59.977640334746866,
,,,,,,,,,,,,,,,,,,,,,,,,,,,,,,,,,,,,,,,,,,,,,,,0.014572160005627666,None,-27.28395061728395,1474.6481962399994,,,,,,,,,,,,,,,5,m,28,r,MH,,2,2022_Jul_14_1141,2020.2.10,acceptmap-regulate,"['Right Face', 'Left Face', 'Right Face', 'Left Face']",59.977640334746866,
,,,,,,,,,,,,,,,,,,,,,,,,,,,,,,,,,,,,,,,,,,,,,,,,,,,0.013597760000266135,None,0.49382716049382225,1478.0644024400099,,,,,,,,,,,5,m,28,r,MH,,2,2022_Jul_14_1141,2020.2.10,acceptmap-regulate,"['Right Face', 'Left Face', 'Right Face', 'Left Face']",59.977640334746866,
,,,,,,,,,,,,,,,,,,,,,,,,,,,,,,,,,,,,,,,,,,,,,,,,,,,,,,,0.014104759990004823,None,0.0,1481.7144850399927,,,,,,,5,m,28,r,MH,,2,2022_Jul_14_1141,2020.2.10,acceptmap-regulate,"['Right Face', 'Left Face', 'Right Face', 'Left Face']",59.977640334746866,
,,,,,,,,,,,,,,,,,,,,,,,,,,,,,,,,,,,,,,,,,,,,,,,,,,,,,,,,,,,0.014034960004210006,None,-25.679012345679013,1485.9978254400048,,,5,m,28,r,MH,,2,2022_Jul_14_1141,2020.2.10,acceptmap-regulate,"['Right Face', 'Left Face', 'Right Face', 'Left Face']",59.977640334746866,
1617.949588100004,1617.949588100004,None,space,103.14998680000281,1617.949588100004,None,1761.0175062999988,None,25.80246913580247,1753.1325833400042,,,,,,,,,,,,,,,,,,,,,,,,,,,,,,,,,,,,,,,,,,,,,,,,,,,,,0.014057759995921515,None,5,m,28,r,MH,,2,2022_Jul_14_1141,2020.2.10,acceptmap-regulate,"['Right Face', 'Left Face', 'Right Face', 'Left Face']",59.977640334746866,
,,,,,,,1789.034438200004,None,23.827160493827158,1778.7825950400002,0.015012859992566518,5.012959059989953,,,,,,,,,,,,,,,,,,,,,,,,,,,,,,,,,,,,,,,,,,,,,,,,,,,,,5,m,28,r,MH,,2,2022_Jul_14_1141,2020.2.10,acceptmap-regulate,"['Right Face', 'Left Face', 'Right Face', 'Left Face']",59.977640334746866,
,,,,,,,1817.051346799999,None,23.086419753086417,1807.3326224400007,0.015223059999698307,5.01336975999584,,,,,,,,,,,,,,,,,,,,,,,,,,,,,,,,,,,,,,,,,,,,,,,,,,,,,5,m,28,r,MH,,2,2022_Jul_14_1141,2020.2.10,acceptmap-regulate,"['Right Face', 'Left Face', 'Right Face', 'Left Face']",59.977640334746866,
,,,,,,,1845.0682575000028,None,23.45679012345679,1834.8003324399979,0.015421059993968811,5.0137734599920805,,,,,,,,,,,,,,,,,,,,,,,,,,,,,,,,,,,,,,,,,,,,,,,,,,,,,5,m,28,r,MH,,2,2022_Jul_14_1141,2020.2.10,acceptmap-regulate,"['Right Face', 'Left Face', 'Right Face', 'Left Face']",59.977640334746866,
,,,,,,,1873.0851772000024,None,23.024691358024693,1865.3172877399993,0.014645559997006785,5.012126959998568,,,,,,,,,,,,,,,,,,,,,,,,,,,,,,,,,,,,,,,,,,,,,,,,,,,,,5,m,28,r,MH,,2,2022_Jul_14_1141,2020.2.10,acceptmap-regulate,"['Right Face', 'Left Face', 'Right Face', 'Left Face']",59.977640334746866,
,,,,,,,1901.1020906000049,None,23.51851851851852,1895.6989368400027,0.014619759997003712,5.012160760001279,,,,,,,,,,,,,,,,,,,,,,,,,,,,,,,,,,,,,,,,,,,,,,,,,,,,,5,m,28,r,MH,,2,2022_Jul_14_1141,2020.2.10,acceptmap-regulate,"['Right Face', 'Left Face', 'Right Face', 'Left Face']",59.977640334746866,
,,,,,,,1929.1190018000052,None,22.901234567901234,1919.167718140001,0.01658245999715291,5.016107059993374,,,,,,,,,,,,,,,,,,,,,,,,,,,,,,,,,,,,,,,,,,,,,,,,,,,,,5,m,28,r,MH,,2,2022_Jul_14_1141,2020.2.10,acceptmap-regulate,"['Right Face', 'Left Face', 'Right Face', 'Left Face']",59.977640334746866,
,,,,,,,1957.1359280000033,None,23.45679012345679,1948.3173589399958,0.014672159995825496,5.0122861599957105,,,,,,,,,,,,,,,,,,,,,,,,,,,,,,,,,,,,,,,,,,,,,,,,,,,,,5,m,28,r,MH,,2,2022_Jul_14_1141,2020.2.10,acceptmap-regulate,"['Right Face', 'Left Face', 'Right Face', 'Left Face']",59.977640334746866,
,,,,,,,1985.1528543000022,None,23.39506172839506,1976.834621740003,0.015314960000978317,5.013593460003904,,,,,,,,,,,,,,,,,,,,,,,,,,,,,,,,,,,,,,,,,,,,,,,,,,,,,5,m,28,r,MH,,2,2022_Jul_14_1141,2020.2.10,acceptmap-regulate,"['Right Face', 'Left Face', 'Right Face', 'Left Face']",59.977640334746866,
,,,,,,,2013.169759000004,None,22.839506172839506,2005.3182278399981,0.014960959997551981,5.012854360000347,,,,,,,,,,,,,,,,,,,,,,,,,,,,,,,,,,,,,,,,,,,,,,,,,,,,,5,m,28,r,MH,,2,2022_Jul_14_1141,2020.2.10,acceptmap-regulate,"['Right Face', 'Left Face', 'Right Face', 'Left Face']",59.977640334746866,
,,,,,,,2041.186685200002,None,23.024691358024693,2031.1014079399974,0.014943959999072831,5.012816959999327,,,,,,,,,,,,,,,,,,,,,,,,,,,,,,,,,,,,,,,,,,,,,,,,,,,,,5,m,28,r,MH,,2,2022_Jul_14_1141,2020.2.10,acceptmap-regulate,"['Right Face', 'Left Face', 'Right Face', 'Left Face']",59.977640334746866,
,,,,,,,2069.2036047,None,23.333333333333332,2059.068896439996,0.015323059997172095,5.0135916599974735,,,,,,,,,,,,,,,,,,,,,,,,,,,,,,,,,,,,,,,,,,,,,,,,,,,,,5,m,28,r,MH,,2,2022_Jul_14_1141,2020.2.10,acceptmap-regulate,"['Right Face', 'Left Face', 'Right Face', 'Left Face']",59.977640334746866,
,,,,,,,2097.2204120000024,None,23.76543209876543,2089.8030607399996,0.014756060001673177,5.012418959995557,,,,,,,,,,,,,,,,,,,,,,,,,,,,,,,,,,,,,,,,,,,,,,,,,,,,,5,m,28,r,MH,,2,2022_Jul_14_1141,2020.2.10,acceptmap-regulate,"['Right Face', 'Left Face', 'Right Face', 'Left Face']",59.977640334746866,
,,,,,,,2125.237437200005,None,15.370370370370367,2118.3509151399994,0.014209259999915957,5.011345359998813,,,,,,,,,,,,,,,,,,,,,,,,,,,,,,,,,,,,,,,,,,,,,,,,,,,,,5,m,28,r,MH,,2,2022_Jul_14_1141,2020.2.10,acceptmap-regulate,"['Right Face', 'Left Face', 'Right Face', 'Left Face']",59.977640334746866,
,,,,,,,2153.2543483000045,None,23.76543209876543,2144.71947643999,0.016595260000030976,5.016115259997605,,,,,,,,,,,,,,,,,,,,,,,,,,,,,,,,,,,,,,,,,,,,,,,,,,,,,5,m,28,r,MH,,2,2022_Jul_14_1141,2020.2.10,acceptmap-regulate,"['Right Face', 'Left Face', 'Right Face', 'Left Face']",59.977640334746866,
,,,,,,,2181.2712730999992,None,23.39506172839506,2173.7014301399977,0.01493906000541756,5.012821860000258,,,,,,,,,,,,,,,,,,,,,,,,,,,,,,,,,,,,,,,,,,,,,,,,,,,,,5,m,28,r,MH,,2,2022_Jul_14_1141,2020.2.10,acceptmap-regulate,"['Right Face', 'Left Face', 'Right Face', 'Left Face']",59.977640334746866,
,,,,,,,,,,,0.0165867600007914,5.016101060005894,0.0,2177.5706530399984,,,,,,,,,,,,,,,,,,,,,,,,,,,,,,,,,,,,,,,,,,,,,,,,,,,5,m,28,r,MH,,2,2022_Jul_14_1141,2020.2.10,acceptmap-regulate,"['Right Face', 'Left Face', 'Right Face', 'Left Face']",59.977640334746866,
,,,,,,,,,,,,,,,0.014065260002098512,None,-25.555555555555557,2179.6208630399997,,,,,,,,,,,,,,,,,,,,,,,,,,,,,,,,,,,,,,,,,,,,,,,5,m,28,r,MH,,2,2022_Jul_14_1141,2020.2.10,acceptmap-regulate,"['Right Face', 'Left Face', 'Right Face', 'Left Face']",59.977640334746866,
,,,,,,,,,39.44444444444444,2182.7004846400014,,,,,,,,,0.013894259995140601,None,,,,,,,,,,,,,,,,,,,,,,,,,,,,,,,,,,,,,,,,,,,,,5,m,28,r,MH,,2,2022_Jul_14_1141,2020.2.10,acceptmap-regulate,"['Right Face', 'Left Face', 'Right Face', 'Left Face']",59.977640334746866,
,,,,,,,,,,,0.0009428599951206706,None,,,,,,,,,34.19753086419753,2186.0712955400013,,,,,,,,,,,,,,,,,,,,,,,,,,,,,,,,,,,,,,,,,,,5,m,28,r,MH,,2,2022_Jul_14_1141,2020.2.10,acceptmap-regulate,"['Right Face', 'Left Face', 'Right Face', 'Left Face']",59.977640334746866,
,,,,,,,,,,,,,,,,,,,,,,,0.013521059998311102,None,39.567901234567906,2188.5873410399945,,,,,,,,,,,,,,,,,,,,,,,,,,,,,,,,,,,,,,,5,m,28,r,MH,,2,2022_Jul_14_1141,2020.2.10,acceptmap-regulate,"['Right Face', 'Left Face', 'Right Face', 'Left Face']",59.977640334746866,
,,,,,,,,,,,,,,,,,,,,,,,,,,,0.014175260002957657,None,39.44444444444444,2191.170997540001,,,,,,,,,,,,,,,,,,,,,,,,,,,,,,,,,,,5,m,28,r,MH,,2,2022_Jul_14_1141,2020.2.10,acceptmap-regulate,"['Right Face', 'Left Face', 'Right Face', 'Left Face']",59.977640334746866,
,,,,,,,,,,,,,,,,,,,,,,,,,,,,,,,0.013858359998266678,None,59.07407407407407,2193.170697139998,,,,,,,,,,,,,,,,,,,,,,,,,,,,,,,5,m,28,r,MH,,2,2022_Jul_14_1141,2020.2.10,acceptmap-regulate,"['Right Face', 'Left Face', 'Right Face', 'Left Face']",59.977640334746866,
,,,,,,,,,,,,,,,,,,,,,,,,,,,,,,,,,,,0.014180359998135827,None,-13.703703703703695,2195.804270639994,,,,,,,,,,,,,,,,,,,,,,,,,,,5,m,28,r,MH,,2,2022_Jul_14_1141,2020.2.10,acceptmap-regulate,"['Right Face', 'Left Face', 'Right Face', 'Left Face']",59.977640334746866,
,,,,,,,,,,,,,,,,,,,,,,,,,,,,,,,,,,,,,,,0.013949760003015399,None,10.864197530864203,2197.853905240001,,,,,,,,,,,,,,,,,,,,,,,5,m,28,r,MH,,2,2022_Jul_14_1141,2020.2.10,acceptmap-regulate,"['Right Face', 'Left Face', 'Right Face', 'Left Face']",59.977640334746866,
,,,,,,,,,,,,,,,,,,,,,,,,,,,,,,,,,,,,,,,,,,,0.014348959994094912,None,-17.77777777777777,2199.536973739996,,,,,,,,,,,,,,,,,,,5,m,28,r,MH,,2,2022_Jul_14_1141,2020.2.10,acceptmap-regulate,"['Right Face', 'Left Face', 'Right Face', 'Left Face']",59.977640334746866,
,,,,,,,,,,,,,,,,,,,,,,,,,,,,,,,,,,,,,,,,,,,,,,,0.014627460004703607,None,-19.87654320987656,2202.9878658399903,,,,,,,,,,,,,,,5,m,28,r,MH,,2,2022_Jul_14_1141,2020.2.10,acceptmap-regulate,"['Right Face', 'Left Face', 'Right Face', 'Left Face']",59.977640334746866,
,,,,,,,,,,,,,,,,,,,,,,,,,,,,,,,,,,,,,,,,,,,,,,,,,,,0.013767460004601162,None,22.34567901234567,2205.0211616400047,,,,,,,,,,,5,m,28,r,MH,,2,2022_Jul_14_1141,2020.2.10,acceptmap-regulate,"['Right Face', 'Left Face', 'Right Face', 'Left Face']",59.977640334746866,
,,,,,,,,,,,,,,,,,,,,,,,,,,,,,,,,,,,,,,,,,,,,,,,,,,,,,,,0.013827459995809477,None,0.0,2207.3039463400055,,,,,,,5,m,28,r,MH,,2,2022_Jul_14_1141,2020.2.10,acceptmap-regulate,"['Right Face', 'Left Face', 'Right Face', 'Left Face']",59.977640334746866,
,,,,,,,,,,,,,,,,,,,,,,,,,,,,,,,,,,,,,,,,,,,,,,,,,,,,,,,,,,,0.014372459991136566,None,-99.50617283950618,2209.838001239994,,,5,m,28,r,MH,,2,2022_Jul_14_1141,2020.2.10,acceptmap-regulate,"['Right Face', 'Left Face', 'Right Face', 'Left Face']",59.977640334746866,
2375.939683100005,2375.939683100005,None,space,39.04818769999838,2375.939683100005,None,2454.0236969000034,None,25.925925925925924,2446.4205594400046,,,,,,,,,,,,,,,,,,,,,,,,,,,,,,,,,,,,,,,,,,,,,,,,,,,,,0.013700160001462791,None,5,m,28,r,MH,,2,2022_Jul_14_1141,2020.2.10,acceptmap-regulate,"['Right Face', 'Left Face', 'Right Face', 'Left Face']",59.977640334746866,
,,,,,,,2482.0406089000026,None,23.51851851851852,2475.670712439998,0.01655145999393426,5.016018459995394,,,,,,,,,,,,,,,,,,,,,,,,,,,,,,,,,,,,,,,,,,,,,,,,,,,,,5,m,28,r,MH,,2,2022_Jul_14_1141,2020.2.10,acceptmap-regulate,"['Right Face', 'Left Face', 'Right Face', 'Left Face']",59.977640334746866,
,,,,,,,2510.0575419000015,None,19.38271604938272,2504.3543674399916,0.01658945999952266,5.016086560004624,,,,,,,,,,,,,,,,,,,,,,,,,,,,,,,,,,,,,,,,,,,,,,,,,,,,,5,m,28,r,MH,,2,2022_Jul_14_1141,2020.2.10,acceptmap-regulate,"['Right Face', 'Left Face', 'Right Face', 'Left Face']",59.977640334746866,
,,,,,,,2538.0744520000007,None,23.086419753086417,2533.371267540002,0.01658856000722153,5.01622046000557,,,,,,,,,,,,,,,,,,,,,,,,,,,,,,,,,,,,,,,,,,,,,,,,,,,,,5,m,28,r,MH,,2,2022_Jul_14_1141,2020.2.10,acceptmap-regulate,"['Right Face', 'Left Face', 'Right Face', 'Left Face']",59.977640334746866,
,,,,,,,2566.091353200005,None,15.864197530864196,2557.2738302399957,0.016595459994277917,5.016151159994479,,,,,,,,,,,,,,,,,,,,,,,,,,,,,,,,,,,,,,,,,,,,,,,,,,,,,5,m,28,r,MH,,2,2022_Jul_14_1141,2020.2.10,acceptmap-regulate,"['Right Face', 'Left Face', 'Right Face', 'Left Face']",59.977640334746866,
,,,,,,,2594.108277799998,None,15.432098765432102,2588.2051031399897,0.014290060003986582,5.0114941600040765,,,,,,,,,,,,,,,,,,,,,,,,,,,,,,,,,,,,,,,,,,,,,,,,,,,,,5,m,28,r,MH,,2,2022_Jul_14_1141,2020.2.10,acceptmap-regulate,"['Right Face', 'Left Face', 'Right Face', 'Left Face']",59.977640334746866,
,,,,,,,2622.125193300002,None,50.0,2614.4219949400067,0.016601660005107988,5.016107960007503,,,,,,,,,,,,,,,,,,,,,,,,,,,,,,,,,,,,,,,,,,,,,,,,,,,,,5,m,28,r,MH,,2,2022_Jul_14_1141,2020.2.10,acceptmap-regulate,"['Right Face', 'Left Face', 'Right Face', 'Left Face']",59.977640334746866,
,,,,,,,2650.1421075000035,None,50.0,2646.4389542399877,0.01659025999106234,5.0161984599908465,,,,,,,,,,,,,,,,,,,,,,,,,,,,,,,,,,,,,,,,,,,,,,,,,,,,,5,m,28,r,MH,,2,2022_Jul_14_1141,2020.2.10,acceptmap-regulate,"['Right Face', 'Left Face', 'Right Face', 'Left Face']",59.977640334746866,
,,,,,,,2678.1590249,None,50.0,2674.4558694399966,0.01659846000984544,5.016237960007857,,,,,,,,,,,,,,,,,,,,,,,,,,,,,,,,,,,,,,,,,,,,,,,,,,,,,5,m,28,r,MH,,2,2022_Jul_14_1141,2020.2.10,acceptmap-regulate,"['Right Face', 'Left Face', 'Right Face', 'Left Face']",59.977640334746866,
,,,,,,,2706.1759340999997,None,48.95061728395062,2700.4744332399932,0.016595959998085164,5.016221359997871,,,,,,,,,,,,,,,,,,,,,,,,,,,,,,,,,,,,,,,,,,,,,,,,,,,,,5,m,28,r,MH,,2,2022_Jul_14_1141,2020.2.10,acceptmap-regulate,"['Right Face', 'Left Face', 'Right Face', 'Left Face']",59.977640334746866,
,,,,,,,2734.1928491,None,50.0,2726.4917031400037,0.014918260007107165,5.012877860004664,,,,,,,,,,,,,,,,,,,,,,,,,,,,,,,,,,,,,,,,,,,,,,,,,,,,,5,m,28,r,MH,,2,2022_Jul_14_1141,2020.2.10,acceptmap-regulate,"['Right Face', 'Left Face', 'Right Face', 'Left Face']",59.977640334746866,
,,,,,,,2762.2097666000045,None,50.0,2756.508556340006,0.014564259996404871,5.012191159992653,,,,,,,,,,,,,,,,,,,,,,,,,,,,,,,,,,,,,,,,,,,,,,,,,,,,,5,m,28,r,MH,,2,2022_Jul_14_1141,2020.2.10,acceptmap-regulate,"['Right Face', 'Left Face', 'Right Face', 'Left Face']",59.977640334746866,
,,,,,,,2790.2266708000025,None,50.0,2786.523553439998,0.014643359994806815,5.012439859994629,,,,,,,,,,,,,,,,,,,,,,,,,,,,,,,,,,,,,,,,,,,,,,,,,,,,,5,m,28,r,MH,,2,2022_Jul_14_1141,2020.2.10,acceptmap-regulate,"['Right Face', 'Left Face', 'Right Face', 'Left Face']",59.977640334746866,
,,,,,,,2818.243599900001,None,50.0,2812.5425721400024,0.0165969599984237,5.016240159995505,,,,,,,,,,,,,,,,,,,,,,,,,,,,,,,,,,,,,,,,,,,,,,,,,,,,,5,m,28,r,MH,,2,2022_Jul_14_1141,2020.2.10,acceptmap-regulate,"['Right Face', 'Left Face', 'Right Face', 'Left Face']",59.977640334746866,
,,,,,,,2846.260518000003,None,48.51851851851852,2838.5590110400008,0.014455059994361363,5.011947759994655,,,,,,,,,,,,,,,,,,,,,,,,,,,,,,,,,,,,,,,,,,,,,,,,,,,,,5,m,28,r,MH,,2,2022_Jul_14_1141,2020.2.10,acceptmap-regulate,"['Right Face', 'Left Face', 'Right Face', 'Left Face']",59.977640334746866,
,,,,,,,2874.2774407000034,None,23.88888888888889,2868.5742721399947,0.014942659996449947,5.012964459994691,,,,,,,,,,,,,,,,,,,,,,,,,,,,,,,,,,,,,,,,,,,,,,,,,,,,,5,m,28,r,MH,,2,2022_Jul_14_1141,2020.2.10,acceptmap-regulate,"['Right Face', 'Left Face', 'Right Face', 'Left Face']",59.977640334746866,
,,,,,,,,,,,0.01659646000189241,5.0162425599992275,0.0,2868.6266974399987,,,,,,,,,,,,,,,,,,,,,,,,,,,,,,,,,,,,,,,,,,,,,,,,,,,5,m,28,r,MH,,2,2022_Jul_14_1141,2020.2.10,acceptmap-regulate,"['Right Face', 'Left Face', 'Right Face', 'Left Face']",59.977640334746866,
,,,,,,,,,,,,,,,0.014513160000205971,None,-32.96296296296296,2871.143877940005,,,,,,,,,,,,,,,,,,,,,,,,,,,,,,,,,,,,,,,,,,,,,,,5,m,28,r,MH,,2,2022_Jul_14_1141,2020.2.10,acceptmap-regulate,"['Right Face', 'Left Face', 'Right Face', 'Left Face']",59.977640334746866,
,,,,,,,,,32.160493827160494,2872.923272339998,,,,,,,,,0.013709859995287843,None,,,,,,,,,,,,,,,,,,,,,,,,,,,,,,,,,,,,,,,,,,,,,5,m,28,r,MH,,2,2022_Jul_14_1141,2020.2.10,acceptmap-regulate,"['Right Face', 'Left Face', 'Right Face', 'Left Face']",59.977640334746866,
,,,,,,,,,,,0.0009922600002028048,None,,,,,,,,,33.45679012345679,2875.41041733999,,,,,,,,,,,,,,,,,,,,,,,,,,,,,,,,,,,,,,,,,,,5,m,28,r,MH,,2,2022_Jul_14_1141,2020.2.10,acceptmap-regulate,"['Right Face', 'Left Face', 'Right Face', 'Left Face']",59.977640334746866,
,,,,,,,,,,,,,,,,,,,,,,,0.013866260007489473,None,50.18518518518519,2876.877038339997,,,,,,,,,,,,,,,,,,,,,,,,,,,,,,,,,,,,,,,5,m,28,r,MH,,2,2022_Jul_14_1141,2020.2.10,acceptmap-regulate,"['Right Face', 'Left Face', 'Right Face', 'Left Face']",59.977640334746866,
,,,,,,,,,,,,,,,,,,,,,,,,,,,0.013917659998696763,None,29.01234567901235,2879.8776077400034,,,,,,,,,,,,,,,,,,,,,,,,,,,,,,,,,,,5,m,28,r,MH,,2,2022_Jul_14_1141,2020.2.10,acceptmap-regulate,"['Right Face', 'Left Face', 'Right Face', 'Left Face']",59.977640334746866,
,,,,,,,,,,,,,,,,,,,,,,,,,,,,,,,0.01337645999592496,None,49.25925925925927,2882.227482440001,,,,,,,,,,,,,,,,,,,,,,,,,,,,,,,5,m,28,r,MH,,2,2022_Jul_14_1141,2020.2.10,acceptmap-regulate,"['Right Face', 'Left Face', 'Right Face', 'Left Face']",59.977640334746866,
,,,,,,,,,,,,,,,,,,,,,,,,,,,,,,,,,,,0.013544759996875655,None,-82.71604938271605,2886.16074924,,,,,,,,,,,,,,,,,,,,,,,,,,,5,m,28,r,MH,,2,2022_Jul_14_1141,2020.2.10,acceptmap-regulate,"['Right Face', 'Left Face', 'Right Face', 'Left Face']",59.977640334746866,
,,,,,,,,,,,,,,,,,,,,,,,,,,,,,,,,,,,,,,,0.01362855999468593,None,22.222222222222214,2888.460589339993,,,,,,,,,,,,,,,,,,,,,,,5,m,28,r,MH,,2,2022_Jul_14_1141,2020.2.10,acceptmap-regulate,"['Right Face', 'Left Face', 'Right Face', 'Left Face']",59.977640334746866,
,,,,,,,,,,,,,,,,,,,,,,,,,,,,,,,,,,,,,,,,,,,0.013820260006468743,None,-17.530864197530875,2889.9102975399946,,,,,,,,,,,,,,,,,,,5,m,28,r,MH,,2,2022_Jul_14_1141,2020.2.10,acceptmap-regulate,"['Right Face', 'Left Face', 'Right Face', 'Left Face']",59.977640334746866,
,,,,,,,,,,,,,,,,,,,,,,,,,,,,,,,,,,,,,,,,,,,,,,,0.014109460003965069,None,0.0,2890.8269904400076,,,,,,,,,,,,,,,5,m,28,r,MH,,2,2022_Jul_14_1141,2020.2.10,acceptmap-regulate,"['Right Face', 'Left Face', 'Right Face', 'Left Face']",59.977640334746866,
,,,,,,,,,,,,,,,,,,,,,,,,,,,,,,,,,,,,,,,,,,,,,,,,,,,0.014089659991441295,None,0.0,2891.660902439995,,,,,,,,,,,5,m,28,r,MH,,2,2022_Jul_14_1141,2020.2.10,acceptmap-regulate,"['Right Face', 'Left Face', 'Right Face', 'Left Face']",59.977640334746866,
,,,,,,,,,,,,,,,,,,,,,,,,,,,,,,,,,,,,,,,,,,,,,,,,,,,,,,,0.013522660003218334,None,0.0,2892.760544439996,,,,,,,5,m,28,r,MH,,2,2022_Jul_14_1141,2020.2.10,acceptmap-regulate,"['Right Face', 'Left Face', 'Right Face', 'Left Face']",59.977640334746866,
,,,,,,,,,,,,,,,,,,,,,,,,,,,,,,,,,,,,,,,,,,,,,,,,,,,,,,,,,,,0.013887159999285359,None,0.0,2896.7936998399964,,,5,m,28,r,MH,,2,2022_Jul_14_1141,2020.2.10,acceptmap-regulate,"['Right Face', 'Left Face', 'Right Face', 'Left Face']",59.977640334746866,
,,,,,,,,,,,,,,,,,,,,,,,,,,,,,,,,,,,,,,,,,,,,,,,,,,,,,,,,,,,,,,,0.0140970600041328,None,,,,,,,,,,,,,
