square,location,corrAns,trials.thisRepN,trials.thisTrialN,trials.thisN,trials.thisIndex,trials_2.thisRepN,trials_2.thisTrialN,trials_2.thisN,trials_2.thisIndex,fixation_1.started,fixation_1.stopped,grid_lines.started,grid_lines.stopped,target_square.started,target_square.stopped,fixation_2.started,fixation_2.stopped,response.corr,response.x,response.y,response.leftButton,response.click_left,response.click_right,response.started,response.stopped,ScoreReportText.started,ScoreReportText.stopped,ScoreReportResponse.keys,ScoreReportResponse.started,ScoreReportResponse.stopped,response_2.x,response_2.y,response_2.leftButton,grid_lines_2.started,grid_lines_2.stopped,target_square_2.started,target_square_2.stopped,fixation_3.started,fixation_3.stopped,response_2.click,response_2.corr,response_2.started,response_2.stopped,BodySiteInstructionText.started,BodySiteImg.started,BodySiteImg.stopped,BodySiteInstructionRead.keys,BodySiteInstructionRead.rt,BodySiteInstructionRead.started,BodySiteInstructionRead.stopped,IntensityRating.response,IntensityRating.rt,IntensityRating.started,IntensityRating.stopped,response.click,response.rt_left,response.rt_right,response_2.rt_left,response_2.rt_right,subject number,gender,distractMap first- or second-half (1 or 2),session,handedness,scanner,date,psychopyVersion,expName,frameRate,body_site_order,
6,"[0.2, 0]",None,0,0,0,0,,,,,1001.6795771000907,None,1002.7129851998761,None,1002.7129851998761,1003.7129469001666,1003.696303000208,None,1,-0.13703703703703704,0.08888888888888889,"[0, 0, 0]",0,0,1002.7129851998761,None,,,,,,,,,,,,,,,,,,,,,,,,,,,,,,,,,,,1,M,1,23,r,CIB,2021_Sep_07_1054,2020.2.10,distractmap1,59.99818811076909,"['Left Arm', 'Chest', 'Right Face', 'Right Leg']",
6,"[0.2, 0]",1,0,1,1,1,,,,,,,1004.6962318001315,None,1004.6962318001315,1005.6963193002157,1005.6796254999936,1006.6796288001351,1,-0.13703703703703704,0.08888888888888889,"[0, 0, 0]",0,0,1004.6962318001315,None,,,,,,,,,,,,,,,,,,,,,,,,,,,,,,,,,,,1,M,1,23,r,CIB,2021_Sep_07_1054,2020.2.10,distractmap1,59.99818811076909,"['Left Arm', 'Chest', 'Right Face', 'Right Leg']",
2,"[0, 0.2]",0,0,2,2,2,,,,,,,1006.6963186999783,None,1006.6963186999783,1007.6963285002857,1007.6796559998766,1008.6796308001503,1,-0.13703703703703704,0.08888888888888889,"[0, 0, 0]",0,0,1006.6963186999783,None,,,,,,,,,,,,,,,,,,,,,,,,,,,,,,,,,,,1,M,1,23,r,CIB,2021_Sep_07_1054,2020.2.10,distractmap1,59.99818811076909,"['Left Arm', 'Chest', 'Right Face', 'Right Leg']",
9,"[0.2, -0.2]",0,0,3,3,3,,,,,,,1008.6963243000209,None,1008.6963243000209,1009.696364399977,1009.6796593000181,1010.6796631002799,1,-0.13703703703703704,0.08888888888888889,"[0, 0, 0]",0,0,1008.6963243000209,None,,,,,,,,,,,,,,,,,,,,,,,,,,,,,,,,,,,1,M,1,23,r,CIB,2021_Sep_07_1054,2020.2.10,distractmap1,59.99818811076909,"['Left Arm', 'Chest', 'Right Face', 'Right Leg']",
9,"[0.2, -0.2]",1,0,4,4,4,,,,,,,1010.6963356998749,None,1010.6963356998749,1011.6963331000879,1011.6796694002114,1012.679663900286,1,-0.13703703703703704,0.08888888888888889,"[0, 0, 0]",0,0,1010.6963356998749,None,,,,,,,,,,,,,,,,,,,,,,,,,,,,,,,,,,,1,M,1,23,r,CIB,2021_Sep_07_1054,2020.2.10,distractmap1,59.99818811076909,"['Left Arm', 'Chest', 'Right Face', 'Right Leg']",
6,"[0.2, 0]",0,0,5,5,5,,,,,,,1012.6963404999115,None,1012.6963404999115,1013.696362900082,1013.6796873002313,1014.6796745001338,1,-0.13703703703703704,0.08888888888888889,"[0, 0, 0]",0,0,1012.6963404999115,None,,,,,,,,,,,,,,,,,,,,,,,,,,,,,,,,,,,1,M,1,23,r,CIB,2021_Sep_07_1054,2020.2.10,distractmap1,59.99818811076909,"['Left Arm', 'Chest', 'Right Face', 'Right Leg']",
4,"[-0.2, 0]",0,0,6,6,6,,,,,,,1014.6963720000349,None,1014.6963720000349,1015.6963653001003,1015.6796842999756,1016.6796912001446,1,-0.13703703703703704,0.08888888888888889,"[0, 0, 0]",0,0,1014.6963720000349,None,,,,,,,,,,,,,,,,,,,,,,,,,,,,,,,,,,,1,M,1,23,r,CIB,2021_Sep_07_1054,2020.2.10,distractmap1,59.99818811076909,"['Left Arm', 'Chest', 'Right Face', 'Right Leg']",
3,"[0.2, 0.2]",0,0,7,7,7,,,,,,,1016.6963689001277,None,1016.6963689001277,1017.6963849002495,1017.6797023001127,1018.6797124999575,1,-0.13703703703703704,0.08888888888888889,"[0, 0, 0]",0,0,1016.6963689001277,None,,,,,,,,,,,,,,,,,,,,,,,,,,,,,,,,,,,1,M,1,23,r,CIB,2021_Sep_07_1054,2020.2.10,distractmap1,59.99818811076909,"['Left Arm', 'Chest', 'Right Face', 'Right Leg']",
3,"[0.2, 0.2]",1,0,8,8,8,,,,,,,1018.6963901999407,None,1018.6963901999407,1019.6964060999453,1019.6797088999301,1020.6797567000613,1,-0.13703703703703704,0.08888888888888889,"[0, 0, 0]",0,0,1018.6963901999407,None,,,,,,,,,,,,,,,,,,,,,,,,,,,,,,,,,,,1,M,1,23,r,CIB,2021_Sep_07_1054,2020.2.10,distractmap1,59.99818811076909,"['Left Arm', 'Chest', 'Right Face', 'Right Leg']",
8,"[0, -0.2]",0,0,9,9,9,,,,,,,1020.696411000099,None,1020.696411000099,1021.6964048999362,1021.6797772999853,1022.6797759002075,1,-0.13703703703703704,0.08888888888888889,"[0, 0, 0]",0,0,1020.696411000099,None,,,,,,,,,,,,,,,,,,,,,,,,,,,,,,,,,,,1,M,1,23,r,CIB,2021_Sep_07_1054,2020.2.10,distractmap1,59.99818811076909,"['Left Arm', 'Chest', 'Right Face', 'Right Leg']",
1,"[-0.2, 0.2]",0,0,10,10,10,,,,,,,1022.6963293999434,None,1022.6963293999434,1023.6964246998541,1023.679771500174,1024.6797993001528,1,-0.13703703703703704,0.08888888888888889,"[0, 0, 0]",0,0,1022.6963293999434,None,,,,,,,,,,,,,,,,,,,,,,,,,,,,,,,,,,,1,M,1,23,r,CIB,2021_Sep_07_1054,2020.2.10,distractmap1,59.99818811076909,"['Left Arm', 'Chest', 'Right Face', 'Right Leg']",
2,"[0, 0.2]",0,0,11,11,11,,,,,,,1024.696459400002,None,1024.696459400002,1025.6964255999774,1025.679791400209,1026.6797768999822,1,-0.13703703703703704,0.08888888888888889,"[0, 0, 0]",0,0,1024.696459400002,None,,,,,,,,,,,,,,,,,,,,,,,,,,,,,,,,,,,1,M,1,23,r,CIB,2021_Sep_07_1054,2020.2.10,distractmap1,59.99818811076909,"['Left Arm', 'Chest', 'Right Face', 'Right Leg']",
4,"[-0.2, 0]",0,0,12,12,12,,,,,,,1026.696471199859,None,1026.696471199859,1027.6964616002515,1027.6797708999366,1028.6797894998454,1,-0.13703703703703704,0.08888888888888889,"[0, 0, 0]",0,0,1026.696471199859,None,,,,,,,,,,,,,,,,,,,,,,,,,,,,,,,,,,,1,M,1,23,r,CIB,2021_Sep_07_1054,2020.2.10,distractmap1,59.99818811076909,"['Left Arm', 'Chest', 'Right Face', 'Right Leg']",
4,"[-0.2, 0]",1,0,13,13,13,,,,,,,1028.6963741001673,None,1028.6963741001673,1029.6964791999198,1029.6797911999747,1030.6798111000098,1,-0.13703703703703704,0.08888888888888889,"[0, 0, 0]",0,0,1028.6963741001673,None,,,,,,,,,,,,,,,,,,,,,,,,,,,,,,,,,,,1,M,1,23,r,CIB,2021_Sep_07_1054,2020.2.10,distractmap1,59.99818811076909,"['Left Arm', 'Chest', 'Right Face', 'Right Leg']",
8,"[0, -0.2]",0,0,14,14,14,,,,,,,1030.69647970004,None,1030.69647970004,1031.696489899885,1031.679851199966,1032.67981459992,1,-0.13703703703703704,0.08888888888888889,"[0, 0, 0]",0,0,1030.69647970004,None,,,,,,,,,,,,,,,,,,,,,,,,,,,,,,,,,,,1,M,1,23,r,CIB,2021_Sep_07_1054,2020.2.10,distractmap1,59.99818811076909,"['Left Arm', 'Chest', 'Right Face', 'Right Leg']",
5,"[0, 0]",0,0,15,15,15,,,,,,,1032.6964795002714,None,1032.6964795002714,1033.6965009002015,1033.6798274000175,1034.6798491002992,1,-0.13703703703703704,0.08888888888888889,"[0, 0, 0]",0,0,1032.6964795002714,None,,,,,,,,,,,,,,,,,,,,,,,,,,,,,,,,,,,1,M,1,23,r,CIB,2021_Sep_07_1054,2020.2.10,distractmap1,59.99818811076909,"['Left Arm', 'Chest', 'Right Face', 'Right Leg']",
5,"[0, 0]",1,0,16,16,16,,,,,,,1034.6965121002868,None,1034.6965121002868,1035.6965021002106,1035.679849700071,1036.6798662999645,1,-0.13703703703703704,0.08888888888888889,"[0, 0, 0]",0,0,1034.6965121002868,None,,,,,,,,,,,,,,,,,,,,,,,,,,,,,,,,,,,1,M,1,23,r,CIB,2021_Sep_07_1054,2020.2.10,distractmap1,59.99818811076909,"['Left Arm', 'Chest', 'Right Face', 'Right Leg']",
1,"[-0.2, 0.2]",0,0,17,17,17,,,,,,,1036.6965033002198,None,1036.6965033002198,1037.6963861002587,1037.6799049000256,1038.679872599896,1,-0.13703703703703704,0.08888888888888889,"[0, 0, 0]",0,0,1036.6965033002198,None,,,,,,,,,,,,,,,,,,,,,,,,,,,,,,,,,,,1,M,1,23,r,CIB,2021_Sep_07_1054,2020.2.10,distractmap1,59.99818811076909,"['Left Arm', 'Chest', 'Right Face', 'Right Leg']",
3,"[0.2, 0.2]",0,0,18,18,18,,,,,,,1038.6965220998973,None,1038.6965220998973,1039.6964070000686,1039.67987800017,1040.6798815000802,1,-0.13703703703703704,0.08888888888888889,"[0, 0, 0]",0,0,1038.6965220998973,None,,,,,,,,,,,,,,,,,,,,,,,,,,,,,,,,,,,1,M,1,23,r,CIB,2021_Sep_07_1054,2020.2.10,distractmap1,59.99818811076909,"['Left Arm', 'Chest', 'Right Face', 'Right Leg']",
6,"[0.2, 0]",0,0,19,19,19,,,,,,,1040.696520099882,None,1040.696520099882,1041.6965344999917,1041.6798870000057,1042.679899000097,1,-0.13703703703703704,0.08888888888888889,"[0, 0, 0]",0,0,1040.696520099882,None,,,,,,,,,,,,,,,,,,,,,,,,,,,,,,,,,,,1,M,1,23,r,CIB,2021_Sep_07_1054,2020.2.10,distractmap1,59.99818811076909,"['Left Arm', 'Chest', 'Right Face', 'Right Leg']",
1,"[-0.2, 0.2]",0,0,20,20,20,,,,,,,1042.6965661998838,None,1042.6965661998838,1043.6965462001972,1043.6799129000865,1044.6799297002144,1,-0.13703703703703704,0.08888888888888889,"[0, 0, 0]",0,0,1042.6965661998838,None,,,,,,,,,,,,,,,,,,,,,,,,,,,,,,,,,,,1,M,1,23,r,CIB,2021_Sep_07_1054,2020.2.10,distractmap1,59.99818811076909,"['Left Arm', 'Chest', 'Right Face', 'Right Leg']",
1,"[-0.2, 0.2]",1,0,21,21,21,,,,,,,1044.6965602999553,None,1044.6965602999553,1045.6965788002126,1045.6799115003087,1046.6799331000075,0,-0.13703703703703704,0.08888888888888889,"[0, 0, 0]",0,0,1044.6965602999553,None,,,,,,,,,,,,,,,,,,,,,,,,,,,,,,,,,,,1,M,1,23,r,CIB,2021_Sep_07_1054,2020.2.10,distractmap1,59.99818811076909,"['Left Arm', 'Chest', 'Right Face', 'Right Leg']",
1,"[-0.2, 0.2]",1,0,22,22,22,,,,,,,1046.6965608000755,None,1046.6965608000755,1047.6965725999326,1047.679937100038,1048.679939399939,1,-0.13703703703703704,0.08888888888888889,"[0, 0, 0]",0,0,1046.6965608000755,None,,,,,,,,,,,,,,,,,,,,,,,,,,,,,,,,,,,1,M,1,23,r,CIB,2021_Sep_07_1054,2020.2.10,distractmap1,59.99818811076909,"['Left Arm', 'Chest', 'Right Face', 'Right Leg']",
3,"[0.2, 0.2]",0,0,23,23,23,,,,,,,1048.6965886000544,None,1048.6965886000544,1049.6965924999677,1049.6799540999345,1050.6799598000944,1,-0.13703703703703704,0.08888888888888889,"[0, 0, 0]",0,0,1048.6965886000544,None,,,,,,,,,,,,,,,,,,,,,,,,,,,,,,,,,,,1,M,1,23,r,CIB,2021_Sep_07_1054,2020.2.10,distractmap1,59.99818811076909,"['Left Arm', 'Chest', 'Right Face', 'Right Leg']",
2,"[0, 0.2]",0,0,24,24,24,,,,,,,1050.6966015999205,None,1050.6966015999205,1051.696632400155,1051.6799554000609,1052.6799655002542,1,-0.13703703703703704,0.08888888888888889,"[0, 0, 0]",0,0,1050.6966015999205,None,,,,,,,,,,,,,,,,,,,,,,,,,,,,,,,,,,,1,M,1,23,r,CIB,2021_Sep_07_1054,2020.2.10,distractmap1,59.99818811076909,"['Left Arm', 'Chest', 'Right Face', 'Right Leg']",
1,"[-0.2, 0.2]",0,0,25,25,25,,,,,,,1052.69661250012,None,1052.69661250012,1053.6966369999573,1053.6799806002527,1054.6799846002832,1,-0.13703703703703704,0.08888888888888889,"[0, 0, 0]",0,0,1052.69661250012,None,,,,,,,,,,,,,,,,,,,,,,,,,,,,,,,,,,,1,M,1,23,r,CIB,2021_Sep_07_1054,2020.2.10,distractmap1,59.99818811076909,"['Left Arm', 'Chest', 'Right Face', 'Right Leg']",
7,"[-0.2, -0.2]",0,0,26,26,26,,,,,,,1054.6965709002689,None,1054.6965709002689,1055.6966373999603,1055.6799968001433,1056.6799985002726,1,-0.13703703703703704,0.08888888888888889,"[0, 0, 0]",0,0,1054.6965709002689,None,,,,,,,,,,,,,,,,,,,,,,,,,,,,,,,,,,,1,M,1,23,r,CIB,2021_Sep_07_1054,2020.2.10,distractmap1,59.99818811076909,"['Left Arm', 'Chest', 'Right Face', 'Right Leg']",
7,"[-0.2, -0.2]",1,0,27,27,27,,,,,,,1056.696644099895,None,1056.696644099895,1057.6966571998782,1057.6800008001737,1058.6799913002178,1,-0.13703703703703704,0.08888888888888889,"[0, 0, 0]",0,0,1056.696644099895,None,,,,,,,,,,,,,,,,,,,,,,,,,,,,,,,,,,,1,M,1,23,r,CIB,2021_Sep_07_1054,2020.2.10,distractmap1,59.99818811076909,"['Left Arm', 'Chest', 'Right Face', 'Right Leg']",
2,"[0, 0.2]",0,0,28,28,28,,,,,,,1058.696659500245,None,1058.696659500245,1059.6966854999773,1059.680016899947,1060.6800132002681,1,-0.13703703703703704,0.08888888888888889,"[0, 0, 0]",0,0,1058.696659500245,None,,,,,,,,,,,,,,,,,,,,,,,,,,,,,,,,,,,1,M,1,23,r,CIB,2021_Sep_07_1054,2020.2.10,distractmap1,59.99818811076909,"['Left Arm', 'Chest', 'Right Face', 'Right Leg']",
6,"[0.2, 0]",0,0,29,29,29,,,,,,,1060.6966645000502,None,1060.6966645000502,1061.696679700166,1061.6800279002637,1062.680045499932,1,-0.13703703703703704,0.08888888888888889,"[0, 0, 0]",0,0,1060.6966645000502,None,,,,,,,,,,,,,,,,,,,,,,,,,,,,,,,,,,,1,M,1,23,r,CIB,2021_Sep_07_1054,2020.2.10,distractmap1,59.99818811076909,"['Left Arm', 'Chest', 'Right Face', 'Right Leg']",
,,,,,,,,,,,,,,,,,,,,,,,,,,,1062.7300684000365,None,space,1062.7300684000365,None,,,,,,,,,,,,,,,,,,,,,,,,,,,,,,1,M,1,23,r,CIB,2021_Sep_07_1054,2020.2.10,distractmap1,59.99818811076909,"['Left Arm', 'Chest', 'Right Face', 'Right Leg']",
6,"[0.2, 0]",None,,,,,0,0,0,0,1128.0805052998476,None,,,,,,,,,,,,,,,,,,,,None,None,"[0, 0, 0]",1129.0971166002564,None,1129.0971166002564,1130.097173599992,1130.0805116002448,1131.080499799922,"[0, 0, 0]",1,1129.0971166002564,None,,,,,,,,,,,,,,,,,1,M,1,23,r,CIB,2021_Sep_07_1054,2020.2.10,distractmap1,59.99818811076909,"['Left Arm', 'Chest', 'Right Face', 'Right Leg']",
7,"[-0.2, -0.2]",None,,,,,0,1,1,1,,,,,,,,,,,,,,,,,,,,,,None,None,"[0, 0, 0]",1131.097198100295,1133.0972062000073,1131.097198100295,1132.097198500298,1132.080498999916,1133.0805239998735,"[0, 0, 0]",1,1131.097198100295,1133.0972062000073,,,,,,,,,,,,,,,,,1,M,1,23,r,CIB,2021_Sep_07_1054,2020.2.10,distractmap1,59.99818811076909,"['Left Arm', 'Chest', 'Right Face', 'Right Leg']",
6,"[0.2, 0]",1,,,,,0,2,2,2,,,,,,,,,,,,,,,,,,,,,,None,None,"[0, 0, 0]",1133.1138650001958,1135.113886800129,1133.1138650001958,1134.113880699966,1134.0972219002433,1135.097211400047,"[0, 0, 0]",1,1133.1138650001958,1135.113886800129,,,,,,,,,,,,,,,,,1,M,1,23,r,CIB,2021_Sep_07_1054,2020.2.10,distractmap1,59.99818811076909,"['Left Arm', 'Chest', 'Right Face', 'Right Leg']",
2,"[0, 0.2]",0,,,,,0,3,3,3,,,,,,,,,,,,,,,,,,,,,,None,None,"[0, 0, 0]",1135.1305275000632,1137.1305440003052,1135.1305275000632,1136.1305422000587,1136.1138988002203,1137.1139027001336,"[0, 0, 0]",1,1135.1305275000632,1137.1305440003052,,,,,,,,,,,,,,,,,1,M,1,23,r,CIB,2021_Sep_07_1054,2020.2.10,distractmap1,59.99818811076909,"['Left Arm', 'Chest', 'Right Face', 'Right Leg']",
5,"[0, 0]",0,,,,,0,4,4,4,,,,,,,,,,,,,,,,,,,,,,None,None,"[0, 0, 0]",1137.147223799955,1139.1472525000572,1137.147223799955,1138.1472463998944,1138.1305490001105,1139.130563300103,"[0, 0, 0]",1,1137.147223799955,1139.1472525000572,,,,,,,,,,,,,,,,,1,M,1,23,r,CIB,2021_Sep_07_1054,2020.2.10,distractmap1,59.99818811076909,"['Left Arm', 'Chest', 'Right Face', 'Right Leg']",
4,"[-0.2, 0]",0,,,,,0,5,5,5,,,,,,,,,,,,,,,,,,,,,,None,None,"[0, 0, 0]",1139.1639151000418,1141.1639299001545,1139.1639151000418,1140.163913700264,1140.1472503002733,1141.1472734999843,"[0, 0, 0]",1,1139.1639151000418,1141.1639299001545,,,,,,,,,,,,,,,,,1,M,1,23,r,CIB,2021_Sep_07_1054,2020.2.10,distractmap1,59.99818811076909,"['Left Arm', 'Chest', 'Right Face', 'Right Leg']",
4,"[-0.2, 0]",0,,,,,0,6,6,6,,,,,,,,,,,,,,,,,,,,,,None,None,"[0, 0, 0]",1141.1805782001466,1143.180586699862,1141.1805782001466,1142.1805811999366,1142.1639327001758,1143.163956000004,"[0, 0, 0]",1,1141.1805782001466,1143.180586699862,,,,,,,,,,,,,,,,,1,M,1,23,r,CIB,2021_Sep_07_1054,2020.2.10,distractmap1,59.99818811076909,"['Left Arm', 'Chest', 'Right Face', 'Right Leg']",
7,"[-0.2, -0.2]",0,,,,,0,7,7,7,,,,,,,,,,,,,,,,,,,,,,None,None,"[0, 0, 0]",1143.1972801000811,1145.1972790001892,1143.1972801000811,1144.1972806998529,1144.1806005998515,1145.1806939002126,"[0, 0, 0]",1,1143.1972801000811,1145.1972790001892,,,,,,,,,,,,,,,,,1,M,1,23,r,CIB,2021_Sep_07_1054,2020.2.10,distractmap1,59.99818811076909,"['Left Arm', 'Chest', 'Right Face', 'Right Leg']",
4,"[-0.2, 0]",1,,,,,0,8,8,8,,,,,,,,,,,,,,,,,,,,,,None,None,"[0, 0, 0]",1145.2139506000094,1147.2139800000004,1145.2139506000094,1146.2139627998695,1146.197304500267,1147.1973069999367,"[0, 0, 0]",1,1145.2139506000094,1147.2139800000004,,,,,,,,,,,,,,,,,1,M,1,23,r,CIB,2021_Sep_07_1054,2020.2.10,distractmap1,59.99818811076909,"['Left Arm', 'Chest', 'Right Face', 'Right Leg']",
3,"[0.2, 0.2]",0,,,,,0,9,9,9,,,,,,,,,,,,,,,,,,,,,,None,None,"[0, 0, 0]",1147.2306158002466,1149.2306317999028,1147.2306158002466,1148.2306321002543,1148.2139790002257,1149.213987099938,"[0, 0, 0]",1,1147.2306158002466,1149.2306317999028,,,,,,,,,,,,,,,,,1,M,1,23,r,CIB,2021_Sep_07_1054,2020.2.10,distractmap1,59.99818811076909,"['Left Arm', 'Chest', 'Right Face', 'Right Leg']",
5,"[0, 0]",0,,,,,0,10,10,10,,,,,,,,,,,,,,,,,,,,,,None,None,"[0, 0, 0]",1149.2473114002496,1151.2473118999042,1149.2473114002496,1150.2473311000504,1150.2306339000352,1151.230651800055,"[0, 0, 0]",1,1149.2473114002496,1151.2473118999042,,,,,,,,,,,,,,,,,1,M,1,23,r,CIB,2021_Sep_07_1054,2020.2.10,distractmap1,59.99818811076909,"['Left Arm', 'Chest', 'Right Face', 'Right Leg']",
3,"[0.2, 0.2]",1,,,,,0,11,11,11,,,,,,,,,,,,,,,,,,,,,,None,None,"[0, 0, 0]",1151.2640054002404,1153.264016999863,1151.2640054002404,1152.2639875002205,1152.2473348998465,1153.247349299956,"[0, 0, 0]",1,1151.2640054002404,1153.264016999863,,,,,,,,,,,,,,,,,1,M,1,23,r,CIB,2021_Sep_07_1054,2020.2.10,distractmap1,59.99818811076909,"['Left Arm', 'Chest', 'Right Face', 'Right Leg']",
1,"[-0.2, 0.2]",0,,,,,0,12,12,12,,,,,,,,,,,,,,,,,,,,,,None,None,"[0, 0, 0]",1153.280623300001,1155.2806541002356,1153.280623300001,1154.2806895002723,1154.2640086999163,1155.2640221002512,"[0, 0, 0]",1,1153.280623300001,1155.2806541002356,,,,,,,,,,,,,,,,,1,M,1,23,r,CIB,2021_Sep_07_1054,2020.2.10,distractmap1,59.99818811076909,"['Left Arm', 'Chest', 'Right Face', 'Right Leg']",
9,"[0.2, -0.2]",0,,,,,0,13,13,13,,,,,,,,,,,,,,,,,,,,,,None,None,"[0, 0, 0]",1155.2973485002294,1157.297375000082,1155.2973485002294,1156.2973637999967,1156.2806758000515,1157.280711099971,"[0, 0, 0]",1,1155.2973485002294,1157.297375000082,,,,,,,,,,,,,,,,,1,M,1,23,r,CIB,2021_Sep_07_1054,2020.2.10,distractmap1,59.99818811076909,"['Left Arm', 'Chest', 'Right Face', 'Right Leg']",
9,"[0.2, -0.2]",0,,,,,0,14,14,14,,,,,,,,,,,,,,,,,,,,,,None,None,"[0, 0, 0]",1157.3140455000103,1159.3140545999631,1157.3140455000103,1158.3140635001473,1158.2973698000424,1159.2973817000166,"[0, 0, 0]",0,1157.3140455000103,1159.3140545999631,,,,,,,,,,,,,,,,,1,M,1,23,r,CIB,2021_Sep_07_1054,2020.2.10,distractmap1,59.99818811076909,"['Left Arm', 'Chest', 'Right Face', 'Right Leg']",
8,"[0, -0.2]",0,,,,,0,15,15,15,,,,,,,,,,,,,,,,,,,,,,None,None,"[0, 0, 0]",1159.3307063998654,1161.330748199951,1159.3307063998654,1160.3307205000892,1160.3140634000301,1161.3140517999418,"[0, 0, 0]",1,1159.3307063998654,1161.330748199951,,,,,,,,,,,,,,,,,1,M,1,23,r,CIB,2021_Sep_07_1054,2020.2.10,distractmap1,59.99818811076909,"['Left Arm', 'Chest', 'Right Face', 'Right Leg']",
6,"[0.2, 0]",0,,,,,0,16,16,16,,,,,,,,,,,,,,,,,,,,,,None,None,"[0, 0, 0]",1161.3474106001668,1163.3474196000025,1161.3474106001668,1162.3474066001363,1162.3307560998946,1163.3307512002066,"[0, 0, 0]",1,1161.3474106001668,1163.3474196000025,,,,,,,,,,,,,,,,,1,M,1,23,r,CIB,2021_Sep_07_1054,2020.2.10,distractmap1,59.99818811076909,"['Left Arm', 'Chest', 'Right Face', 'Right Leg']",
3,"[0.2, 0.2]",0,,,,,0,17,17,17,,,,,,,,,,,,,,,,,,,,,,None,None,"[0, 0, 0]",1163.364082499873,1165.364107100293,1163.364082499873,1164.3640864999034,1164.3474298999645,1165.3474183999933,"[0, 0, 0]",1,1163.364082499873,1165.364107100293,,,,,,,,,,,,,,,,,1,M,1,23,r,CIB,2021_Sep_07_1054,2020.2.10,distractmap1,59.99818811076909,"['Left Arm', 'Chest', 'Right Face', 'Right Leg']",
6,"[0.2, 0]",1,,,,,0,18,18,18,,,,,,,,,,,,,,,,,,,,,,None,None,"[0, 0, 0]",1165.38078999985,1167.3807871001773,1165.38078999985,1166.380786600057,1166.3641031002626,1167.3641129001044,"[0, 0, 0]",0,1165.38078999985,1167.3807871001773,,,,,,,,,,,,,,,,,1,M,1,23,r,CIB,2021_Sep_07_1054,2020.2.10,distractmap1,59.99818811076909,"['Left Arm', 'Chest', 'Right Face', 'Right Leg']",
5,"[0, 0]",0,,,,,0,19,19,19,,,,,,,,,,,,,,,,,,,,,,None,None,"[0, 0, 0]",1167.397434399929,1169.3974633002654,1167.397434399929,1168.3974776002578,1168.3807848999277,1169.380784700159,"[0, 0, 0]",1,1167.397434399929,1169.3974633002654,,,,,,,,,,,,,,,,,1,M,1,23,r,CIB,2021_Sep_07_1054,2020.2.10,distractmap1,59.99818811076909,"['Left Arm', 'Chest', 'Right Face', 'Right Leg']",
7,"[-0.2, -0.2]",0,,,,,0,20,20,20,,,,,,,,,,,,,,,,,,,,,,None,None,"[0, 0, 0]",1169.4141347999685,1171.4141486003064,1169.4141347999685,1170.4141271999106,1170.3974774000235,1171.397485599853,"[0, 0, 0]",1,1169.4141347999685,1171.4141486003064,,,,,,,,,,,,,,,,,1,M,1,23,r,CIB,2021_Sep_07_1054,2020.2.10,distractmap1,59.99818811076909,"['Left Arm', 'Chest', 'Right Face', 'Right Leg']",
5,"[0, 0]",1,,,,,0,21,21,21,,,,,,,,,,,,,,,,,,,,,,None,None,"[0, 0, 0]",1171.4308052002452,1173.4308662000112,1171.4308052002452,1172.430814300198,1172.4141559000127,1173.4141541998833,"[0, 0, 0]",1,1171.4308052002452,1173.4308662000112,,,,,,,,,,,,,,,,,1,M,1,23,r,CIB,2021_Sep_07_1054,2020.2.10,distractmap1,59.99818811076909,"['Left Arm', 'Chest', 'Right Face', 'Right Leg']",
1,"[-0.2, 0.2]",0,,,,,0,22,22,22,,,,,,,,,,,,,,,,,,,,,,None,None,"[0, 0, 0]",1173.4474753001705,1175.4474885999225,1173.4474753001705,1174.4475131002255,1174.430832200218,1175.430844699964,"[0, 0, 0]",1,1173.4474753001705,1175.4474885999225,,,,,,,,,,,,,,,,,1,M,1,23,r,CIB,2021_Sep_07_1054,2020.2.10,distractmap1,59.99818811076909,"['Left Arm', 'Chest', 'Right Face', 'Right Leg']",
7,"[-0.2, -0.2]",0,,,,,0,23,23,23,,,,,,,,,,,,,,,,,,,,,,None,None,"[0, 0, 0]",1175.464167300146,1177.4641650998965,1175.464167300146,1176.464188599959,1176.447495299857,1177.4474857002497,"[0, 0, 0]",1,1175.464167300146,1177.4641650998965,,,,,,,,,,,,,,,,,1,M,1,23,r,CIB,2021_Sep_07_1054,2020.2.10,distractmap1,59.99818811076909,"['Left Arm', 'Chest', 'Right Face', 'Right Leg']",
9,"[0.2, -0.2]",0,,,,,0,24,24,24,,,,,,,,,,,,,,,,,,,,,,None,None,"[0, 0, 0]",1177.4808367001824,1179.480876199901,1177.4808367001824,1178.4808626999147,1178.4641927001067,1179.4641944998875,"[0, 0, 0]",1,1177.4808367001824,1179.480876199901,,,,,,,,,,,,,,,,,1,M,1,23,r,CIB,2021_Sep_07_1054,2020.2.10,distractmap1,59.99818811076909,"['Left Arm', 'Chest', 'Right Face', 'Right Leg']",
3,"[0.2, 0.2]",0,,,,,0,25,25,25,,,,,,,,,,,,,,,,,,,,,,None,None,"[0, 0, 0]",1179.4975165999494,1181.497531299945,1179.4975165999494,1180.497527600266,1180.4808805999346,1181.4808851000853,"[0, 0, 0]",1,1179.4975165999494,1181.497531299945,,,,,,,,,,,,,,,,,1,M,1,23,r,CIB,2021_Sep_07_1054,2020.2.10,distractmap1,59.99818811076909,"['Left Arm', 'Chest', 'Right Face', 'Right Leg']",
9,"[0.2, -0.2]",1,,,,,0,26,26,26,,,,,,,,,,,,,,,,,,,,,,None,None,"[0, 0, 0]",1181.5142195001245,1183.5142433000728,1181.5142195001245,1182.5142270000651,1182.4975376999937,1183.4975326000713,"[0, 0, 0]",0,1181.5142195001245,1183.5142433000728,,,,,,,,,,,,,,,,,1,M,1,23,r,CIB,2021_Sep_07_1054,2020.2.10,distractmap1,59.99818811076909,"['Left Arm', 'Chest', 'Right Face', 'Right Leg']",
6,"[0.2, 0]",0,,,,,0,27,27,27,,,,,,,,,,,,,,,,,,,,,,None,None,"[0, 0, 0]",1183.5309025002643,1185.5308987000026,1183.5309025002643,1184.5309083000757,1184.5142465000972,1185.514252900146,"[0, 0, 0]",1,1183.5309025002643,1185.5308987000026,,,,,,,,,,,,,,,,,1,M,1,23,r,CIB,2021_Sep_07_1054,2020.2.10,distractmap1,59.99818811076909,"['Left Arm', 'Chest', 'Right Face', 'Right Leg']",
2,"[0, 0.2]",0,,,,,0,28,28,28,,,,,,,,,,,,,,,,,,,,,,None,None,"[0, 0, 0]",1185.5475566000678,1187.5475654001348,1185.5475566000678,1186.5475852000527,1186.5309204002842,1187.5309234000742,"[0, 0, 0]",1,1185.5475566000678,1187.5475654001348,,,,,,,,,,,,,,,,,1,M,1,23,r,CIB,2021_Sep_07_1054,2020.2.10,distractmap1,59.99818811076909,"['Left Arm', 'Chest', 'Right Face', 'Right Leg']",
5,"[0, 0]",0,,,,,0,29,29,29,,,,,,,,,,,,,,,,,,,,,,None,None,"[0, 0, 0]",1187.564266799949,1189.5642869002186,1187.564266799949,1188.5642706002109,1188.5475826999173,1189.5475856000558,"[0, 0, 0]",1,1187.564266799949,1189.5642869002186,,,,,,,,,,,,,,,,,1,M,1,23,r,CIB,2021_Sep_07_1054,2020.2.10,distractmap1,59.99818811076909,"['Left Arm', 'Chest', 'Right Face', 'Right Leg']",
,,,,,,,,,,,,,,,,,,,,,,,,,,,1189.6142879002728,None,space,1189.6142879002728,None,,,,,,,,,,,,,,,,,,,,,,,,,,,,,,1,M,1,23,r,CIB,2021_Sep_07_1054,2020.2.10,distractmap1,59.99818811076909,"['Left Arm', 'Chest', 'Right Face', 'Right Leg']",
3,"[0.2, 0.2]",None,,,,,0,0,0,0,1447.3997647999786,None,,,,,,,,,,,,,,,,,,,,None,None,"[0, 0, 0]",1452.0995022999123,None,1452.0995022999123,1453.099508699961,1453.0828885999508,1454.0828900001943,"[0, 0, 0]",1,1452.0995022999123,None,1228.8315320000984,1228.8315320000984,None,space,188.9371158001013,1228.8315320000984,None,,,,,,,,,,1,M,1,23,r,CIB,2021_Sep_07_1054,2020.2.10,distractmap1,59.99818811076909,"['Left Arm', 'Chest', 'Right Face', 'Right Leg']",
3,"[0.2, 0.2]",None,,,,,0,1,1,1,,,,,,,,,,,,,,,,,,,,,,None,None,"[0, 0, 0]",1454.0995147000067,1456.099535100162,1454.0995147000067,1455.0995272002183,1455.0828871000558,1456.0828900001943,"[0, 0, 0]",1,1454.0995147000067,1456.099535100162,,,,,,,,,,,,,,,,,1,M,1,23,r,CIB,2021_Sep_07_1054,2020.2.10,distractmap1,59.99818811076909,"['Left Arm', 'Chest', 'Right Face', 'Right Leg']",
5,"[0, 0]",0,,,,,0,2,2,2,,,,,,,,,,,,,,,,,,,,,,None,None,"[0, 0, 0]",1456.1162220002152,1458.1162431002595,1456.1162220002152,1457.1162330000661,1457.0995451998897,1458.0995541000739,"[0, 0, 0]",1,1456.1162220002152,1458.1162431002595,,,,,,,,,,,,,,,,,1,M,1,23,r,CIB,2021_Sep_07_1054,2020.2.10,distractmap1,59.99818811076909,"['Left Arm', 'Chest', 'Right Face', 'Right Leg']",
1,"[-0.2, 0.2]",0,,,,,0,3,3,3,,,,,,,,,,,,,,,,,,,,,,None,None,"[0, 0, 0]",1458.132913700305,1460.1329119000584,1458.132913700305,1459.1329156998545,1459.1162427002564,1460.1162606002763,"[0, 0, 0]",1,1458.132913700305,1460.1329119000584,,,,,,,,,,,,,,,,,1,M,1,23,r,CIB,2021_Sep_07_1054,2020.2.10,distractmap1,59.99818811076909,"['Left Arm', 'Chest', 'Right Face', 'Right Leg']",
5,"[0, 0]",1,,,,,0,4,4,4,,,,,,,,,,,,,,,,,,,,,,None,None,"[0, 0, 0]",1460.1999977002852,None,1460.1999977002852,1461.1995744002052,1461.1829790999182,None,"[0, 0, 0]",1,1460.1999977002852,None,,,,,,,,,,,,,,,,,1,M,1,23,r,CIB,2021_Sep_07_1054,2020.2.10,distractmap1,59.99818811076909,"['Left Arm', 'Chest', 'Right Face', 'Right Leg']",
8,"[0, -0.2]",0,,,,,0,5,5,5,,,,,,,,,,,,,,,,,,,,,,None,None,"[0, 0, 0]",1462.166292199865,1464.1662876000628,1462.166292199865,1463.1662600999698,1463.149595099967,1464.1496023000218,"[0, 0, 0]",1,1462.166292199865,1464.1662876000628,,,,,,,,,,,,,,,,,1,M,1,23,r,CIB,2021_Sep_07_1054,2020.2.10,distractmap1,59.99818811076909,"['Left Arm', 'Chest', 'Right Face', 'Right Leg']",
5,"[0, 0]",1,,,,,0,6,6,6,,,,,,,,,,,,,,,,,,,,,,None,None,"[0, 0, 0]",1464.1829420998693,1466.1829705000855,1464.1829420998693,1465.1829397999682,1465.1663127001375,1466.166297700256,"[0, 0, 0]",1,1464.1829420998693,1466.1829705000855,,,,,,,,,,,,,,,,,1,M,1,23,r,CIB,2021_Sep_07_1054,2020.2.10,distractmap1,59.99818811076909,"['Left Arm', 'Chest', 'Right Face', 'Right Leg']",
7,"[-0.2, -0.2]",0,,,,,0,7,7,7,,,,,,,,,,,,,,,,,,,,,,None,None,"[0, 0, 0]",1466.199630800169,1468.199622800108,1466.199630800169,1467.1996182003058,1467.1829598001204,1468.182974100113,"[0, 0, 0]",1,1466.199630800169,1468.199622800108,,,,,,,,,,,,,,,,,1,M,1,23,r,CIB,2021_Sep_07_1054,2020.2.10,distractmap1,59.99818811076909,"['Left Arm', 'Chest', 'Right Face', 'Right Leg']",
5,"[0, 0]",1,,,,,0,8,8,8,,,,,,,,,,,,,,,,,,,,,,None,None,"[0, 0, 0]",1468.2163168000989,1470.2163197998889,1468.2163168000989,1469.21632830007,1469.1996527998708,1470.1996614001691,"[0, 0, 0]",1,1468.2163168000989,1470.2163197998889,,,,,,,,,,,,,,,,,1,M,1,23,r,CIB,2021_Sep_07_1054,2020.2.10,distractmap1,59.99818811076909,"['Left Arm', 'Chest', 'Right Face', 'Right Leg']",
7,"[-0.2, -0.2]",1,,,,,0,9,9,9,,,,,,,,,,,,,,,,,,,,,,None,None,"[0, 0, 0]",1470.233002200257,1472.2329836999997,1470.233002200257,1471.2330021001399,1471.2163391001523,1472.2163623999804,"[0, 0, 0]",0,1470.233002200257,1472.2329836999997,,,,,,,,,,,,,,,,,1,M,1,23,r,CIB,2021_Sep_07_1054,2020.2.10,distractmap1,59.99818811076909,"['Left Arm', 'Chest', 'Right Face', 'Right Leg']",
,,,,,,,,,,,1472.2496597999707,None,,,,,,,,,,,,,,,,,,,,,,,,,,,,,,,,,,,,,,,,15.802469135802468,706.9892990002409,,,,,,,,1,M,1,23,r,CIB,2021_Sep_07_1054,2020.2.10,distractmap1,59.99818811076909,"['Left Arm', 'Chest', 'Right Face', 'Right Leg']",
5,"[0, 0]",None,0,0,0,0,,,,,1490.0333116999827,None,1492.3164868000895,None,1492.3164868000895,1493.3164969999343,1493.2831685999408,1494.2831747001037,1,None,None,"[0, 0, 0]",,,1492.3164868000895,None,,,,,,,,,,,,,,,,,,,,,,,,,,,,0.015182499773800373,5.012516799848527,"[0, 0, 0]",,,,,1,M,1,23,r,CIB,2021_Sep_07_1054,2020.2.10,distractmap1,59.99818811076909,"['Left Arm', 'Chest', 'Right Face', 'Right Leg']",
5,"[0, 0]",1,0,1,1,1,,,,,,,1494.3164850003086,None,1494.3164850003086,1495.3164865998551,1495.2998538999818,1496.2998593002558,1,None,None,"[0, 0, 0]",,,1494.3164850003086,None,,,,,,,,,,,,,,,,,,,,,,,,,,,,,,"[0, 0, 0]",,,,,1,M,1,23,r,CIB,2021_Sep_07_1054,2020.2.10,distractmap1,59.99818811076909,"['Left Arm', 'Chest', 'Right Face', 'Right Leg']",
4,"[-0.2, 0]",0,0,2,2,2,,,,,,,1496.316510700155,1496.316510700155,1496.316510700155,1497.3165067001246,1497.2998575000092,1498.2998680002056,1,None,None,"[0, 0, 0]",,,1496.316510700155,1496.316510700155,,,,,,,,,,,,,,,,,,,,,,,,,,,,,,"[0, 0, 0]",,,,,1,M,1,23,r,CIB,2021_Sep_07_1054,2020.2.10,distractmap1,59.99818811076909,"['Left Arm', 'Chest', 'Right Face', 'Right Leg']",
2,"[0, 0.2]",0,0,3,3,3,,,,,,,1498.316519900225,1498.316519900225,1498.316519900225,1499.3165231002495,1499.2998824999668,1500.2998832999729,1,None,None,"[0, 0, 0]",,,1498.316519900225,1498.316519900225,,,,,,,,,,,,,,,,,,,,,,,,,,,,,,"[0, 0, 0]",,,,,1,M,1,23,r,CIB,2021_Sep_07_1054,2020.2.10,distractmap1,59.99818811076909,"['Left Arm', 'Chest', 'Right Face', 'Right Leg']",
6,"[0.2, 0]",0,0,4,4,4,,,,,,,1500.3823990002275,1500.3823990002275,1500.3823990002275,1501.38322360022,1501.38322360022,None,1,None,None,"[0, 0, 0]",,,1500.3823990002275,1500.3823990002275,,,,,,,,,,,,,,,,,,,,,,,,,,,,,,"[0, 0, 0]",,,,,1,M,1,23,r,CIB,2021_Sep_07_1054,2020.2.10,distractmap1,59.99818811076909,"['Left Arm', 'Chest', 'Right Face', 'Right Leg']",
8,"[0, -0.2]",0,0,5,5,5,,,,,,,1502.3332394999452,None,1502.3332394999452,1503.3332492001355,1503.3165555000305,1504.3165636002086,1,None,None,"[0, 0, 0]",,,1502.3332394999452,None,,,,,,,,,,,,,,,,,,,,,,,,,,,,,,"[0, 0, 0]",,,,,1,M,1,23,r,CIB,2021_Sep_07_1054,2020.2.10,distractmap1,59.99818811076909,"['Left Arm', 'Chest', 'Right Face', 'Right Leg']",
1,"[-0.2, 0.2]",0,0,6,6,6,,,,,,,1504.333246299997,1504.333246299997,1504.333246299997,1505.3332588002086,1505.3165696002543,1506.316575200297,1,None,None,"[0, 0, 0]",,,1504.333246299997,1504.333246299997,,,,,,,,,,,,,,,,,,,,,,,,,,,,,,"[0, 0, 0]",,,,,1,M,1,23,r,CIB,2021_Sep_07_1054,2020.2.10,distractmap1,59.99818811076909,"['Left Arm', 'Chest', 'Right Face', 'Right Leg']",
4,"[-0.2, 0]",0,0,7,7,7,,,,,,,1506.333263200242,1506.333263200242,1506.333263200242,1507.3332795002498,1507.3165827002376,1508.3165911003016,1,None,None,"[0, 0, 0]",,,1506.333263200242,1506.333263200242,,,,,,,,,,,,,,,,,,,,,,,,,,,,,,"[0, 0, 0]",,,,,1,M,1,23,r,CIB,2021_Sep_07_1054,2020.2.10,distractmap1,59.99818811076909,"['Left Arm', 'Chest', 'Right Face', 'Right Leg']",
8,"[0, -0.2]",0,0,8,8,8,,,,,,,1508.3332831002772,1508.3332831002772,1508.3332831002772,1509.3332893000916,1509.3166169002652,1510.3165949000977,1,None,None,"[0, 0, 0]",,,1508.3332831002772,1508.3332831002772,,,,,,,,,,,,,,,,,,,,,,,,,,,,,,"[0, 0, 0]",,,,,1,M,1,23,r,CIB,2021_Sep_07_1054,2020.2.10,distractmap1,59.99818811076909,"['Left Arm', 'Chest', 'Right Face', 'Right Leg']",
8,"[0, -0.2]",1,0,9,9,9,,,,,,,1510.3332970999181,1510.3332970999181,1510.3332970999181,1511.333305099979,1511.316620199941,1512.3166239000857,1,None,None,"[0, 0, 0]",,,1510.3332970999181,1510.3332970999181,,,,,,,,,,,,,,,,,,,,,,,,,,,,,,"[0, 0, 0]",,,,,1,M,1,23,r,CIB,2021_Sep_07_1054,2020.2.10,distractmap1,59.99818811076909,"['Left Arm', 'Chest', 'Right Face', 'Right Leg']",
,,,,,,,,,,,1512.3332997001708,None,,,,,,,,,,,,,,,,,,,,,,,,,,,,,,,,,,,,,,,,22.839506172839506,742.5733078005724,,,,,,,,1,M,1,23,r,CIB,2021_Sep_07_1054,2020.2.10,distractmap1,59.99818811076909,"['Left Arm', 'Chest', 'Right Face', 'Right Leg']",
6,"[0.2, 0]",None,,,,,0,0,0,0,1526.1670360001735,None,,,,,,,,,,,,,,,,,,,,None,None,"[0, 0, 0]",1532.400125999935,None,1532.400125999935,1533.4001472000964,1533.383475500159,1534.383477000054,"[0, 0, 0]",1,1532.400125999935,None,,,,,,,,,,0.01478319987654686,5.011865600012243,,,,,,1,M,1,23,r,CIB,2021_Sep_07_1054,2020.2.10,distractmap1,59.99818811076909,"['Left Arm', 'Chest', 'Right Face', 'Right Leg']",
1,"[-0.2, 0.2]",None,,,,,0,1,1,1,,,,,,,,,,,,,,,,,,,,,,None,None,"[0, 0, 0]",1534.4001441001892,1536.4001540001482,1534.4001441001892,1535.4001398002729,1535.3834764002822,1536.3834831002168,"[0, 0, 0]",1,1534.4001441001892,1536.4001540001482,,,,,,,,,,,,,,,,,1,M,1,23,r,CIB,2021_Sep_07_1054,2020.2.10,distractmap1,59.99818811076909,"['Left Arm', 'Chest', 'Right Face', 'Right Leg']",
6,"[0.2, 0]",1,,,,,0,2,2,2,,,,,,,,,,,,,,,,,,,,,,None,None,"[0, 0, 0]",1536.416798400227,1538.4168336000293,1536.416798400227,1537.4168242001906,1537.4001629999839,1538.4001620998606,"[0, 0, 0]",1,1536.416798400227,1538.4168336000293,,,,,,,,,,,,,,,,,1,M,1,23,r,CIB,2021_Sep_07_1054,2020.2.10,distractmap1,59.99818811076909,"['Left Arm', 'Chest', 'Right Face', 'Right Leg']",
4,"[-0.2, 0]",0,,,,,0,3,3,3,,,,,,,,,,,,,,,,,,,,,,None,None,"[0, 0, 0]",1538.433495900128,1540.4334976002574,1538.433495900128,1539.4334877002984,1539.4168440001085,1540.4168548001908,"[0, 0, 0]",1,1538.433495900128,1540.4334976002574,,,,,,,,,,,,,,,,,1,M,1,23,r,CIB,2021_Sep_07_1054,2020.2.10,distractmap1,59.99818811076909,"['Left Arm', 'Chest', 'Right Face', 'Right Leg']",
1,"[-0.2, 0.2]",0,,,,,0,4,4,4,,,,,,,,,,,,,,,,,,,,,,None,None,"[0, 0, 0]",1540.4997394001111,None,1540.4997394001111,1541.5002021002583,1541.4835025002249,None,"[0, 0, 0]",0,1540.4997394001111,None,,,,,,,,,,,,,,,,,1,M,1,23,r,CIB,2021_Sep_07_1054,2020.2.10,distractmap1,59.99818811076909,"['Left Arm', 'Chest', 'Right Face', 'Right Leg']",
8,"[0, -0.2]",0,,,,,0,5,5,5,,,,,,,,,,,,,,,,,,,,,,None,None,"[0, 0, 0]",1542.4668729999103,1544.4668839001097,1542.4668729999103,1543.4668640000746,1543.4501972999424,1544.450209400151,"[0, 0, 0]",1,1542.4668729999103,1544.4668839001097,,,,,,,,,,,,,,,,,1,M,1,23,r,CIB,2021_Sep_07_1054,2020.2.10,distractmap1,59.99818811076909,"['Left Arm', 'Chest', 'Right Face', 'Right Leg']",
1,"[-0.2, 0.2]",1,,,,,0,6,6,6,,,,,,,,,,,,,,,,,,,,,,None,None,"[0, 0, 0]",1544.483527699951,1546.4835481001064,1544.483527699951,1545.4835252999328,1545.466893200297,1546.4668995002285,"[0, 0, 0]",1,1544.483527699951,1546.4835481001064,,,,,,,,,,,,,,,,,1,M,1,23,r,CIB,2021_Sep_07_1054,2020.2.10,distractmap1,59.99818811076909,"['Left Arm', 'Chest', 'Right Face', 'Right Leg']",
8,"[0, -0.2]",1,,,,,0,7,7,7,,,,,,,,,,,,,,,,,,,,,,None,None,"[0, 0, 0]",1546.5002274001017,1548.500243499875,1546.5002274001017,1547.5002325000241,1547.4835446998477,1548.4835582002997,"[0, 0, 0]",1,1546.5002274001017,1548.500243499875,,,,,,,,,,,,,,,,,1,M,1,23,r,CIB,2021_Sep_07_1054,2020.2.10,distractmap1,59.99818811076909,"['Left Arm', 'Chest', 'Right Face', 'Right Leg']",
1,"[-0.2, 0.2]",1,,,,,0,8,8,8,,,,,,,,,,,,,,,,,,,,,,None,None,"[0, 0, 0]",1548.5169015000574,1550.5169257000089,1548.5169015000574,1549.516916200053,1549.5002585998736,1550.500258100219,"[0, 0, 0]",1,1548.5169015000574,1550.5169257000089,,,,,,,,,,,,,,,,,1,M,1,23,r,CIB,2021_Sep_07_1054,2020.2.10,distractmap1,59.99818811076909,"['Left Arm', 'Chest', 'Right Face', 'Right Leg']",
6,"[0.2, 0]",0,,,,,0,9,9,9,,,,,,,,,,,,,,,,,,,,,,None,None,"[0, 0, 0]",1550.5335699999705,1552.5335897998884,1550.5335699999705,1551.5335701000877,1551.516925800126,1552.516937999986,"[0, 0, 0]",1,1550.5335699999705,1552.5335897998884,,,,,,,,,,,,,,,,,1,M,1,23,r,CIB,2021_Sep_07_1054,2020.2.10,distractmap1,59.99818811076909,"['Left Arm', 'Chest', 'Right Face', 'Right Leg']",
,,,,,,,,,,,1552.550271899905,None,,,,,,,,,,,,,,,,,,,,,,,,,,,,,,,,,,,,,,,,15.061728395061733,787.0569969005883,,,,,,,,1,M,1,23,r,CIB,2021_Sep_07_1054,2020.2.10,distractmap1,59.99818811076909,"['Left Arm', 'Chest', 'Right Face', 'Right Leg']",
3,"[0.2, 0.2]",None,0,0,0,0,,,,,1570.38425750006,None,1572.6004204000346,None,1572.6004204000346,1573.6004173001274,1573.5837766001932,1574.5837844000198,1,None,None,"[0, 0, 0]",,,1572.6004204000346,None,,,,,,,,,,,,,,,,,,,,,,,,,,,,0.014712799806147814,5.011756299994886,"[0, 0, 0]",,,,,1,M,1,23,r,CIB,2021_Sep_07_1054,2020.2.10,distractmap1,59.99818811076909,"['Left Arm', 'Chest', 'Right Face', 'Right Leg']",
4,"[-0.2, 0]",0,0,1,1,1,,,,,,,1574.6004238002934,None,1574.6004238002934,1575.6004556999542,1575.5837850999087,1576.5838079000823,0,None,None,"[0, 0, 0]",,,1574.6004238002934,None,,,,,,,,,,,,,,,,,,,,,,,,,,,,,,"[0, 0, 0]",,,,,1,M,1,23,r,CIB,2021_Sep_07_1054,2020.2.10,distractmap1,59.99818811076909,"['Left Arm', 'Chest', 'Right Face', 'Right Leg']",
1,"[-0.2, 0.2]",0,0,2,2,2,,,,,,,1576.600462100003,1576.600462100003,1576.600462100003,1577.600463999901,1577.5837983000092,1578.5838115001097,1,None,None,"[0, 0, 0]",,,1576.600462100003,1576.600462100003,,,,,,,,,,,,,,,,,,,,,,,,,,,,,,"[0, 0, 0]",,,,,1,M,1,23,r,CIB,2021_Sep_07_1054,2020.2.10,distractmap1,59.99818811076909,"['Left Arm', 'Chest', 'Right Face', 'Right Leg']",
2,"[0, 0.2]",0,0,3,3,3,,,,,,,1578.6004753001034,1578.6004753001034,1578.6004753001034,1579.6004821001552,1579.5837882002816,1580.5838187001646,1,None,None,"[0, 0, 0]",,,1578.6004753001034,1578.6004753001034,,,,,,,,,,,,,,,,,,,,,,,,,,,,,,"[0, 0, 0]",,,,,1,M,1,23,r,CIB,2021_Sep_07_1054,2020.2.10,distractmap1,59.99818811076909,"['Left Arm', 'Chest', 'Right Face', 'Right Leg']",
2,"[0, 0.2]",1,0,4,4,4,,,,,,,1580.6508078998886,1580.6508078998886,1580.6508078998886,1581.6504863002338,1581.633823600132,None,0,None,None,"[0, 0, 0]",,,1580.6508078998886,1580.6508078998886,,,,,,,,,,,,,,,,,,,,,,,,,,,,,,"[0, 0, 0]",,,,,1,M,1,23,r,CIB,2021_Sep_07_1054,2020.2.10,distractmap1,59.99818811076909,"['Left Arm', 'Chest', 'Right Face', 'Right Leg']",
5,"[0, 0]",0,0,5,5,5,,,,,,,1582.617158500012,None,1582.617158500012,1583.617167700082,1583.600510300137,1584.6004877001978,1,None,None,"[0, 0, 0]",,,1582.617158500012,None,,,,,,,,,,,,,,,,,,,,,,,,,,,,,,"[0, 0, 0]",,,,,1,M,1,23,r,CIB,2021_Sep_07_1054,2020.2.10,distractmap1,59.99818811076909,"['Left Arm', 'Chest', 'Right Face', 'Right Leg']",
1,"[-0.2, 0.2]",0,0,6,6,6,,,,,,,1584.6171857002191,1584.6171857002191,1584.6171857002191,1585.6171853998676,1585.6005144002847,1586.6005065999925,1,None,None,"[0, 0, 0]",,,1584.6171857002191,1584.6171857002191,,,,,,,,,,,,,,,,,,,,,,,,,,,,,,"[0, 0, 0]",,,,,1,M,1,23,r,CIB,2021_Sep_07_1054,2020.2.10,distractmap1,59.99818811076909,"['Left Arm', 'Chest', 'Right Face', 'Right Leg']",
1,"[-0.2, 0.2]",1,0,7,7,7,,,,,,,1586.6171841998585,1586.6171841998585,1586.6171841998585,1587.6172095001675,1587.6005162000656,1588.600519800093,0,None,None,"[0, 0, 0]",,,1586.6171841998585,1586.6171841998585,,,,,,,,,,,,,,,,,,,,,,,,,,,,,,"[0, 0, 0]",,,,,1,M,1,23,r,CIB,2021_Sep_07_1054,2020.2.10,distractmap1,59.99818811076909,"['Left Arm', 'Chest', 'Right Face', 'Right Leg']",
8,"[0, -0.2]",0,0,8,8,8,,,,,,,1588.6171197001822,1588.6171197001822,1588.6171197001822,1589.617208099924,1589.6005295999348,1590.60053159995,1,None,None,"[0, 0, 0]",,,1588.6171197001822,1588.6171197001822,,,,,,,,,,,,,,,,,,,,,,,,,,,,,,"[0, 0, 0]",,,,,1,M,1,23,r,CIB,2021_Sep_07_1054,2020.2.10,distractmap1,59.99818811076909,"['Left Arm', 'Chest', 'Right Face', 'Right Leg']",
7,"[-0.2, -0.2]",0,0,9,9,9,,,,,,,1590.6172309000976,1590.6172309000976,1590.6172309000976,1591.6172291999683,1591.6005449001677,1592.6005490999669,1,None,None,"[0, 0, 0]",,,1590.6172309000976,1590.6172309000976,,,,,,,,,,,,,,,,,,,,,,,,,,,,,,"[0, 0, 0]",,,,,1,M,1,23,r,CIB,2021_Sep_07_1054,2020.2.10,distractmap1,59.99818811076909,"['Left Arm', 'Chest', 'Right Face', 'Right Leg']",
,,,,,,,,,,,1592.6172258001752,None,,,,,,,,,,,,,,,,,,,,,,,,,,,,,,,,,,,,,,,,15.061728395061733,826.5906833005138,,,,,,,,1,M,1,23,r,CIB,2021_Sep_07_1054,2020.2.10,distractmap1,59.99818811076909,"['Left Arm', 'Chest', 'Right Face', 'Right Leg']",
6,"[0.2, 0]",None,0,0,0,0,,,,,1607.8345984001644,None,1612.667385800276,None,1612.667385800276,1613.6673961998895,1613.650721800048,1614.6507136998698,1,None,None,"[0, 0, 0]",,,1612.667385800276,None,,,,,,,,,,,,,,,,,,,,,,,,,,,,0.01465129991993308,5.011862100102007,"[0, 0, 0]",,,,,1,M,1,23,r,CIB,2021_Sep_07_1054,2020.2.10,distractmap1,59.99818811076909,"['Left Arm', 'Chest', 'Right Face', 'Right Leg']",
6,"[0.2, 0]",1,0,1,1,1,,,,,,,1614.6674025002867,None,1614.6674025002867,1615.6674084998667,1615.6507518999279,1616.6507701999508,1,None,None,"[0, 0, 0]",,,1614.6674025002867,None,,,,,,,,,,,,,,,,,,,,,,,,,,,,,,"[0, 0, 0]",,,,,1,M,1,23,r,CIB,2021_Sep_07_1054,2020.2.10,distractmap1,59.99818811076909,"['Left Arm', 'Chest', 'Right Face', 'Right Leg']",
1,"[-0.2, 0.2]",0,0,2,2,2,,,,,,,1616.667416700162,1616.667416700162,1616.667416700162,1617.6674118000083,1617.65078060003,1618.6507661002688,1,None,None,"[0, 0, 0]",,,1616.667416700162,1616.667416700162,,,,,,,,,,,,,,,,,,,,,,,,,,,,,,"[0, 0, 0]",,,,,1,M,1,23,r,CIB,2021_Sep_07_1054,2020.2.10,distractmap1,59.99818811076909,"['Left Arm', 'Chest', 'Right Face', 'Right Leg']",
8,"[0, -0.2]",0,0,3,3,3,,,,,,,1618.667320200242,1618.667320200242,1618.667320200242,1619.6674311999232,1619.6507977000438,1620.650811099913,1,None,None,"[0, 0, 0]",,,1618.667320200242,1618.667320200242,,,,,,,,,,,,,,,,,,,,,,,,,,,,,,"[0, 0, 0]",,,,,1,M,1,23,r,CIB,2021_Sep_07_1054,2020.2.10,distractmap1,59.99818811076909,"['Left Arm', 'Chest', 'Right Face', 'Right Leg']",
1,"[-0.2, 0.2]",0,0,4,4,4,,,,,,,1620.7010967000388,1620.7010967000388,1620.7010967000388,1621.700812799856,1621.684124399908,None,1,None,None,"[0, 0, 0]",,,1620.7010967000388,1620.7010967000388,,,,,,,,,,,,,,,,,,,,,,,,,,,,,,"[0, 0, 0]",,,,,1,M,1,23,r,CIB,2021_Sep_07_1054,2020.2.10,distractmap1,59.99818811076909,"['Left Arm', 'Chest', 'Right Face', 'Right Leg']",
4,"[-0.2, 0]",0,0,5,5,5,,,,,,,1622.6841203998774,None,1622.6841203998774,1623.6841307999566,1623.6674760999158,1624.6674756002612,1,None,None,"[0, 0, 0]",,,1622.6841203998774,None,,,,,,,,,,,,,,,,,,,,,,,,,,,,,,"[0, 0, 0]",,,,,1,M,1,23,r,CIB,2021_Sep_07_1054,2020.2.10,distractmap1,59.99818811076909,"['Left Arm', 'Chest', 'Right Face', 'Right Leg']",
5,"[0, 0]",0,0,6,6,6,,,,,,,1624.6841389001347,1624.6841389001347,1624.6841389001347,1625.6841470999643,1625.667475100141,1626.6674923999235,1,None,None,"[0, 0, 0]",,,1624.6841389001347,1624.6841389001347,,,,,,,,,,,,,,,,,,,,,,,,,,,,,,"[0, 0, 0]",,,,,1,M,1,23,r,CIB,2021_Sep_07_1054,2020.2.10,distractmap1,59.99818811076909,"['Left Arm', 'Chest', 'Right Face', 'Right Leg']",
7,"[-0.2, -0.2]",0,0,7,7,7,,,,,,,1626.6841588001698,1626.6841588001698,1626.6841588001698,1627.6840368001722,1627.667492300272,1628.6674843998626,0,None,None,"[0, 0, 0]",,,1626.6841588001698,1626.6841588001698,,,,,,,,,,,,,,,,,,,,,,,,,,,,,,"[0, 0, 0]",,,,,1,M,1,23,r,CIB,2021_Sep_07_1054,2020.2.10,distractmap1,59.99818811076909,"['Left Arm', 'Chest', 'Right Face', 'Right Leg']",
7,"[-0.2, -0.2]",1,0,8,8,8,,,,,,,1628.684047699906,1628.684047699906,1628.684047699906,1629.6842097998597,1629.6674327002838,1630.6674887002446,1,None,None,"[0, 0, 0]",,,1628.684047699906,1628.684047699906,,,,,,,,,,,,,,,,,,,,,,,,,,,,,,"[0, 0, 0]",,,,,1,M,1,23,r,CIB,2021_Sep_07_1054,2020.2.10,distractmap1,59.99818811076909,"['Left Arm', 'Chest', 'Right Face', 'Right Leg']",
7,"[-0.2, -0.2]",1,0,9,9,9,,,,,,,1630.6841871999204,1630.6841871999204,1630.6841871999204,1631.6841891999356,1631.6675066002645,1632.6675138999708,1,None,None,"[0, 0, 0]",,,1630.6841871999204,1630.6841871999204,,,,,,,,,,,,,,,,,,,,,,,,,,,,,,"[0, 0, 0]",,,,,1,M,1,23,r,CIB,2021_Sep_07_1054,2020.2.10,distractmap1,59.99818811076909,"['Left Arm', 'Chest', 'Right Face', 'Right Leg']",
,,,,,,,,,,,1632.6842050002888,None,,,,,,,,,,,,,,,,,,,,,,,,,,,,,,,,,,,,,,,,23.641975308641975,866.3577232006937,,,,,,,,1,M,1,23,r,CIB,2021_Sep_07_1054,2020.2.10,distractmap1,59.99818811076909,"['Left Arm', 'Chest', 'Right Face', 'Right Leg']",
7,"[-0.2, -0.2]",None,,,,,0,0,0,0,1649.9005396999419,None,,,,,,,,,,,,,,,,,,,,None,None,"[0, 0, 0]",1652.7510267002508,None,1652.7510267002508,1653.7510207998566,1653.7343685999513,1654.7343786000274,"[0, 0, 0]",1,1652.7510267002508,None,,,,,,,,,,0.01459149969741702,5.011535199824721,,,,,,1,M,1,23,r,CIB,2021_Sep_07_1054,2020.2.10,distractmap1,59.99818811076909,"['Left Arm', 'Chest', 'Right Face', 'Right Leg']",
7,"[-0.2, -0.2]",None,,,,,0,1,1,1,,,,,,,,,,,,,,,,,,,,,,None,None,"[0, 0, 0]",1654.7510440000333,1656.7510464000516,1654.7510440000333,1655.751053799875,1655.7343719000928,1656.7343708998524,"[0, 0, 0]",1,1654.7510440000333,1656.7510464000516,,,,,,,,,,,,,,,,,1,M,1,23,r,CIB,2021_Sep_07_1054,2020.2.10,distractmap1,59.99818811076909,"['Left Arm', 'Chest', 'Right Face', 'Right Leg']",
7,"[-0.2, -0.2]",1,,,,,0,2,2,2,,,,,,,,,,,,,,,,,,,,,,None,None,"[0, 0, 0]",1656.7676935000345,1658.7677525999025,1656.7676935000345,1657.7676977999508,1657.7510665999725,1658.7510732002556,"[0, 0, 0]",1,1656.7676935000345,1658.7677525999025,,,,,,,,,,,,,,,,,1,M,1,23,r,CIB,2021_Sep_07_1054,2020.2.10,distractmap1,59.99818811076909,"['Left Arm', 'Chest', 'Right Face', 'Right Leg']",
5,"[0, 0]",0,,,,,0,3,3,3,,,,,,,,,,,,,,,,,,,,,,None,None,"[0, 0, 0]",1658.7843793001957,1660.7844138001092,1658.7843793001957,1659.7844167998992,1659.7677194001153,1660.767756999936,"[0, 0, 0]",1,1658.7843793001957,1660.7844138001092,,,,,,,,,,,,,,,,,1,M,1,23,r,CIB,2021_Sep_07_1054,2020.2.10,distractmap1,59.99818811076909,"['Left Arm', 'Chest', 'Right Face', 'Right Leg']",
1,"[-0.2, 0.2]",0,,,,,0,4,4,4,,,,,,,,,,,,,,,,,,,,,,None,None,"[0, 0, 0]",1660.8516188999638,None,1660.8516188999638,1661.8510879999958,1661.8344630002975,None,"[0, 0, 0]",1,1660.8516188999638,None,,,,,,,,,,,,,,,,,1,M,1,23,r,CIB,2021_Sep_07_1054,2020.2.10,distractmap1,59.99818811076909,"['Left Arm', 'Chest', 'Right Face', 'Right Leg']",
6,"[0.2, 0]",0,,,,,0,5,5,5,,,,,,,,,,,,,,,,,,,,,,None,None,"[0, 0, 0]",1662.8177606998943,1664.817774000112,1662.8177606998943,1663.8177896998823,1663.8010921999812,1664.8011182001792,"[0, 0, 0]",1,1662.8177606998943,1664.817774000112,,,,,,,,,,,,,,,,,1,M,1,23,r,CIB,2021_Sep_07_1054,2020.2.10,distractmap1,59.99818811076909,"['Left Arm', 'Chest', 'Right Face', 'Right Leg']",
1,"[-0.2, 0.2]",1,,,,,0,6,6,6,,,,,,,,,,,,,,,,,,,,,,None,None,"[0, 0, 0]",1664.8344363998622,1666.8344613001682,1664.8344363998622,1665.8344640000723,1665.817765600048,1666.8178201001137,"[0, 0, 0]",1,1664.8344363998622,1666.8344613001682,,,,,,,,,,,,,,,,,1,M,1,23,r,CIB,2021_Sep_07_1054,2020.2.10,distractmap1,59.99818811076909,"['Left Arm', 'Chest', 'Right Face', 'Right Leg']",
7,"[-0.2, -0.2]",0,,,,,0,7,7,7,,,,,,,,,,,,,,,,,,,,,,None,None,"[0, 0, 0]",1666.8511454998516,1668.8511513001285,1666.8511454998516,1667.8511342001148,1667.8344565001316,1668.8344755000435,"[0, 0, 0]",1,1666.8511454998516,1668.8511513001285,,,,,,,,,,,,,,,,,1,M,1,23,r,CIB,2021_Sep_07_1054,2020.2.10,distractmap1,59.99818811076909,"['Left Arm', 'Chest', 'Right Face', 'Right Leg']",
6,"[0.2, 0]",0,,,,,0,8,8,8,,,,,,,,,,,,,,,,,,,,,,None,None,"[0, 0, 0]",1668.8678069999442,1670.8678115000948,1668.8678069999442,1669.86782270018,1669.8511522999033,1670.8511613998562,"[0, 0, 0]",1,1668.8678069999442,1670.8678115000948,,,,,,,,,,,,,,,,,1,M,1,23,r,CIB,2021_Sep_07_1054,2020.2.10,distractmap1,59.99818811076909,"['Left Arm', 'Chest', 'Right Face', 'Right Leg']",
7,"[-0.2, -0.2]",1,,,,,0,9,9,9,,,,,,,,,,,,,,,,,,,,,,None,None,"[0, 0, 0]",1670.8844758998603,1672.8845023000613,1670.8844758998603,1671.8844806998968,1671.8678284999914,1672.8678232999519,"[0, 0, 0]",1,1670.8844758998603,1672.8845023000613,,,,,,,,,,,,,,,,,1,M,1,23,r,CIB,2021_Sep_07_1054,2020.2.10,distractmap1,59.99818811076909,"['Left Arm', 'Chest', 'Right Face', 'Right Leg']",
,,,,,,,,,,,1672.9011754002422,None,,,,,,,,,,,,,,,,,,,,,,,,,,,,,,,,,,,,,,,,14.938271604938272,902.62472790014,,,,,,,,1,M,1,23,r,CIB,2021_Sep_07_1054,2020.2.10,distractmap1,59.99818811076909,"['Left Arm', 'Chest', 'Right Face', 'Right Leg']",
4,"[-0.2, 0]",None,,,,,0,0,0,0,1686.118206300307,None,,,,,,,,,,,,,,,,,,,,None,None,"[0, 0, 0]",1692.9513294002973,None,1692.9513294002973,1693.9513294002973,1693.9346473999321,1694.9346512998454,"[0, 0, 0]",1,1692.9513294002973,None,,,,,,,,,,0.014495099894702435,5.011282700113952,,,,,,1,M,1,23,r,CIB,2021_Sep_07_1054,2020.2.10,distractmap1,59.99818811076909,"['Left Arm', 'Chest', 'Right Face', 'Right Leg']",
5,"[0, 0]",None,,,,,0,1,1,1,,,,,,,,,,,,,,,,,,,,,,None,None,"[0, 0, 0]",1694.951263200026,1696.9513443000615,1694.951263200026,1695.9513492998667,1695.934673300013,1696.9346667001955,"[0, 0, 0]",1,1694.951263200026,1696.9513443000615,,,,,,,,,,,,,,,,,1,M,1,23,r,CIB,2021_Sep_07_1054,2020.2.10,distractmap1,59.99818811076909,"['Left Arm', 'Chest', 'Right Face', 'Right Leg']",
6,"[0.2, 0]",0,,,,,0,2,2,2,,,,,,,,,,,,,,,,,,,,,,None,None,"[0, 0, 0]",1696.968026699964,1698.9680234999396,1696.968026699964,1697.968008799944,1697.951358600054,1698.9513730001636,"[0, 0, 0]",1,1696.968026699964,1698.9680234999396,,,,,,,,,,,,,,,,,1,M,1,23,r,CIB,2021_Sep_07_1054,2020.2.10,distractmap1,59.99818811076909,"['Left Arm', 'Chest', 'Right Face', 'Right Leg']",
1,"[-0.2, 0.2]",0,,,,,0,3,3,3,,,,,,,,,,,,,,,,,,,,,,None,None,"[0, 0, 0]",1698.9846787001006,1700.984691500198,1698.9846787001006,1699.9847074002028,1699.9680475001223,1700.9680487001315,"[0, 0, 0]",1,1698.9846787001006,1700.984691500198,,,,,,,,,,,,,,,,,1,M,1,23,r,CIB,2021_Sep_07_1054,2020.2.10,distractmap1,59.99818811076909,"['Left Arm', 'Chest', 'Right Face', 'Right Leg']",
6,"[0.2, 0]",1,,,,,0,4,4,4,,,,,,,,,,,,,,,,,,,,,,None,None,"[0, 0, 0]",1701.0682160998695,None,1701.0682160998695,1702.0680496999994,1702.0513972002082,None,"[0, 0, 0]",1,1701.0682160998695,None,,,,,,,,,,,,,,,,,1,M,1,23,r,CIB,2021_Sep_07_1054,2020.2.10,distractmap1,59.99818811076909,"['Left Arm', 'Chest', 'Right Face', 'Right Leg']",
1,"[-0.2, 0.2]",1,,,,,0,5,5,5,,,,,,,,,,,,,,,,,,,,,,None,None,"[0, 0, 0]",1703.0180438999087,1705.018083699979,1703.0180438999087,1704.0180822000839,1704.0013995002955,1705.0013979999349,"[0, 0, 0]",1,1703.0180438999087,1705.018083699979,,,,,,,,,,,,,,,,,1,M,1,23,r,CIB,2021_Sep_07_1054,2020.2.10,distractmap1,59.99818811076909,"['Left Arm', 'Chest', 'Right Face', 'Right Leg']",
2,"[0, 0.2]",0,,,,,0,6,6,6,,,,,,,,,,,,,,,,,,,,,,None,None,"[0, 0, 0]",1705.0347699001431,1707.0347762000747,1705.0347699001431,1706.034759900067,1706.0180862001143,1707.0181026002392,"[0, 0, 0]",1,1705.0347699001431,1707.0347762000747,,,,,,,,,,,,,,,,,1,M,1,23,r,CIB,2021_Sep_07_1054,2020.2.10,distractmap1,59.99818811076909,"['Left Arm', 'Chest', 'Right Face', 'Right Leg']",
3,"[0.2, 0.2]",0,,,,,0,7,7,7,,,,,,,,,,,,,,,,,,,,,,None,None,"[0, 0, 0]",1707.0514321001247,1709.0514318998903,1707.0514321001247,1708.0514346999116,1708.0347798001021,1709.03477820009,"[0, 0, 0]",1,1707.0514321001247,1709.0514318998903,,,,,,,,,,,,,,,,,1,M,1,23,r,CIB,2021_Sep_07_1054,2020.2.10,distractmap1,59.99818811076909,"['Left Arm', 'Chest', 'Right Face', 'Right Leg']",
6,"[0.2, 0]",0,,,,,0,8,8,8,,,,,,,,,,,,,,,,,,,,,,None,None,"[0, 0, 0]",1709.0680893999524,1711.0681171002798,1709.0680893999524,1710.0681046000682,1710.0514718000777,1711.0514817000367,"[0, 0, 0]",1,1709.0680893999524,1711.0681171002798,,,,,,,,,,,,,,,,,1,M,1,23,r,CIB,2021_Sep_07_1054,2020.2.10,distractmap1,59.99818811076909,"['Left Arm', 'Chest', 'Right Face', 'Right Leg']",
3,"[0.2, 0.2]",1,,,,,0,9,9,9,,,,,,,,,,,,,,,,,,,,,,None,None,"[0, 0, 0]",1711.0848043002188,1713.084809700027,1711.0848043002188,1712.0847920002416,1712.0681288000196,1713.0681302999146,"[0, 0, 0]",1,1711.0848043002188,1713.084809700027,,,,,,,,,,,,,,,,,1,M,1,23,r,CIB,2021_Sep_07_1054,2020.2.10,distractmap1,59.99818811076909,"['Left Arm', 'Chest', 'Right Face', 'Right Leg']",
,,,,,,,,,,,1713.1014813999645,None,,,,,,,,,,,,,,,,,,,,,,,,,,,,,,,,,,,,,,,,15.246913580246915,947.824763700366,,,,,,,,1,M,1,23,r,CIB,2021_Sep_07_1054,2020.2.10,distractmap1,59.99818811076909,"['Left Arm', 'Chest', 'Right Face', 'Right Leg']",
8,"[0, -0.2]",None,0,0,0,0,,,,,1730.501620899886,None,1733.1683109998703,None,1733.1683109998703,1734.1682229000144,1734.151608900167,1735.1516224001534,1,None,None,"[0, 0, 0]",,,1733.1683109998703,None,,,,,,,,,,,,,,,,,,,,,,,,,,,,0.014827100094407797,5.011989700142294,"[0, 0, 0]",,,,,1,M,1,23,r,CIB,2021_Sep_07_1054,2020.2.10,distractmap1,59.99818811076909,"['Left Arm', 'Chest', 'Right Face', 'Right Leg']",
6,"[0.2, 0]",0,0,1,1,1,,,,,,,1735.168303700164,None,1735.168303700164,1736.1683054999448,1736.1516376002692,1737.15163019998,1,None,None,"[0, 0, 0]",,,1735.168303700164,None,,,,,,,,,,,,,,,,,,,,,,,,,,,,,,"[0, 0, 0]",,,,,1,M,1,23,r,CIB,2021_Sep_07_1054,2020.2.10,distractmap1,59.99818811076909,"['Left Arm', 'Chest', 'Right Face', 'Right Leg']",
6,"[0.2, 0]",1,0,2,2,2,,,,,,,1737.168323600199,1737.168323600199,1737.168323600199,1738.1683108001016,1738.1516534001566,1739.1516539002769,1,None,None,"[0, 0, 0]",,,1737.168323600199,1737.168323600199,,,,,,,,,,,,,,,,,,,,,,,,,,,,,,"[0, 0, 0]",,,,,1,M,1,23,r,CIB,2021_Sep_07_1054,2020.2.10,distractmap1,59.99818811076909,"['Left Arm', 'Chest', 'Right Face', 'Right Leg']",
2,"[0, 0.2]",0,0,3,3,3,,,,,,,1739.1683348999359,1739.1683348999359,1739.1683348999359,1740.1683495002799,1740.1516582001932,1741.1516761998646,1,None,None,"[0, 0, 0]",,,1739.1683348999359,1739.1683348999359,,,,,,,,,,,,,,,,,,,,,,,,,,,,,,"[0, 0, 0]",,,,,1,M,1,23,r,CIB,2021_Sep_07_1054,2020.2.10,distractmap1,59.99818811076909,"['Left Arm', 'Chest', 'Right Face', 'Right Leg']",
1,"[-0.2, 0.2]",0,0,4,4,4,,,,,,,1741.2350482000038,1741.2350482000038,1741.2350482000038,1742.2350280000828,1742.2183441002853,None,1,None,None,"[0, 0, 0]",,,1741.2350482000038,1741.2350482000038,,,,,,,,,,,,,,,,,,,,,,,,,,,,,,"[0, 0, 0]",,,,,1,M,1,23,r,CIB,2021_Sep_07_1054,2020.2.10,distractmap1,59.99818811076909,"['Left Arm', 'Chest', 'Right Face', 'Right Leg']",
6,"[0.2, 0]",0,0,5,5,5,,,,,,,1743.1850320002995,None,1743.1850320002995,1744.1850362000987,1744.168372000102,1745.168380400166,1,None,None,"[0, 0, 0]",,,1743.1850320002995,None,,,,,,,,,,,,,,,,,,,,,,,,,,,,,,"[0, 0, 0]",,,,,1,M,1,23,r,CIB,2021_Sep_07_1054,2020.2.10,distractmap1,59.99818811076909,"['Left Arm', 'Chest', 'Right Face', 'Right Leg']",
9,"[0.2, -0.2]",0,0,6,6,6,,,,,,,1745.18507830007,1745.18507830007,1745.18507830007,1746.185061099939,1746.1684063002467,1747.1683769999072,1,None,None,"[0, 0, 0]",,,1745.18507830007,1745.18507830007,,,,,,,,,,,,,,,,,,,,,,,,,,,,,,"[0, 0, 0]",,,,,1,M,1,23,r,CIB,2021_Sep_07_1054,2020.2.10,distractmap1,59.99818811076909,"['Left Arm', 'Chest', 'Right Face', 'Right Leg']",
1,"[-0.2, 0.2]",0,0,7,7,7,,,,,,,1747.1850637001917,1747.1850637001917,1747.1850637001917,1748.1850626999512,1748.168400600087,1749.1684147003107,1,None,None,"[0, 0, 0]",,,1747.1850637001917,1747.1850637001917,,,,,,,,,,,,,,,,,,,,,,,,,,,,,,"[0, 0, 0]",,,,,1,M,1,23,r,CIB,2021_Sep_07_1054,2020.2.10,distractmap1,59.99818811076909,"['Left Arm', 'Chest', 'Right Face', 'Right Leg']",
6,"[0.2, 0]",0,0,8,8,8,,,,,,,1749.1850816002116,1749.1850816002116,1749.1850816002116,1750.1850932003,1750.1684179999866,1751.168423899915,1,None,None,"[0, 0, 0]",,,1749.1850816002116,1749.1850816002116,,,,,,,,,,,,,,,,,,,,,,,,,,,,,,"[0, 0, 0]",,,,,1,M,1,23,r,CIB,2021_Sep_07_1054,2020.2.10,distractmap1,59.99818811076909,"['Left Arm', 'Chest', 'Right Face', 'Right Leg']",
6,"[0.2, 0]",1,0,9,9,9,,,,,,,1751.184970300179,1751.184970300179,1751.184970300179,1752.1850870000198,1752.1684316000901,1753.1684337002225,1,None,None,"[0, 0, 0]",,,1751.184970300179,1751.184970300179,,,,,,,,,,,,,,,,,,,,,,,,,,,,,,"[0, 0, 0]",,,,,1,M,1,23,r,CIB,2021_Sep_07_1054,2020.2.10,distractmap1,59.99818811076909,"['Left Arm', 'Chest', 'Right Face', 'Right Leg']",
,,,,,,,,,,,1753.185094400309,None,,,,,,,,,,,,,,,,,,,,,,,,,,,,,,,,,,,,,,,,23.88888888888889,983.8254497004673,,,,,,,,1,M,1,23,r,CIB,2021_Sep_07_1054,2020.2.10,distractmap1,59.99818811076909,"['Left Arm', 'Chest', 'Right Face', 'Right Leg']",
9,"[0.2, -0.2]",None,0,0,0,0,,,,,1766.9519000998698,None,1773.2352415001951,None,1773.2352415001951,1774.2352637001313,1774.2019263999537,1775.2019315999933,1,None,None,"[0, 0, 0]",,,1773.2352415001951,None,,,,,,,,,,,,,,,,,,,,,,,,,,,,0.014431599993258715,5.011146099772304,"[0, 0, 0]",,,,,1,M,1,23,r,CIB,2021_Sep_07_1054,2020.2.10,distractmap1,59.99818811076909,"['Left Arm', 'Chest', 'Right Face', 'Right Leg']",
9,"[0.2, -0.2]",1,0,1,1,1,,,,,,,1775.2185812001117,None,1775.2185812001117,1776.218596899882,1776.2019557002932,1777.2019523000345,1,None,None,"[0, 0, 0]",,,1775.2185812001117,None,,,,,,,,,,,,,,,,,,,,,,,,,,,,,,"[0, 0, 0]",,,,,1,M,1,23,r,CIB,2021_Sep_07_1054,2020.2.10,distractmap1,59.99818811076909,"['Left Arm', 'Chest', 'Right Face', 'Right Leg']",
9,"[0.2, -0.2]",1,0,2,2,2,,,,,,,1777.2186040999368,1777.2186040999368,1777.2186040999368,1778.2186322002672,1778.2019580998458,1779.2019798001274,1,None,None,"[0, 0, 0]",,,1777.2186040999368,1777.2186040999368,,,,,,,,,,,,,,,,,,,,,,,,,,,,,,"[0, 0, 0]",,,,,1,M,1,23,r,CIB,2021_Sep_07_1054,2020.2.10,distractmap1,59.99818811076909,"['Left Arm', 'Chest', 'Right Face', 'Right Leg']",
3,"[0.2, 0.2]",0,0,3,3,3,,,,,,,1779.2186166001484,1779.2186166001484,1779.2186166001484,1780.218623300083,1780.2019668999128,1781.2019965001382,1,None,None,"[0, 0, 0]",,,1779.2186166001484,1779.2186166001484,,,,,,,,,,,,,,,,,,,,,,,,,,,,,,"[0, 0, 0]",,,,,1,M,1,23,r,CIB,2021_Sep_07_1054,2020.2.10,distractmap1,59.99818811076909,"['Left Arm', 'Chest', 'Right Face', 'Right Leg']",
5,"[0, 0]",0,0,4,4,4,,,,,,,1781.2688032002188,1781.2688032002188,1781.2688032002188,1782.2686423999257,1782.2519872998819,None,1,None,None,"[0, 0, 0]",,,1781.2688032002188,1781.2688032002188,,,,,,,,,,,,,,,,,,,,,,,,,,,,,,"[0, 0, 0]",,,,,1,M,1,23,r,CIB,2021_Sep_07_1054,2020.2.10,distractmap1,59.99818811076909,"['Left Arm', 'Chest', 'Right Face', 'Right Leg']",
4,"[-0.2, 0]",0,0,5,5,5,,,,,,,1783.2353322999552,None,1783.2353322999552,1784.2353417002596,1784.2186521999538,1785.2187085999176,1,None,None,"[0, 0, 0]",,,1783.2353322999552,None,,,,,,,,,,,,,,,,,,,,,,,,,,,,,,"[0, 0, 0]",,,,,1,M,1,23,r,CIB,2021_Sep_07_1054,2020.2.10,distractmap1,59.99818811076909,"['Left Arm', 'Chest', 'Right Face', 'Right Leg']",
9,"[0.2, -0.2]",0,0,6,6,6,,,,,,,1785.2353524998762,1785.2353524998762,1785.2353524998762,1786.2353440001607,1786.218678300269,1787.218679400161,1,None,None,"[0, 0, 0]",,,1785.2353524998762,1785.2353524998762,,,,,,,,,,,,,,,,,,,,,,,,,,,,,,"[0, 0, 0]",,,,,1,M,1,23,r,CIB,2021_Sep_07_1054,2020.2.10,distractmap1,59.99818811076909,"['Left Arm', 'Chest', 'Right Face', 'Right Leg']",
6,"[0.2, 0]",0,0,7,7,7,,,,,,,1787.235366200097,1787.235366200097,1787.235366200097,1788.235375400167,1788.2187061002478,1789.218741199933,1,None,None,"[0, 0, 0]",,,1787.235366200097,1787.235366200097,,,,,,,,,,,,,,,,,,,,,,,,,,,,,,"[0, 0, 0]",,,,,1,M,1,23,r,CIB,2021_Sep_07_1054,2020.2.10,distractmap1,59.99818811076909,"['Left Arm', 'Chest', 'Right Face', 'Right Leg']",
2,"[0, 0.2]",0,0,8,8,8,,,,,,,1789.2353695002384,1789.2353695002384,1789.2353695002384,1790.2353957998566,1790.2187002999708,1791.2187128001824,1,None,None,"[0, 0, 0]",,,1789.2353695002384,1789.2353695002384,,,,,,,,,,,,,,,,,,,,,,,,,,,,,,"[0, 0, 0]",,,,,1,M,1,23,r,CIB,2021_Sep_07_1054,2020.2.10,distractmap1,59.99818811076909,"['Left Arm', 'Chest', 'Right Face', 'Right Leg']",
2,"[0, 0.2]",1,0,9,9,9,,,,,,,1791.2353940000758,1791.2353940000758,1791.2353940000758,1792.2353929001838,1792.218709900044,1793.2187557001598,1,None,None,"[0, 0, 0]",,,1791.2353940000758,1791.2353940000758,,,,,,,,,,,,,,,,,,,,,,,,,,,,,,"[0, 0, 0]",,,,,1,M,1,23,r,CIB,2021_Sep_07_1054,2020.2.10,distractmap1,59.99818811076909,"['Left Arm', 'Chest', 'Right Face', 'Right Leg']",
,,,,,,,,,,,1793.235417699907,None,,,,,,,,,,,,,,,,,,,,,,,,,,,,,,,,,,,,,,,,23.580246913580247,1027.2088370001875,,,,,,,,1,M,1,23,r,CIB,2021_Sep_07_1054,2020.2.10,distractmap1,59.99818811076909,"['Left Arm', 'Chest', 'Right Face', 'Right Leg']",
2,"[0, 0.2]",None,,,,,0,0,0,0,1808.9857167000882,None,,,,,,,,,,,,,,,,,,,,None,None,"[0, 0, 0]",1813.3022393002175,None,1813.3022393002175,1814.3022373998538,1814.2855642000213,1815.2855571000837,"[0, 0, 0]",1,1813.3022393002175,None,,,,,,,,,,0.014701900072395802,5.011993299704045,,,,,,1,M,1,23,r,CIB,2021_Sep_07_1054,2020.2.10,distractmap1,59.99818811076909,"['Left Arm', 'Chest', 'Right Face', 'Right Leg']",
5,"[0, 0]",None,,,,,0,1,1,1,,,,,,,,,,,,,,,,,,,,,,None,None,"[0, 0, 0]",1815.3022400001064,1817.3022627001628,1815.3022400001064,1816.3022511000745,1816.2855674000457,1817.2855728999712,"[0, 0, 0]",1,1815.3022400001064,1817.3022627001628,,,,,,,,,,,,,,,,,1,M,1,23,r,CIB,2021_Sep_07_1054,2020.2.10,distractmap1,59.99818811076909,"['Left Arm', 'Chest', 'Right Face', 'Right Leg']",
6,"[0.2, 0]",0,,,,,0,2,2,2,,,,,,,,,,,,,,,,,,,,,,None,None,"[0, 0, 0]",1817.3189262999222,1819.3189413002692,1817.3189262999222,1818.318932699971,1818.302274200134,1819.3021660000086,"[0, 0, 0]",1,1817.3189262999222,1819.3189413002692,,,,,,,,,,,,,,,,,1,M,1,23,r,CIB,2021_Sep_07_1054,2020.2.10,distractmap1,59.99818811076909,"['Left Arm', 'Chest', 'Right Face', 'Right Leg']",
1,"[-0.2, 0.2]",0,,,,,0,3,3,3,,,,,,,,,,,,,,,,,,,,,,None,None,"[0, 0, 0]",1819.3355907001533,1821.3356034001336,1819.3355907001533,1820.335609700065,1820.3188979001716,1821.3189631002024,"[0, 0, 0]",1,1819.3355907001533,1821.3356034001336,,,,,,,,,,,,,,,,,1,M,1,23,r,CIB,2021_Sep_07_1054,2020.2.10,distractmap1,59.99818811076909,"['Left Arm', 'Chest', 'Right Face', 'Right Leg']",
6,"[0.2, 0]",1,,,,,0,4,4,4,,,,,,,,,,,,,,,,,,,,,,None,None,"[0, 0, 0]",1821.4361753999256,None,1821.4361753999256,1822.4356185998768,1822.4189637000673,None,"[0, 0, 0]",1,1821.4361753999256,None,,,,,,,,,,,,,,,,,1,M,1,23,r,CIB,2021_Sep_07_1054,2020.2.10,distractmap1,59.99818811076909,"['Left Arm', 'Chest', 'Right Face', 'Right Leg']",
6,"[0.2, 0]",0,,,,,0,5,5,5,,,,,,,,,,,,,,,,,,,,,,None,None,"[0, 0, 0]",1823.3689640001394,1825.3689911998808,1823.3689640001394,1824.36886230018,1824.3523249002174,1825.3523230999708,"[0, 0, 0]",1,1823.3689640001394,1825.3689911998808,,,,,,,,,,,,,,,,,1,M,1,23,r,CIB,2021_Sep_07_1054,2020.2.10,distractmap1,59.99818811076909,"['Left Arm', 'Chest', 'Right Face', 'Right Leg']",
9,"[0.2, -0.2]",0,,,,,0,6,6,6,,,,,,,,,,,,,,,,,,,,,,None,None,"[0, 0, 0]",1825.3856333000585,1827.3856481001712,1825.3856333000585,1826.385639899876,1826.368999300059,1827.3689973000437,"[0, 0, 0]",1,1825.3856333000585,1827.3856481001712,,,,,,,,,,,,,,,,,1,M,1,23,r,CIB,2021_Sep_07_1054,2020.2.10,distractmap1,59.99818811076909,"['Left Arm', 'Chest', 'Right Face', 'Right Leg']",
6,"[0.2, 0]",1,,,,,0,7,7,7,,,,,,,,,,,,,,,,,,,,,,None,None,"[0, 0, 0]",1827.4023767001927,1829.4023402999155,1827.4023767001927,1828.40233479999,1828.3856828999706,1829.385666999966,"[0, 0, 0]",1,1827.4023767001927,1829.4023402999155,,,,,,,,,,,,,,,,,1,M,1,23,r,CIB,2021_Sep_07_1054,2020.2.10,distractmap1,59.99818811076909,"['Left Arm', 'Chest', 'Right Face', 'Right Leg']",
3,"[0.2, 0.2]",0,,,,,0,8,8,8,,,,,,,,,,,,,,,,,,,,,,None,None,"[0, 0, 0]",1829.4190215002745,1831.4190215002745,1829.4190215002745,1830.419036600273,1830.4023925000802,1831.4023918001913,"[0, 0, 0]",1,1829.4190215002745,1831.4190215002745,,,,,,,,,,,,,,,,,1,M,1,23,r,CIB,2021_Sep_07_1054,2020.2.10,distractmap1,59.99818811076909,"['Left Arm', 'Chest', 'Right Face', 'Right Leg']",
9,"[0.2, -0.2]",0,,,,,0,9,9,9,,,,,,,,,,,,,,,,,,,,,,None,None,"[0, 0, 0]",1831.4356879000552,1833.4356952998787,1831.4356879000552,1832.4357019001618,1832.4190513999201,1833.4190525999293,"[0, 0, 0]",1,1831.4356879000552,1833.4356952998787,,,,,,,,,,,,,,,,,1,M,1,23,r,CIB,2021_Sep_07_1054,2020.2.10,distractmap1,59.99818811076909,"['Left Arm', 'Chest', 'Right Face', 'Right Leg']",
,,,,,,,,,,,1833.4523783000186,None,,,,,,,,,,,,,,,,,,,,,,,,,,,,,,,,,,,,,,,,14.876543209876539,1067.0259874002077,,,,,,,,1,M,1,23,r,CIB,2021_Sep_07_1054,2020.2.10,distractmap1,59.99818811076909,"['Left Arm', 'Chest', 'Right Face', 'Right Leg']",
3,"[0.2, 0.2]",None,,,,,0,0,0,0,1848.6693668002263,None,,,,,,,,,,,,,,,,,,,,None,None,"[0, 0, 0]",1853.5025089001283,None,1853.5025089001283,1854.502514200285,1854.485919199884,1855.4858725001104,"[0, 0, 0]",1,1853.5025089001283,None,,,,,,,,,,0.01461770012974739,5.0116107002831995,,,,,,1,M,1,23,r,CIB,2021_Sep_07_1054,2020.2.10,distractmap1,59.99818811076909,"['Left Arm', 'Chest', 'Right Face', 'Right Leg']",
9,"[0.2, -0.2]",None,,,,,0,1,1,1,,,,,,,,,,,,,,,,,,,,,,None,None,"[0, 0, 0]",1855.5025255000219,1857.5025456002913,1855.5025255000219,1856.502554900013,1856.4859011000954,1857.4858996998519,"[0, 0, 0]",0,1855.5025255000219,1857.5025456002913,,,,,,,,,,,,,,,,,1,M,1,23,r,CIB,2021_Sep_07_1054,2020.2.10,distractmap1,59.99818811076909,"['Left Arm', 'Chest', 'Right Face', 'Right Leg']",
3,"[0.2, 0.2]",1,,,,,0,2,2,2,,,,,,,,,,,,,,,,,,,,,,None,None,"[0, 0, 0]",1857.5191103001125,1859.5191314001568,1857.5191103001125,1858.5192316998728,1858.5025545000099,1859.502572500147,"[0, 0, 0]",0,1857.5191103001125,1859.5191314001568,,,,,,,,,,,,,,,,,1,M,1,23,r,CIB,2021_Sep_07_1054,2020.2.10,distractmap1,59.99818811076909,"['Left Arm', 'Chest', 'Right Face', 'Right Leg']",
7,"[-0.2, -0.2]",0,,,,,0,3,3,3,,,,,,,,,,,,,,,,,,,,,,None,None,"[0, 0, 0]",1859.5359062002972,1861.5359205002896,1859.5359062002972,1860.5359287001193,1860.519260500092,1861.51926810015,"[0, 0, 0]",1,1859.5359062002972,1861.5359205002896,,,,,,,,,,,,,,,,,1,M,1,23,r,CIB,2021_Sep_07_1054,2020.2.10,distractmap1,59.99818811076909,"['Left Arm', 'Chest', 'Right Face', 'Right Leg']",
8,"[0, -0.2]",0,,,,,0,4,4,4,,,,,,,,,,,,,,,,,,,,,,None,None,"[0, 0, 0]",1861.619266900234,None,1861.619266900234,1862.619262199849,1862.6025958000682,None,"[0, 0, 0]",1,1861.619266900234,None,,,,,,,,,,,,,,,,,1,M,1,23,r,CIB,2021_Sep_07_1054,2020.2.10,distractmap1,59.99818811076909,"['Left Arm', 'Chest', 'Right Face', 'Right Leg']",
4,"[-0.2, 0]",0,,,,,0,5,5,5,,,,,,,,,,,,,,,,,,,,,,None,None,"[0, 0, 0]",1863.5692724999972,1865.569300299976,1863.5692724999972,1864.569299600087,1864.5526068001054,1865.5526048000902,"[0, 0, 0]",1,1863.5692724999972,1865.569300299976,,,,,,,,,,,,,,,,,1,M,1,23,r,CIB,2021_Sep_07_1054,2020.2.10,distractmap1,59.99818811076909,"['Left Arm', 'Chest', 'Right Face', 'Right Leg']",
4,"[-0.2, 0]",0,,,,,0,6,6,6,,,,,,,,,,,,,,,,,,,,,,None,None,"[0, 0, 0]",1865.5859623001888,1867.5859737000428,1865.5859623001888,1866.5859612002969,1866.5692930002697,1867.5693069999106,"[0, 0, 0]",0,1865.5859623001888,1867.5859737000428,,,,,,,,,,,,,,,,,1,M,1,23,r,CIB,2021_Sep_07_1054,2020.2.10,distractmap1,59.99818811076909,"['Left Arm', 'Chest', 'Right Face', 'Right Leg']",
1,"[-0.2, 0.2]",0,,,,,0,7,7,7,,,,,,,,,,,,,,,,,,,,,,None,None,"[0, 0, 0]",1867.6026238002814,1869.6026357002556,1867.6026238002814,1868.6026254002936,1868.5859878002666,1869.5859932000749,"[0, 0, 0]",1,1867.6026238002814,1869.6026357002556,,,,,,,,,,,,,,,,,1,M,1,23,r,CIB,2021_Sep_07_1054,2020.2.10,distractmap1,59.99818811076909,"['Left Arm', 'Chest', 'Right Face', 'Right Leg']",
4,"[-0.2, 0]",1,,,,,0,8,8,8,,,,,,,,,,,,,,,,,,,,,,None,None,"[0, 0, 0]",1869.6193269002251,1871.6193228000775,1869.6193269002251,1870.6193166002631,1870.602658300195,1871.6025316002779,"[0, 0, 0]",0,1869.6193269002251,1871.6193228000775,,,,,,,,,,,,,,,,,1,M,1,23,r,CIB,2021_Sep_07_1054,2020.2.10,distractmap1,59.99818811076909,"['Left Arm', 'Chest', 'Right Face', 'Right Leg']",
8,"[0, -0.2]",0,,,,,0,9,9,9,,,,,,,,,,,,,,,,,,,,,,None,None,"[0, 0, 0]",1871.636007099878,1873.6360317002982,1871.636007099878,1872.6360178999603,1872.6193571002223,1873.6193416002207,"[0, 0, 0]",1,1871.636007099878,1873.6360317002982,,,,,,,,,,,,,,,,,1,M,1,23,r,CIB,2021_Sep_07_1054,2020.2.10,distractmap1,59.99818811076909,"['Left Arm', 'Chest', 'Right Face', 'Right Leg']",
,,,,,,,,,,,1873.652660700027,None,,,,,,,,,,,,,,,,,,,,,,,,,,,,,,,,,,,,,,,,15.987654320987655,1103.2592754000798,,,,,,,,1,M,1,23,r,CIB,2021_Sep_07_1054,2020.2.10,distractmap1,59.99818811076909,"['Left Arm', 'Chest', 'Right Face', 'Right Leg']",
2,"[0, 0.2]",None,,,,,0,0,0,0,1887.6362995002419,None,,,,,,,,,,,,,,,,,,,,None,None,"[0, 0, 0]",1893.7028502002358,None,1893.7028502002358,1894.7028439003043,1894.6861780001782,1895.6861978000961,"[0, 0, 0]",1,1893.7028502002358,None,,,,,,,,,,0.014839000068604946,5.012082000263035,,,,,,1,M,1,23,r,CIB,2021_Sep_07_1054,2020.2.10,distractmap1,59.99818811076909,"['Left Arm', 'Chest', 'Right Face', 'Right Leg']",
5,"[0, 0]",None,,,,,0,1,1,1,,,,,,,,,,,,,,,,,,,,,,None,None,"[0, 0, 0]",1895.7028471999802,1897.7028594999574,1895.7028471999802,1896.7028558002785,1896.686198899988,1897.6861868998967,"[0, 0, 0]",1,1895.7028471999802,1897.7028594999574,,,,,,,,,,,,,,,,,1,M,1,23,r,CIB,2021_Sep_07_1054,2020.2.10,distractmap1,59.99818811076909,"['Left Arm', 'Chest', 'Right Face', 'Right Leg']",
3,"[0.2, 0.2]",0,,,,,0,2,2,2,,,,,,,,,,,,,,,,,,,,,,None,None,"[0, 0, 0]",1897.719537500292,1899.7195270000957,1897.719537500292,1898.719524799846,1898.702874599956,1899.7028959002346,"[0, 0, 0]",1,1897.719537500292,1899.7195270000957,,,,,,,,,,,,,,,,,1,M,1,23,r,CIB,2021_Sep_07_1054,2020.2.10,distractmap1,59.99818811076909,"['Left Arm', 'Chest', 'Right Face', 'Right Leg']",
5,"[0, 0]",1,,,,,0,3,3,3,,,,,,,,,,,,,,,,,,,,,,None,None,"[0, 0, 0]",1899.7362278001383,1901.7362307999283,1899.7362278001383,1900.7362387999892,1900.7195509001613,1901.719548900146,"[0, 0, 0]",0,1899.7362278001383,1901.7362307999283,,,,,,,,,,,,,,,,,1,M,1,23,r,CIB,2021_Sep_07_1054,2020.2.10,distractmap1,59.99818811076909,"['Left Arm', 'Chest', 'Right Face', 'Right Leg']",
2,"[0, 0.2]",0,,,,,0,4,4,4,,,,,,,,,,,,,,,,,,,,,,None,None,"[0, 0, 0]",1901.7865201998502,None,1901.7865201998502,1902.7862436003052,1902.7695752000436,None,"[0, 0, 0]",1,1901.7865201998502,None,,,,,,,,,,,,,,,,,1,M,1,23,r,CIB,2021_Sep_07_1054,2020.2.10,distractmap1,59.99818811076909,"['Left Arm', 'Chest', 'Right Face', 'Right Leg']",
8,"[0, -0.2]",0,,,,,0,5,5,5,,,,,,,,,,,,,,,,,,,,,,None,None,"[0, 0, 0]",1903.7695646001957,1905.7695837002248,1903.7695646001957,1904.7695752000436,1904.7529254001565,1905.7529078000225,"[0, 0, 0]",1,1903.7695646001957,1905.7695837002248,,,,,,,,,,,,,,,,,1,M,1,23,r,CIB,2021_Sep_07_1054,2020.2.10,distractmap1,59.99818811076909,"['Left Arm', 'Chest', 'Right Face', 'Right Leg']",
4,"[-0.2, 0]",0,,,,,0,6,6,6,,,,,,,,,,,,,,,,,,,,,,None,None,"[0, 0, 0]",1905.786264500115,1907.786293799989,1905.786264500115,1906.7862887000665,1906.7695801001973,1907.7695963000879,"[0, 0, 0]",1,1905.786264500115,1907.786293799989,,,,,,,,,,,,,,,,,1,M,1,23,r,CIB,2021_Sep_07_1054,2020.2.10,distractmap1,59.99818811076909,"['Left Arm', 'Chest', 'Right Face', 'Right Leg']",
8,"[0, -0.2]",1,,,,,0,7,7,7,,,,,,,,,,,,,,,,,,,,,,None,None,"[0, 0, 0]",1907.8028214001097,1909.8029563999735,1907.8028214001097,1908.8029543003067,1908.7862891000696,1909.7862925999798,"[0, 0, 0]",1,1907.8028214001097,1909.8029563999735,,,,,,,,,,,,,,,,,1,M,1,23,r,CIB,2021_Sep_07_1054,2020.2.10,distractmap1,59.99818811076909,"['Left Arm', 'Chest', 'Right Face', 'Right Leg']",
7,"[-0.2, -0.2]",0,,,,,0,8,8,8,,,,,,,,,,,,,,,,,,,,,,None,None,"[0, 0, 0]",1909.8196483002976,1911.8196173999459,1909.8196483002976,1910.8196127000265,1910.8029881999828,1911.8029738999903,"[0, 0, 0]",1,1909.8196483002976,1911.8196173999459,,,,,,,,,,,,,,,,,1,M,1,23,r,CIB,2021_Sep_07_1054,2020.2.10,distractmap1,59.99818811076909,"['Left Arm', 'Chest', 'Right Face', 'Right Leg']",
8,"[0, -0.2]",1,,,,,0,9,9,9,,,,,,,,,,,,,,,,,,,,,,None,None,"[0, 0, 0]",1911.8363382001407,1913.8363168002106,1911.8363382001407,1912.8363140001893,1912.8196294000372,1913.8196409000084,"[0, 0, 0]",1,1911.8363382001407,1913.8363168002106,,,,,,,,,,,,,,,,,1,M,1,23,r,CIB,2021_Sep_07_1054,2020.2.10,distractmap1,59.99818811076909,"['Left Arm', 'Chest', 'Right Face', 'Right Leg']",
,,,,,,,,,,,1913.8529878002591,None,,,,,,,,,,,,,,,,,,,,,,,,,,,,,,,,,,,,,,,,14.753086419753089,1148.6269856002182,,,,,,,,1,M,1,23,r,CIB,2021_Sep_07_1054,2020.2.10,distractmap1,59.99818811076909,"['Left Arm', 'Chest', 'Right Face', 'Right Leg']",
2,"[0, 0.2]",None,0,0,0,0,,,,,1931.120020700153,None,1933.91978880018,None,1933.91978880018,1934.9198158001527,1934.9031462999992,1935.9031601999886,1,None,None,"[0, 0, 0]",,,1933.91978880018,None,,,,,,,,,,,,,,,,,,,,,,,,,,,,0.014121099840849638,5.010603199712932,"[0, 0, 0]",,,,,1,M,1,23,r,CIB,2021_Sep_07_1054,2020.2.10,distractmap1,59.99818811076909,"['Left Arm', 'Chest', 'Right Face', 'Right Leg']",
8,"[0, -0.2]",0,0,1,1,1,,,,,,,1935.9198269001208,None,1935.9198269001208,1936.9198357001878,1936.9031815002672,1937.9030615999363,1,None,None,"[0, 0, 1]",,,1935.9198269001208,None,,,,,,,,,,,,,,,,,,,,,,,,,,,,,,"[0, 0, 1]",0.0,1.9172187000513077,,,1,M,1,23,r,CIB,2021_Sep_07_1054,2020.2.10,distractmap1,59.99818811076909,"['Left Arm', 'Chest', 'Right Face', 'Right Leg']",
1,"[-0.2, 0.2]",0,0,2,2,2,,,,,,,1937.9198288000189,1937.9198288000189,1937.9198288000189,1938.9198419000022,1938.9031845000573,1939.9031842001714,1,None,None,"[0, 0, 0]",,,1937.9198288000189,1937.9198288000189,,,,,,,,,,,,,,,,,,,,,,,,,,,,,,"[0, 0, 0]",,,,,1,M,1,23,r,CIB,2021_Sep_07_1054,2020.2.10,distractmap1,59.99818811076909,"['Left Arm', 'Chest', 'Right Face', 'Right Leg']",
2,"[0, 0.2]",0,0,3,3,3,,,,,,,1939.9198467000388,1939.9198467000388,1939.9198467000388,1940.9198624002747,1940.903198200278,1941.9032095000148,1,None,None,"[0, 0, 0]",,,1939.9198467000388,1939.9198467000388,,,,,,,,,,,,,,,,,,,,,,,,,,,,,,"[0, 0, 0]",,,,,1,M,1,23,r,CIB,2021_Sep_07_1054,2020.2.10,distractmap1,59.99818811076909,"['Left Arm', 'Chest', 'Right Face', 'Right Leg']",
2,"[0, 0.2]",1,0,4,4,4,,,,,,,1941.9533263002522,1941.9533263002522,1941.9533263002522,1942.9532147999853,1942.936536299996,None,1,None,None,"[0, 0, 0]",,,1941.9533263002522,1941.9533263002522,,,,,,,,,,,,,,,,,,,,,,,,,,,,,,"[0, 0, 0]",,,,,1,M,1,23,r,CIB,2021_Sep_07_1054,2020.2.10,distractmap1,59.99818811076909,"['Left Arm', 'Chest', 'Right Face', 'Right Leg']",
7,"[-0.2, -0.2]",0,0,5,5,5,,,,,,,1943.9365282002836,None,1943.9365282002836,1944.9365805000998,1944.9199303002097,1945.9198897001334,1,None,None,"[0, 0, 0]",,,1943.9365282002836,None,,,,,,,,,,,,,,,,,,,,,,,,,,,,,,"[0, 0, 0]",,,,,1,M,1,23,r,CIB,2021_Sep_07_1054,2020.2.10,distractmap1,59.99818811076909,"['Left Arm', 'Chest', 'Right Face', 'Right Leg']",
9,"[0.2, -0.2]",0,0,6,6,6,,,,,,,1945.9365560002625,1945.9365560002625,1945.9365560002625,1946.9365594000556,1946.9199394001625,1947.9197908001952,1,None,None,"[0, 0, 0]",,,1945.9365560002625,1945.9365560002625,,,,,,,,,,,,,,,,,,,,,,,,,,,,,,"[0, 0, 0]",,,,,1,M,1,23,r,CIB,2021_Sep_07_1054,2020.2.10,distractmap1,59.99818811076909,"['Left Arm', 'Chest', 'Right Face', 'Right Leg']",
9,"[0.2, -0.2]",1,0,7,7,7,,,,,,,1947.9364605001174,1947.9364605001174,1947.9364605001174,1948.9364868002012,1948.919932700228,1949.919932700228,1,None,None,"[0, 0, 0]",,,1947.9364605001174,1947.9364605001174,,,,,,,,,,,,,,,,,,,,,,,,,,,,,,"[0, 0, 0]",,,,,1,M,1,23,r,CIB,2021_Sep_07_1054,2020.2.10,distractmap1,59.99818811076909,"['Left Arm', 'Chest', 'Right Face', 'Right Leg']",
4,"[-0.2, 0]",0,0,8,8,8,,,,,,,1949.936572600156,1949.936572600156,1949.936572600156,1950.9365882999264,1950.9199486002326,1951.919937599916,1,None,None,"[0, 0, 0]",,,1949.936572600156,1949.936572600156,,,,,,,,,,,,,,,,,,,,,,,,,,,,,,"[0, 0, 0]",,,,,1,M,1,23,r,CIB,2021_Sep_07_1054,2020.2.10,distractmap1,59.99818811076909,"['Left Arm', 'Chest', 'Right Face', 'Right Leg']",
5,"[0, 0]",0,0,9,9,9,,,,,,,1951.9365962999873,1951.9365962999873,1951.9365962999873,1952.9366013002582,1952.9199494998902,1953.9199703000486,1,None,None,"[0, 0, 0]",,,1951.9365962999873,1951.9365962999873,,,,,,,,,,,,,,,,,,,,,,,,,,,,,,"[0, 0, 0]",,,,,1,M,1,23,r,CIB,2021_Sep_07_1054,2020.2.10,distractmap1,59.99818811076909,"['Left Arm', 'Chest', 'Right Face', 'Right Leg']",
,,,,,,,,,,,1953.9366208002903,None,,,,,,,,,,,,,,,,,,,,,,,,,,,,,,,,,,,,,,,,23.39506172839506,1186.3266724008135,,,,,,,,1,M,1,23,r,CIB,2021_Sep_07_1054,2020.2.10,distractmap1,59.99818811076909,"['Left Arm', 'Chest', 'Right Face', 'Right Leg']",
2,"[0, 0.2]",None,,,,,0,0,0,0,1969.1870603002608,None,,,,,,,,,,,,,,,,,,,,None,None,"[0, 0, 0]",1973.986812000163,None,1973.986812000163,1974.986788299866,1974.97012860002,1975.9701348003,"[0, 0, 0]",1,1973.986812000163,None,,,,,,,,,,0.01470219949260354,5.011860899627209,,,,,,1,M,1,23,r,CIB,2021_Sep_07_1054,2020.2.10,distractmap1,59.99818811076909,"['Left Arm', 'Chest', 'Right Face', 'Right Leg']",
2,"[0, 0.2]",None,,,,,0,1,1,1,,,,,,,,,,,,,,,,,,,,,,None,None,"[0, 0, 0]",1975.9867805000395,1977.9868072001263,1975.9867805000395,1976.9867894998752,1976.9701443999074,1977.9701502001844,"[0, 0, 0]",1,1975.9867805000395,1977.9868072001263,,,,,,,,,,,,,,,,,1,M,1,23,r,CIB,2021_Sep_07_1054,2020.2.10,distractmap1,59.99818811076909,"['Left Arm', 'Chest', 'Right Face', 'Right Leg']",
2,"[0, 0.2]",1,,,,,0,2,2,2,,,,,,,,,,,,,,,,,,,,,,None,None,"[0, 0, 0]",1978.0034857001156,1980.0034753000364,1978.0034857001156,1979.003498500213,1978.9868131000549,1979.9868454001844,"[0, 0, 0]",1,1978.0034857001156,1980.0034753000364,,,,,,,,,,,,,,,,,1,M,1,23,r,CIB,2021_Sep_07_1054,2020.2.10,distractmap1,59.99818811076909,"['Left Arm', 'Chest', 'Right Face', 'Right Leg']",
8,"[0, -0.2]",0,,,,,0,3,3,3,,,,,,,,,,,,,,,,,,,,,,None,None,"[0, 0, 0]",1980.0201548999175,1982.0201778998598,1980.0201548999175,1981.0201506000012,1981.0035152002238,1982.0034954003058,"[0, 0, 0]",1,1980.0201548999175,1982.0201778998598,,,,,,,,,,,,,,,,,1,M,1,23,r,CIB,2021_Sep_07_1054,2020.2.10,distractmap1,59.99818811076909,"['Left Arm', 'Chest', 'Right Face', 'Right Leg']",
2,"[0, 0.2]",1,,,,,0,4,4,4,,,,,,,,,,,,,,,,,,,,,,None,None,"[0, 0, 0]",1982.087115299888,None,1982.087115299888,1983.086845899932,1983.0701888999902,None,"[0, 0, 0]",1,1982.087115299888,None,,,,,,,,,,,,,,,,,1,M,1,23,r,CIB,2021_Sep_07_1054,2020.2.10,distractmap1,59.99818811076909,"['Left Arm', 'Chest', 'Right Face', 'Right Leg']",
5,"[0, 0]",0,,,,,0,5,5,5,,,,,,,,,,,,,,,,,,,,,,None,None,"[0, 0, 0]",1984.0534999002703,1986.053520699963,1984.0534999002703,1985.0535154002719,1985.0368693000637,1986.0368734002113,"[0, 0, 0]",1,1984.0534999002703,1986.053520699963,,,,,,,,,,,,,,,,,1,M,1,23,r,CIB,2021_Sep_07_1054,2020.2.10,distractmap1,59.99818811076909,"['Left Arm', 'Chest', 'Right Face', 'Right Leg']",
1,"[-0.2, 0.2]",0,,,,,0,6,6,6,,,,,,,,,,,,,,,,,,,,,,None,None,"[0, 0, 0]",1986.0702058998868,1988.070217399858,1986.0702058998868,1987.0703079001978,1987.0535940001719,1988.053574200254,"[0, 0, 0]",1,1986.0702058998868,1988.070217399858,,,,,,,,,,,,,,,,,1,M,1,23,r,CIB,2021_Sep_07_1054,2020.2.10,distractmap1,59.99818811076909,"['Left Arm', 'Chest', 'Right Face', 'Right Leg']",
1,"[-0.2, 0.2]",0,,,,,0,7,7,7,,,,,,,,,,,,,,,,,,,,,,None,None,"[0, 0, 0]",1988.0869008000009,1990.0868969000876,1988.0869008000009,1989.0869064000435,1989.0702280001715,1990.0702368002385,"[0, 0, 0]",1,1988.0869008000009,1990.0868969000876,,,,,,,,,,,,,,,,,1,M,1,23,r,CIB,2021_Sep_07_1054,2020.2.10,distractmap1,59.99818811076909,"['Left Arm', 'Chest', 'Right Face', 'Right Leg']",
6,"[0.2, 0]",0,,,,,0,8,8,8,,,,,,,,,,,,,,,,,,,,,,None,None,"[0, 0, 0]",1990.1035639001057,1992.1035599000752,1990.1035639001057,1991.1035621999763,1991.0869149998762,1992.0869495999068,"[0, 0, 0]",1,1990.1035639001057,1992.1035599000752,,,,,,,,,,,,,,,,,1,M,1,23,r,CIB,2021_Sep_07_1054,2020.2.10,distractmap1,59.99818811076909,"['Left Arm', 'Chest', 'Right Face', 'Right Leg']",
1,"[-0.2, 0.2]",1,,,,,0,9,9,9,,,,,,,,,,,,,,,,,,,,,,None,None,"[0, 0, 0]",1992.1202572002076,1994.1202766001225,1992.1202572002076,1993.1202636002563,1993.1035855999216,1994.103576200083,"[0, 0, 0]",1,1992.1202572002076,1994.1202766001225,,,,,,,,,,,,,,,,,1,M,1,23,r,CIB,2021_Sep_07_1054,2020.2.10,distractmap1,59.99818811076909,"['Left Arm', 'Chest', 'Right Face', 'Right Leg']",
,,,,,,,,,,,1994.136931200046,None,,,,,,,,,,,,,,,,,,,,,,,,,,,,,,,,,,,,,,,,14.938271604938272,1229.4610710004345,,,,,,,,1,M,1,23,r,CIB,2021_Sep_07_1054,2020.2.10,distractmap1,59.99818811076909,"['Left Arm', 'Chest', 'Right Face', 'Right Leg']",
2,"[0, 0.2]",None,0,0,0,0,,,,,2011.3706233999692,None,2014.1871044002473,None,2014.1871044002473,2015.1870845002122,2015.1704242001288,2016.1704179998487,1,None,None,"[0, 0, 0]",,,2014.1871044002473,None,,,,,,,,,,,,,,,,,,,,,,,,,,,,0.014006999786943197,5.01037779962644,"[0, 0, 0]",,,,,1,M,1,23,r,CIB,2021_Sep_07_1054,2020.2.10,distractmap1,59.99818811076909,"['Left Arm', 'Chest', 'Right Face', 'Right Leg']",
2,"[0, 0.2]",1,0,1,1,1,,,,,,,2016.187093900051,None,2016.187093900051,2017.1871086000465,2017.1704679001123,2018.1704649999738,1,None,None,"[0, 0, 0]",,,2016.187093900051,None,,,,,,,,,,,,,,,,,,,,,,,,,,,,,,"[0, 0, 0]",,,,,1,M,1,23,r,CIB,2021_Sep_07_1054,2020.2.10,distractmap1,59.99818811076909,"['Left Arm', 'Chest', 'Right Face', 'Right Leg']",
1,"[-0.2, 0.2]",0,0,2,2,2,,,,,,,2018.1871314998716,2018.1871314998716,2018.1871314998716,2019.187120700255,2019.170461700298,2020.1704711001366,1,None,None,"[0, 0, 0]",,,2018.1871314998716,2018.1871314998716,,,,,,,,,,,,,,,,,,,,,,,,,,,,,,"[0, 0, 0]",,,,,1,M,1,23,r,CIB,2021_Sep_07_1054,2020.2.10,distractmap1,59.99818811076909,"['Left Arm', 'Chest', 'Right Face', 'Right Leg']",
2,"[0, 0.2]",0,0,3,3,3,,,,,,,2020.1871358999051,2020.1871358999051,2020.1871358999051,2021.187150000129,2021.1704771001823,2022.170476600062,1,None,None,"[0, 0, 0]",,,2020.1871358999051,2020.1871358999051,,,,,,,,,,,,,,,,,,,,,,,,,,,,,,"[0, 0, 0]",,,,,1,M,1,23,r,CIB,2021_Sep_07_1054,2020.2.10,distractmap1,59.99818811076909,"['Left Arm', 'Chest', 'Right Face', 'Right Leg']",
2,"[0, 0.2]",1,0,4,4,4,,,,,,,2022.2371813002974,2022.2371813002974,2022.2371813002974,2023.2371590998955,2023.2204784001224,None,1,None,None,"[0, 0, 0]",,,2022.2371813002974,2022.2371813002974,,,,,,,,,,,,,,,,,,,,,,,,,,,,,,"[0, 0, 0]",,,,,1,M,1,23,r,CIB,2021_Sep_07_1054,2020.2.10,distractmap1,59.99818811076909,"['Left Arm', 'Chest', 'Right Face', 'Right Leg']",
4,"[-0.2, 0]",0,0,5,5,5,,,,,,,2024.2038425002247,None,2024.2038425002247,2025.2037470000796,2025.1871632002294,2026.187192299869,1,None,None,"[0, 0, 0]",,,2024.2038425002247,None,,,,,,,,,,,,,,,,,,,,,,,,,,,,,,"[0, 0, 0]",,,,,1,M,1,23,r,CIB,2021_Sep_07_1054,2020.2.10,distractmap1,59.99818811076909,"['Left Arm', 'Chest', 'Right Face', 'Right Leg']",
6,"[0.2, 0]",0,0,6,6,6,,,,,,,2026.2038719998673,2026.2038719998673,2026.2038719998673,2027.2038638000377,2027.1871956000105,2028.1871954998933,1,None,None,"[0, 0, 0]",,,2026.2038719998673,2026.2038719998673,,,,,,,,,,,,,,,,,,,,,,,,,,,,,,"[0, 0, 0]",,,,,1,M,1,23,r,CIB,2021_Sep_07_1054,2020.2.10,distractmap1,59.99818811076909,"['Left Arm', 'Chest', 'Right Face', 'Right Leg']",
8,"[0, -0.2]",0,0,7,7,7,,,,,,,2028.2038712999783,2028.2038712999783,2028.2038712999783,2029.2038612002507,2029.187216900289,2030.187211500015,1,None,None,"[0, 0, 0]",,,2028.2038712999783,2028.2038712999783,,,,,,,,,,,,,,,,,,,,,,,,,,,,,,"[0, 0, 0]",,,,,1,M,1,23,r,CIB,2021_Sep_07_1054,2020.2.10,distractmap1,59.99818811076909,"['Left Arm', 'Chest', 'Right Face', 'Right Leg']",
9,"[0.2, -0.2]",0,0,8,8,8,,,,,,,2030.2038889001124,2030.2038889001124,2030.2038889001124,2031.2038847999647,2031.1872136001475,2032.187248100061,1,None,None,"[0, 0, 0]",,,2030.2038889001124,2030.2038889001124,,,,,,,,,,,,,,,,,,,,,,,,,,,,,,"[0, 0, 0]",,,,,1,M,1,23,r,CIB,2021_Sep_07_1054,2020.2.10,distractmap1,59.99818811076909,"['Left Arm', 'Chest', 'Right Face', 'Right Leg']",
9,"[0.2, -0.2]",1,0,9,9,9,,,,,,,2032.2038914002478,2032.2038914002478,2032.2038914002478,2033.2039141999558,2033.187227200251,2034.1872534002177,0,None,None,"[0, 0, 0]",,,2032.2038914002478,2032.2038914002478,,,,,,,,,,,,,,,,,,,,,,,,,,,,,,"[0, 0, 0]",,,,,1,M,1,23,r,CIB,2021_Sep_07_1054,2020.2.10,distractmap1,59.99818811076909,"['Left Arm', 'Chest', 'Right Face', 'Right Leg']",
,,,,,,,,,,,2034.2038862998597,None,,,,,,,,,,,,,,,,,,,,,,,,,,,,,,,,,,,,,,,,32.71604938271605,1266.1770539004356,,,,,,,,1,M,1,23,r,CIB,2021_Sep_07_1054,2020.2.10,distractmap1,59.99818811076909,"['Left Arm', 'Chest', 'Right Face', 'Right Leg']",
4,"[-0.2, 0]",None,0,0,0,0,,,,,2047.570680399891,None,2054.2540665999986,None,2054.2540665999986,2055.2541109002195,2055.2374096000567,2056.237412000075,1,None,None,"[0, 0, 0]",,,2054.2540665999986,None,,,,,,,,,,,,,,,,,,,,,,,,,,,,0.014930699951946735,5.012425499968231,"[0, 0, 0]",,,,,1,M,1,23,r,CIB,2021_Sep_07_1054,2020.2.10,distractmap1,59.99818811076909,"['Left Arm', 'Chest', 'Right Face', 'Right Leg']",
7,"[-0.2, -0.2]",0,0,1,1,1,,,,,,,2056.2540839002468,None,2056.2540839002468,2057.2540810001083,2057.23744110018,2058.2374176001176,0,None,None,"[0, 0, 0]",,,2056.2540839002468,None,,,,,,,,,,,,,,,,,,,,,,,,,,,,,,"[0, 0, 0]",,,,,1,M,1,23,r,CIB,2021_Sep_07_1054,2020.2.10,distractmap1,59.99818811076909,"['Left Arm', 'Chest', 'Right Face', 'Right Leg']",
7,"[-0.2, -0.2]",1,0,2,2,2,,,,,,,2058.2540853000246,2058.2540853000246,2058.2540853000246,2059.2541135000065,2059.237430300098,2060.237468800042,0,None,None,"[0, 0, 0]",,,2058.2540853000246,2058.2540853000246,,,,,,,,,,,,,,,,,,,,,,,,,,,,,,"[0, 0, 0]",,,,,1,M,1,23,r,CIB,2021_Sep_07_1054,2020.2.10,distractmap1,59.99818811076909,"['Left Arm', 'Chest', 'Right Face', 'Right Leg']",
4,"[-0.2, 0]",0,0,3,3,3,,,,,,,2060.2540919003077,2060.2540919003077,2060.2540919003077,2061.25412710011,2061.237469000276,2062.237478700001,1,None,None,"[0, 0, 0]",,,2060.2540919003077,2060.2540919003077,,,,,,,,,,,,,,,,,,,,,,,,,,,,,,"[0, 0, 0]",,,,,1,M,1,23,r,CIB,2021_Sep_07_1054,2020.2.10,distractmap1,59.99818811076909,"['Left Arm', 'Chest', 'Right Face', 'Right Leg']",
8,"[0, -0.2]",0,0,4,4,4,,,,,,,2062.304663800169,2062.304663800169,2062.304663800169,2063.304139399901,2063.2874759999104,None,1,None,None,"[0, 0, 0]",,,2062.304663800169,2062.304663800169,,,,,,,,,,,,,,,,,,,,,,,,,,,,,,"[0, 0, 0]",,,,,1,M,1,23,r,CIB,2021_Sep_07_1054,2020.2.10,distractmap1,59.99818811076909,"['Left Arm', 'Chest', 'Right Face', 'Right Leg']",
4,"[-0.2, 0]",0,0,5,5,5,,,,,,,2064.2708157002926,None,2064.2708157002926,2065.2708026999608,2065.254154900089,2066.254154900089,1,None,None,"[0, 0, 0]",,,2064.2708157002926,None,,,,,,,,,,,,,,,,,,,,,,,,,,,,,,"[0, 0, 0]",,,,,1,M,1,23,r,CIB,2021_Sep_07_1054,2020.2.10,distractmap1,59.99818811076909,"['Left Arm', 'Chest', 'Right Face', 'Right Leg']",
7,"[-0.2, -0.2]",0,0,6,6,6,,,,,,,2066.270812700037,2066.270812700037,2066.270812700037,2067.270825000014,2067.254158800002,2068.2541844998486,1,None,None,"[0, 0, 0]",,,2066.270812700037,2066.270812700037,,,,,,,,,,,,,,,,,,,,,,,,,,,,,,"[0, 0, 0]",,,,,1,M,1,23,r,CIB,2021_Sep_07_1054,2020.2.10,distractmap1,59.99818811076909,"['Left Arm', 'Chest', 'Right Face', 'Right Leg']",
6,"[0.2, 0]",0,0,7,7,7,,,,,,,2068.270815399941,2068.270815399941,2068.270815399941,2069.2708483999595,2069.254186700098,2070.254184000194,1,None,None,"[0, 0, 0]",,,2068.270815399941,2068.270815399941,,,,,,,,,,,,,,,,,,,,,,,,,,,,,,"[0, 0, 0]",,,,,1,M,1,23,r,CIB,2021_Sep_07_1054,2020.2.10,distractmap1,59.99818811076909,"['Left Arm', 'Chest', 'Right Face', 'Right Leg']",
6,"[0.2, 0]",1,0,8,8,8,,,,,,,2070.270842200145,2070.270842200145,2070.270842200145,2071.270859600045,2071.2542020999826,2072.2542043998837,1,None,None,"[0, 0, 0]",,,2070.270842200145,2070.270842200145,,,,,,,,,,,,,,,,,,,,,,,,,,,,,,"[0, 0, 0]",,,,,1,M,1,23,r,CIB,2021_Sep_07_1054,2020.2.10,distractmap1,59.99818811076909,"['Left Arm', 'Chest', 'Right Face', 'Right Leg']",
1,"[-0.2, 0.2]",0,0,9,9,9,,,,,,,2072.270857000258,2072.270857000258,2072.270857000258,2073.2708755000494,2073.254206500016,2074.2542270002887,1,None,None,"[0, 0, 0]",,,2072.270857000258,2072.270857000258,,,,,,,,,,,,,,,,,,,,,,,,,,,,,,"[0, 0, 0]",,,,,1,M,1,23,r,CIB,2021_Sep_07_1054,2020.2.10,distractmap1,59.99818811076909,"['Left Arm', 'Chest', 'Right Face', 'Right Leg']",
,,,,,,,,,,,2074.270876900293,None,,,,,,,,,,,,,,,,,,,,,,,,,,,,,,,,,,,,,,,,22.22222222222222,1305.510829700157,,,,,,,,1,M,1,23,r,CIB,2021_Sep_07_1054,2020.2.10,distractmap1,59.99818811076909,"['Left Arm', 'Chest', 'Right Face', 'Right Leg']",
3,"[0.2, 0.2]",None,,,,,0,0,0,0,2313.3230230002664,None,,,,,,,,,,,,,,,,,,,,None,None,"[0, 0, 0]",2315.972705699969,None,2315.972705699969,2316.9727166001685,2316.9560692002997,2317.9560906998813,"[0, 0, 0]",1,2315.972705699969,None,2127.6712150000967,2127.6712150000967,None,space,125.0018616002053,2127.6712150000967,None,,,0.014841699972748756,5.012055600062013,,,,,,1,M,1,23,r,CIB,2021_Sep_07_1054,2020.2.10,distractmap1,59.99818811076909,"['Left Arm', 'Chest', 'Right Face', 'Right Leg']",
3,"[0.2, 0.2]",None,,,,,0,1,1,1,,,,,,,,,,,,,,,,,,,,,,None,None,"[0, 0, 0]",2317.9727211999707,2319.9727382999845,2317.9727211999707,2318.972762899939,2318.956083100289,2319.9560961001553,"[0, 0, 0]",1,2317.9727211999707,2319.9727382999845,,,,,,,,,,,,,,,,,1,M,1,23,r,CIB,2021_Sep_07_1054,2020.2.10,distractmap1,59.99818811076909,"['Left Arm', 'Chest', 'Right Face', 'Right Leg']",
5,"[0, 0]",0,,,,,0,2,2,2,,,,,,,,,,,,,,,,,,,,,,None,None,"[0, 0, 0]",2319.989430000074,2321.989416900091,2319.989430000074,2320.9894286002964,2320.972773599904,2321.9727962999605,"[0, 0, 0]",1,2319.989430000074,2321.989416900091,,,,,,,,,,,,,,,,,1,M,1,23,r,CIB,2021_Sep_07_1054,2020.2.10,distractmap1,59.99818811076909,"['Left Arm', 'Chest', 'Right Face', 'Right Leg']",
1,"[-0.2, 0.2]",0,,,,,0,3,3,3,,,,,,,,,,,,,,,,,,,,,,None,None,"[0, 0, 0]",2322.006097299978,2324.0061079002917,2322.006097299978,2323.0061106998473,2322.9894618000835,2323.9894552999176,"[0, 0, 0]",1,2322.006097299978,2324.0061079002917,,,,,,,,,,,,,,,,,1,M,1,23,r,CIB,2021_Sep_07_1054,2020.2.10,distractmap1,59.99818811076909,"['Left Arm', 'Chest', 'Right Face', 'Right Leg']",
5,"[0, 0]",1,,,,,0,4,4,4,,,,,,,,,,,,,,,,,,,,,,None,None,"[0, 0, 0]",2324.089734500274,None,2324.089734500274,2325.089475700166,2325.0722920000553,None,"[0, 0, 0]",1,2324.089734500274,None,,,,,,,,,,,,,,,,,1,M,1,23,r,CIB,2021_Sep_07_1054,2020.2.10,distractmap1,59.99818811076909,"['Left Arm', 'Chest', 'Right Face', 'Right Leg']",
8,"[0, -0.2]",0,,,,,0,5,5,5,,,,,,,,,,,,,,,,,,,,,,None,None,"[0, 0, 0]",2326.039477500133,2328.0394635000266,2326.039477500133,2327.0394808002748,2327.0228121001273,2328.0228427001275,"[0, 0, 0]",1,2326.039477500133,2328.0394635000266,,,,,,,,,,,,,,,,,1,M,1,23,r,CIB,2021_Sep_07_1054,2020.2.10,distractmap1,59.99818811076909,"['Left Arm', 'Chest', 'Right Face', 'Right Leg']",
5,"[0, 0]",1,,,,,0,6,6,6,,,,,,,,,,,,,,,,,,,,,,None,None,"[0, 0, 0]",2328.056153200101,2330.056173699908,2328.056153200101,2329.0561605999246,2329.0394981000572,2330.0394891002215,"[0, 0, 0]",1,2328.056153200101,2330.056173699908,,,,,,,,,,,,,,,,,1,M,1,23,r,CIB,2021_Sep_07_1054,2020.2.10,distractmap1,59.99818811076909,"['Left Arm', 'Chest', 'Right Face', 'Right Leg']",
7,"[-0.2, -0.2]",0,,,,,0,7,7,7,,,,,,,,,,,,,,,,,,,,,,None,None,"[0, 0, 0]",2330.072829300072,2332.072840299923,2330.072829300072,2331.072835400235,2331.0561796999536,2332.056163399946,"[0, 0, 0]",1,2330.072829300072,2332.072840299923,,,,,,,,,,,,,,,,,1,M,1,23,r,CIB,2021_Sep_07_1054,2020.2.10,distractmap1,59.99818811076909,"['Left Arm', 'Chest', 'Right Face', 'Right Leg']",
5,"[0, 0]",1,,,,,0,8,8,8,,,,,,,,,,,,,,,,,,,,,,None,None,"[0, 0, 0]",2332.0894897002727,2334.089507400058,2332.0894897002727,2333.089491300285,2333.0728573002852,2334.0728636998683,"[0, 0, 0]",1,2332.0894897002727,2334.089507400058,,,,,,,,,,,,,,,,,1,M,1,23,r,CIB,2021_Sep_07_1054,2020.2.10,distractmap1,59.99818811076909,"['Left Arm', 'Chest', 'Right Face', 'Right Leg']",
7,"[-0.2, -0.2]",1,,,,,0,9,9,9,,,,,,,,,,,,,,,,,,,,,,None,None,"[0, 0, 0]",2334.106205999851,2336.106208700221,2334.106205999851,2335.1062151002698,2335.0895118000917,2336.0895567000844,"[0, 0, 0]",0,2334.106205999851,2336.106208700221,,,,,,,,,,,,,,,,,1,M,1,23,r,CIB,2021_Sep_07_1054,2020.2.10,distractmap1,59.99818811076909,"['Left Arm', 'Chest', 'Right Face', 'Right Leg']",
,,,,,,,,,,,2336.122878599912,None,,,,,,,,,,,,,,,,,,,,,,,,,,,,,,,,,,,,,,,,28.209876543209877,1566.978928600438,,,,,,,,1,M,1,23,r,CIB,2021_Sep_07_1054,2020.2.10,distractmap1,59.99818811076909,"['Left Arm', 'Chest', 'Right Face', 'Right Leg']",
5,"[0, 0]",None,0,0,0,0,,,,,2349.322997600306,None,2356.173040200025,None,2356.173040200025,2357.173025799915,2357.139682699926,2358.139714800287,1,None,None,"[0, 0, 0]",,,2356.173040200025,None,,,,,,,,,,,,,,,,,,,,,,,,,,,,0.015365100000053644,5.013126999605447,"[0, 0, 0]",,,,,1,M,1,23,r,CIB,2021_Sep_07_1054,2020.2.10,distractmap1,59.99818811076909,"['Left Arm', 'Chest', 'Right Face', 'Right Leg']",
5,"[0, 0]",1,0,1,1,1,,,,,,,2358.1563711999916,None,2358.1563711999916,2359.1563784000464,2359.139704000205,2360.1397040998563,1,None,None,"[0, 0, 0]",,,2358.1563711999916,None,,,,,,,,,,,,,,,,,,,,,,,,,,,,,,"[0, 0, 0]",,,,,1,M,1,23,r,CIB,2021_Sep_07_1054,2020.2.10,distractmap1,59.99818811076909,"['Left Arm', 'Chest', 'Right Face', 'Right Leg']",
4,"[-0.2, 0]",0,0,2,2,2,,,,,,,2360.1563913999125,2360.1563913999125,2360.1563913999125,2361.1563988998532,2361.139709400013,2362.1397194000892,1,None,None,"[0, 0, 0]",,,2360.1563913999125,2360.1563913999125,,,,,,,,,,,,,,,,,,,,,,,,,,,,,,"[0, 0, 0]",,,,,1,M,1,23,r,CIB,2021_Sep_07_1054,2020.2.10,distractmap1,59.99818811076909,"['Left Arm', 'Chest', 'Right Face', 'Right Leg']",
2,"[0, 0.2]",0,0,3,3,3,,,,,,,2362.156411200296,2362.156411200296,2362.156411200296,2363.156421900261,2363.139774600044,2364.139767100103,1,None,None,"[0, 0, 0]",,,2362.156411200296,2362.156411200296,,,,,,,,,,,,,,,,,,,,,,,,,,,,,,"[0, 0, 0]",,,,,1,M,1,23,r,CIB,2021_Sep_07_1054,2020.2.10,distractmap1,59.99818811076909,"['Left Arm', 'Chest', 'Right Face', 'Right Leg']",
6,"[0.2, 0]",0,0,4,4,4,,,,,,,2364.189917100128,2364.189917100128,2364.189917100128,2365.1897813999094,2365.1730722002685,None,1,None,None,"[0, 0, 0]",,,2364.189917100128,2364.189917100128,,,,,,,,,,,,,,,,,,,,,,,,,,,,,,"[0, 0, 0]",,,,,1,M,1,23,r,CIB,2021_Sep_07_1054,2020.2.10,distractmap1,59.99818811076909,"['Left Arm', 'Chest', 'Right Face', 'Right Leg']",
8,"[0, -0.2]",0,0,5,5,5,,,,,,,2366.1731120999902,None,2366.1731120999902,2367.173446000088,2367.1564557999372,2368.156462999992,1,None,None,"[0, 0, 0]",,,2366.1731120999902,None,,,,,,,,,,,,,,,,,,,,,,,,,,,,,,"[0, 0, 0]",,,,,1,M,1,23,r,CIB,2021_Sep_07_1054,2020.2.10,distractmap1,59.99818811076909,"['Left Arm', 'Chest', 'Right Face', 'Right Leg']",
1,"[-0.2, 0.2]",0,0,6,6,6,,,,,,,2368.173127199989,2368.173127199989,2368.173127199989,2369.173136000056,2369.156474499963,2370.1564755002037,1,None,None,"[0, 0, 0]",,,2368.173127199989,2368.173127199989,,,,,,,,,,,,,,,,,,,,,,,,,,,,,,"[0, 0, 0]",,,,,1,M,1,23,r,CIB,2021_Sep_07_1054,2020.2.10,distractmap1,59.99818811076909,"['Left Arm', 'Chest', 'Right Face', 'Right Leg']",
4,"[-0.2, 0]",0,0,7,7,7,,,,,,,2370.1731346999295,2370.1731346999295,2370.1731346999295,2371.1726240999997,2371.1564962998964,2372.1564815002494,1,None,None,"[0, 0, 0]",,,2370.1731346999295,2370.1731346999295,,,,,,,,,,,,,,,,,,,,,,,,,,,,,,"[0, 0, 0]",,,,,1,M,1,23,r,CIB,2021_Sep_07_1054,2020.2.10,distractmap1,59.99818811076909,"['Left Arm', 'Chest', 'Right Face', 'Right Leg']",
8,"[0, -0.2]",0,0,8,8,8,,,,,,,2372.1731504001655,2372.1731504001655,2372.1731504001655,2373.1731612002477,2373.1564772999845,2374.156509499997,1,None,None,"[0, 0, 0]",,,2372.1731504001655,2372.1731504001655,,,,,,,,,,,,,,,,,,,,,,,,,,,,,,"[0, 0, 0]",,,,,1,M,1,23,r,CIB,2021_Sep_07_1054,2020.2.10,distractmap1,59.99818811076909,"['Left Arm', 'Chest', 'Right Face', 'Right Leg']",
8,"[0, -0.2]",1,0,9,9,9,,,,,,,2374.1731719998643,2374.1731719998643,2374.1731719998643,2375.1731718000956,2375.1564953001216,2376.1564972000197,1,None,None,"[0, 0, 0]",,,2374.1731719998643,2374.1731719998643,,,,,,,,,,,,,,,,,,,,,,,,,,,,,,"[0, 0, 0]",,,,,1,M,1,23,r,CIB,2021_Sep_07_1054,2020.2.10,distractmap1,59.99818811076909,"['Left Arm', 'Chest', 'Right Face', 'Right Leg']",
,,,,,,,,,,,2376.1731799002737,None,,,,,,,,,,,,,,,,,,,,,,,,,,,,,,,,,,,,,,,,32.46913580246913,1609.246628800407,,,,,,,,1,M,1,23,r,CIB,2021_Sep_07_1054,2020.2.10,distractmap1,59.99818811076909,"['Left Arm', 'Chest', 'Right Face', 'Right Leg']",
6,"[0.2, 0]",None,,,,,0,0,0,0,2391.4068525000475,None,,,,,,,,,,,,,,,,,,,,None,None,"[0, 0, 0]",2396.240015500225,None,2396.240015500225,2397.240008200053,2397.223332299851,2398.223405300174,"[0, 0, 0]",1,2396.240015500225,None,,,,,,,,,,0.014660799875855446,5.011652499437332,,,,,,1,M,1,23,r,CIB,2021_Sep_07_1054,2020.2.10,distractmap1,59.99818811076909,"['Left Arm', 'Chest', 'Right Face', 'Right Leg']",
1,"[-0.2, 0.2]",None,,,,,0,1,1,1,,,,,,,,,,,,,,,,,,,,,,None,None,"[0, 0, 0]",2398.240043300204,2400.2400295999832,2398.240043300204,2399.24001700012,2399.2233422002755,2400.2233612001874,"[0, 0, 0]",1,2398.240043300204,2400.2400295999832,,,,,,,,,,,,,,,,,1,M,1,23,r,CIB,2021_Sep_07_1054,2020.2.10,distractmap1,59.99818811076909,"['Left Arm', 'Chest', 'Right Face', 'Right Leg']",
6,"[0.2, 0]",1,,,,,0,2,2,2,,,,,,,,,,,,,,,,,,,,,,None,None,"[0, 0, 0]",2400.2566968002357,2402.2567091998644,2400.2566968002357,2401.256683200132,2401.2400480001234,2402.240039099939,"[0, 0, 0]",1,2400.2566968002357,2402.2567091998644,,,,,,,,,,,,,,,,,1,M,1,23,r,CIB,2021_Sep_07_1054,2020.2.10,distractmap1,59.99818811076909,"['Left Arm', 'Chest', 'Right Face', 'Right Leg']",
4,"[-0.2, 0]",0,,,,,0,3,3,3,,,,,,,,,,,,,,,,,,,,,,None,None,"[0, 0, 0]",2402.273379200138,2404.2733888002113,2402.273379200138,2403.273382199928,2403.2567165000364,2404.2567163002677,"[0, 0, 0]",1,2402.273379200138,2404.2733888002113,,,,,,,,,,,,,,,,,1,M,1,23,r,CIB,2021_Sep_07_1054,2020.2.10,distractmap1,59.99818811076909,"['Left Arm', 'Chest', 'Right Face', 'Right Leg']",
1,"[-0.2, 0.2]",0,,,,,0,4,4,4,,,,,,,,,,,,,,,,,,,,,,None,None,"[0, 0, 0]",2404.3569061001763,None,2404.3569061001763,2405.356751400046,2405.3400789001025,None,"[0, 0, 0]",1,2404.3569061001763,None,,,,,,,,,,,,,,,,,1,M,1,23,r,CIB,2021_Sep_07_1054,2020.2.10,distractmap1,59.99818811076909,"['Left Arm', 'Chest', 'Right Face', 'Right Leg']",
8,"[0, -0.2]",0,,,,,0,5,5,5,,,,,,,,,,,,,,,,,,,,,,None,None,"[0, 0, 0]",2406.306766500231,2408.3067636000924,2406.306766500231,2407.3067434001714,2407.290092800278,2408.2900962000713,"[0, 0, 0]",1,2406.306766500231,2408.3067636000924,,,,,,,,,,,,,,,,,1,M,1,23,r,CIB,2021_Sep_07_1054,2020.2.10,distractmap1,59.99818811076909,"['Left Arm', 'Chest', 'Right Face', 'Right Leg']",
1,"[-0.2, 0.2]",1,,,,,0,6,6,6,,,,,,,,,,,,,,,,,,,,,,None,None,"[0, 0, 0]",2408.3234202000313,2410.323458999861,2408.3234202000313,2409.3234653002582,2409.3067656001076,2410.306788400281,"[0, 0, 0]",0,2408.3234202000313,2410.323458999861,,,,,,,,,,,,,,,,,1,M,1,23,r,CIB,2021_Sep_07_1054,2020.2.10,distractmap1,59.99818811076909,"['Left Arm', 'Chest', 'Right Face', 'Right Leg']",
8,"[0, -0.2]",1,,,,,0,7,7,7,,,,,,,,,,,,,,,,,,,,,,None,None,"[0, 0, 0]",2410.340104199946,2412.3401124998927,2410.340104199946,2411.340112700127,2411.3234319998883,2412.323474700097,"[0, 0, 0]",1,2410.340104199946,2412.3401124998927,,,,,,,,,,,,,,,,,1,M,1,23,r,CIB,2021_Sep_07_1054,2020.2.10,distractmap1,59.99818811076909,"['Left Arm', 'Chest', 'Right Face', 'Right Leg']",
1,"[-0.2, 0.2]",1,,,,,0,8,8,8,,,,,,,,,,,,,,,,,,,,,,None,None,"[0, 0, 0]",2412.3568015000783,2414.356790000107,2412.3568015000783,2413.3568000001833,2413.340145899914,2414.3401470999233,"[0, 0, 0]",1,2412.3568015000783,2414.356790000107,,,,,,,,,,,,,,,,,1,M,1,23,r,CIB,2021_Sep_07_1054,2020.2.10,distractmap1,59.99818811076909,"['Left Arm', 'Chest', 'Right Face', 'Right Leg']",
6,"[0.2, 0]",0,,,,,0,9,9,9,,,,,,,,,,,,,,,,,,,,,,None,None,"[0, 0, 0]",2414.373474400025,2416.3734873002395,2414.373474400025,2415.373476699926,2415.3568235998973,2416.3568206001073,"[0, 0, 0]",1,2414.373474400025,2416.3734873002395,,,,,,,,,,,,,,,,,1,M,1,23,r,CIB,2021_Sep_07_1054,2020.2.10,distractmap1,59.99818811076909,"['Left Arm', 'Chest', 'Right Face', 'Right Leg']",
