	onset	duration	rt	response	correct	bodySite	temperature	condition	pretrial-jitter
0	2.7855692002922297	7.80482430011034				Left Arm	46.0	2back Instructions	
1	12.841834800317883	1.9926145002245903			1.0	Left Arm	46.0	2back	
2	14.843948500230908	2.005124100483954			1.0	Left Arm	46.0	2back	5.0
3	16.859529400244355	2.0072518000379205	0.0	2.0	1.0	Left Arm	46.0	2back	
4	18.876279700081795	2.0071844002231956	0.0	2.0	1.0	Left Arm	46.0	2back	
5	20.93243720009923	1.9615139998495579	0.4165533999912441	0.0	1.0	Left Arm	46.0	2back	
6	22.909692900255322	2.0070437998510897	0.0	2.0	1.0	Left Arm	46.0	2back	
7	24.926200000103563	2.007423600181937	0.4171402002684772	0.0	1.0	Left Arm	46.0	2back	
8	26.943026800174266	2.0071270996704698	0.0	2.0	1.0	Left Arm	46.0	2back	
9	28.959819300100207	2.0068736001849174	0.40040280018001795	0.0	1.0	Left Arm	46.0	2back	
10	30.97654030006379	2.0068455995060503	0.0	2.0	0.0	Left Arm	46.0	2back	
11	39.99082850012928	5.012516799848527		15.802469135802468		Left Arm	46.0	2back Rating	7.0
12	45.01558930007741	50.021804000250995				Left Arm	46.0	1back Instructions	
13	53.05551160033792	1.9992278995923698			1.0	Left Arm	46.0	1back	
14	55.06071160035208	2.005500300321728	0.5298473997972906	0.0	1.0	Left Arm	46.0	1back	3.0
15	57.0615435000509	2.00387670006603	0.46288839960470796	2.0	1.0	Left Arm	46.0	1back	
16	59.061465200036764	2.0040553002618253	0.5462295999750495	2.0	1.0	Left Arm	46.0	1back	
17	61.13213170040399	1.9294219999574125	0.59917449997738	2.0	1.0	Left Arm	46.0	1back	
18	63.076562399975955	2.0072093005292118	0.5825525000691414	2.0	1.0	Left Arm	46.0	1back	
19	65.07847429998219	2.0034102997742593	0.5798138999380171	2.0	1.0	Left Arm	46.0	1back	
20	67.07847229996696	2.0034413007088006	0.479553600307554	2.0	1.0	Left Arm	46.0	1back	
21	69.07854170026258	2.003326099831611	0.396356999874115	2.0	1.0	Left Arm	46.0	1back	
22	71.07846210012212	2.0035188999027014	0.5324572999961674	0.0	1.0	Left Arm	46.0	1back	
23	76.07471249997616	5.011865600012243		22.839506172839506		Left Arm	46.0	1back Rating	3.0
24	81.09960940014571	86.10545190004632				Left Arm	46.0	2back Instructions	
25	93.14161500008777	1.994228399824351			1.0	Left Arm	46.0	2back	
26	95.14468370005488	2.0048513994552195			1.0	Left Arm	46.0	2back	7.0
27	97.16030210023746	2.006951299495995	0.45034509990364313	0.0	1.0	Left Arm	46.0	2back	
28	99.17682810034603	2.007272799964994	0.0	2.0	1.0	Left Arm	46.0	2back	
29	101.23759560007602	1.9523597001098096	0.534094300121069	0.0	0.0	Left Arm	46.0	2back	
30	103.21038610022515	2.0068710995838046	0.0	2.0	1.0	Left Arm	46.0	2back	
31	105.22692100005224	2.0071649998426437	0.46706860000267625	0.0	1.0	Left Arm	46.0	2back	
32	107.24350820016116	2.007314099930227	0.4170094998553395	0.0	1.0	Left Arm	46.0	2back	
33	109.26033860025927	2.0070659001357853	0.786850200034678	0.0	1.0	Left Arm	46.0	2back	
34	111.27715680003166	2.0067916996777058	0.0	2.0	1.0	Left Arm	46.0	2back	
35	120.29172810027376	5.011756299994886		15.061728395061733		Left Arm	46.0	2back Rating	7.0
36	125.31663050036877	130.32231880025938				Left Arm	46.0	1back Instructions	
37	133.33972730021924	1.9985973997972906			1.0	Left Arm	46.0	1back	
38	135.34488690039143	2.0050582997500896			0.0	Left Arm	46.0	1back	3.0
39	137.345511500258	2.003832799848169	0.6962545998394489	2.0	1.0	Left Arm	46.0	1back	
40	139.34552610013634	2.0038195997476578	0.612818700261414	2.0	1.0	Left Arm	46.0	1back	
41	141.38395360019058	1.9603098002262414	0.0459374999627471	2.0	0.0	Left Arm	46.0	1back	
42	143.36052069999278	2.0071662003174424	0.23260360024869442	2.0	1.0	Left Arm	46.0	1back	
43	145.36250649997965	2.0032012001611292	0.0004077996127307415	2.0	1.0	Left Arm	46.0	1back	
44	147.36265560006723	2.002939799800515	0.3130354001186788	2.0	0.0	Left Arm	46.0	1back	
45	149.36256400030106	2.003152099903673	0.5797092001885176	2.0	1.0	Left Arm	46.0	1back	
46	151.3625817000866	2.0031368997879326	0.5631045997142792	2.0	1.0	Left Arm	46.0	1back	
47	158.35874200006947	5.011862100102007		15.061728395061733		Left Arm	46.0	1back Rating	5.0
48	163.36389800021425	168.3730862000957				Left Arm	46.0	1back Instructions	
49	173.40652019996196	1.9989766995422542			1.0	Left Arm	46.0	1back	
50	175.41175490012392	2.0052130995318294	0.42963230004534125	0.0	1.0	Left Arm	46.0	1back	5.0
51	177.41258060000837	2.003594699781388	0.5630259998142719	2.0	1.0	Left Arm	46.0	1back	
52	179.41260090004653	2.0036152000539005	0.47989129973575473	2.0	1.0	Left Arm	46.0	1back	
53	181.44272130029276	1.9767136005684733	0.595961700193584	2.0	1.0	Left Arm	46.0	1back	
54	183.4274489004165	2.0072606997564435	0.6963083003647625	2.0	1.0	Left Arm	46.0	1back	
55	185.42949860030785	2.003191400319338	0.5796575001440942	2.0	1.0	Left Arm	46.0	1back	
56	187.42949890019372	2.0032015992328525	0.4463353999890387	0.0	0.0	Left Arm	46.0	1back	
57	189.42953420011327	2.0031250999309123	0.7966236998327076	0.0	1.0	Left Arm	46.0	1back	
58	191.42951819999143	2.003186599817127	0.6130554000847042	0.0	1.0	Left Arm	46.0	1back	
59	200.4257787000388	5.011535199824721		23.641975308641975		Left Arm	46.0	1back Rating	7.0
60	205.45092470012605	210.45638720039278				Left Arm	46.0	2back Instructions	
61	213.4922927999869	1.994541799183935			1.0	Left Arm	46.0	2back	
62	215.4952992000617	2.0053886994719505			1.0	Left Arm	46.0	2back	3.0
63	217.51111530000344	2.0071288999170065	0.6170204002410173	0.0	1.0	Left Arm	46.0	2back	
64	219.52780870022252	2.007134299725294	0.0	2.0	1.0	Left Arm	46.0	2back	
65	221.5841904003173	1.960997600108385	0.0	2.0	1.0	Left Arm	46.0	2back	
66	223.56129189999774	2.006871999707073	0.0	2.0	1.0	Left Arm	46.0	2back	
67	225.57785380026326	2.0071398997679353	0.7363690999336541	0.0	1.0	Left Arm	46.0	2back	
68	227.59461709996685	2.0069298995658755	0.0	2.0	1.0	Left Arm	46.0	2back	
69	229.61128060007468	2.0069904001429677	0.0	2.0	1.0	Left Arm	46.0	2back	
70	231.62784050032496	2.00719239981845	0.7003144999034703	0.0	1.0	Left Arm	46.0	2back	
71	236.6428543003276	5.011282700113952		14.938271604938272		Left Arm	46.0	2back Rating	3.0
72	241.64792110025883	246.65699030039832				Left Arm	46.0	2back Instructions	
73	253.69305150024593	1.9937593997456133			1.0	Left Arm	46.0	2back	
74	255.69556790031493	2.0054013994522393			1.0	Left Arm	46.0	2back	7.0
75	257.7115210001357	2.0069177001714706	0.0	2.0	1.0	Left Arm	46.0	2back	
76	259.7281520999968	2.006994199473411	0.0	2.0	1.0	Left Arm	46.0	2back	
77	261.8030043002218	1.9406312005594373	0.4168400000780821	0.0	1.0	Left Arm	46.0	2back	
78	263.7615424003452	2.0069501996040344	0.5336949001066387	0.0	1.0	Left Arm	46.0	2back	
79	265.77811540011317	2.0071965996176004	0.0	2.0	1.0	Left Arm	46.0	2back	
80	267.7948655001819	2.007063999772072	0.0	2.0	1.0	Left Arm	46.0	2back	
81	269.81144150020555	2.0072553995996714	0.0	2.0	1.0	Left Arm	46.0	2back	
82	271.82817850029096	2.0071296002715826	0.6360716996714473	0.0	1.0	Left Arm	46.0	2back	
83	280.8428429001942	5.011989700142294		15.246913580246915		Left Arm	46.0	2back Rating	7.0
84	285.86796160042286	290.873616900295				Left Arm	46.0	1back Instructions	
85	293.90755979996175	1.9986633998341858			1.0	Left Arm	46.0	1back	
86	295.91256440011784	2.005343100056052	0.5463553001172841	2.0	1.0	Left Arm	46.0	1back	3.0
87	297.9137099003419	2.0030933995731175	0.5797856999561191	0.0	1.0	Left Arm	46.0	1back	
88	299.9138474999927	2.0028932001441717	0.5628479002043605	2.0	1.0	Left Arm	46.0	1back	
89	301.96882060030475	1.9429201004095376	0.6129727996885777	2.0	1.0	Left Arm	46.0	1back	
90	303.92845200002193	2.0070670996792614	0.49641039967536926	2.0	1.0	Left Arm	46.0	1back	
91	305.93079620040953	2.002389600034803	0.5464373999275267	2.0	1.0	Left Arm	46.0	1back	
92	307.9308486999944	2.0023346999660134	0.5632676002569497	2.0	1.0	Left Arm	46.0	1back	
93	309.93066589999944	2.002746700309217	0.6297852997668087	2.0	1.0	Left Arm	46.0	1back	
94	311.9308260004036	2.0024451995268464	0.37981870025396347	0.0	1.0	Left Arm	46.0	1back	
95	316.9268794003874	5.011146099772304		23.88888888888889		Left Arm	46.0	1back Rating	3.0
96	321.93196190008894	326.9409178001806				Left Arm	46.0	1back Instructions	
97	333.9741070000455	1.9827669998630881			1.0	Left Arm	46.0	1back	
98	335.96289080008864	2.0053443000651896	0.4464274002239108	0.0	1.0	Left Arm	46.0	1back	7.0
99	337.96384650003165	2.0034797000698745	0.5994903002865613	0.0	1.0	Left Arm	46.0	1back	
100	339.96389000024647	2.0034348000772297	0.41641620034351945	2.0	1.0	Left Arm	46.0	1back	
101	342.01266030035913	1.9558938997797668	0.4959753002040088	2.0	1.0	Left Arm	46.0	1back	
102	343.9787061000243	2.0072074001654983	0.44963179994374514	2.0	1.0	Left Arm	46.0	1back	
103	345.98088470008224	2.0028760000132024	0.6657046000473201	2.0	1.0	Left Arm	46.0	1back	
104	347.9808515002951	2.0029544001445174	0.646442599594593	2.0	1.0	Left Arm	46.0	1back	
105	349.9807478003204	2.0032129995524883	0.5297754998318851	2.0	1.0	Left Arm	46.0	1back	
106	351.98085990035906	2.00299229985103	1.1129475999623537	0.0	1.0	Left Arm	46.0	1back	
107	358.97685410035774	5.011993299704045		23.580246913580247		Left Arm	46.0	1back Rating	5.0
108	364.0020153000951	369.0075905001722				Left Arm	46.0	2back Instructions	
109	374.043807100039	1.9940488003194332			1.0	Left Arm	46.0	2back	
110	376.0466071004048	2.005140000022948			1.0	Left Arm	46.0	2back	5.0
111	378.06249940022826	2.0066704000346363	0.0	2.0	1.0	Left Arm	46.0	2back	
112	380.07900530006737	2.0071328999474645	0.0	2.0	1.0	Left Arm	46.0	2back	
113	382.16938400035724	1.9263379001058638	0.5497371000237763	0.0	1.0	Left Arm	46.0	2back	
114	384.11224539997056	2.0072606997564435	0.0	2.0	1.0	Left Arm	46.0	2back	
115	386.12903150031343	2.007164599839598	0.0	2.0	1.0	Left Arm	46.0	2back	
116	388.14566180016845	2.007247499655932	0.30029030004516244	0.0	1.0	Left Arm	46.0	2back	
117	390.1624350002967	2.0071033998392522	0.0	2.0	1.0	Left Arm	46.0	2back	
118	392.179002400022	2.007310299668461	0.0	2.0	1.0	Left Arm	46.0	2back	
119	399.1939127002843	5.0116107002831995		14.876543209876539		Left Arm	46.0	2back Rating	5.0
120	404.1990810004063	409.2082001003437				Left Arm	46.0	2back Instructions	
121	414.2439631000161	1.9943694998510182			1.0	Left Arm	46.0	2back	
122	416.24684710009024	2.0053049996495247	0.0	2.0	0.0	Left Arm	46.0	2back	5.0
123	418.2625583000481	2.0072253001853824	0.0	2.0	0.0	Left Arm	46.0	2back	
124	420.279202000238	2.0072355000302196	0.0	2.0	1.0	Left Arm	46.0	2back	
125	422.35575260035694	1.937590800691396	0.0	2.0	1.0	Left Arm	46.0	2back	
126	424.31290120026097	2.0066146003082395	0.0	2.0	1.0	Left Arm	46.0	2back	
127	426.32932560006157	2.007194799836725	0.5200398000888526	0.0	0.0	Left Arm	46.0	2back	
128	428.3459318000823	2.0073443995788693	0.0	2.0	1.0	Left Arm	46.0	2back	
129	430.36269760038704	2.00702239992097	0.0	2.0	0.0	Left Arm	46.0	2back	
130	432.37949040019885	2.006924900226295	0.0	2.0	1.0	Left Arm	46.0	2back	
131	437.39396240003407	5.012082000263035		15.987654320987655		Left Arm	46.0	2back Rating	3.0
132	442.3993679000996	447.40836190013215				Left Arm	46.0	2back Instructions	
133	454.44400620041415	1.994850699789822			1.0	Left Arm	46.0	2back	
134	456.4470971003175	2.0054217004217207			1.0	Left Arm	46.0	2back	7.0
135	458.4636014001444	2.0057779997587204	0.0	2.0	1.0	Left Arm	46.0	2back	
136	460.4794204002246	2.0074597001075745	0.0	2.0	0.0	Left Arm	46.0	2back	
137	462.52947950037196	1.9740720996633172	0.0	2.0	1.0	Left Arm	46.0	2back	
138	464.5130645004101	2.006951099727303	0.0	2.0	1.0	Left Arm	46.0	2back	
139	466.52971999999136	2.006966299843043	0.0	2.0	1.0	Left Arm	46.0	2back	
140	468.54628720041364	2.007247899658978	0.3004764998331666	0.0	1.0	Left Arm	46.0	2back	
141	470.563112300355	2.0069461995735765	0.0	2.0	1.0	Left Arm	46.0	2back	
142	472.5797362001613	2.00701139960438	0.41700970008969307	0.0	1.0	Left Arm	46.0	2back	
143	481.595041600056	5.010603199712932		14.753086419753089		Left Arm	46.0	2back Rating	7.0
144	486.6200790000148	491.6251644003205				Left Arm	46.0	1back Instructions	
145	494.6589341000654	1.998947899788618			1.0	Left Arm	46.0	1back	
146	496.6642165002413	2.0050392001867294	1.9172187000513077	2.0	1.0	Left Arm	46.0	1back	3.0
147	498.6653873003088	2.00270799966529	1.0629023001529276	2.0	1.0	Left Arm	46.0	1back	
148	500.66492120036855	2.0037909005768597	0.47962020011618733	2.0	1.0	Left Arm	46.0	1back	
149	502.69887039996684	1.9692572001367807	0.8461275999434292	0.0	1.0	Left Arm	46.0	1back	
150	504.6800899002701	2.0068212999030948	0.5962942000478506	2.0	1.0	Left Arm	46.0	1back	
151	506.68265350023285	2.001627600286156	0.5629913001321256	2.0	1.0	Left Arm	46.0	1back	
152	508.6819783002138	2.003021799493581	0.86327930027619	0.0	1.0	Left Arm	46.0	1back	
153	510.6821096003987	2.002891699783504	0.596316299866885	2.0	1.0	Left Arm	46.0	1back	
154	512.6818467001431	2.003453299868852	0.6463854000903666	2.0	1.0	Left Arm	46.0	1back	
155	519.6780481003225	5.011860899627209		23.39506172839506		Left Arm	46.0	1back Rating	5.0
156	524.7048408002593	529.7081095003523				Left Arm	46.0	2back Instructions	
157	534.7282402999699	1.9943339992314577			1.0	Left Arm	46.0	2back	
158	536.7312552002259	2.005013999994844			1.0	Left Arm	46.0	2back	5.0
159	538.7468557003886	2.0071804001927376	0.633604200091213	0.0	1.0	Left Arm	46.0	2back	
160	540.763507200405	2.007182499859482	0.0	2.0	1.0	Left Arm	46.0	2back	
161	542.8185376003385	1.9638604000210762	1.0000830003991723	0.0	1.0	Left Arm	46.0	2back	
162	544.7969969999976	2.007034999784082	0.0	2.0	1.0	Left Arm	46.0	2back	
163	546.813512200024	2.0073001999408007	0.0	2.0	1.0	Left Arm	46.0	2back	
164	548.8302707001567	2.0071547999978065	0.0	2.0	1.0	Left Arm	46.0	2back	
165	550.8471711003222	2.006728900130838	0.0	2.0	1.0	Left Arm	46.0	2back	
166	552.8635448003188	2.007270900066942	1.0538049996830523	0.0	1.0	Left Arm	46.0	2back	
167	561.87908480037	5.01037779962644		14.938271604938272		Left Arm	46.0	2back Rating	7.0
168	566.9048600001261	571.9089774000458				Left Arm	46.0	1back Instructions	
169	574.9262551004067	1.998924899380654			1.0	Left Arm	46.0	1back	
170	576.9315349999815	2.0050478000193834	0.4660860002040863	0.0	1.0	Left Arm	46.0	1back	3.0
171	578.9329270003363	2.002307000104338	0.39913389971479774	2.0	1.0	Left Arm	46.0	1back	
172	580.9329468002543	2.0022796001285315	0.8464881000109017	2.0	1.0	Left Arm	46.0	1back	
173	582.9720854000188	1.9573423005640507	0.5130549999885261	0.0	1.0	Left Arm	46.0	1back	
174	584.9475692003034	2.006463299971074	0.5628685001283884	2.0	1.0	Left Arm	46.0	1back	
175	586.9489888004027	2.0036485996097326	0.6463045999407768	2.0	1.0	Left Arm	46.0	1back	
176	588.9489934002049	2.003659799695015	0.5796831999905407	2.0	1.0	Left Arm	46.0	1back	
177	590.9489458999597	2.0038100997917354	0.6490605003200471	2.0	1.0	Left Arm	46.0	1back	
178	592.9489390002564	2.003845199942589	0.7130132000893354	2.0	0.0	Left Arm	46.0	1back	
179	597.9450995000079	5.012425499968231		32.71604938271605		Left Arm	46.0	1back Rating	3.0
180	602.9514848999679	607.9596995003521				Left Arm	46.0	1back Instructions	
181	614.9935061000288	1.9983253995887935			1.0	Left Arm	46.0	1back	
182	616.9984045000747	2.005257999524474			0.0	Left Arm	46.0	1back	7.0
183	618.9999943003058	2.002123899757862	0.5329837999306619	2.0	0.0	Left Arm	46.0	1back	
184	621.0001133000478	2.0019463999196887	0.8130362997762859	2.0	1.0	Left Arm	46.0	1back	
185	623.0367116001435	1.9620744003914297	0.6954438001848757	2.0	1.0	Left Arm	46.0	1back	
186	625.0141671001911	2.0071896999143064	0.829456300009042	2.0	1.0	Left Arm	46.0	1back	
187	627.015973099973	2.0036356998607516	0.5322646000422537	2.0	1.0	Left Arm	46.0	1back	
188	629.0160409002565	2.0035259993746877	0.612941199913621	2.0	1.0	Left Arm	46.0	1back	
189	631.0160219999962	2.0035814000293612	0.3163708997890353	0.0	1.0	Left Arm	46.0	1back	
190	633.0160088003613	2.003651399631053	0.5296458001248538	2.0	1.0	Left Arm	46.0	1back	
191	638.0121953003109	5.012055600062013		22.22222222222222		Left Arm	46.0	1back Rating	3.0
