BodySiteInstructionText.started,BodySiteImg.started,BodySiteImg.stopped,BodySiteInstructionRead.keys,BodySiteInstructionRead.rt,BodySiteInstructionRead.started,BodySiteInstructionRead.stopped,fixation.started,fixation.stopped,IntensityRating.response,IntensityRating.rt,IntensityRating.started,IntensityRating.stopped,ComfortRating.response,ComfortRating.rt,ComfortRating.started,ComfortRating.stopped,ValenceRating.response,ValenceRating.rt,ValenceRating.started,ValenceRating.stopped,AvoidRating.response,AvoidRating.rt,AvoidRating.started,AvoidRating.stopped,RelaxRating.response,RelaxRating.rt,RelaxRating.started,RelaxRating.stopped,TaskAttentionRating.response,TaskAttentionRating.rt,TaskAttentionRating.started,TaskAttentionRating.stopped,BoredomRating.response,BoredomRating.rt,BoredomRating.started,BoredomRating.stopped,AlertnessRating.response,AlertnessRating.rt,AlertnessRating.started,AlertnessRating.stopped,PosThxRating.response,PosThxRating.rt,PosThxRating.started,PosThxRating.stopped,NegThxRating.response,NegThxRating.rt,NegThxRating.started,NegThxRating.stopped,SelfRating.response,SelfRating.rt,SelfRating.started,SelfRating.stopped,OtherRating.response,OtherRating.rt,OtherRating.started,OtherRating.stopped,ImageryRating.response,ImageryRating.rt,ImageryRating.started,ImageryRating.stopped,PresentRating.response,PresentRating.rt,PresentRating.started,PresentRating.stopped,subject number,gender,session,handedness,scanner,run,experience(1) or regulate(2),date,psychopyVersion,expName,body_site_order,frameRate,
30.293262399965897,30.293262399965897,None,space,70.68695620005019,30.293262399965897,None,152.0608830000274,None,36.60493827160494,137.59941683989018,,,,,,,,,,,,,,,,,,,,,,,,,,,,,,,,,,,,,,,,,,,,,,,,,,,,,,,7,f,19,r,LH,,1,2022_Aug_06_0935,2020.2.10,acceptmap-experience,"['Right Face', 'Left Face', 'Right Face', 'Left Face']",59.98138174906081,
,,,,,,,180.07780559989624,None,36.91358024691358,162.50123714003712,0.01664496003650129,5.016049760160968,,,,,,,,,,,,,,,,,,,,,,,,,,,,,,,,,,,,,,,,,,,,,,,,,,,,,7,f,19,r,LH,,1,2022_Aug_06_0935,2020.2.10,acceptmap-experience,"['Right Face', 'Left Face', 'Right Face', 'Left Face']",59.98138174906081,
,,,,,,,208.0947087998502,None,36.48148148148149,191.15198234003037,0.014880559872835875,5.012708959868178,,,,,,,,,,,,,,,,,,,,,,,,,,,,,,,,,,,,,,,,,,,,,,,,,,,,,7,f,19,r,LH,,1,2022_Aug_06_0935,2020.2.10,acceptmap-experience,"['Right Face', 'Left Face', 'Right Face', 'Left Face']",59.98138174906081,
,,,,,,,236.11158200004138,None,36.358024691358025,220.0022327399347,0.01453575980849564,5.0119540598243475,,,,,,,,,,,,,,,,,,,,,,,,,,,,,,,,,,,,,,,,,,,,,,,,,,,,,7,f,19,r,LH,,1,2022_Aug_06_0935,2020.2.10,acceptmap-experience,"['Right Face', 'Left Face', 'Right Face', 'Left Face']",59.98138174906081,
,,,,,,,264.12849599984474,None,37.46913580246913,247.13573753996752,0.01451866002753377,5.01194866001606,,,,,,,,,,,,,,,,,,,,,,,,,,,,,,,,,,,,,,,,,,,,,,,,,,,,,7,f,19,r,LH,,1,2022_Aug_06_0935,2020.2.10,acceptmap-experience,"['Right Face', 'Left Face', 'Right Face', 'Left Face']",59.98138174906081,
,,,,,,,292.14538379991427,None,36.11111111111111,277.601905340096,0.014557959977537394,5.012026559794322,,,,,,,,,,,,,,,,,,,,,,,,,,,,,,,,,,,,,,,,,,,,,,,,,,,,,7,f,19,r,LH,,1,2022_Aug_06_0935,2020.2.10,acceptmap-experience,"['Right Face', 'Left Face', 'Right Face', 'Left Face']",59.98138174906081,
,,,,,,,320.16227429988794,None,36.04938271604938,301.135619440116,0.015300559811294079,5.013548959977925,,,,,,,,,,,,,,,,,,,,,,,,,,,,,,,,,,,,,,,,,,,,,,,,,,,,,7,f,19,r,LH,,1,2022_Aug_06_0935,2020.2.10,acceptmap-experience,"['Right Face', 'Left Face', 'Right Face', 'Left Face']",59.98138174906081,
,,,,,,,348.17920119990595,None,35.49382716049383,334.85112613998353,0.015131259802728891,5.013196459738538,,,,,,,,,,,,,,,,,,,,,,,,,,,,,,,,,,,,,,,,,,,,,,,,,,,,,7,f,19,r,LH,,1,2022_Aug_06_0935,2020.2.10,acceptmap-experience,"['Right Face', 'Left Face', 'Right Face', 'Left Face']",59.98138174906081,
,,,,,,,376.2127528998535,None,37.53086419753087,359.55129723995924,0.016581059899181128,5.016114359954372,,,,,,,,,,,,,,,,,,,,,,,,,,,,,,,,,,,,,,,,,,,,,,,,,,,,,7,f,19,r,LH,,1,2022_Aug_06_0935,2020.2.10,acceptmap-experience,"['Right Face', 'Left Face', 'Right Face', 'Left Face']",59.98138174906081,
,,,,,,,404.2296277999412,None,38.39506172839506,385.8364835397806,0.016598260030150414,5.016104059992358,,,,,,,,,,,,,,,,,,,,,,,,,,,,,,,,,,,,,,,,,,,,,,,,,,,,,7,f,19,r,LH,,1,2022_Aug_06_0935,2020.2.10,acceptmap-experience,"['Right Face', 'Left Face', 'Right Face', 'Left Face']",59.98138174906081,
,,,,,,,432.24655829998665,None,39.1358024691358,418.2374313401524,0.014938360080122948,5.01283586001955,,,,,,,,,,,,,,,,,,,,,,,,,,,,,,,,,,,,,,,,,,,,,,,,,,,,,7,f,19,r,LH,,1,2022_Aug_06_0935,2020.2.10,acceptmap-experience,"['Right Face', 'Left Face', 'Right Face', 'Left Face']",59.98138174906081,
,,,,,,,460.26345520000905,None,40.80246913580247,441.7700161400717,0.014297759858891368,5.011558359954506,,,,,,,,,,,,,,,,,,,,,,,,,,,,,,,,,,,,,,,,,,,,,,,,,,,,,7,f,19,r,LH,,1,2022_Aug_06_0935,2020.2.10,acceptmap-experience,"['Right Face', 'Left Face', 'Right Face', 'Left Face']",59.98138174906081,
,,,,,,,488.280374399852,None,41.85185185185185,473.01893723988906,0.01523545989766717,5.013397259870544,,,,,,,,,,,,,,,,,,,,,,,,,,,,,,,,,,,,,,,,,,,,,,,,,,,,,7,f,19,r,LH,,1,2022_Aug_06_0935,2020.2.10,acceptmap-experience,"['Right Face', 'Left Face', 'Right Face', 'Left Face']",59.98138174906081,
,,,,,,,516.2972627999261,None,44.1358024691358,496.8205070400145,0.016584960045292974,5.016097359824926,,,,,,,,,,,,,,,,,,,,,,,,,,,,,,,,,,,,,,,,,,,,,,,,,,,,,7,f,19,r,LH,,1,2022_Aug_06_0935,2020.2.10,acceptmap-experience,"['Right Face', 'Left Face', 'Right Face', 'Left Face']",59.98138174906081,
,,,,,,,544.3308258999605,None,43.888888888888886,526.071564140264,0.01511955983005464,5.013167359866202,,,,,,,,,,,,,,,,,,,,,,,,,,,,,,,,,,,,,,,,,,,,,,,,,,,,,7,f,19,r,LH,,1,2022_Aug_06_0935,2020.2.10,acceptmap-experience,"['Right Face', 'Left Face', 'Right Face', 'Left Face']",59.98138174906081,
,,,,,,,572.3477512998506,None,45.0,555.1045762395952,0.01441725972108543,5.011733959661797,,,,,,,,,,,,,,,,,,,,,,,,,,,,,,,,,,,,,,,,,,,,,,,,,,,,,7,f,19,r,LH,,1,2022_Aug_06_0935,2020.2.10,acceptmap-experience,"['Right Face', 'Left Face', 'Right Face', 'Left Face']",59.98138174906081,
,,,,,,,,,,,0.014982060296460986,5.012880660127848,1.8518518518518334,563.3052212398034,,,,,,,,,,,,,,,,,,,,,,,,,,,,,,,,,,,,,,,,,,,,,,,,,,,7,f,19,r,LH,,1,2022_Aug_06_0935,2020.2.10,acceptmap-experience,"['Right Face', 'Left Face', 'Right Face', 'Left Face']",59.98138174906081,
,,,,,,,,,,,,,,,0.014411460142582655,None,14.81481481481481,567.6556227398105,,,,,,,,,,,,,,,,,,,,,,,,,,,,,,,,,,,,,,,,,,,,,,,7,f,19,r,LH,,1,2022_Aug_06_0935,2020.2.10,acceptmap-experience,"['Right Face', 'Left Face', 'Right Face', 'Left Face']",59.98138174906081,
,,,,,,,,,59.5679012345679,570.8236325799953,,,,,,,,,0.014074060134589672,None,,,,,,,,,,,,,,,,,,,,,,,,,,,,,,,,,,,,,,,,,,,,,7,f,19,r,LH,,1,2022_Aug_06_0935,2020.2.10,acceptmap-experience,"['Right Face', 'Left Face', 'Right Face', 'Left Face']",59.98138174906081,
,,,,,,,,,,,0.012715119868516922,None,,,,,,,,,50.617283950617285,575.4058101403061,,,,,,,,,,,,,,,,,,,,,,,,,,,,,,,,,,,,,,,,,,,7,f,19,r,LH,,1,2022_Aug_06_0935,2020.2.10,acceptmap-experience,"['Right Face', 'Left Face', 'Right Face', 'Left Face']",59.98138174906081,
,,,,,,,,,,,,,,,,,,,,,,,0.013926859712228179,None,50.0,577.5388636398129,,,,,,,,,,,,,,,,,,,,,,,,,,,,,,,,,,,,,,,7,f,19,r,LH,,1,2022_Aug_06_0935,2020.2.10,acceptmap-experience,"['Right Face', 'Left Face', 'Right Face', 'Left Face']",59.98138174906081,
,,,,,,,,,,,,,,,,,,,,,,,,,,,0.014218960190191865,None,66.11111111111111,581.9896026398055,,,,,,,,,,,,,,,,,,,,,,,,,,,,,,,,,,,7,f,19,r,LH,,1,2022_Aug_06_0935,2020.2.10,acceptmap-experience,"['Right Face', 'Left Face', 'Right Face', 'Left Face']",59.98138174906081,
,,,,,,,,,,,,,,,,,,,,,,,,,,,,,,,0.013529860181733966,None,34.135802469135804,585.3387898397632,,,,,,,,,,,,,,,,,,,,,,,,,,,,,,,7,f,19,r,LH,,1,2022_Aug_06_0935,2020.2.10,acceptmap-experience,"['Right Face', 'Left Face', 'Right Face', 'Left Face']",59.98138174906081,
,,,,,,,,,,,,,,,,,,,,,,,,,,,,,,,,,,,0.014403160195797682,None,-7.037037037037038,590.5062671396881,,,,,,,,,,,,,,,,,,,,,,,,,,,7,f,19,r,LH,,1,2022_Aug_06_0935,2020.2.10,acceptmap-experience,"['Right Face', 'Left Face', 'Right Face', 'Left Face']",59.98138174906081,
,,,,,,,,,,,,,,,,,,,,,,,,,,,,,,,,,,,,,,,0.013622260186821222,None,21.35802469135804,595.1888504400849,,,,,,,,,,,,,,,,,,,,,,,7,f,19,r,LH,,1,2022_Aug_06_0935,2020.2.10,acceptmap-experience,"['Right Face', 'Left Face', 'Right Face', 'Left Face']",59.98138174906081,
,,,,,,,,,,,,,,,,,,,,,,,,,,,,,,,,,,,,,,,,,,,0.014395859790965915,None,-7.037037037037038,597.7394629400223,,,,,,,,,,,,,,,,,,,7,f,19,r,LH,,1,2022_Aug_06_0935,2020.2.10,acceptmap-experience,"['Right Face', 'Left Face', 'Right Face', 'Left Face']",59.98138174906081,
,,,,,,,,,,,,,,,,,,,,,,,,,,,,,,,,,,,,,,,,,,,,,,,0.013822659850120544,None,20.123456790123456,602.8228123399895,,,,,,,,,,,,,,,7,f,19,r,LH,,1,2022_Aug_06_0935,2020.2.10,acceptmap-experience,"['Right Face', 'Left Face', 'Right Face', 'Left Face']",59.98138174906081,
,,,,,,,,,,,,,,,,,,,,,,,,,,,,,,,,,,,,,,,,,,,,,,,,,,,0.013873860007151961,None,-7.407407407407405,605.8057761399541,,,,,,,,,,,7,f,19,r,LH,,1,2022_Aug_06_0935,2020.2.10,acceptmap-experience,"['Right Face', 'Left Face', 'Right Face', 'Left Face']",59.98138174906081,
,,,,,,,,,,,,,,,,,,,,,,,,,,,,,,,,,,,,,,,,,,,,,,,,,,,,,,,0.014242359902709723,None,62.71604938271605,610.7222717397381,,,,,,,7,f,19,r,LH,,1,2022_Aug_06_0935,2020.2.10,acceptmap-experience,"['Right Face', 'Left Face', 'Right Face', 'Left Face']",59.98138174906081,
,,,,,,,,,,,,,,,,,,,,,,,,,,,,,,,,,,,,,,,,,,,,,,,,,,,,,,,,,,,0.014441660139709711,None,23.70370370370371,615.8061324399896,,,7,f,19,r,LH,,1,2022_Aug_06_0935,2020.2.10,acceptmap-experience,"['Right Face', 'Left Face', 'Right Face', 'Left Face']",59.98138174906081,
761.1493778000586,761.1493778000586,None,space,149.3187088998966,761.1493778000586,None,955.134351799963,None,35.432098765432094,936.5417371399235,,,,,,,,,,,,,,,,,,,,,,,,,,,,,,,,,,,,,,,,,,,,,,,,,,,,,0.013941060053184628,None,7,f,19,r,LH,,1,2022_Aug_06_0935,2020.2.10,acceptmap-experience,"['Right Face', 'Left Face', 'Right Face', 'Left Face']",59.98138174906081,
,,,,,,,983.1512267000508,None,34.50617283950617,964.5251137402374,0.01440026005730033,5.011696659959853,,,,,,,,,,,,,,,,,,,,,,,,,,,,,,,,,,,,,,,,,,,,,,,,,,,,,7,f,19,r,LH,,1,2022_Aug_06_0935,2020.2.10,acceptmap-experience,"['Right Face', 'Left Face', 'Right Face', 'Left Face']",59.98138174906081,
,,,,,,,1011.1681647000369,None,37.03703703703704,994.2586974399164,0.01458025979809463,5.01198805985041,,,,,,,,,,,,,,,,,,,,,,,,,,,,,,,,,,,,,,,,,,,,,,,,,,,,,7,f,19,r,LH,,1,2022_Aug_06_0935,2020.2.10,acceptmap-experience,"['Right Face', 'Left Face', 'Right Face', 'Left Face']",59.98138174906081,
,,,,,,,1039.185055800015,None,36.66666666666667,1024.4236225399654,0.014645060058683157,5.012236660113558,,,,,,,,,,,,,,,,,,,,,,,,,,,,,,,,,,,,,,,,,,,,,,,,,,,,,7,f,19,r,LH,,1,2022_Aug_06_0935,2020.2.10,acceptmap-experience,"['Right Face', 'Left Face', 'Right Face', 'Left Face']",59.98138174906081,
,,,,,,,1067.201956299832,None,35.61728395061728,1047.8758323402144,0.01660166005603969,5.016137960134074,,,,,,,,,,,,,,,,,,,,,,,,,,,,,,,,,,,,,,,,,,,,,,,,,,,,,7,f,19,r,LH,,1,2022_Aug_06_0935,2020.2.10,acceptmap-experience,"['Right Face', 'Left Face', 'Right Face', 'Left Face']",59.98138174906081,
,,,,,,,1095.2188623000402,None,37.160493827160494,1080.4254275399726,0.014584159711375833,5.012068059761077,,,,,,,,,,,,,,,,,,,,,,,,,,,,,,,,,,,,,,,,,,,,,,,,,,,,,7,f,19,r,LH,,1,2022_Aug_06_0935,2020.2.10,acceptmap-experience,"['Right Face', 'Left Face', 'Right Face', 'Left Face']",59.98138174906081,
,,,,,,,1123.2357793999836,None,36.41975308641975,1107.1923453400377,0.015266859903931618,5.01351166004315,,,,,,,,,,,,,,,,,,,,,,,,,,,,,,,,,,,,,,,,,,,,,,,,,,,,,7,f,19,r,LH,,1,2022_Aug_06_0935,2020.2.10,acceptmap-experience,"['Right Face', 'Left Face', 'Right Face', 'Left Face']",59.98138174906081,
,,,,,,,1151.2526803000364,None,37.407407407407405,1135.7428952399641,0.015247359871864319,5.013382959878072,,,,,,,,,,,,,,,,,,,,,,,,,,,,,,,,,,,,,,,,,,,,,,,,,,,,,7,f,19,r,LH,,1,2022_Aug_06_0935,2020.2.10,acceptmap-experience,"['Right Face', 'Left Face', 'Right Face', 'Left Face']",59.98138174906081,
,,,,,,,1179.2695994998794,None,38.2716049382716,1163.7081287400797,0.014920359943062067,5.012854959815741,,,,,,,,,,,,,,,,,,,,,,,,,,,,,,,,,,,,,,,,,,,,,,,,,,,,,7,f,19,r,LH,,1,2022_Aug_06_0935,2020.2.10,acceptmap-experience,"['Right Face', 'Left Face', 'Right Face', 'Left Face']",59.98138174906081,
,,,,,,,1207.2865031999536,None,38.02469135802469,1191.4096410400234,0.01659095985814929,5.016073259757832,,,,,,,,,,,,,,,,,,,,,,,,,,,,,,,,,,,,,,,,,,,,,,,,,,,,,7,f,19,r,LH,,1,2022_Aug_06_0935,2020.2.10,acceptmap-experience,"['Right Face', 'Left Face', 'Right Face', 'Left Face']",59.98138174906081,
,,,,,,,1235.3034150998574,None,37.46913580246913,1216.2936742398888,0.015302759828045964,5.013513259822503,,,,,,,,,,,,,,,,,,,,,,,,,,,,,,,,,,,,,,,,,,,,,,,,,,,,,7,f,19,r,LH,,1,2022_Aug_06_0935,2020.2.10,acceptmap-experience,"['Right Face', 'Left Face', 'Right Face', 'Left Face']",59.98138174906081,
,,,,,,,1263.3202972998843,None,39.01234567901235,1248.3775075399317,0.014831359963864088,5.012573960004374,,,,,,,,,,,,,,,,,,,,,,,,,,,,,,,,,,,,,,,,,,,,,,,,,,,,,7,f,19,r,LH,,1,2022_Aug_06_0935,2020.2.10,acceptmap-experience,"['Right Face', 'Left Face', 'Right Face', 'Left Face']",59.98138174906081,
,,,,,,,1291.3372112999205,None,39.1358024691358,1274.8257608399726,0.014633059967309237,5.012184259947389,,,,,,,,,,,,,,,,,,,,,,,,,,,,,,,,,,,,,,,,,,,,,,,,,,,,,7,f,19,r,LH,,1,2022_Aug_06_0935,2020.2.10,acceptmap-experience,"['Right Face', 'Left Face', 'Right Face', 'Left Face']",59.98138174906081,
,,,,,,,1319.3541337000206,None,39.93827160493827,1303.72740644007,0.016593059990555048,5.016108660027385,,,,,,,,,,,,,,,,,,,,,,,,,,,,,,,,,,,,,,,,,,,,,,,,,,,,,7,f,19,r,LH,,1,2022_Aug_06_0935,2020.2.10,acceptmap-experience,"['Right Face', 'Left Face', 'Right Face', 'Left Face']",59.98138174906081,
,,,,,,,1347.3710399998818,None,40.74074074074075,1330.026229839772,0.01518065994605422,5.013273460092023,,,,,,,,,,,,,,,,,,,,,,,,,,,,,,,,,,,,,,,,,,,,,,,,,,,,,7,f,19,r,LH,,1,2022_Aug_06_0935,2020.2.10,acceptmap-experience,"['Right Face', 'Left Face', 'Right Face', 'Left Face']",59.98138174906081,
,,,,,,,1375.3879468999803,None,36.97530864197531,1358.4279380398802,0.016618960071355104,5.016125859925523,,,,,,,,,,,,,,,,,,,,,,,,,,,,,,,,,,,,,,,,,,,,,,,,,,,,,7,f,19,r,LH,,1,2022_Aug_06_0935,2020.2.10,acceptmap-experience,"['Right Face', 'Left Face', 'Right Face', 'Left Face']",59.98138174906081,
,,,,,,,,,,,0.015161260031163692,5.013237660052255,2.098765432098773,1364.846019439865,,,,,,,,,,,,,,,,,,,,,,,,,,,,,,,,,,,,,,,,,,,,,,,,,,,7,f,19,r,LH,,1,2022_Aug_06_0935,2020.2.10,acceptmap-experience,"['Right Face', 'Left Face', 'Right Face', 'Left Face']",59.98138174906081,
,,,,,,,,,,,,,,,0.013800660148262978,None,5.802469135802468,1368.3296527399216,,,,,,,,,,,,,,,,,,,,,,,,,,,,,,,,,,,,,,,,,,,,,,,7,f,19,r,LH,,1,2022_Aug_06_0935,2020.2.10,acceptmap-experience,"['Right Face', 'Left Face', 'Right Face', 'Left Face']",59.98138174906081,
,,,,,,,,,55.12345679012346,1370.4587955400348,,,,,,,,,0.013556360034272075,None,,,,,,,,,,,,,,,,,,,,,,,,,,,,,,,,,,,,,,,,,,,,,7,f,19,r,LH,,1,2022_Aug_06_0935,2020.2.10,acceptmap-experience,"['Right Face', 'Left Face', 'Right Face', 'Left Face']",59.98138174906081,
,,,,,,,,,,,0.001064759911969304,None,,,,,,,,,54.93827160493827,1373.9298130399548,,,,,,,,,,,,,,,,,,,,,,,,,,,,,,,,,,,,,,,,,,,7,f,19,r,LH,,1,2022_Aug_06_0935,2020.2.10,acceptmap-experience,"['Right Face', 'Left Face', 'Right Face', 'Left Face']",59.98138174906081,
,,,,,,,,,,,,,,,,,,,,,,,0.013420759933069348,None,50.0,1376.0128341398668,,,,,,,,,,,,,,,,,,,,,,,,,,,,,,,,,,,,,,,7,f,19,r,LH,,1,2022_Aug_06_0935,2020.2.10,acceptmap-experience,"['Right Face', 'Left Face', 'Right Face', 'Left Face']",59.98138174906081,
,,,,,,,,,,,,,,,,,,,,,,,,,,,0.013735360000282526,None,57.53086419753086,1379.1457277399022,,,,,,,,,,,,,,,,,,,,,,,,,,,,,,,,,,,7,f,19,r,LH,,1,2022_Aug_06_0935,2020.2.10,acceptmap-experience,"['Right Face', 'Left Face', 'Right Face', 'Left Face']",59.98138174906081,
,,,,,,,,,,,,,,,,,,,,,,,,,,,,,,,0.014193759998306632,None,36.851851851851855,1381.5120650397148,,,,,,,,,,,,,,,,,,,,,,,,,,,,,,,7,f,19,r,LH,,1,2022_Aug_06_0935,2020.2.10,acceptmap-experience,"['Right Face', 'Left Face', 'Right Face', 'Left Face']",59.98138174906081,
,,,,,,,,,,,,,,,,,,,,,,,,,,,,,,,,,,,0.014561160234734416,None,-14.691358024691354,1383.7958066398278,,,,,,,,,,,,,,,,,,,,,,,,,,,7,f,19,r,LH,,1,2022_Aug_06_0935,2020.2.10,acceptmap-experience,"['Right Face', 'Left Face', 'Right Face', 'Left Face']",59.98138174906081,
,,,,,,,,,,,,,,,,,,,,,,,,,,,,,,,,,,,,,,,0.014177059987559915,None,24.19753086419753,1386.463124139933,,,,,,,,,,,,,,,,,,,,,,,7,f,19,r,LH,,1,2022_Aug_06_0935,2020.2.10,acceptmap-experience,"['Right Face', 'Left Face', 'Right Face', 'Left Face']",59.98138174906081,
,,,,,,,,,,,,,,,,,,,,,,,,,,,,,,,,,,,,,,,,,,,0.013545460067689419,None,-7.777777777777786,1391.0290193401743,,,,,,,,,,,,,,,,,,,7,f,19,r,LH,,1,2022_Aug_06_0935,2020.2.10,acceptmap-experience,"['Right Face', 'Left Face', 'Right Face', 'Left Face']",59.98138174906081,
,,,,,,,,,,,,,,,,,,,,,,,,,,,,,,,,,,,,,,,,,,,,,,,0.014364459784701467,None,39.75308641975312,1395.5461100400425,,,,,,,,,,,,,,,7,f,19,r,LH,,1,2022_Aug_06_0935,2020.2.10,acceptmap-experience,"['Right Face', 'Left Face', 'Right Face', 'Left Face']",59.98138174906081,
,,,,,,,,,,,,,,,,,,,,,,,,,,,,,,,,,,,,,,,,,,,,,,,,,,,0.013968659797683358,None,-9.629629629629619,1397.0299330400303,,,,,,,,,,,7,f,19,r,LH,,1,2022_Aug_06_0935,2020.2.10,acceptmap-experience,"['Right Face', 'Left Face', 'Right Face', 'Left Face']",59.98138174906081,
,,,,,,,,,,,,,,,,,,,,,,,,,,,,,,,,,,,,,,,,,,,,,,,,,,,,,,,0.013513859827071428,None,46.419753086419746,1400.112620339729,,,,,,,7,f,19,r,LH,,1,2022_Aug_06_0935,2020.2.10,acceptmap-experience,"['Right Face', 'Left Face', 'Right Face', 'Left Face']",59.98138174906081,
,,,,,,,,,,,,,,,,,,,,,,,,,,,,,,,,,,,,,,,,,,,,,,,,,,,,,,,,,,,0.01413806015625596,None,23.08641975308643,1403.0790038397536,,,7,f,19,r,LH,,1,2022_Aug_06_0935,2020.2.10,acceptmap-experience,"['Right Face', 'Left Face', 'Right Face', 'Left Face']",59.98138174906081,
1529.1892880999949,1529.1892880999949,None,space,131.00738979992457,1529.1892880999949,None,1707.024151199963,None,41.79012345679013,1692.7794495399576,,,,,,,,,,,,,,,,,,,,,,,,,,,,,,,,,,,,,,,,,,,,,,,,,,,,,0.01444646017625928,None,7,f,19,r,LH,,1,2022_Aug_06_0935,2020.2.10,acceptmap-experience,"['Right Face', 'Left Face', 'Right Face', 'Left Face']",59.98138174906081,
,,,,,,,1735.0410249000415,None,41.604938271604944,1718.5629323399626,0.016531359869986773,5.015955559909344,,,,,,,,,,,,,,,,,,,,,,,,,,,,,,,,,,,,,,,,,,,,,,,,,,,,,7,f,19,r,LH,,1,2022_Aug_06_0935,2020.2.10,acceptmap-experience,"['Right Face', 'Left Face', 'Right Face', 'Left Face']",59.98138174906081,
,,,,,,,1763.074623099994,None,42.901234567901234,1743.3810477398802,0.016599860042333603,5.016126760048792,,,,,,,,,,,,,,,,,,,,,,,,,,,,,,,,,,,,,,,,,,,,,,,,,,,,,7,f,19,r,LH,,1,2022_Aug_06_0935,2020.2.10,acceptmap-experience,"['Right Face', 'Left Face', 'Right Face', 'Left Face']",59.98138174906081,
,,,,,,,1791.0915371999145,None,40.49382716049383,1776.1967641399242,0.015351959969848394,5.01362425996922,,,,,,,,,,,,,,,,,,,,,,,,,,,,,,,,,,,,,,,,,,,,,,,,,,,,,7,f,19,r,LH,,1,2022_Aug_06_0935,2020.2.10,acceptmap-experience,"['Right Face', 'Left Face', 'Right Face', 'Left Face']",59.98138174906081,
,,,,,,,1819.1084540998563,None,40.864197530864196,1800.3491187402979,0.01659855991601944,5.016102059977129,,,,,,,,,,,,,,,,,,,,,,,,,,,,,,,,,,,,,,,,,,,,,,,,,,,,,7,f,19,r,LH,,1,2022_Aug_06_0935,2020.2.10,acceptmap-experience,"['Right Face', 'Left Face', 'Right Face', 'Left Face']",59.98138174906081,
,,,,,,,1847.1253589000553,None,42.53086419753087,1827.582740939688,0.014449459733441472,5.011812059907243,,,,,,,,,,,,,,,,,,,,,,,,,,,,,,,,,,,,,,,,,,,,,,,,,,,,,7,f,19,r,LH,,1,2022_Aug_06_0935,2020.2.10,acceptmap-experience,"['Right Face', 'Left Face', 'Right Face', 'Left Face']",59.98138174906081,
,,,,,,,1875.142255899962,None,41.66666666666667,1857.6974501397926,0.014366560149937868,5.011658660136163,,,,,,,,,,,,,,,,,,,,,,,,,,,,,,,,,,,,,,,,,,,,,,,,,,,,,7,f,19,r,LH,,1,2022_Aug_06_0935,2020.2.10,acceptmap-experience,"['Right Face', 'Left Face', 'Right Face', 'Left Face']",59.98138174906081,
,,,,,,,1903.1592302999925,None,42.283950617283956,1883.7322381399572,0.01659626024775207,5.016089460114017,,,,,,,,,,,,,,,,,,,,,,,,,,,,,,,,,,,,,,,,,,,,,,,,,,,,,7,f,19,r,LH,,1,2022_Aug_06_0935,2020.2.10,acceptmap-experience,"['Right Face', 'Left Face', 'Right Face', 'Left Face']",59.98138174906081,
,,,,,,,1931.1760865000542,None,43.82716049382716,1912.1994528400246,0.015379860065877438,5.01365156006068,,,,,,,,,,,,,,,,,,,,,,,,,,,,,,,,,,,,,,,,,,,,,,,,,,,,,7,f,19,r,LH,,1,2022_Aug_06_0935,2020.2.10,acceptmap-experience,"['Right Face', 'Left Face', 'Right Face', 'Left Face']",59.98138174906081,
,,,,,,,1959.1928932999726,None,42.96296296296296,1941.3148488400038,0.015096759889274836,5.0128181600011885,,,,,,,,,,,,,,,,,,,,,,,,,,,,,,,,,,,,,,,,,,,,,,,,,,,,,7,f,19,r,LH,,1,2022_Aug_06_0935,2020.2.10,acceptmap-experience,"['Right Face', 'Left Face', 'Right Face', 'Left Face']",59.98138174906081,
,,,,,,,1987.2099115999881,None,42.283950617283956,1967.3833279400133,0.016611560015007854,5.016116559971124,,,,,,,,,,,,,,,,,,,,,,,,,,,,,,,,,,,,,,,,,,,,,,,,,,,,,7,f,19,r,LH,,1,2022_Aug_06_0935,2020.2.10,acceptmap-experience,"['Right Face', 'Left Face', 'Right Face', 'Left Face']",59.98138174906081,
,,,,,,,2015.2268506998662,None,41.85185185185185,2000.3986765397713,0.015047959983348846,5.013022860046476,,,,,,,,,,,,,,,,,,,,,,,,,,,,,,,,,,,,,,,,,,,,,,,,,,,,,7,f,19,r,LH,,1,2022_Aug_06_0935,2020.2.10,acceptmap-experience,"['Right Face', 'Left Face', 'Right Face', 'Left Face']",59.98138174906081,
,,,,,,,2043.243636699859,None,42.59259259259259,2023.350717839785,0.01662116008810699,5.0161095599178225,,,,,,,,,,,,,,,,,,,,,,,,,,,,,,,,,,,,,,,,,,,,,,,,,,,,,7,f,19,r,LH,,1,2022_Aug_06_0935,2020.2.10,acceptmap-experience,"['Right Face', 'Left Face', 'Right Face', 'Left Face']",59.98138174906081,
,,,,,,,2071.2606466000434,None,42.283950617283956,2051.701310540084,0.014786360086873174,5.01251665991731,,,,,,,,,,,,,,,,,,,,,,,,,,,,,,,,,,,,,,,,,,,,,,,,,,,,,7,f,19,r,LH,,1,2022_Aug_06_0935,2020.2.10,acceptmap-experience,"['Right Face', 'Left Face', 'Right Face', 'Left Face']",59.98138174906081,
,,,,,,,2099.277533299988,None,40.864197530864196,2083.084004739998,0.014449359849095345,5.01180735998787,,,,,,,,,,,,,,,,,,,,,,,,,,,,,,,,,,,,,,,,,,,,,,,,,,,,,7,f,19,r,LH,,1,2022_Aug_06_0935,2020.2.10,acceptmap-experience,"['Right Face', 'Left Face', 'Right Face', 'Left Face']",59.98138174906081,
,,,,,,,2127.2944449998904,None,42.46913580246914,2109.401833339827,0.015351759968325496,5.013594259973615,,,,,,,,,,,,,,,,,,,,,,,,,,,,,,,,,,,,,,,,,,,,,,,,,,,,,7,f,19,r,LH,,1,2022_Aug_06_0935,2020.2.10,acceptmap-experience,"['Right Face', 'Left Face', 'Right Face', 'Left Face']",59.98138174906081,
,,,,,,,,,,,0.014402160188183188,5.011724760057405,-2.716049382716051,2115.3025381397456,,,,,,,,,,,,,,,,,,,,,,,,,,,,,,,,,,,,,,,,,,,,,,,,,,,7,f,19,r,LH,,1,2022_Aug_06_0935,2020.2.10,acceptmap-experience,"['Right Face', 'Left Face', 'Right Face', 'Left Face']",59.98138174906081,
,,,,,,,,,,,,,,,0.013795060105621815,None,15.679012345679013,2118.068248139927,,,,,,,,,,,,,,,,,,,,,,,,,,,,,,,,,,,,,,,,,,,,,,,7,f,19,r,LH,,1,2022_Aug_06_0935,2020.2.10,acceptmap-experience,"['Right Face', 'Left Face', 'Right Face', 'Left Face']",59.98138174906081,
,,,,,,,,,55.925925925925924,2122.2314620399848,,,,,,,,,0.014784659957513213,None,,,,,,,,,,,,,,,,,,,,,,,,,,,,,,,,,,,,,,,,,,,,,7,f,19,r,LH,,1,2022_Aug_06_0935,2020.2.10,acceptmap-experience,"['Right Face', 'Left Face', 'Right Face', 'Left Face']",59.98138174906081,
,,,,,,,,,,,0.0015736599452793598,None,,,,,,,,,53.82716049382715,2124.2354855400044,,,,,,,,,,,,,,,,,,,,,,,,,,,,,,,,,,,,,,,,,,,7,f,19,r,LH,,1,2022_Aug_06_0935,2020.2.10,acceptmap-experience,"['Right Face', 'Left Face', 'Right Face', 'Left Face']",59.98138174906081,
,,,,,,,,,,,,,,,,,,,,,,,0.014248359948396683,None,50.0,2125.819120239932,,,,,,,,,,,,,,,,,,,,,,,,,,,,,,,,,,,,,,,7,f,19,r,LH,,1,2022_Aug_06_0935,2020.2.10,acceptmap-experience,"['Right Face', 'Left Face', 'Right Face', 'Left Face']",59.98138174906081,
,,,,,,,,,,,,,,,,,,,,,,,,,,,0.01395716005936265,None,67.09876543209877,2129.902273040032,,,,,,,,,,,,,,,,,,,,,,,,,,,,,,,,,,,7,f,19,r,LH,,1,2022_Aug_06_0935,2020.2.10,acceptmap-experience,"['Right Face', 'Left Face', 'Right Face', 'Left Face']",59.98138174906081,
,,,,,,,,,,,,,,,,,,,,,,,,,,,,,,,0.014185359934344888,None,25.061728395061728,2133.519269639859,,,,,,,,,,,,,,,,,,,,,,,,,,,,,,,7,f,19,r,LH,,1,2022_Aug_06_0935,2020.2.10,acceptmap-experience,"['Right Face', 'Left Face', 'Right Face', 'Left Face']",59.98138174906081,
,,,,,,,,,,,,,,,,,,,,,,,,,,,,,,,,,,,0.013868459966033697,None,-29.876543209876544,2136.4521295400336,,,,,,,,,,,,,,,,,,,,,,,,,,,7,f,19,r,LH,,1,2022_Aug_06_0935,2020.2.10,acceptmap-experience,"['Right Face', 'Left Face', 'Right Face', 'Left Face']",59.98138174906081,
,,,,,,,,,,,,,,,,,,,,,,,,,,,,,,,,,,,,,,,0.014390059979632497,None,36.049382716049394,2139.235892939847,,,,,,,,,,,,,,,,,,,,,,,7,f,19,r,LH,,1,2022_Aug_06_0935,2020.2.10,acceptmap-experience,"['Right Face', 'Left Face', 'Right Face', 'Left Face']",59.98138174906081,
,,,,,,,,,,,,,,,,,,,,,,,,,,,,,,,,,,,,,,,,,,,0.01397516019642353,None,-4.3209876543210015,2140.2355438398663,,,,,,,,,,,,,,,,,,,7,f,19,r,LH,,1,2022_Aug_06_0935,2020.2.10,acceptmap-experience,"['Right Face', 'Left Face', 'Right Face', 'Left Face']",59.98138174906081,
,,,,,,,,,,,,,,,,,,,,,,,,,,,,,,,,,,,,,,,,,,,,,,,0.014343460090458393,None,33.20987654320987,2143.585921139922,,,,,,,,,,,,,,,7,f,19,r,LH,,1,2022_Aug_06_0935,2020.2.10,acceptmap-experience,"['Right Face', 'Left Face', 'Right Face', 'Left Face']",59.98138174906081,
,,,,,,,,,,,,,,,,,,,,,,,,,,,,,,,,,,,,,,,,,,,,,,,,,,,0.013972660060971975,None,3.827160493827165,2145.985552839935,,,,,,,,,,,7,f,19,r,LH,,1,2022_Aug_06_0935,2020.2.10,acceptmap-experience,"['Right Face', 'Left Face', 'Right Face', 'Left Face']",59.98138174906081,
,,,,,,,,,,,,,,,,,,,,,,,,,,,,,,,,,,,,,,,,,,,,,,,,,,,,,,,0.014358160085976124,None,57.90123456790124,2148.3022133398335,,,,,,,7,f,19,r,LH,,1,2022_Aug_06_0935,2020.2.10,acceptmap-experience,"['Right Face', 'Left Face', 'Right Face', 'Left Face']",59.98138174906081,
,,,,,,,,,,,,,,,,,,,,,,,,,,,,,,,,,,,,,,,,,,,,,,,,,,,,,,,,,,,0.01439105998724699,None,41.48148148148147,2151.952587639913,,,7,f,19,r,LH,,1,2022_Aug_06_0935,2020.2.10,acceptmap-experience,"['Right Face', 'Left Face', 'Right Face', 'Left Face']",59.98138174906081,
2280.6791631998494,2280.6791631998494,None,space,142.13390519982204,2280.6791631998494,None,2475.297481099842,None,37.22222222222222,2458.9194413397927,,,,,,,,,,,,,,,,,,,,,,,,,,,,,,,,,,,,,,,,,,,,,,,,,,,,,0.014071760000661016,None,7,f,19,r,LH,,1,2022_Aug_06_0935,2020.2.10,acceptmap-experience,"['Right Face', 'Left Face', 'Right Face', 'Left Face']",59.98138174906081,
,,,,,,,2503.314410699997,None,43.82716049382716,2485.638408339815,0.016523760044947267,5.015959360171109,,,,,,,,,,,,,,,,,,,,,,,,,,,,,,,,,,,,,,,,,,,,,,,,,,,,,7,f,19,r,LH,,1,2022_Aug_06_0935,2020.2.10,acceptmap-experience,"['Right Face', 'Left Face', 'Right Face', 'Left Face']",59.98138174906081,
,,,,,,,2531.3313118000515,None,39.1358024691358,2512.719841639977,0.014442260144278407,5.011800360167399,,,,,,,,,,,,,,,,,,,,,,,,,,,,,,,,,,,,,,,,,,,,,,,,,,,,,7,f,19,r,LH,,1,2022_Aug_06_0935,2020.2.10,acceptmap-experience,"['Right Face', 'Left Face', 'Right Face', 'Left Face']",59.98138174906081,
,,,,,,,2559.348224399844,None,43.888888888888886,2540.4884912399575,0.01660295994952321,5.016106159891933,,,,,,,,,,,,,,,,,,,,,,,,,,,,,,,,,,,,,,,,,,,,,,,,,,,,,7,f,19,r,LH,,1,2022_Aug_06_0935,2020.2.10,acceptmap-experience,"['Right Face', 'Left Face', 'Right Face', 'Left Face']",59.98138174906081,
,,,,,,,2587.3651411999017,None,43.20987654320987,2567.4220979402307,0.01486215996555984,5.012653559911996,,,,,,,,,,,,,,,,,,,,,,,,,,,,,,,,,,,,,,,,,,,,,,,,,,,,,7,f,19,r,LH,,1,2022_Aug_06_0935,2020.2.10,acceptmap-experience,"['Right Face', 'Left Face', 'Right Face', 'Left Face']",59.98138174906081,
,,,,,,,2615.382056699833,None,40.925925925925924,2600.4539351398125,0.014831059612333775,5.012549759820104,,,,,,,,,,,,,,,,,,,,,,,,,,,,,,,,,,,,,,,,,,,,,,,,,,,,,7,f,19,r,LH,,1,2022_Aug_06_0935,2020.2.10,acceptmap-experience,"['Right Face', 'Left Face', 'Right Face', 'Left Face']",59.98138174906081,
,,,,,,,2643.3989663999528,None,43.14814814814815,2625.3875275400933,0.01660516019910574,5.0161003600806,,,,,,,,,,,,,,,,,,,,,,,,,,,,,,,,,,,,,,,,,,,,,,,,,,,,,7,f,19,r,LH,,1,2022_Aug_06_0935,2020.2.10,acceptmap-experience,"['Right Face', 'Left Face', 'Right Face', 'Left Face']",59.98138174906081,
,,,,,,,2671.415869300021,None,44.25925925925926,2652.322515540058,0.01659255987033248,5.016076060011983,,,,,,,,,,,,,,,,,,,,,,,,,,,,,,,,,,,,,,,,,,,,,,,,,,,,,7,f,19,r,LH,,1,2022_Aug_06_0935,2020.2.10,acceptmap-experience,"['Right Face', 'Left Face', 'Right Face', 'Left Face']",59.98138174906081,
,,,,,,,2699.432795099914,None,44.629629629629626,2684.090120840119,0.01512285997159779,5.013159759808332,,,,,,,,,,,,,,,,,,,,,,,,,,,,,,,,,,,,,,,,,,,,,,,,,,,,,7,f,19,r,LH,,1,2022_Aug_06_0935,2020.2.10,acceptmap-experience,"['Right Face', 'Left Face', 'Right Face', 'Left Face']",59.98138174906081,
,,,,,,,2727.449687300017,None,43.641975308641975,2710.106390840141,0.014487359905615449,5.011894859839231,,,,,,,,,,,,,,,,,,,,,,,,,,,,,,,,,,,,,,,,,,,,,,,,,,,,,7,f,19,r,LH,,1,2022_Aug_06_0935,2020.2.10,acceptmap-experience,"['Right Face', 'Left Face', 'Right Face', 'Left Face']",59.98138174906081,
,,,,,,,2755.466618599836,None,46.11111111111111,2736.789852139773,0.015093359863385558,5.013081460027024,,,,,,,,,,,,,,,,,,,,,,,,,,,,,,,,,,,,,,,,,,,,,,,,,,,,,7,f,19,r,LH,,1,2022_Aug_06_0935,2020.2.10,acceptmap-experience,"['Right Face', 'Left Face', 'Right Face', 'Left Face']",59.98138174906081,
,,,,,,,2783.483502799878,None,43.7037037037037,2763.673957139952,0.015239260159432888,5.013365260092542,,,,,,,,,,,,,,,,,,,,,,,,,,,,,,,,,,,,,,,,,,,,,,,,,,,,,7,f,19,r,LH,,1,2022_Aug_06_0935,2020.2.10,acceptmap-experience,"['Right Face', 'Left Face', 'Right Face', 'Left Face']",59.98138174906081,
,,,,,,,2811.5004318000283,None,45.0,2791.457657840103,0.0146815599873662,5.012262359960005,,,,,,,,,,,,,,,,,,,,,,,,,,,,,,,,,,,,,,,,,,,,,,,,,,,,,7,f,19,r,LH,,1,2022_Aug_06_0935,2020.2.10,acceptmap-experience,"['Right Face', 'Left Face', 'Right Face', 'Left Face']",59.98138174906081,
,,,,,,,2839.5173396000173,None,43.58024691358025,2819.8908069399185,0.014553759712725878,5.011983559699729,,,,,,,,,,,,,,,,,,,,,,,,,,,,,,,,,,,,,,,,,,,,,,,,,,,,,7,f,19,r,LH,,1,2022_Aug_06_0935,2020.2.10,acceptmap-experience,"['Right Face', 'Left Face', 'Right Face', 'Left Face']",59.98138174906081,
,,,,,,,2867.5342687999364,None,39.25925925925926,2850.1894333397504,0.014979660045355558,5.01287666009739,,,,,,,,,,,,,,,,,,,,,,,,,,,,,,,,,,,,,,,,,,,,,,,,,,,,,7,f,19,r,LH,,1,2022_Aug_06_0935,2020.2.10,acceptmap-experience,"['Right Face', 'Left Face', 'Right Face', 'Left Face']",59.98138174906081,
,,,,,,,2895.5511769999284,None,42.22222222222222,2879.8063946401235,0.016605660086497664,5.016122560016811,,,,,,,,,,,,,,,,,,,,,,,,,,,,,,,,,,,,,,,,,,,,,,,,,,,,,7,f,19,r,LH,,1,2022_Aug_06_0935,2020.2.10,acceptmap-experience,"['Right Face', 'Left Face', 'Right Face', 'Left Face']",59.98138174906081,
,,,,,,,,,,,0.016597659792751074,5.016096559818834,1.8518518518518334,2886.625021940097,,,,,,,,,,,,,,,,,,,,,,,,,,,,,,,,,,,,,,,,,,,,,,,,,,,7,f,19,r,LH,,1,2022_Aug_06_0935,2020.2.10,acceptmap-experience,"['Right Face', 'Left Face', 'Right Face', 'Left Face']",59.98138174906081,
,,,,,,,,,,,,,,,0.01467395992949605,None,8.641975308641975,2889.075659140246,,,,,,,,,,,,,,,,,,,,,,,,,,,,,,,,,,,,,,,,,,,,,,,7,f,19,r,LH,,1,2022_Aug_06_0935,2020.2.10,acceptmap-experience,"['Right Face', 'Left Face', 'Right Face', 'Left Face']",59.98138174906081,
,,,,,,,,,58.14814814814815,2891.7720197397284,,,,,,,,,0.014072959776967764,None,,,,,,,,,,,,,,,,,,,,,,,,,,,,,,,,,,,,,,,,,,,,,7,f,19,r,LH,,1,2022_Aug_06_0935,2020.2.10,acceptmap-experience,"['Right Face', 'Left Face', 'Right Face', 'Left Face']",59.98138174906081,
,,,,,,,,,,,0.0010693601798266172,None,,,,,,,,,56.172839506172835,2893.4920198398177,,,,,,,,,,,,,,,,,,,,,,,,,,,,,,,,,,,,,,,,,,,7,f,19,r,LH,,1,2022_Aug_06_0935,2020.2.10,acceptmap-experience,"['Right Face', 'Left Face', 'Right Face', 'Left Face']",59.98138174906081,
,,,,,,,,,,,,,,,,,,,,,,,0.01443996001034975,None,50.0,2895.0095230401494,,,,,,,,,,,,,,,,,,,,,,,,,,,,,,,,,,,,,,,7,f,19,r,LH,,1,2022_Aug_06_0935,2020.2.10,acceptmap-experience,"['Right Face', 'Left Face', 'Right Face', 'Left Face']",59.98138174906081,
,,,,,,,,,,,,,,,,,,,,,,,,,,,0.01361275976523757,None,68.7037037037037,2898.342144740047,,,,,,,,,,,,,,,,,,,,,,,,,,,,,,,,,,,7,f,19,r,LH,,1,2022_Aug_06_0935,2020.2.10,acceptmap-experience,"['Right Face', 'Left Face', 'Right Face', 'Left Face']",59.98138174906081,
,,,,,,,,,,,,,,,,,,,,,,,,,,,,,,,0.014339759945869446,None,31.48148148148148,2901.009361739969,,,,,,,,,,,,,,,,,,,,,,,,,,,,,,,7,f,19,r,LH,,1,2022_Aug_06_0935,2020.2.10,acceptmap-experience,"['Right Face', 'Left Face', 'Right Face', 'Left Face']",59.98138174906081,
,,,,,,,,,,,,,,,,,,,,,,,,,,,,,,,,,,,0.013801760040223598,None,-33.33333333333334,2905.108660539845,,,,,,,,,,,,,,,,,,,,,,,,,,,7,f,19,r,LH,,1,2022_Aug_06_0935,2020.2.10,acceptmap-experience,"['Right Face', 'Left Face', 'Right Face', 'Left Face']",59.98138174906081,
,,,,,,,,,,,,,,,,,,,,,,,,,,,,,,,,,,,,,,,0.01454096008092165,None,58.27160493827162,2908.042242639931,,,,,,,,,,,,,,,,,,,,,,,7,f,19,r,LH,,1,2022_Aug_06_0935,2020.2.10,acceptmap-experience,"['Right Face', 'Left Face', 'Right Face', 'Left Face']",59.98138174906081,
,,,,,,,,,,,,,,,,,,,,,,,,,,,,,,,,,,,,,,,,,,,0.014356459956616163,None,-3.580246913580254,2909.7592936400324,,,,,,,,,,,,,,,,,,,7,f,19,r,LH,,1,2022_Aug_06_0935,2020.2.10,acceptmap-experience,"['Right Face', 'Left Face', 'Right Face', 'Left Face']",59.98138174906081,
,,,,,,,,,,,,,,,,,,,,,,,,,,,,,,,,,,,,,,,,,,,,,,,0.013983259908854961,None,48.271604938271594,2913.1596284399275,,,,,,,,,,,,,,,7,f,19,r,LH,,1,2022_Aug_06_0935,2020.2.10,acceptmap-experience,"['Right Face', 'Left Face', 'Right Face', 'Left Face']",59.98138174906081,
,,,,,,,,,,,,,,,,,,,,,,,,,,,,,,,,,,,,,,,,,,,,,,,,,,,0.013659460004419088,None,8.395061728395063,2914.491987139918,,,,,,,,,,,7,f,19,r,LH,,1,2022_Aug_06_0935,2020.2.10,acceptmap-experience,"['Right Face', 'Left Face', 'Right Face', 'Left Face']",59.98138174906081,
,,,,,,,,,,,,,,,,,,,,,,,,,,,,,,,,,,,,,,,,,,,,,,,,,,,,,,,0.014657859923318028,None,63.456790123456784,2917.025880639907,,,,,,,7,f,19,r,LH,,1,2022_Aug_06_0935,2020.2.10,acceptmap-experience,"['Right Face', 'Left Face', 'Right Face', 'Left Face']",59.98138174906081,
,,,,,,,,,,,,,,,,,,,,,,,,,,,,,,,,,,,,,,,,,,,,,,,,,,,,,,,,,,,0.013967359904199839,None,19.135802469135797,2920.026064239908,,,7,f,19,r,LH,,1,2022_Aug_06_0935,2020.2.10,acceptmap-experience,"['Right Face', 'Left Face', 'Right Face', 'Left Face']",59.98138174906081,
,,,,,,,,,,,,,,,,,,,,,,,,,,,,,,,,,,,,,,,,,,,,,,,,,,,,,,,,,,,,,,,0.013953459914773703,None,,,,,,,,,,,,,
