	onset	duration	rt	response	correct	bodySite	temperature	condition	pretrial-jitter
0	2.7717244001105428	7.784943599952385				Left Face	32.0	2back Instructions	
1	14.80317150009796	1.9969465201720595			1.0	Left Face	49.0	2back-stim	
2	16.806944400072098	2.006137460237369			1.0	Left Face	49.0	2back-stim	7.0
3	18.82282739994116	2.0077267601154745	0.819801100064069	0.0	1.0	Left Face	49.0	2back-stim	
4	20.83948799991049	2.0077649601735175	0.0	2.0	1.0	Left Face	49.0	2back-stim	
5	22.909603799926117	1.9509512395597994	0.0	2.0	1.0	Left Face	49.0	2back-stim	
6	24.872882100054994	2.0077146601397544	0.0	2.0	1.0	Left Face	49.0	2back-stim	
7	26.889537499984726	2.0077750601340085	0.950310799991712	0.0	1.0	Left Face	49.0	2back-stim	
8	28.906810600077733	2.006658460246399	0.6865330999717116	0.0	1.0	Left Face	49.0	2back-stim	
9	30.922932900022715	2.0077271601185203	0.6836312999948859	0.0	1.0	Left Face	49.0	2back-stim	
10	32.93980460008606	2.0074154601898044	0.0	2.0	1.0	Left Face	49.0	2back-stim	
11	41.97368069994263	5.007251460105181		34.01234567901235		Left Face	49.0	2back-stim Rating	7.0
12	46.983573799952865	52.002400000113994				Left Face	32.0	2back Instructions	
13	55.03615939989686	1.9983804197981954			1.0	Left Face	49.0	2back-stim	
14	57.040797899942845	2.0058314600028098			1.0	Left Face	49.0	2back-stim	3.0
15	59.056716799968854	2.00732776010409	0.9336063999217004	0.0	1.0	Left Face	49.0	2back-stim	
16	61.07331599993631	2.007509360089898	0.0	2.0	1.0	Left Face	49.0	2back-stim	
17	63.13696760009043	1.9635628401301801	0.0	2.0	1.0	Left Face	49.0	2back-stim	
18	65.10680760000832	2.0072594601660967	0.0	2.0	1.0	Left Face	49.0	2back-stim	
19	67.12333670002408	2.007598060183227	0.41969239991158247	0.0	1.0	Left Face	49.0	2back-stim	
20	69.13979779998772	2.0080060600303113	0.0	2.0	1.0	Left Face	49.0	2back-stim	
21	71.1566447999794	2.007697760127485	0.0	2.0	1.0	Left Face	49.0	2back-stim	
22	73.17356169992127	2.007261360064149	0.6669586999341846	0.0	1.0	Left Face	49.0	2back-stim	
23	82.20695969997905	5.007902059936896		23.271604938271608		Left Face	49.0	2back-stim Rating	7.0
24	87.21727779996581	92.2359164999798				Left Face	32.0	2back Instructions	
25	95.27042210008949	1.9972156202420592			1.0	Left Face	49.0	2back-stim	
26	97.274422199931	2.005959360161796			1.0	Left Face	49.0	2back-stim	3.0
27	99.29026970011182	2.0076220599003136	0.0	2.0	1.0	Left Face	49.0	2back-stim	
28	101.30697829998098	2.007578759919852	0.0	2.0	1.0	Left Face	49.0	2back-stim	
29	103.37364439992234	1.9576017397921532	0.5999195000622422	0.0	1.0	Left Face	49.0	2back-stim	
30	105.34037040011026	2.007564160041511	0.6336238000076264	0.0	1.0	Left Face	49.0	2back-stim	
31	107.35696989996359	2.007703060284257	0.0	2.0	1.0	Left Face	49.0	2back-stim	
32	109.373554199934	2.0078862600494176	0.0	2.0	1.0	Left Face	49.0	2back-stim	
33	111.3911925998982	2.0059878600295633	0.0	2.0	1.0	Left Face	49.0	2back-stim	
34	113.40723529993556	2.007298860233277	0.36695549986325204	0.0	1.0	Left Face	49.0	2back-stim	
35	122.44055719999596	5.008308460237458		20.679012345679013		Left Face	49.0	2back-stim Rating	7.0
36	130.45281559997238	19.999913060106337				Left Face	49.0	Rest-Stim	3.0
37	150.45301260007545	7.016433260170743				Left Face		PostTrialFixation	
38	157.4560058999341	5.011346560204402		28.641975308641975		Left Face	49.0	Rest-Stim Rating	7.0
39	165.46975290006958	19.999991060234606				Left Face	49.0	Rest-Stim	3.0
40	185.46997929993086	6.9997824602760375				Left Face		PostTrialFixation	
41	192.47066029999405	5.015823859954253		34.074074074074076		Left Face	49.0	Rest-Stim Rating	7.0
42	200.48678410006687	19.999903360148892				Left Face	49.0	Rest-Stim	3.0
43	220.48696279991418	7.016436560079455				Left Face		PostTrialFixation	
44	227.48978949990124	5.011566860135645		31.234567901234566		Left Face	49.0	Rest-Stim Rating	7.0
45	232.50149610009976	237.52068610000424				Left Face	32.0	2back Instructions	
46	240.55436710012145	1.9986237201374024			1.0	Left Face	49.0	2back-stim	
47	242.55917500006035	2.00576926022768			1.0	Left Face	49.0	2back-stim	3.0
48	244.57485380000435	2.0077295599039644	0.0	2.0	1.0	Left Face	49.0	2back-stim	
49	246.59144439990632	2.007911660009995	0.0	2.0	1.0	Left Face	49.0	2back-stim	
50	248.67966819996946	1.9315235000103712	0.6335338000208139	0.0	1.0	Left Face	49.0	2back-stim	
51	250.62488669995219	2.0077644602861255	0.0	2.0	1.0	Left Face	49.0	2back-stim	
52	252.64173640008084	2.007455060025677	0.0	2.0	1.0	Left Face	49.0	2back-stim	
53	254.6582756000571	2.0077493600547314	0.4836275998968631	0.0	1.0	Left Face	49.0	2back-stim	
54	256.6748957000673	2.0078606600873172	0.0	2.0	1.0	Left Face	49.0	2back-stim	
55	258.69148320006207	2.0080464598722756	0.0	2.0	1.0	Left Face	49.0	2back-stim	
56	263.72588480007835	5.006828360026702		22.90123456790123		Left Face	49.0	2back-stim Rating	3.0
57	268.7361942999996	273.754175900016				Left Face	32.0	2back Instructions	
58	280.7882548000198	1.9982848200015724			1.0	Left Face	49.0	2back-stim	
59	282.7927345999051	2.005998559994623			1.0	Left Face	49.0	2back-stim	7.0
60	284.80845359992236	2.008001259760931	0.6002997001633048	0.0	1.0	Left Face	49.0	2back-stim	
61	286.8251883001067	2.0078639599960297	0.0	2.0	1.0	Left Face	49.0	2back-stim	
62	288.9016968999058	1.9381576399318874	0.0	2.0	1.0	Left Face	49.0	2back-stim	
63	290.8590480000712	2.006891360040754	0.0	2.0	1.0	Left Face	49.0	2back-stim	
64	292.87522309995256	2.00791716016829	0.5336571999359876	0.0	0.0	Left Face	49.0	2back-stim	
65	294.8919816999696	2.0077207600697875	0.0	2.0	1.0	Left Face	49.0	2back-stim	
66	296.9087316999212	2.007571460213512	0.6502789000514895	0.0	1.0	Left Face	49.0	2back-stim	
67	298.92546810000204	2.0075219601858407	0.0	2.0	1.0	Left Face	49.0	2back-stim	
68	307.95877879997715	5.008380759973079		23.271604938271608		Left Face	49.0	2back-stim Rating	7.0
69	312.96803730004467	317.988200499909				Left Face	32.0	2back Instructions	
70	321.0216898000799	1.9987656199373305			1.0	Left Face	49.0	2back-stim	
71	323.0264542000368	2.0059520602226257			1.0	Left Face	49.0	2back-stim	3.0
72	325.0421975001227	2.0078374601434916	0.0	2.0	1.0	Left Face	49.0	2back-stim	
73	327.0589403999038	2.0077195598278195	0.0	2.0	0.0	Left Face	49.0	2back-stim	
74	329.13413370004855	1.9406712397467345	0.0	2.0	1.0	Left Face	49.0	2back-stim	
75	331.0923254999798	2.0077031599357724	0.0	2.0	1.0	Left Face	49.0	2back-stim	
76	333.1090786999557	2.007545660249889	0.0	2.0	1.0	Left Face	49.0	2back-stim	
77	335.1257650000043	2.0075612601358443	0.6669584999326617	0.0	1.0	Left Face	49.0	2back-stim	
78	337.1424406999722	2.0075821599457413	0.0	2.0	1.0	Left Face	49.0	2back-stim	
79	339.1589597999118	2.007899560034275	0.6702767999377102	0.0	1.0	Left Face	49.0	2back-stim	
80	346.1761990999803	5.007659560069442		23.641975308641975		Left Face	49.0	2back-stim Rating	5.0
81	356.1736127000768	20.012360560242087				Left Face	32.0	Rest-NoStim	5.0
82	376.1734786001034	7.012861160095781				Left Face		PostTrialFixation	
83	386.1736753000878	20.012771260226145				Left Face	32.0	Rest-NoStim	3.0
84	406.1735728001222	5.013218160253018				Left Face		PostTrialFixation	
85	416.17347009992227	20.01377456029877				Left Face	32.0	Rest-NoStim	5.0
86	436.17471730010584	3.011460460256785				Left Face		PostTrialFixation	
87	446.18900049990043	19.999913360225037				Left Face	49.0	Rest-Stim	7.0
88	466.1891854999121	3.0164204598404467				Left Face		PostTrialFixation	
89	469.1925586001016	5.010394860059023		30.06172839506173		Left Face	49.0	Rest-Stim Rating	3.0
90	481.20596259995364	19.9999729602132				Left Face	49.0	Rest-Stim	7.0
91	501.2061572999228	3.016436159843579				Left Face		PostTrialFixation	
92	504.20911980001256	5.011228060116991		29.691358024691354		Left Face	49.0	Rest-Stim Rating	3.0
93	516.2229579000268	19.999942660098895				Left Face	49.0	Rest-Stim	7.0
94	536.2231719000265	3.0164350599516183				Left Face		PostTrialFixation	
95	539.2256122999825	5.012248860206455		35.432098765432094		Left Face	49.0	Rest-Stim Rating	3.0
96	544.2376868999563	549.2569653000683				Left Face	49.0	2back Instructions	
97	556.2767531999853	1.992879319936037			1.0	Left Face	32.0	2back-nostim	
98	558.2788847000338	2.0053570601157844			1.0	Left Face	32.0	2back-nostim	7.0
99	560.2945105999243	2.0074867599178106	0.816942699952051	0.0	1.0	Left Face	32.0	2back-nostim	
100	562.311120999977	2.0076697601471096	0.0	2.0	1.0	Left Face	32.0	2back-nostim	
101	564.3281368000899	2.0069871600717306	0.766924099996686	0.0	1.0	Left Face	32.0	2back-nostim	
102	566.344353799941	2.0079147601500154	0.0	2.0	1.0	Left Face	32.0	2back-nostim	
103	568.3611697000451	2.0077229600865394	0.0	2.0	1.0	Left Face	32.0	2back-nostim	
104	570.3779039999936	2.0075832600705326	0.0	2.0	1.0	Left Face	32.0	2back-nostim	
105	572.3946086000651	2.007515560137108	0.0	2.0	1.0	Left Face	32.0	2back-nostim	
106	574.4111446999013	2.0078434601891786	0.0	2.0	0.0	Left Face	32.0	2back-nostim	
107	581.4400851998944	586.4568648000713				Left Face	49.0	2back Instructions	
108	591.4745535999537	1.9979695200454444			1.0	Left Face	32.0	2back-nostim	
109	593.4793044999242	2.0051609601359814			1.0	Left Face	32.0	2back-nostim	5.0
110	595.4947319999337	2.00769055983983	0.0	2.0	1.0	Left Face	32.0	2back-nostim	
111	597.5113904001191	2.00775616010651	0.0	2.0	1.0	Left Face	32.0	2back-nostim	
112	599.5280629000627	2.007821860257536	0.950300799915567	0.0	1.0	Left Face	32.0	2back-nostim	
113	601.5448570000008	2.0075722602196038	0.0	2.0	1.0	Left Face	32.0	2back-nostim	
114	603.5613088998944	2.008030460216105	0.5502672002185136	0.0	1.0	Left Face	32.0	2back-nostim	
115	605.5781829000916	2.0076867598108947	0.0	2.0	1.0	Left Face	32.0	2back-nostim	
116	607.5949496999383	2.0074956598691642	0.4169842000119388	0.0	1.0	Left Face	32.0	2back-nostim	
117	609.6114598000422	2.0078522600233555	0.6836333000101149	0.0	1.0	Left Face	32.0	2back-nostim	
118	614.6564629001077	619.6738297999837				Left Face	49.0	2back Instructions	
119	626.6910751000978	1.9988847197964787			1.0	Left Face	32.0	2back-nostim	
120	628.6959561998956	2.005835559917614			1.0	Left Face	32.0	2back-nostim	7.0
121	630.7116948000621	2.0077334600500762	0.4502667998895049	0.0	1.0	Left Face	32.0	2back-nostim	
122	632.7285299999639	2.0074258600361645	0.0	2.0	1.0	Left Face	32.0	2back-nostim	
123	634.7451424000319	2.0076260599307716	0.0	2.0	1.0	Left Face	32.0	2back-nostim	
124	636.7616566000506	2.00791855994612	0.0	2.0	1.0	Left Face	32.0	2back-nostim	
125	638.7784446000587	2.007738559739664	0.0	2.0	0.0	Left Face	32.0	2back-nostim	
126	640.7951968999114	2.007598760072142	0.6669501999858767	0.0	1.0	Left Face	32.0	2back-nostim	
127	642.8120021999348	2.007370159961283	0.38363469997420907	0.0	1.0	Left Face	32.0	2back-nostim	
128	644.828753199894	2.007238060235977	0.0	2.0	1.0	Left Face	32.0	2back-nostim	
