	SID	biopac_channel	body_site	condition	correct	date	duration	handedness	mouseclick	onset	rt	scanner	score	session	sex	skin_site	temperature	value
0	2496	51	Left Leg	Expectancy		2024_Apr_25_2009	5.023013392230496	R		3.9162250000517815	3.0170587999746203	ss sk		2	F	2		35.37037037037037
1	2496	45	Left Leg	2-back Instruction		2024_Apr_25_2009	5.001819900004193	R		9.343609899980947		ss sk		2	F	2		
2	2496	7	Left Leg	Pre-trial Jitter		2024_Apr_25_2009	5.006600479828194	R		14.36625470011495		ss sk		2	F	2		
3	2496	44.0	Left Leg	pretrialfixation		2024_Apr_25_2009	1.0013044397346675	R		19.702274800045416		ss sk		2	F	2		
4	2496		Left Leg	2-back	1.0	2024_Apr_25_2009	1.9902279798407108	R		20.716182100120932		ss sk	12.5	2	F	2	47.0	
5	2496		Left Leg	2-back	1.0	2024_Apr_25_2009	1.9756728399079293	R		22.723482799949124		ss sk	25.0	2	F	2	47.0	
6	2496		Left Leg	2-back	1.0	2024_Apr_25_2009	1.97733433987014	R	0	24.72272459999658	0.7462942998390645	ss sk	37.5	2	F	2	47.0	
7	2496		Left Leg	2-back	1.0	2024_Apr_25_2009	1.976536839734763	R	2	26.723074600100517	0.7465202999301255	ss sk	50.0	2	F	2	47.0	
8	2496		Left Leg	2-back	1.0	2024_Apr_25_2009	1.9759053399320692	R	2	28.723434099927545	0.44620190002024174	ss sk	62.5	2	F	2	47.0	
9	2496		Left Leg	2-back	1.0	2024_Apr_25_2009	1.9766798398923129	R	2	30.72305850009434	0.47954609990119934	ss sk	75.0	2	F	2	47.0	
10	2496		Left Leg	2-back	1.0	2024_Apr_25_2009	1.9746734397485852	R	2	32.7240768999327	0.6793800999876112	ss sk	87.5	2	F	2	47.0	
11	2496		Left Leg	2-back	1.0	2024_Apr_25_2009	1.976435539778322	R	2	34.72324770013802	0.5344010000117123	ss sk	100.0	2	F	2	47.0	
12	2496	48.0	Left Leg	ScoreReport		2024_Apr_25_2009	5.007857379736379	R		36.740915700094774		ss sk		2	F	2		
13	2496	8	Left Leg	Post-trial Jitter		2024_Apr_25_2009	5.008182100020349	R		41.824127099942416		ss sk		2	F	2		
14	2496	20	Left Leg	PainBinary		2024_Apr_25_2009	5.010696120094508	R		46.86460270010866	0.9170620001386851	ss sk		2	F	2		1.0
15	2496	21	Left Leg	IntensityRating		2024_Apr_25_2009	5.012036820175126	R		51.90565209998749	2.450387499993667	ss sk		2	F	2		35.24691358024691
16	2496	23	Left Leg	DistractBinary		2024_Apr_25_2009	5.008256220258772	R		56.94925950001925	1.767097899923101	ss sk		2	F	2		-1.0
17	2496	9	Left Leg	Post-Q-Jitter		2024_Apr_25_2009	5.008378679864109	R		61.965922200120986		ss sk		2	F	2		
18	2496	51	Left Leg	Expectancy		2024_Apr_25_2009	5.004176839720458	R		67.46808960009366	2.8207676999736577	ss sk		2	F	2		36.23456790123456
19	2496	45	Left Leg	2-back Instruction		2024_Apr_25_2009	5.001183799933642	R		72.87797969998792		ss sk		2	F	2		
20	2496	7	Left Leg	Pre-trial Jitter		2024_Apr_25_2009	9.000206879805773	R		77.90356389991939		ss sk		2	F	2		
21	2496	44.0	Left Leg	pretrialfixation		2024_Apr_25_2009	1.0046195599716157	R		87.20141490013339		ss sk		2	F	2		
22	2496		Left Leg	2-back	1.0	2024_Apr_25_2009	1.9892466797027737	R		88.21745000011288		ss sk	12.5	2	F	2	47.0	
23	2496		Left Leg	2-back	1.0	2024_Apr_25_2009	1.9758801399730146	R		90.22415530006401		ss sk	25.0	2	F	2	47.0	
24	2496		Left Leg	2-back	1.0	2024_Apr_25_2009	1.977460240246728	R	2	92.22339259996079	0.6159587998408824	ss sk	37.5	2	F	2	47.0	
25	2496		Left Leg	2-back	1.0	2024_Apr_25_2009	1.9765360401943326	R	2	94.2238829000853	0.6129566000308841	ss sk	50.0	2	F	2	47.0	
26	2496		Left Leg	2-back	1.0	2024_Apr_25_2009	1.976646840106696	R	0	96.22385070007294	0.4628250999376178	ss sk	62.5	2	F	2	47.0	
27	2496		Left Leg	2-back	1.0	2024_Apr_25_2009	1.976832640124485	R	0	98.22378410003148	0.5962652999442071	ss sk	75.0	2	F	2	47.0	
28	2496		Left Leg	2-back	1.0	2024_Apr_25_2009	1.9767501398455352	R	2	100.22384140011854	0.6829256000928581	ss sk	87.5	2	F	2	47.0	
29	2496		Left Leg	2-back	1.0	2024_Apr_25_2009	1.9758323398418725	R	2	102.22432569996454	0.6795598999597132	ss sk	100.0	2	F	2	47.0	
30	2496	48.0	Left Leg	ScoreReport		2024_Apr_25_2009	5.007437180029228	R		104.24190329993144		ss sk		2	F	2		
31	2496	8	Left Leg	Post-trial Jitter		2024_Apr_25_2009	4.999652199912816	R		109.3208341000136		ss sk		2	F	2		
32	2496	20	Left Leg	PainBinary		2024_Apr_25_2009	5.0100284200161695	R		114.34905300009996	1.4170155997853726	ss sk		2	F	2		-1.0
33	2496	21	Left Leg	IntensityRating		2024_Apr_25_2009	5.0125252201687545	R		119.38952520000748	3.0669550001621246	ss sk		2	F	2		21.975308641975307
34	2496	9	Left Leg	Post-Q-Jitter		2024_Apr_25_2009	5.010526179801673	R		124.41558709996752		ss sk		2	F	2		
35	2496	43	Left Leg	2-back Instruction		2024_Apr_25_2009	4.997568820137531	R		129.45545240002684		ss sk		2	F	2		
36	2496	7	Left Leg	Pre-trial Jitter		2024_Apr_25_2009	9.000574979698285	R		134.47070920001715		ss sk		2	F	2		
37	2496	44.0	Left Leg	pretrialfixation		2024_Apr_25_2009	0.9963147798553109	R		143.73957580002025		ss sk		2	F	2		
38	2496		Left Leg	2-back	1.0	2024_Apr_25_2009	1.9912993798498064	R		144.75043920008466		ss sk	12.5	2	F	2	32.0	
39	2496		Left Leg	2-back	1.0	2024_Apr_25_2009	1.975889939814806	R		146.75814980012365		ss sk	25.0	2	F	2	32.0	
40	2496		Left Leg	2-back	1.0	2024_Apr_25_2009	1.9773714400362223	R	0	148.75742490007542	0.3791482001543045	ss sk	37.5	2	F	2	32.0	
41	2496		Left Leg	2-back	1.0	2024_Apr_25_2009	1.9758380397688597	R	2	150.75823260005563	0.5962399998679757	ss sk	50.0	2	F	2	32.0	
42	2496		Left Leg	2-back	1.0	2024_Apr_25_2009	1.9764193401206285	R	2	152.7579119000584	0.7627930999733508	ss sk	62.5	2	F	2	32.0	
43	2496		Left Leg	2-back	1.0	2024_Apr_25_2009	1.9756549398880452	R	2	154.75836560013704	0.6626503998413682	ss sk	75.0	2	F	2	32.0	
44	2496		Left Leg	2-back	0.0	2024_Apr_25_2009	1.9760527398902923	R	2	156.75818699994124	0.8295162001159042	ss sk	75.0	2	F	2	32.0	
45	2496		Left Leg	2-back	1.0	2024_Apr_25_2009	1.974584039999172	R	0	158.75869089993648	0.7177796000614762	ss sk	87.5	2	F	2	32.0	
46	2496	48.0	Left Leg	ScoreReport		2024_Apr_25_2009	5.011080319993198	R		160.7824015999213		ss sk		2	F	2		
47	2496	8	Left Leg	Post-trial Jitter		2024_Apr_25_2009	6.997893100138754	R		165.85573279997334		ss sk		2	F	2		
48	2496	43	Left Leg	2-back Instruction		2024_Apr_25_2009	5.0012448199559	R		172.88740599993616		ss sk		2	F	2		
49	2496	7	Left Leg	Pre-trial Jitter		2024_Apr_25_2009	6.999614879954606	R		177.9049587000627		ss sk		2	F	2		
50	2496	44.0	Left Leg	pretrialfixation		2024_Apr_25_2009	1.0095473797991872	R		185.17509560007602		ss sk		2	F	2		
51	2496		Left Leg	2-back	1.0	2024_Apr_25_2009	1.9911112796980888	R		186.20096269994974		ss sk	12.5	2	F	2	32.0	
52	2496		Left Leg	2-back	1.0	2024_Apr_25_2009	1.9749160399660468	R		188.20912300003693		ss sk	25.0	2	F	2	32.0	
53	2496		Left Leg	2-back	1.0	2024_Apr_25_2009	1.9775278400629759	R	0	190.20777780003846	0.8124788999557495	ss sk	37.5	2	F	2	32.0	
54	2496		Left Leg	2-back	1.0	2024_Apr_25_2009	1.9768485398963094	R	2	192.2081927000545	0.8291140999644995	ss sk	50.0	2	F	2	32.0	
55	2496		Left Leg	2-back	1.0	2024_Apr_25_2009	1.9763117397669703	R	2	194.20848180004396	0.49623479996807873	ss sk	62.5	2	F	2	32.0	
56	2496		Left Leg	2-back	1.0	2024_Apr_25_2009	1.976441039936617	R	2	196.20844250009395	0.6294416000600904	ss sk	75.0	2	F	2	32.0	
57	2496		Left Leg	2-back	1.0	2024_Apr_25_2009	1.9761436400003731	R	0	198.20859739999287	0.4461741999257356	ss sk	87.5	2	F	2	32.0	
58	2496		Left Leg	2-back	1.0	2024_Apr_25_2009	1.9762815400026739	R	2	200.20856559998356	0.7627862000372261	ss sk	100.0	2	F	2	32.0	
59	2496	48.0	Left Leg	ScoreReport		2024_Apr_25_2009	5.008040179964155	R		202.2260632000398		ss sk		2	F	2		
60	2496	8	Left Leg	Post-trial Jitter		2024_Apr_25_2009	8.998161799972877	R		207.30608060001396		ss sk		2	F	2		
61	2496	51	Left Leg	Expectancy		2024_Apr_25_2009	5.013999139424413	R		217.47325009992346	3.7700972000602633	ss sk		2	F	2		32.407407407407405
62	2496	44	Left Leg	0-back Instruction		2024_Apr_25_2009	5.011384139768779	R		222.89962929999456		ss sk		2	F	2		
63	2496	7	Left Leg	Pre-Trial Jitter		2024_Apr_25_2009	5.000368679873645	R		227.92186150001362		ss sk		2	F	2		
64	2496	44.0	Left Leg	pretrialfixation		2024_Apr_25_2009	0.9980217597912997	R		233.22306940006092		ss sk		2	F	2		
65	2496		Left Leg	0-back	1.0	2024_Apr_25_2009	1.991279979934916	R	0.0	234.2348017001059	1.0127044001128525	ss sk	12.5	2	F	2	47.0	
66	2496		Left Leg	0-back	1.0	2024_Apr_25_2009	1.9761845397297293	R	0.0	236.24236880009994	0.38341289991512895	ss sk	25.0	2	F	2	47.0	
67	2496		Left Leg	0-back	1.0	2024_Apr_25_2009	1.9794345400296152	R	0.0	238.24076900002547	0.3343954000156373	ss sk	37.5	2	F	2	47.0	
68	2496		Left Leg	0-back	1.0	2024_Apr_25_2009	1.9798522398341447	R	0.0	240.24058360001072	0.2836712999269366	ss sk	50.0	2	F	2	47.0	
69	2496		Left Leg	0-back	1.0	2024_Apr_25_2009	1.979048339650035	R	0.0	242.2410097999964	0.29632520000450313	ss sk	62.5	2	F	2	47.0	
70	2496		Left Leg	0-back	1.0	2024_Apr_25_2009	1.9801133398432285	R	0.0	244.24049720005132	0.3293971000239253	ss sk	75.0	2	F	2	47.0	
71	2496		Left Leg	0-back	1.0	2024_Apr_25_2009	1.9788654397707433	R	0.0	246.2411476999987	0.2960854999255389	ss sk	87.5	2	F	2	47.0	
72	2496		Left Leg	0-back	1.0	2024_Apr_25_2009	1.9797705400269479	R	0.0	248.24070690013468	0.3629020999651402	ss sk	100.0	2	F	2	47.0	
73	2496	48.0	Left Leg	ScoreReport		2024_Apr_25_2009	4.997534780064598	R		250.25686930003576		ss sk		2	F	2		
74	2496	8	Left Leg	Post-Trial Jitter		2024_Apr_25_2009	6.9981545999180526	R		255.32329250010662		ss sk		2	F	2		
75	2496	20	Left Leg	PainBinary		2024_Apr_25_2009	5.010969520080835	R		262.350285399938	1.3671201998367906	ss sk		2	F	2		1.0
76	2496	21	Left Leg	IntensityRating		2024_Apr_25_2009	5.013225120026618	R		267.3908923000563	3.450417499989271	ss sk		2	F	2		38.641975308641975
77	2496	23	Left Leg	DistractBinary		2024_Apr_25_2009	5.010822320124134	R		272.4338181000203	1.4336683000437915	ss sk		2	F	2		-1.0
78	2496	9	Left Leg	Post-Q-Jitter		2024_Apr_25_2009	7.0099602800328285	R		277.4509787999559		ss sk		2	F	2		
79	2496	51	Left Leg	Expectancy		2024_Apr_25_2009	5.001244619488716	R		284.9970837000292	2.817091600038111	ss sk		2	F	2		34.75308641975308
80	2496	44	Left Leg	0-back Instruction		2024_Apr_25_2009	5.0097618396393955	R		290.4178891000338		ss sk		2	F	2		
81	2496	7	Left Leg	Pre-Trial Jitter		2024_Apr_25_2009	7.000405779806897	R		295.43929639994167		ss sk		2	F	2		
82	2496	44.0	Left Leg	pretrialfixation		2024_Apr_25_2009	1.0005733999423683	R		302.7642628001049		ss sk		2	F	2		
83	2496		Left Leg	0-back	1.0	2024_Apr_25_2009	1.9900485796388239	R	0.0	303.78620840003714	0.5835674998816103	ss sk	12.5	2	F	2	47.0	
84	2496		Left Leg	0-back	1.0	2024_Apr_25_2009	1.9775064401328564	R	0.0	305.7925059001427	0.3121934998780489	ss sk	25.0	2	F	2	47.0	
85	2496		Left Leg	0-back	1.0	2024_Apr_25_2009	1.979712339816615	R	0.0	307.7913707001135	0.34982059989124537	ss sk	37.5	2	F	2	47.0	
86	2496		Left Leg	0-back	1.0	2024_Apr_25_2009	1.9797587399370968	R	0.0	309.79145530005917	0.2961351000703871	ss sk	50.0	2	F	2	47.0	
87	2496		Left Leg	0-back	1.0	2024_Apr_25_2009	1.980013239895925	R	0.0	311.7913297000341	0.2502687999513	ss sk	62.5	2	F	2	47.0	
88	2496		Left Leg	0-back	1.0	2024_Apr_25_2009	1.980152240023017	R	0.0	313.79129979992285	0.2498422998469323	ss sk	75.0	2	F	2	47.0	
89	2496		Left Leg	0-back	1.0	2024_Apr_25_2009	1.9798135398887098	R	0.0	315.79143079998903	0.28321640007197857	ss sk	87.5	2	F	2	47.0	
90	2496		Left Leg	0-back	1.0	2024_Apr_25_2009	1.9796422398649156	R	0.0	317.7916081000585	0.32949809986166656	ss sk	100.0	2	F	2	47.0	
91	2496	48.0	Left Leg	ScoreReport		2024_Apr_25_2009	4.996878179721534	R		319.8080210001208		ss sk		2	F	2		
92	2496	8	Left Leg	Post-Trial Jitter		2024_Apr_25_2009	7.009128899779171	R		324.87694939994253		ss sk		2	F	2		
93	2496	20	Left Leg	PainBinary		2024_Apr_25_2009	5.011463520349935	R		331.91750270011835	1.7366065999958664	ss sk		2	F	2		1.0
94	2496	21	Left Leg	IntensityRating		2024_Apr_25_2009	5.012669920222834	R		336.9586473000236	2.653872799826786	ss sk		2	F	2		27.160493827160494
95	2496	23	Left Leg	DistractBinary		2024_Apr_25_2009	5.01077231997624	R		342.0013216000516	1.3336227999534458	ss sk		2	F	2		-1.0
96	2496	9	Left Leg	Post-Q-Jitter		2024_Apr_25_2009	7.009745779680088	R		347.0185668000486		ss sk		2	F	2		
97	2496	42	Left Leg	0-back Instruction		2024_Apr_25_2009	4.9974295203574	R		354.0581253001001		ss sk		2	F	2		
98	2496	7	Left Leg	Pre-Trial Jitter		2024_Apr_25_2009	7.000877880025655	R		359.07313479995355		ss sk		2	F	2		
99	2496	44.0	Left Leg	pretrialfixation		2024_Apr_25_2009	1.006731579778716	R		366.345224800054		ss sk		2	F	2		
100	2496		Left Leg	0-back	1.0	2024_Apr_25_2009	1.9923590801190585	R	0.0	367.36910729995	0.4293094000313431	ss sk	12.5	2	F	2	32.0	
101	2496		Left Leg	0-back	1.0	2024_Apr_25_2009	1.976816640002653	R	0.0	369.37694040010683	0.312881899997592	ss sk	25.0	2	F	2	32.0	
102	2496		Left Leg	0-back	1.0	2024_Apr_25_2009	1.9792840399313718	R	0.0	371.37571729999036	0.23391309985890985	ss sk	37.5	2	F	2	32.0	
103	2496		Left Leg	0-back	1.0	2024_Apr_25_2009	1.97883793967776	R	0.0	373.3759699999355	0.29610570007935166	ss sk	50.0	2	F	2	32.0	
104	2496		Left Leg	0-back	1.0	2024_Apr_25_2009	1.979624240193516	R	0.0	375.37561180000193	0.2837547000963241	ss sk	62.5	2	F	2	32.0	
105	2496		Left Leg	0-back	1.0	2024_Apr_25_2009	1.9788502401206642	R	0.0	377.37604380003177	0.3127225998323411	ss sk	75.0	2	F	2	32.0	
106	2496		Left Leg	0-back	1.0	2024_Apr_25_2009	1.9795852398965508	R	0.0	379.3756631000433	0.3295479000080377	ss sk	87.5	2	F	2	32.0	
107	2496		Left Leg	0-back	1.0	2024_Apr_25_2009	1.9788961398880929	R	0.0	381.3760202000849	0.34626290015876293	ss sk	100.0	2	F	2	32.0	
108	2496	48.0	Left Leg	ScoreReport		2024_Apr_25_2009	4.99708347953856	R		383.391955900006		ss sk		2	F	2		
109	2496	8	Left Leg	Post-Trial Jitter		2024_Apr_25_2009	8.996906999964267	R		388.458796299994		ss sk		2	F	2		
110	2496	42	Left Leg	0-back Instruction		2024_Apr_25_2009	5.000248319935054	R		397.49055949994363		ss sk		2	F	2		
111	2496	7	Left Leg	Pre-Trial Jitter		2024_Apr_25_2009	4.999709979863837	R		402.5075557001401		ss sk		2	F	2		
112	2496	44.0	Left Leg	pretrialfixation		2024_Apr_25_2009	1.009761679917574	R		407.7775564000476		ss sk		2	F	2		
113	2496		Left Leg	0-back	1.0	2024_Apr_25_2009	1.9919487796723843	R	0.0	408.80314869992435	0.5791910998523235	ss sk	12.5	2	F	2	32.0	
114	2496		Left Leg	0-back	1.0	2024_Apr_25_2009	1.9769256399013102	R	0.0	410.8106893999502	0.3340149000287056	ss sk	25.0	2	F	2	32.0	
115	2496		Left Leg	0-back	1.0	2024_Apr_25_2009	1.9800915399100631	R	0.0	412.80913670011796	0.2792336998973042	ss sk	37.5	2	F	2	32.0	
116	2496		Left Leg	0-back	1.0	2024_Apr_25_2009	1.9795175397302955	R	0.0	414.8094321999233	0.3296674001030624	ss sk	50.0	2	F	2	32.0	
117	2496		Left Leg	0-back	1.0	2024_Apr_25_2009	1.9799402398057282	R	0.0	416.80924349999987	0.32880749995820224	ss sk	62.5	2	F	2	32.0	
118	2496		Left Leg	0-back	1.0	2024_Apr_25_2009	1.9800447397865355	R	0.0	418.8092134001199	0.3128380000125617	ss sk	75.0	2	F	2	32.0	
119	2496		Left Leg	0-back	1.0	2024_Apr_25_2009	1.9799006399698555	R	0.0	420.80930149997585	0.2784652002155781	ss sk	87.5	2	F	2	32.0	
120	2496		Left Leg	0-back	1.0	2024_Apr_25_2009	1.9795148398261517	R	0.0	422.80951569997706	0.3498507998883724	ss sk	100.0	2	F	2	32.0	
121	2496	48.0	Left Leg	ScoreReport		2024_Apr_25_2009	4.998046180000529	R		424.82529990002513		ss sk		2	F	2		
122	2496	8	Left Leg	Post-Trial Jitter		2024_Apr_25_2009	9.001888399710879	R		429.89013969991356		ss sk		2	F	2		
123	2496	51	Left Leg	Expectancy		2024_Apr_25_2009	5.010119279613718	R		439.40276869991794	3.6671873000450432	ss sk		2	F	2		33.95061728395062
124	2496	45	Left Leg	2-back Instruction		2024_Apr_25_2009	5.01333863963373	R		444.81788729992695		ss sk		2	F	2		
125	2496	7	Left Leg	Pre-trial Jitter		2024_Apr_25_2009	4.998756980057806	R		449.8419103999622		ss sk		2	F	2		
126	2496	44.0	Left Leg	pretrialfixation		2024_Apr_25_2009	1.0015335998032242	R		455.1655629000161		ss sk		2	F	2		
127	2496		Left Leg	2-back	1.0	2024_Apr_25_2009	1.9918324798345566	R		456.1870917000342		ss sk	12.5	2	F	2	47.0	
128	2496		Left Leg	2-back	1.0	2024_Apr_25_2009	1.9747026397380978	R		458.1956807000097		ss sk	25.0	2	F	2	47.0	
129	2496		Left Leg	2-back	1.0	2024_Apr_25_2009	1.9772308396641165	R	2	460.1944403999951	0.5961140999570489	ss sk	37.5	2	F	2	47.0	
130	2496		Left Leg	2-back	1.0	2024_Apr_25_2009	1.976148639805615	R	2	462.1949811000377	0.7962407001759857	ss sk	50.0	2	F	2	47.0	
131	2496		Left Leg	2-back	1.0	2024_Apr_25_2009	1.9762697399128228	R	0	464.19495999999344	0.6124393998179585	ss sk	62.5	2	F	2	47.0	
132	2496		Left Leg	2-back	1.0	2024_Apr_25_2009	1.9761371400672942	R	2	466.1950540000107	0.7793633998371661	ss sk	75.0	2	F	2	47.0	
133	2496		Left Leg	2-back	1.0	2024_Apr_25_2009	1.9761369398329407	R	0	468.19506970001385	0.6001875000074506	ss sk	87.5	2	F	2	47.0	
134	2496		Left Leg	2-back	1.0	2024_Apr_25_2009	1.9764201398938894	R	2	470.1949571999721	0.683958200039342	ss sk	100.0	2	F	2	47.0	
135	2496	48.0	Left Leg	ScoreReport		2024_Apr_25_2009	5.006252279970795	R		472.21341899991967		ss sk		2	F	2		
136	2496	8	Left Leg	Post-trial Jitter		2024_Apr_25_2009	9.009662199998274	R		477.29513880005106		ss sk		2	F	2		
137	2496	20	Left Leg	PainBinary		2024_Apr_25_2009	5.009831320261583	R		486.33678580005653	1.053435100009665	ss sk		2	F	2		-1.0
138	2496	21	Left Leg	IntensityRating		2024_Apr_25_2009	5.012470319867134	R		491.377202300122	3.733653899980709	ss sk		2	F	2		23.51851851851852
139	2496	9	Left Leg	Post-Q-Jitter		2024_Apr_25_2009	9.01038497989066	R		496.403311900096		ss sk		2	F	2		
140	2496	51	Left Leg	Expectancy		2024_Apr_25_2009	5.010060579515994	R		505.92857769993134	3.1871349001303315	ss sk		2	F	2		31.48148148148148
141	2496	45	Left Leg	2-back Instruction		2024_Apr_25_2009	5.011486939853057	R		511.3529245001264		ss sk		2	F	2		
142	2496	7	Left Leg	Pre-trial Jitter		2024_Apr_25_2009	5.000478080008179	R		516.3751431000419		ss sk		2	F	2		
143	2496	44.0	Left Leg	pretrialfixation		2024_Apr_25_2009	1.0131066995672882	R		521.6854956999887		ss sk		2	F	2		
144	2496		Left Leg	2-back	1.0	2024_Apr_25_2009	1.988774879835546	R		522.7060237000696		ss sk	12.5	2	F	2	47.0	
145	2496		Left Leg	2-back	1.0	2024_Apr_25_2009	1.9758908399380744	R		524.7125155001413		ss sk	25.0	2	F	2	47.0	
146	2496		Left Leg	2-back	1.0	2024_Apr_25_2009	1.976986639900133	R	0	526.7119905001018	0.7463027001358569	ss sk	37.5	2	F	2	47.0	
147	2496		Left Leg	2-back	1.0	2024_Apr_25_2009	1.9764317399822176	R	2	528.7123058999423	0.6462964001111686	ss sk	50.0	2	F	2	47.0	
148	2496		Left Leg	2-back	1.0	2024_Apr_25_2009	1.9766581400763243	R	2	530.7122090000194	0.4796259000431746	ss sk	62.5	2	F	2	47.0	
149	2496		Left Leg	2-back	1.0	2024_Apr_25_2009	1.9766503400169313	R	2	532.7122259000316	0.6294778999872506	ss sk	75.0	2	F	2	47.0	
150	2496		Left Leg	2-back	1.0	2024_Apr_25_2009	1.9765045400708914	R	2	534.7123348000459	0.4336192000191659	ss sk	87.5	2	F	2	47.0	
151	2496		Left Leg	2-back	1.0	2024_Apr_25_2009	1.9764743400737643	R	2	536.7123686000705	0.6961813000962138	ss sk	100.0	2	F	2	47.0	
152	2496	48.0	Left Leg	ScoreReport		2024_Apr_25_2009	5.0074476797599345	R		538.7302479001228		ss sk		2	F	2		
153	2496	8	Left Leg	Post-trial Jitter		2024_Apr_25_2009	8.997290099970996	R		543.8104028999805		ss sk		2	F	2		
154	2496	20	Left Leg	PainBinary		2024_Apr_25_2009	5.0112307199742645	R		552.8368542001117	1.0340366999153048	ss sk		2	F	2		-1.0
155	2496	21	Left Leg	IntensityRating		2024_Apr_25_2009	5.0117473201826215	R		557.8783259000629	3.7170484999660403	ss sk		2	F	2		12.777777777777777
156	2496	9	Left Leg	Post-Q-Jitter		2024_Apr_25_2009	9.010062579996884	R		562.9042660000268		ss sk		2	F	2		
157	2496	51	Left Leg	Expectancy		2024_Apr_25_2009	5.0107195393648	R		573.0790401999839	2.750507100019604	ss sk		2	F	2		31.049382716049383
158	2496	44	Left Leg	0-back Instruction		2024_Apr_25_2009	5.010010439669713	R		578.5044380000327		ss sk		2	F	2		
159	2496	7	Left Leg	Pre-Trial Jitter		2024_Apr_25_2009	4.999670679681003	R		583.5263276000042		ss sk		2	F	2		
160	2496	44.0	Left Leg	pretrialfixation		2024_Apr_25_2009	1.0129064398352057	R		588.8530729999766		ss sk		2	F	2		
161	2496		Left Leg	0-back	1.0	2024_Apr_25_2009	1.9913733799476177	R	0.0	589.8721769000404	0.5121321000624448	ss sk	12.5	2	F	2	47.0	
162	2496		Left Leg	0-back	1.0	2024_Apr_25_2009	1.9759995399508625	R	0.0	591.8799072001129	0.2961299999151379	ss sk	25.0	2	F	2	47.0	
163	2496		Left Leg	0-back	1.0	2024_Apr_25_2009	1.978845639852807	R	0.0	593.8785230999347	0.26673230016604066	ss sk	37.5	2	F	2	47.0	
164	2496		Left Leg	0-back	1.0	2024_Apr_25_2009	1.978997039841488	R	0.0	595.8784666999709	0.2679270999506116	ss sk	50.0	2	F	2	47.0	
165	2496		Left Leg	0-back	1.0	2024_Apr_25_2009	1.978315340122208	R	0.0	597.8788119999226	0.27947710012085736	ss sk	62.5	2	F	2	47.0	
166	2496		Left Leg	0-back	1.0	2024_Apr_25_2009	1.9799432398285717	R	0.0	599.8780169999227	0.2961452000308782	ss sk	75.0	2	F	2	47.0	
167	2496		Left Leg	0-back	1.0	2024_Apr_25_2009	1.9764162399806082	R	0.0	601.8798251000699	0.27938480000011623	ss sk	87.5	2	F	2	47.0	
168	2496		Left Leg	0-back	1.0	2024_Apr_25_2009	1.9783375398255885	R	0.0	603.8788596000522	0.3628795000258833	ss sk	100.0	2	F	2	47.0	
169	2496	48.0	Left Leg	ScoreReport		2024_Apr_25_2009	4.996437779860571	R		605.8948604001198		ss sk		2	F	2		
170	2496	8	Left Leg	Post-Trial Jitter		2024_Apr_25_2009	9.011670800158754	R		610.9623324000277		ss sk		2	F	2		
171	2496	20	Left Leg	PainBinary		2024_Apr_25_2009	5.011535520432517	R		620.0041523999535	2.6336238000076264	ss sk		2	F	2		1.0
172	2496	21	Left Leg	IntensityRating		2024_Apr_25_2009	5.01311672036536	R		625.0450812000781	2.150357199832797	ss sk		2	F	2		31.41975308641975
173	2496	23	Left Leg	DistractBinary		2024_Apr_25_2009	5.010622119996697	R		630.0880609999876	1.133762100012973	ss sk		2	F	2		-1.0
174	2496	9	Left Leg	Post-Q-Jitter		2024_Apr_25_2009	9.008621479850262	R		635.1058074000757		ss sk		2	F	2		
175	2496	51	Left Leg	Expectancy		2024_Apr_25_2009	5.013295819750056	R		644.6368895999622	2.350431799888611	ss sk		2	F	2		31.913580246913583
176	2496	44	Left Leg	0-back Instruction		2024_Apr_25_2009	5.011234439909458	R		650.054650099948		ss sk		2	F	2		
177	2496	7	Left Leg	Pre-Trial Jitter		2024_Apr_25_2009	4.999445779714733	R		655.0772675001062		ss sk		2	F	2		
178	2496	44.0	Left Leg	pretrialfixation		2024_Apr_25_2009	1.0039881598204374	R		660.3750354999211		ss sk		2	F	2		
179	2496		Left Leg	0-back	1.0	2024_Apr_25_2009	1.9912697800900787	R	0.0	661.3897522001062	0.6294219999108464	ss sk	12.5	2	F	2	47.0	
180	2496		Left Leg	0-back	1.0	2024_Apr_25_2009	1.9773813399951905	R	0.0	663.3967146999203	0.36283709993585944	ss sk	25.0	2	F	2	47.0	
181	2496		Left Leg	0-back	1.0	2024_Apr_25_2009	1.9798140400089324	R	0.0	665.3955199001357	0.27915129996836185	ss sk	37.5	2	F	2	47.0	
182	2496		Left Leg	0-back	1.0	2024_Apr_25_2009	1.979756240034476	R	0.0	667.3955717999488	0.2453563001472503	ss sk	50.0	2	F	2	47.0	
183	2496		Left Leg	0-back	1.0	2024_Apr_25_2009	1.9790739400777966	R	0.0	669.3959383999463	0.22948149987496436	ss sk	62.5	2	F	2	47.0	
184	2496		Left Leg	0-back	1.0	2024_Apr_25_2009	1.9800202399492264	R	0.0	671.3954902999103	0.24989089998416603	ss sk	75.0	2	F	2	47.0	
185	2496		Left Leg	0-back	1.0	2024_Apr_25_2009	1.9799688400235027	R	0.0	673.3955377999227	0.32965520001016557	ss sk	87.5	2	F	2	47.0	
186	2496		Left Leg	0-back	1.0	2024_Apr_25_2009	1.9799505400005728	R	0.0	675.3955677999184	0.296173500129953	ss sk	100.0	2	F	2	47.0	
187	2496	48.0	Left Leg	ScoreReport		2024_Apr_25_2009	4.997273280052468	R		677.4119629000779		ss sk		2	F	2		
188	2496	8	Left Leg	Post-Trial Jitter		2024_Apr_25_2009	4.999338399851695	R		682.4776488000061		ss sk		2	F	2		
189	2496	20	Left Leg	PainBinary		2024_Apr_25_2009	5.010446320287883	R		687.5054836999625	1.2507832001429051	ss sk		2	F	2		1.0
190	2496	21	Left Leg	IntensityRating		2024_Apr_25_2009	5.012111220043153	R		692.5463562000077	2.38366930000484	ss sk		2	F	2		40.06172839506172
191	2496	23	Left Leg	DistractBinary		2024_Apr_25_2009	5.009327919920906	R		697.5894570001401	1.3003187999129295	ss sk		2	F	2		-1.0
192	2496	9	Left Leg	Post-Q-Jitter		2024_Apr_25_2009	5.008010079851374	R		702.6068675001152		ss sk		2	F	2		
193	2496	26	Left Leg	ComfortRating		2024_Apr_25_2009	3.677637920016423	R		707.6471853000112	3.650307900039479	ss sk		2	F	2		-31.358024691358025
194	2496	24	Left Leg	ValenceRating		2024_Apr_25_2009	3.103375320089981	R		711.3676917999983	3.0838635999243706	ss sk		2	F	2		54.44444444444444
195	2496	26	Left Leg	IntensityRating		2024_Apr_25_2009	2.2130461202468723	R		714.5128299000207	2.1835336999502033	ss sk		2	F	2		56.2962962962963
196	2496	27	Left Leg	AvoidanceRating		2024_Apr_25_2009	3.9227462203707546	R		716.7663527000695	3.9004081001039594	ss sk		2	F	2		100.0
197	2496	28	Left Leg	RelaxationRating		2024_Apr_25_2009	2.703073519980535	R		720.7262707999907	2.683802800020203	ss sk		2	F	2		1.790123456790127
198	2496	29	Left Leg	AttentionRating		2024_Apr_25_2009	2.3541280198842287	R		723.4674408999272	2.3338400998618454	ss sk		2	F	2		61.60493827160494
199	2496	30	Left Leg	BoredomRating		2024_Apr_25_2009	2.500531720230356	R		725.8609377001412	2.4845779000315815	ss sk		2	F	2		61.419753086419746
200	2496	31	Left Leg	AlertnessRating		2024_Apr_25_2009	2.1655974199529737	R		728.3951048001181	2.1336801999714226	ss sk		2	F	2		24.320987654320987
201	2496	32	Left Leg	PosThxRating		2024_Apr_25_2009	3.510794820031151	R		730.5975373999681	3.4836734000127763	ss sk		2	F	2		-100.0
202	2496	33	Left Leg	NegThxRating		2024_Apr_25_2009	3.6590144198853523	R		734.1484566999134	3.6337229998316616	ss sk		2	F	2		100.0
203	2496	34	Left Leg	SelfRating		2024_Apr_25_2009	2.2771402201615274	R		737.8477358000819	2.2504195000510663	ss sk		2	F	2		-30.12345679012344
204	2496	35	Left Leg	OtherRating		2024_Apr_25_2009	1.808647720143199	R		740.1653466001153	1.7837130001280457	ss sk		2	F	2		42.22222222222223
205	2496	32	Left Leg	ImageryRating		2024_Apr_25_2009	3.1488932599313557	R		742.0202810999472	3.117116400040686	ss sk		2	F	2		-12.345679012345684
206	2496	37	Left Leg	PresentRating		2024_Apr_25_2009	2.2454745599534363	R		745.2053576000035	2.2171487000305206	ss sk		2	F	2		-26.04938271604938
