	onset	duration	rt	response	correct	bodySite	temperature	condition	pretrial-jitter
0	7.760160299949348	20.000020699808374				Left Face	32.0	Rest-NoStim	5.0
1	27.76032150001265	6.9998869996052235				Left Face		PostTrialFixation	
2	37.762386000016704	20.01269100001082				Left Face	32.0	Rest-NoStim	3.0
3	57.76239709998481	5.012943600071594				Left Face		PostTrialFixation	
4	67.7623022000771	20.01347570004873				Left Face	32.0	Rest-NoStim	5.0
5	87.76245280005969	3.013391600223258				Left Face		PostTrialFixation	
6	97.77760450006463	20.00000079977326				Left Face	47.5	Rest-Stim	7.0
7	117.77778359991498	6.999904699856415				Left Face		PostTrialFixation	
8	124.77825669990852	5.016101299785078		35.24691358024691		Left Face	47.5	Rest-Stim Rating	7.0
9	132.7945964001119	19.999995099846274				Left Face	47.5	Rest-Stim	3.0
10	152.79476130008698	4.999805599916726				Left Face		PostTrialFixation	
11	157.79517200007103	5.016246899962425		36.91358024691358		Left Face	47.5	Rest-Stim Rating	5.0
12	167.81156609999016	20.000012599863112				Left Face	47.5	Rest-Stim	5.0
13	187.81175190000795	3.016511800000444				Left Face		PostTrialFixation	
14	190.81435499992222	5.011823300039396		36.54320987654321		Left Face	47.5	Rest-Stim Rating	3.0
15	195.82149320002645	200.8285268000327				Left Face	32.0	2back Instructions	
16	207.85386679996736	1.982597699854523			1.0	Left Face	47.5	2back-stim	
17	209.8491130999755	2.008872900158167			1.0	Left Face	47.5	2back-stim	7.0
18	211.8650722000748	2.010313999839127	0.46687450003810227	0.0	1.0	Left Face	47.5	2back-stim	
19	213.8816537000239	2.0104871997609735	0.0	2.0	1.0	Left Face	47.5	2back-stim	
20	215.94963050005026	1.9579139000270516	0.500163400080055	0.0	0.0	Left Face	47.5	2back-stim	
21	217.91522919991985	2.0100905001163483	0.0	2.0	1.0	Left Face	47.5	2back-stim	
22	219.93174039991572	2.010437299730256	0.7669059000909328	0.0	1.0	Left Face	47.5	2back-stim	
23	221.94833589997143	2.0106094998773187	0.8835829000454396	0.0	1.0	Left Face	47.5	2back-stim	
24	223.9652225000318	2.010199099779129	0.8335676998831332	0.0	1.0	Left Face	47.5	2back-stim	
25	225.98175820009783	2.010531400097534	0.0	2.0	1.0	Left Face	47.5	2back-stim	
26	232.99956310004927	5.00870730006136		36.41975308641975		Left Face	47.5	2back-stim Rating	5.0
27	238.00486649991944	243.01276700012386				Left Face	32.0	2back Instructions	
28	248.03725870000198	1.9998761999886483			1.0	Left Face	47.5	2back-stim	
29	250.0490721000824	2.009638400282711			1.0	Left Face	47.5	2back-stim	5.0
30	252.06573179992847	2.0096523996908218	0.5335442000068724	0.0	1.0	Left Face	47.5	2back-stim	
31	254.08156750001945	2.010862799594179	0.0	2.0	1.0	Left Face	47.5	2back-stim	
32	256.12648650002666	1.9715782997664064	0.0	2.0	1.0	Left Face	47.5	2back-stim	
33	258.1155163999647	2.010224400088191	0.0	2.0	1.0	Left Face	47.5	2back-stim	
34	260.13217770005576	2.010320100001991	0.6335656000301242	0.0	1.0	Left Face	47.5	2back-stim	
35	262.1488222000189	2.0103336998727173	0.0	2.0	1.0	Left Face	47.5	2back-stim	
36	264.16557390009984	2.010210799984634	0.0	2.0	1.0	Left Face	47.5	2back-stim	
37	266.1820459999144	2.010622799862176	0.5002565998584032	0.0	1.0	Left Face	47.5	2back-stim	
38	275.20028789993376	5.00800669984892		35.18518518518518		Left Face	47.5	2back-stim Rating	7.0
39	280.205107799964	285.2134525999427				Left Face	32.0	2back Instructions	
40	288.2374762000982	1.9834672999568284			1.0	Left Face	47.5	2back-stim	
41	290.232859400101	2.0094397999346256			1.0	Left Face	47.5	2back-stim	3.0
42	292.2491379000712	2.0102604997809976	0.0	2.0	1.0	Left Face	47.5	2back-stim	
43	294.26590269990265	2.010087699862197	0.0	2.0	1.0	Left Face	47.5	2back-stim	
44	296.3192732001189	1.970047599868849	0.5500676999799907	0.0	1.0	Left Face	47.5	2back-stim	
45	298.2991108999122	2.0103925997391343	0.6003490001894534	0.0	1.0	Left Face	47.5	2back-stim	
46	300.31623349990696	2.009547800058499	0.0	2.0	1.0	Left Face	47.5	2back-stim	
47	302.3324007000774	2.010553800035268	0.0	2.0	1.0	Left Face	47.5	2back-stim	
48	304.3492100001313	2.0102903000079095	0.0	2.0	1.0	Left Face	47.5	2back-stim	
49	306.3659767000936	2.0101649998687208	0.6168825998902321	0.0	1.0	Left Face	47.5	2back-stim	
50	311.383341900073	5.00919619994238		38.20987654320988		Left Face	47.5	2back-stim Rating	3.0
51	316.3880944000557	321.39659649995156				Left Face	47.5	2back Instructions	
52	328.40642399992794	1.9963021997828037			1.0	Left Face	32.0	2back-nostim	
53	330.41647809999995	2.0095762996934354			1.0	Left Face	32.0	2back-nostim	7.0
54	332.4330581999384	2.0097797999624163	0.0	2.0	1.0	Left Face	32.0	2back-nostim	
55	334.449517800007	2.010223099961877	0.0	2.0	1.0	Left Face	32.0	2back-nostim	
56	336.4661614999641	2.0103496997617185	0.5360487999860197	0.0	1.0	Left Face	32.0	2back-nostim	
57	338.4828256999608	2.0103647999931127	0.0	2.0	1.0	Left Face	32.0	2back-nostim	
58	340.4994169001002	2.0105427000671625	0.0	2.0	1.0	Left Face	32.0	2back-nostim	
59	342.5164085999131	2.0098302997648716	0.9002181999385357	0.0	1.0	Left Face	32.0	2back-nostim	
60	344.53281280002557	2.0104902999009937	0.0	2.0	1.0	Left Face	32.0	2back-nostim	
61	346.5495291000698	2.0104302000254393	0.5169227998703718	0.0	0.0	Left Face	32.0	2back-nostim	
62	355.574157099938	360.5797478000168				Left Face	47.5	2back Instructions	
63	363.5882627000101	1.983213999774307			1.0	Left Face	32.0	2back-nostim	
64	365.5838075000793	2.008890099823475			1.0	Left Face	32.0	2back-nostim	3.0
65	367.59968580002896	2.010474399663508	0.7335514000151306	0.0	1.0	Left Face	32.0	2back-nostim	
66	369.6167959999293	2.0096380999311805	0.0	2.0	1.0	Left Face	32.0	2back-nostim	
67	371.63345970003866	2.009708699770272	0.0	2.0	1.0	Left Face	32.0	2back-nostim	
68	373.64969350001775	2.0105955998878926	0.0	2.0	1.0	Left Face	32.0	2back-nostim	
69	375.66643290012144	2.010466299718246	0.0	2.0	1.0	Left Face	32.0	2back-nostim	
70	377.68339210003614	2.0099700996652246	0.0	2.0	1.0	Left Face	32.0	2back-nostim	
71	379.6998054999858	2.0104604000225663	0.4335649001877755	0.0	1.0	Left Face	32.0	2back-nostim	
72	381.7165175001137	2.010386300040409	0.0	2.0	1.0	Left Face	32.0	2back-nostim	
73	386.7407281000633	391.74681390007026				Left Face	47.5	2back Instructions	
74	398.7552920000162	1.9831373998895288			1.0	Left Face	32.0	2back-nostim	
75	400.7508116001263	2.0088280998170376			1.0	Left Face	32.0	2back-nostim	7.0
76	402.76718500000425	2.009438400156796	0.0	2.0	1.0	Left Face	32.0	2back-nostim	
77	404.78383329999633	2.0095228999853134	0.48353239987045527	0.0	1.0	Left Face	32.0	2back-nostim	
78	406.8000859001186	2.0103035997599363	0.0	2.0	1.0	Left Face	32.0	2back-nostim	
79	408.8167701999191	2.0104502998292446	0.0	2.0	1.0	Left Face	32.0	2back-nostim	
80	410.83344059996307	2.0104007001500577	0.0	2.0	1.0	Left Face	32.0	2back-nostim	
81	412.85012049996294	2.0105091996956617	0.3835366000421345	0.0	1.0	Left Face	32.0	2back-nostim	
82	414.8668249999173	2.010389199713245	0.0	2.0	1.0	Left Face	32.0	2back-nostim	
83	416.8835197999142	2.0103768999688327	1.0168790000025183	0.0	1.0	Left Face	32.0	2back-nostim	
84	428.9138613000978	20.000042099971324				Left Face	47.5	Rest-Stim	7.0
85	448.91405929997563	3.0165371999610215				Left Face		PostTrialFixation	
86	451.9161110999994	5.012849499704316		39.62962962962963		Left Face	47.5	Rest-Stim Rating	3.0
87	463.93084680009633	20.000023700064048				Left Face	47.5	Rest-Stim	7.0
88	483.93096369993873	3.0164747999515384				Left Face		PostTrialFixation	
89	486.9333959000651	5.012083899695426		43.7037037037037		Left Face	47.5	Rest-Stim Rating	3.0
90	498.9478261000477	20.000020899809897				Left Face	47.5	Rest-Stim	7.0
91	518.9480278000701	3.0165076998528093				Left Face		PostTrialFixation	
92	521.9504736000672	5.012036699801683		41.604938271604944		Left Face	47.5	Rest-Stim Rating	3.0
93	526.9579946999438	531.9647731999867				Left Face	32.0	2back Instructions	
94	538.9730543999467	1.9834828998427838			1.0	Left Face	47.5	2back-stim	
95	540.9685231000185	2.0092548998072743			1.0	Left Face	47.5	2back-stim	7.0
96	542.9852245000657	2.009200799977407	0.4169159000739455	0.0	1.0	Left Face	47.5	2back-stim	
97	545.0012974001002	2.010412900010124	0.0	2.0	1.0	Left Face	47.5	2back-stim	
98	547.0459481999278	1.9711758999619633	0.6665103000123054	0.0	1.0	Left Face	47.5	2back-stim	
99	549.0347378000151	2.010273699881509	0.0	2.0	1.0	Left Face	47.5	2back-stim	
100	551.051306599984	2.0104962000623345	0.0	2.0	1.0	Left Face	47.5	2back-stim	
101	553.0681054000743	2.010287799872458	0.0	2.0	1.0	Left Face	47.5	2back-stim	
102	555.0846873999108	2.0104718999937177	0.0	2.0	1.0	Left Face	47.5	2back-stim	
103	557.1019464000128	2.009338199859485	0.5501929998863488	0.0	1.0	Left Face	47.5	2back-stim	
104	564.1194764999673	5.008083299966529		37.03703703703704		Left Face	47.5	2back-stim Rating	5.0
105	569.1248169001192	574.1325095999055				Left Face	32.0	2back Instructions	
106	579.1568193000276	2.0000043995678425			1.0	Left Face	47.5	2back-stim	
107	581.1687002000399	2.0096100999508053			1.0	Left Face	47.5	2back-stim	5.0
108	583.1851224999409	2.010125699918717	0.0	2.0	1.0	Left Face	47.5	2back-stim	
109	585.201764000114	2.0102185998111963	0.0	2.0	1.0	Left Face	47.5	2back-stim	
110	587.2888911000919	1.9360061998013407	0.45018169982358813	0.0	1.0	Left Face	47.5	2back-stim	
111	589.2352815999184	2.009906199760735	0.0	2.0	1.0	Left Face	47.5	2back-stim	
112	591.2517572999932	2.010331700090319	0.5335757001303136	0.0	1.0	Left Face	47.5	2back-stim	
113	593.2684500000905	2.010291100014001	0.0	2.0	1.0	Left Face	47.5	2back-stim	
114	595.2851372999139	2.01030209986493	0.4335356999654323	0.0	1.0	Left Face	47.5	2back-stim	
115	597.3017772000749	2.010400100145489	0.700373100116849	0.0	1.0	Left Face	47.5	2back-stim	
116	606.3195789000019	5.008657699683681		36.7283950617284		Left Face	47.5	2back-stim Rating	7.0
117	611.3246267999057	616.3321893000975				Left Face	32.0	2back Instructions	
118	619.3571407001	2.0000643997918814			1.0	Left Face	47.5	2back-stim	
119	621.3689820000436	2.009663400007412			1.0	Left Face	47.5	2back-stim	3.0
120	623.3856351999566	2.009802999906242	0.8002444000449032	0.0	1.0	Left Face	47.5	2back-stim	
121	625.4022832999472	2.0099265999160707	0.0	2.0	1.0	Left Face	47.5	2back-stim	
122	627.4793469998986	1.939122499898076	0.7165892000775784	0.0	0.0	Left Face	47.5	2back-stim	
123	629.4355846999679	2.0100259000901133	0.0	2.0	1.0	Left Face	47.5	2back-stim	
124	631.4523177000228	2.0099506000988185	0.6502397002186626	0.0	1.0	Left Face	47.5	2back-stim	
125	633.4687429000624	2.0104517999570817	0.6862435999792069	0.0	1.0	Left Face	47.5	2back-stim	
126	635.4854908999987	2.010303899878636	0.5668844999745488	0.0	1.0	Left Face	47.5	2back-stim	
127	637.5023644000757	2.009956799680367	0.0	2.0	1.0	Left Face	47.5	2back-stim	
128	644.5198435999919	5.008926399983466		38.76543209876544		Left Face	47.5	2back-stim Rating	5.0
