	SID	date	sex	session	handedness	scanner	onset	duration	repetition	rating	body_site	keys	temperature	conditionrt	mouseclick	biopac_channel	condition	rt	value
0	2989	2025_Aug_21_1047	m	1	r	ts ss	2.7731552000623196	5.009819969302043								19	Instructions		
1	2989	2025_Aug_21_1047	m	1	r	ts ss	8.47325380006805	2.019800779875368								6	Cue		
2	2989	2025_Aug_21_1047	m	1	r	ts ss	10.496462600072846	4.009183190064505								7	Pre-Jitter		
3	2989	2025_Aug_21_1047	m	1	r	ts ss	14.538128499989398	15.019796269829385			Right Face		48.0			12	Heat-Stimulation		
4	2989	2025_Aug_21_1047	m	1	r	ts ss	29.636067799990997	5.00464194000233								8	Mid-Jitter		
5	2989	2025_Aug_21_1047	m	1	r	ts ss	34.65723610005807	4.994103179895319								20	PainBinary	2.926293099997565	1.0
6	2989	2025_Aug_21_1047	m	1	r	ts ss	39.671738800010644	4.9969249800778925								21	IntensityRating	2.1238295000512153	24.5
7	2989	2025_Aug_21_1047	m	1	r	ts ss	44.68393820000347	5.004356880090199								22	ToleranceRating	1.4047247000271454	1.0
8	2989	2025_Aug_21_1047	m	1	r	ts ss	49.689586400054395	5.008179790107533								9	Post-Q-Jitter		
9	2989	2025_Aug_21_1047	m	1	r	ts ss	55.44355510000605	2.0105723498854786								6	Cue		
10	2989	2025_Aug_21_1047	m	1	r	ts ss	57.461644800030626	5.999853490036912								7	Pre-Jitter		
11	2989	2025_Aug_21_1047	m	1	r	ts ss	63.49508150003385	15.016550169908442			Right Face		48.5			12	Heat-Stimulation		
12	2989	2025_Aug_21_1047	m	1	r	ts ss	78.59244380006567	9.01529023994226								8	Mid-Jitter		
13	2989	2025_Aug_21_1047	m	1	r	ts ss	87.62366470007692	4.997414679965004								20	PainBinary	2.2909762000199407	1.0
14	2989	2025_Aug_21_1047	m	1	r	ts ss	92.63922750006896	4.998115279944614								21	IntensityRating	4.314023699960671	22.916666666666664
15	2989	2025_Aug_21_1047	m	1	r	ts ss	97.65232640004251	5.003744579968043								22	ToleranceRating	1.2208259999752045	1.0
16	2989	2025_Aug_21_1047	m	1	r	ts ss	102.65819790004753	9.01983739004936								9	Post-Q-Jitter		
17	2989	2025_Aug_21_1047	m	1	r	ts ss	112.40170040004887	2.0057744599180296								6	Cue		
18	2989	2025_Aug_21_1047	m	1	r	ts ss	114.40876140003093	8.006788590108044								7	Pre-Jitter		
19	2989	2025_Aug_21_1047	m	1	r	ts ss	122.47028310003225	15.023848759941757			Right Face		48.5			12	Heat-Stimulation		
20	2989	2025_Aug_21_1047	m	1	r	ts ss	137.58328500005882	9.007965139928274								8	Mid-Jitter		
21	2989	2025_Aug_21_1047	m	1	r	ts ss	146.61089460004587	4.997307780082338								20	PainBinary	2.2909285000059754	1.0
22	2989	2025_Aug_21_1047	m	1	r	ts ss	151.62767249997705	5.012294779997319								21	IntensityRating	3.3441621999954805	35.25
23	2989	2025_Aug_21_1047	m	1	r	ts ss	156.65559530002065	5.005020080017857								22	ToleranceRating	1.5237446000101045	1.0
24	2989	2025_Aug_21_1047	m	1	r	ts ss	161.66163300001062	9.020806689863093								9	Post-Q-Jitter		
25	2989	2025_Aug_21_1047	m	1	r	ts ss	171.47437770001125	2.0186986200278625								6	Cue		
26	2989	2025_Aug_21_1047	m	1	r	ts ss	173.4967372000683	8.00581649004016								7	Pre-Jitter		
27	2989	2025_Aug_21_1047	m	1	r	ts ss	181.56431879999582	15.02746364986524			Right Face		48.5			12	Heat-Stimulation		
28	2989	2025_Aug_21_1047	m	1	r	ts ss	196.66288680001162	9.02373904013075								8	Mid-Jitter		
29	2989	2025_Aug_21_1047	m	1	r	ts ss	205.69855520001147	4.99694207997527								20	PainBinary	2.2574530000565574	1.0
30	2989	2025_Aug_21_1047	m	1	r	ts ss	210.71516630006954	5.012312280014157								21	IntensityRating	4.949349700007588	29.25
31	2989	2025_Aug_21_1047	m	1	r	ts ss	215.7439078000607	5.003394179977477								22	ToleranceRating	1.6221465000417084	1.0
32	2989	2025_Aug_21_1047	m	1	r	ts ss	220.7491783000296	9.020690290024504								9	Post-Q-Jitter		
33	2989	2025_Aug_21_1047	m	1	r	ts ss	230.51376470003743	2.014632049947977								6	Cue		
34	2989	2025_Aug_21_1047	m	1	r	ts ss	232.53357369999867	6.000479189795442								7	Pre-Jitter		
35	2989	2025_Aug_21_1047	m	1	r	ts ss	238.5801511000609	15.02432475995738			Right Face		48.5			12	Heat-Stimulation		
36	2989	2025_Aug_21_1047	m	1	r	ts ss	253.6793219000101	7.013055340037681								8	Mid-Jitter		
37	2989	2025_Aug_21_1047	m	1	r	ts ss	260.7057395000011	4.998410479980521								20	PainBinary	2.642160000046715	1.0
38	2989	2025_Aug_21_1047	m	1	r	ts ss	265.72249700000975	4.996706380043179								21	IntensityRating	2.595087100053206	41.083333333333336
39	2989	2025_Aug_21_1047	m	1	r	ts ss	270.73550319997594	5.019244979950599								22	ToleranceRating	2.1738506000256166	1.0
40	2989	2025_Aug_21_1047	m	1	r	ts ss	275.75777360005304	7.012924590031616								9	Post-Q-Jitter		
41	2989	2025_Aug_21_1047	m	1	r	ts ss	283.52714100002777	2.0076448399340734								6	Cue		
42	2989	2025_Aug_21_1047	m	1	r	ts ss	285.5354029000737	5.999837389914319								7	Pre-Jitter		
43	2989	2025_Aug_21_1047	m	1	r	ts ss	291.597151300055	15.02675644995179			Right Face		48.5			12	Heat-Stimulation		
44	2989	2025_Aug_21_1047	m	1	r	ts ss	306.6975228000665	7.013184339972213								8	Mid-Jitter		
45	2989	2025_Aug_21_1047	m	1	r	ts ss	313.725561200059	5.012007979908958								20	PainBinary	1.3211262000259012	1.0
46	2989	2025_Aug_21_1047	m	1	r	ts ss	318.7561083000619	4.999371779966168								21	IntensityRating	3.9629732999019325	44.75
47	2989	2025_Aug_21_1047	m	1	r	ts ss	323.7708720000228	5.001714879996143								22	ToleranceRating	1.688979700091295	1.0
48	2989	2025_Aug_21_1047	m	1	r	ts ss	328.7756719000172	7.013594490126707								9	Post-Q-Jitter		
49	2989	2025_Aug_21_1047	m	1	r	ts ss	337.2949261000613	2.013264689827338								6	Cue		
50	2989	2025_Aug_21_1047	m	1	r	ts ss	339.30540770001244	6.001072890125215								7	Pre-Jitter		
51	2989	2025_Aug_21_1047	m	1	r	ts ss	345.3418313000584	15.011802070075646			Right Face		48.5			12	Heat-Stimulation		
52	2989	2025_Aug_21_1047	m	1	r	ts ss	360.4394543999806	9.009998639929108								8	Mid-Jitter		
53	2989	2025_Aug_21_1047	m	1	r	ts ss	369.4680527000455	4.997347580036148								20	PainBinary	1.538566799950786	1.0
54	2989	2025_Aug_21_1047	m	1	r	ts ss	374.48361600004137	4.998049980029464								21	IntensityRating	3.110168099985458	44.083333333333336
55	2989	2025_Aug_21_1047	m	1	r	ts ss	379.495849500061	5.005402279901318								22	ToleranceRating	2.5750992000102997	1.0
56	2989	2025_Aug_21_1047	m	1	r	ts ss	384.50191210000776	9.021141089964658								9	Post-Q-Jitter		
57	2989	2025_Aug_21_1047	m	1	r	ts ss	393.55137880006805	5.251141480053775								26	ComfortRating	5.233533999999054	15.333333333333329
58	2989	2025_Aug_21_1047	m	1	r	ts ss	398.82929230004083	2.3696450799470767								24	ValenceRating	2.3410072999540716	40.25
59	2989	2025_Aug_21_1047	m	1	r	ts ss	401.21565420005936	3.3150352799566463								26	IntensityRating	3.2945231000194326	62.083333333333336
60	2989	2025_Aug_21_1047	m	1	r	ts ss	404.5451506000245	3.9291040800744668								27	AvoidanceRating	3.9126870000036433	-33.5
61	2989	2025_Aug_21_1047	m	1	r	ts ss	408.48861900006887	2.195022579981014								28	RelaxationRating	2.1738799000158906	69.5
62	2989	2025_Aug_21_1047	m	1	r	ts ss	410.6967089000391	2.7446244799066335								29	AttentionRating	2.7255888999206945	44.0
63	2989	2025_Aug_21_1047	m	1	r	ts ss	413.45356060005724	2.4140925799729303								30	BoredomRating	2.3912962999893352	44.66666666666667
64	2989	2025_Aug_21_1047	m	1	r	ts ss	415.8788626000751	2.3118718799669296								31	AlertnessRating	2.290897300001234	-38.5
65	2989	2025_Aug_21_1047	m	1	r	ts ss	418.2044720000122	2.158247180050239								32	PosThxRating	2.1404350999509916	34.0
66	2989	2025_Aug_21_1047	m	1	r	ts ss	420.37545340007637	1.1267750798724592								33	NegThxRating	1.1037620999850333	-17.16666666666667
67	2989	2025_Aug_21_1047	m	1	r	ts ss	421.5135215000482	2.495534779969603								34	SelfRating	2.4598406000295654	-41.666666666666664
68	2989	2025_Aug_21_1047	m	1	r	ts ss	424.0212976000039	2.1615777800325304								35	OtherRating	2.1409013000084087	33.5
69	2989	2025_Aug_21_1047	m	1	r	ts ss	426.19462990004104	2.814057380077429								32	ImageryRating	2.792501899995841	-14.5
70	2989	2025_Aug_21_1047	m	1	r	ts ss	429.02242420008406	2.960192179889418								37	PresentRating	2.942954200087115	26.499999999999986
