	SID	biopac_channel	body_site	condition	correct	date	duration	handedness	mouseclick	onset	rt	scanner	score	session	sex	skin_site	temperature	value
0	2993	43	Chest	2-back Instruction		2024_Jul_17_1810	5.010239843744785	r		2.778001300059259		SS MRS		2	m	2		
1	2993	7	Chest	Pre-trial Jitter		2024_Jul_17_1810	7.006481310119852	r		7.796690099989064		SS MRS		2	m	2		
2	2993	44.0	Chest	pretrialfixation		2024_Jul_17_1810	1.0114529700949788	r		15.069254499976523		SS MRS		2	m	2		
3	2993		Chest	2-back	1.0	2024_Jul_17_1810	1.991256510023959	r		16.079388999962248		SS MRS	12.5	2	m	2	32.0	
4	2993		Chest	2-back	1.0	2024_Jul_17_1810	1.9869700099807233	r		18.089877299964428		SS MRS	25.0	2	m	2	32.0	
5	2993		Chest	2-back	1.0	2024_Jul_17_1810	1.9880861099809408	r	2	20.0893443999812	0.6968684999737889	SS MRS	37.5	2	m	2	32.0	
6	2993		Chest	2-back	1.0	2024_Jul_17_1810	1.9877204101067036	r	0	22.089513499988243	0.5836117999861017	SS MRS	50.0	2	m	2	32.0	
7	2993		Chest	2-back	1.0	2024_Jul_17_1810	1.987068809918128	r	2	24.089908999972977	0.8669808000558987	SS MRS	62.5	2	m	2	32.0	
8	2993		Chest	2-back	1.0	2024_Jul_17_1810	1.9871949101798236	r	2	26.089810300036334	0.7001588999992236	SS MRS	75.0	2	m	2	32.0	
9	2993		Chest	2-back	1.0	2024_Jul_17_1810	1.9875143100507557	r	2	28.089684500009753	0.7337342000100762	SS MRS	87.5	2	m	2	32.0	
10	2993		Chest	2-back	1.0	2024_Jul_17_1810	1.9877061099978164	r	0	30.089656100026332	0.8335305999498814	SS MRS	100.0	2	m	2	32.0	
11	2993	48.0	Chest	ScoreReport		2024_Jul_17_1810	5.001454510027543	r		32.099478099960834		SS MRS		2	m	2		
12	2993	8	Chest	Post-trial Jitter		2024_Jul_17_1810	8.99610703997314	r		37.160573499975726		SS MRS		2	m	2		
13	2993	43	Chest	2-back Instruction		2024_Jul_17_1810	5.009037820040248	r		46.17920160002541		SS MRS		2	m	2		
14	2993	7	Chest	Pre-trial Jitter		2024_Jul_17_1810	5.003095310064964	r		51.198889999999665		SS MRS		2	m	2		
15	2993	44.0	Chest	pretrialfixation		2024_Jul_17_1810	1.009481260087341	r		56.462408300023526		SS MRS		2	m	2		
16	2993		Chest	2-back	1.0	2024_Jul_17_1810	1.9877668099943548	r		57.48161780007649		SS MRS	12.5	2	m	2	32.0	
17	2993		Chest	2-back	1.0	2024_Jul_17_1810	1.986674110055901	r		59.4905076000141		SS MRS	25.0	2	m	2	32.0	
18	2993		Chest	2-back	1.0	2024_Jul_17_1810	1.9878212100593373	r	0	61.48996060003992	0.5969395000720397	SS MRS	37.5	2	m	2	32.0	
19	2993		Chest	2-back	1.0	2024_Jul_17_1810	1.9875677101081237	r	2	63.49011170002632	0.7962234999286011	SS MRS	50.0	2	m	2	32.0	
20	2993		Chest	2-back	1.0	2024_Jul_17_1810	1.98699190991465	r	2	65.49041610001586	0.7298995000310242	SS MRS	62.5	2	m	2	32.0	
21	2993		Chest	2-back	1.0	2024_Jul_17_1810	1.9872915099840611	r	2	67.49029620003421	0.6800616000546142	SS MRS	75.0	2	m	2	32.0	
22	2993		Chest	2-back	1.0	2024_Jul_17_1810	1.9876574099762365	r	2	69.49013599997852	0.7132055000402033	SS MRS	87.5	2	m	2	32.0	
23	2993		Chest	2-back	1.0	2024_Jul_17_1810	1.9874611099949107	r	2	71.4902578999754	0.6335214000428095	SS MRS	100.0	2	m	2	32.0	
24	2993	48.0	Chest	ScoreReport		2024_Jul_17_1810	5.000473410007544	r		73.50047630001791		SS MRS		2	m	2		
25	2993	8	Chest	Post-trial Jitter		2024_Jul_17_1810	7.000930140027776	r		78.55864830000792		SS MRS		2	m	2		
26	2993	51	Chest	Expectancy		2024_Jul_17_1810	5.0118054500781	r		85.78660680004396	3.9836602000286803	SS MRS		2	m	2		24.074074074074073
27	2993	45	Chest	2-back Instruction		2024_Jul_17_1810	5.00831325002946	r		91.18840720003936		SS MRS		2	m	2		
28	2993	7	Chest	Pre-trial Jitter		2024_Jul_17_1810	7.001798010081984	r		96.20005840004887		SS MRS		2	m	2		
29	2993	44.0	Chest	pretrialfixation		2024_Jul_17_1810	1.0081750799436122	r		103.49693650007248		SS MRS		2	m	2		
30	2993		Chest	2-back	1.0	2024_Jul_17_1810	1.9905603099614382	r		104.5140975000104		SS MRS	12.5	2	m	2	48.5	
31	2993		Chest	2-back	1.0	2024_Jul_17_1810	1.9870663101319224	r		106.52420710003935		SS MRS	25.0	2	m	2	48.5	
32	2993		Chest	2-back	1.0	2024_Jul_17_1810	1.9880495100514963	r	2	108.52373260003515	0.6631507999263704	SS MRS	37.5	2	m	2	48.5	
33	2993		Chest	2-back	1.0	2024_Jul_17_1810	1.9865294100018218	r	2	110.52453539997805	0.6801019998965785	SS MRS	50.0	2	m	2	48.5	
34	2993		Chest	2-back	1.0	2024_Jul_17_1810	1.9871581100160256	r	0	112.52418169996236	0.5350251999916509	SS MRS	62.5	2	m	2	48.5	
35	2993		Chest	2-back	1.0	2024_Jul_17_1810	1.987430109991692	r	0	114.5241207999643	0.7465182000305504	SS MRS	75.0	2	m	2	48.5	
36	2993		Chest	2-back	1.0	2024_Jul_17_1810	1.9876535100629553	r	2	116.52401509997435	0.5462114999536425	SS MRS	87.5	2	m	2	48.5	
37	2993		Chest	2-back	1.0	2024_Jul_17_1810	1.9869867101078853	r	2	118.52435490000062	0.529924500035122	SS MRS	100.0	2	m	2	48.5	
38	2993	48.0	Chest	ScoreReport		2024_Jul_17_1810	5.001641209935769	r		120.5337704999838		SS MRS		2	m	2		
39	2993	8	Chest	Post-trial Jitter		2024_Jul_17_1810	7.002139640040696	r		125.59190870006569		SS MRS		2	m	2		
40	2993	20	Chest	PainBinary		2024_Jul_17_1810	5.001455619931221	r		132.60899940005038	1.1503699000459164	SS MRS		2	m	2		1.0
41	2993	21	Chest	IntensityRating		2024_Jul_17_1810	5.013413919950835	r		137.62807119998615	3.436017300002277	SS MRS		2	m	2		30.555555555555554
42	2993	23	Chest	DistractBinary		2024_Jul_17_1810	5.001673320075497	r		142.65899210004136	2.533647199976258	SS MRS		2	m	2		1.0
43	2993	9	Chest	Post-Q-Jitter		2024_Jul_17_1810	6.994693209999241	r		147.66257230006158		SS MRS		2	m	2		
44	2993	51	Chest	Expectancy		2024_Jul_17_1810	5.002927050110884	r		154.89190950000193		SS MRS		2	m	2		27.469135802469136
45	2993	45	Chest	2-back Instruction		2024_Jul_17_1810	5.00935595005285	r		160.28870180004742		SS MRS		2	m	2		
46	2993	7	Chest	Pre-trial Jitter		2024_Jul_17_1810	7.0024611100088805	r		165.30054540000856		SS MRS		2	m	2		
47	2993	44.0	Chest	pretrialfixation		2024_Jul_17_1810	1.005346880061552	r		172.59080300002825		SS MRS		2	m	2		
48	2993		Chest	2-back	1.0	2024_Jul_17_1810	1.9901127099292353	r		173.59845539997332		SS MRS	12.5	2	m	2	48.5	
49	2993		Chest	2-back	1.0	2024_Jul_17_1810	1.987086410052143	r		175.60833560000174		SS MRS	25.0	2	m	2	48.5	
50	2993		Chest	2-back	1.0	2024_Jul_17_1810	1.9879815101157874	r	0	177.60790120007005	0.5301219000248238	SS MRS	37.5	2	m	2	48.5	
51	2993		Chest	2-back	1.0	2024_Jul_17_1810	1.9874065100448206	r	2	179.60820730007254	0.4672376000089571	SS MRS	50.0	2	m	2	48.5	
52	2993		Chest	2-back	1.0	2024_Jul_17_1810	1.9873872100142762	r	2	181.60824129998218	0.8966871999436989	SS MRS	62.5	2	m	2	48.5	
53	2993		Chest	2-back	1.0	2024_Jul_17_1810	1.9874971100362018	r	2	183.60823869996238	0.4628200998995453	SS MRS	75.0	2	m	2	48.5	
54	2993		Chest	2-back	0.0	2024_Jul_17_1810	1.9866932099685073	r	2	185.60863370005973	0.6007117000408471	SS MRS	75.0	2	m	2	48.5	
55	2993		Chest	2-back	1.0	2024_Jul_17_1810	1.9875538100022823	r	0	187.60822329996154	0.4633070999989286	SS MRS	87.5	2	m	2	48.5	
56	2993	48.0	Chest	ScoreReport		2024_Jul_17_1810	5.010285319993272	r		189.62190919998102		SS MRS		2	m	2		
57	2993	8	Chest	Post-trial Jitter		2024_Jul_17_1810	7.000727439997718	r		194.67677720007487		SS MRS		2	m	2		
58	2993	20	Chest	PainBinary		2024_Jul_17_1810	5.001922620111145	r		201.69291600002907	1.4503363000694662	SS MRS		2	m	2		1.0
59	2993	21	Chest	IntensityRating		2024_Jul_17_1810	5.010250720079057	r		206.71378370001912	2.5857236000010744	SS MRS		2	m	2		27.037037037037038
60	2993	23	Chest	DistractBinary		2024_Jul_17_1810	5.003830019966699	r		211.74205820006318	1.4169805999845266	SS MRS		2	m	2		1.0
61	2993	9	Chest	Post-Q-Jitter		2024_Jul_17_1810	6.993703010142781	r		216.74717490002513		SS MRS		2	m	2		
62	2993	42	Chest	0-back Instruction		2024_Jul_17_1810	5.008477520081215	r		223.76487850002013		SS MRS		2	m	2		
63	2993	7	Chest	Pre-Trial Jitter		2024_Jul_17_1810	7.002727310056798	r		228.78448879998177		SS MRS		2	m	2		
64	2993	44.0	Chest	pretrialfixation		2024_Jul_17_1810	1.0164366700919345	r		236.05266929999925		SS MRS		2	m	2		
65	2993		Chest	0-back	1.0	2024_Jul_17_1810	1.9866418100427836	r	0.0	237.06758929998614	0.7630478000501171	SS MRS	12.5	2	m	2	32.0	
66	2993		Chest	0-back	1.0	2024_Jul_17_1810	1.9878102100919932	r	0.0	239.07536330004223	0.39684170007240027	SS MRS	25.0	2	m	2	32.0	
67	2993		Chest	0-back	1.0	2024_Jul_17_1810	1.988958609988913	r	0.0	241.0747507000342	0.38352510007098317	SS MRS	37.5	2	m	2	32.0	
68	2993		Chest	0-back	1.0	2024_Jul_17_1810	1.988954409956932	r	0.0	243.07483779999893	0.2626525000669062	SS MRS	50.0	2	m	2	32.0	
69	2993		Chest	0-back	1.0	2024_Jul_17_1810	1.9889556099660695	r	0.0	245.0748705000151	0.21272110007703304	SS MRS	62.5	2	m	2	32.0	
70	2993		Chest	0-back	1.0	2024_Jul_17_1810	1.988990810001269	r	0.0	247.07486880000215	0.33016070001758635	SS MRS	75.0	2	m	2	32.0	
71	2993		Chest	0-back	1.0	2024_Jul_17_1810	1.9888697101268917	r	0.0	249.07496030000038	0.3468018000712618	SS MRS	87.5	2	m	2	32.0	
72	2993		Chest	0-back	1.0	2024_Jul_17_1810	1.988946910132654	r	0.0	251.0749370000558	0.3469668000470847	SS MRS	100.0	2	m	2	32.0	
73	2993	48.0	Chest	ScoreReport		2024_Jul_17_1810	5.004517709952779	r		253.08383889996912		SS MRS		2	m	2		
74	2993	8	Chest	Post-Trial Jitter		2024_Jul_17_1810	6.9998918399214745	r		258.14456140005495		SS MRS		2	m	2		
75	2993	42	Chest	0-back Instruction		2024_Jul_17_1810	4.993952819961123	r		265.16428020002786		SS MRS		2	m	2		
76	2993	7	Chest	Pre-Trial Jitter		2024_Jul_17_1810	7.000804009963758	r		270.169271199964		SS MRS		2	m	2		
77	2993	44.0	Chest	pretrialfixation		2024_Jul_17_1810	1.0060525600565597	r		277.43333829997573		SS MRS		2	m	2		
78	2993		Chest	0-back	1.0	2024_Jul_17_1810	1.9923605099320412	r	0.0	278.44855109998025	0.5967080000555143	SS MRS	12.5	2	m	2	32.0	
79	2993		Chest	0-back	1.0	2024_Jul_17_1810	1.9875295100500807	r	0.0	280.45929450006224	0.4301423999713734	SS MRS	25.0	2	m	2	32.0	
80	2993		Chest	0-back	1.0	2024_Jul_17_1810	1.988730109995231	r	0.0	282.45874879998155	0.2801311999792233	SS MRS	37.5	2	m	2	32.0	
81	2993		Chest	0-back	1.0	2024_Jul_17_1810	1.9888391100103036	r	0.0	284.45870840002317	0.333405900048092	SS MRS	50.0	2	m	2	32.0	
82	2993		Chest	0-back	1.0	2024_Jul_17_1810	1.988367610028945	r	0.0	286.4589757999638	0.2633227000478655	SS MRS	62.5	2	m	2	32.0	
83	2993		Chest	0-back	1.0	2024_Jul_17_1810	1.9887954100267962	r	0.0	288.45878500002436	0.2968584999907762	SS MRS	75.0	2	m	2	32.0	
84	2993		Chest	0-back	1.0	2024_Jul_17_1810	1.9887052099220455	r	0.0	290.45885439997073	0.2969384999014437	SS MRS	87.5	2	m	2	32.0	
85	2993		Chest	0-back	1.0	2024_Jul_17_1810	1.9882014100439847	r	0.0	292.45911830000114	0.3968650000169873	SS MRS	100.0	2	m	2	32.0	
86	2993	48.0	Chest	ScoreReport		2024_Jul_17_1810	5.004723010002635	r		294.4675741000101		SS MRS		2	m	2		
87	2993	8	Chest	Post-Trial Jitter		2024_Jul_17_1810	7.00090414006263	r		299.52788279997185		SS MRS		2	m	2		
88	2993	51	Chest	Expectancy		2024_Jul_17_1810	5.005286250147037	r		306.75911139999516	3.4670500999782234	SS MRS		2	m	2		26.851851851851855
89	2993	44	Chest	0-back Instruction		2024_Jul_17_1810	5.009700550115667	r		312.15698079997674		SS MRS		2	m	2		
90	2993	7	Chest	Pre-Trial Jitter		2024_Jul_17_1810	7.016565820085816	r		317.1702640000731		SS MRS		2	m	2		
91	2993	44.0	Chest	pretrialfixation		2024_Jul_17_1810	1.0058108799858019	r		324.4673474000301		SS MRS		2	m	2		
92	2993		Chest	0-back	1.0	2024_Jul_17_1810	1.9913479099050164	r	0.0	325.48294260003604	0.6298880999675021	SS MRS	12.5	2	m	2	48.5	
93	2993		Chest	0-back	1.0	2024_Jul_17_1810	1.9878450100077316	r	0.0	327.49305180006195	0.48365770000964403	SS MRS	25.0	2	m	2	48.5	
94	2993		Chest	0-back	1.0	2024_Jul_17_1810	1.9884717100067064	r	0.0	329.4927617000649	0.3465332000050694	SS MRS	37.5	2	m	2	48.5	
95	2993		Chest	0-back	1.0	2024_Jul_17_1810	1.9886342100799084	r	0.0	331.4926975000417	0.23000690003391355	SS MRS	50.0	2	m	2	48.5	
96	2993		Chest	0-back	1.0	2024_Jul_17_1810	1.9885736100841314	r	0.0	333.4927616000641	0.26328479999210685	SS MRS	62.5	2	m	2	48.5	
97	2993		Chest	0-back	1.0	2024_Jul_17_1810	1.9889209100510925	r	0.0	335.49260680004954	0.40029839996714145	SS MRS	75.0	2	m	2	48.5	
98	2993		Chest	0-back	1.0	2024_Jul_17_1810	1.9885160099947825	r	0.0	337.4928452000022	0.38353380002081394	SS MRS	87.5	2	m	2	48.5	
99	2993		Chest	0-back	1.0	2024_Jul_17_1810	1.9888865100219846	r	0.0	339.4926677000476	0.43373119994066656	SS MRS	100.0	2	m	2	48.5	
100	2993	48.0	Chest	ScoreReport		2024_Jul_17_1810	5.004402910009958	r		341.5015924000181		SS MRS		2	m	2		
101	2993	8	Chest	Post-Trial Jitter		2024_Jul_17_1810	9.000143539975397	r		346.56216039997526		SS MRS		2	m	2		
102	2993	20	Chest	PainBinary		2024_Jul_17_1810	5.004902020096779	r		355.5765682000201	2.666973000043072	SS MRS		2	m	2		1.0
103	2993	21	Chest	IntensityRating		2024_Jul_17_1810	5.013757019885816	r		360.59715210006107	2.450232999981381	SS MRS		2	m	2		31.049382716049383
104	2993	23	Chest	DistractBinary		2024_Jul_17_1810	5.001151920063421	r		365.6285226000473	1.085978899965994	SS MRS		2	m	2		1.0
105	2993	9	Chest	Post-Q-Jitter		2024_Jul_17_1810	8.993935610167682	r		370.632219000021		SS MRS		2	m	2		
106	2993	51	Chest	Expectancy		2024_Jul_17_1810	5.006609440082684	r		379.8426360000158	2.868899099994451	SS MRS		2	m	2		29.259259259259256
107	2993	44	Chest	0-back Instruction		2024_Jul_17_1810	5.0146783500676975	r		385.23864830005914		SS MRS		2	m	2		
108	2993	7	Chest	Pre-Trial Jitter		2024_Jul_17_1810	5.001411710050888	r		390.2536642999621		SS MRS		2	m	2		
109	2993	44.0	Chest	pretrialfixation		2024_Jul_17_1810	1.0072053800104186	r		395.54248070006724		SS MRS		2	m	2		
110	2993		Chest	0-back	1.0	2024_Jul_17_1810	1.99060671008192	r	0.0	396.5508045000024	0.5632372000254691	SS MRS	12.5	2	m	2	48.5	
111	2993		Chest	0-back	1.0	2024_Jul_17_1810	1.9877384100109339	r	0.0	398.5605848999694	0.2797708000289276	SS MRS	25.0	2	m	2	48.5	
112	2993		Chest	0-back	1.0	2024_Jul_17_1810	1.9886985099874437	r	0.0	400.5601158000063	0.19688679999671876	SS MRS	37.5	2	m	2	48.5	
113	2993		Chest	0-back	1.0	2024_Jul_17_1810	1.9882417100016028	r	0.0	402.56038559996523	0.2968789000296965	SS MRS	50.0	2	m	2	48.5	
114	2993		Chest	0-back	1.0	2024_Jul_17_1810	1.9885473100002855	r	0.0	404.5602819999913	0.32983529998455197	SS MRS	62.5	2	m	2	48.5	
115	2993		Chest	0-back	1.0	2024_Jul_17_1810	1.988086809986271	r	0.0	406.5605245999759	0.30078149994369596	SS MRS	75.0	2	m	2	48.5	
116	2993		Chest	0-back	1.0	2024_Jul_17_1810	1.9890045101055875	r	0.0	408.5600869000191	0.2468087999150157	SS MRS	87.5	2	m	2	48.5	
117	2993		Chest	0-back	1.0	2024_Jul_17_1810	1.989058310049586	r	0.0	410.56006010004785	0.3126827999949455	SS MRS	100.0	2	m	2	48.5	
118	2993	48.0	Chest	ScoreReport		2024_Jul_17_1810	5.003742010099813	r		412.5694269000087		SS MRS		2	m	2		
119	2993	8	Chest	Post-Trial Jitter		2024_Jul_17_1810	5.000185239943676	r		417.6296206000261		SS MRS		2	m	2		
120	2993	20	Chest	PainBinary		2024_Jul_17_1810	5.002225720090792	r		422.64533580001444	1.4502995000220835	SS MRS		2	m	2		1.0
121	2993	21	Chest	IntensityRating		2024_Jul_17_1810	5.011549420072697	r		427.6657484000316	2.6335126999765635	SS MRS		2	m	2		27.22222222222222
122	2993	23	Chest	DistractBinary		2024_Jul_17_1810	5.003835820127279	r		432.69463859999087	1.1861915999324992	SS MRS		2	m	2		1.0
123	2993	9	Chest	Post-Q-Jitter		2024_Jul_17_1810	4.993318710126914	r		437.699936500052		SS MRS		2	m	2		
124	2993	51	Chest	Expectancy		2024_Jul_17_1810	5.010541929979809	r		442.89972119999584	4.050260600051843	SS MRS		2	m	2		29.876543209876544
125	2993	45	Chest	2-back Instruction		2024_Jul_17_1810	5.006802750052884	r		448.3099850000581		SS MRS		2	m	2		
126	2993	7	Chest	Pre-trial Jitter		2024_Jul_17_1810	9.00147990998812	r		453.3209720000159		SS MRS		2	m	2		
127	2993	44.0	Chest	pretrialfixation		2024_Jul_17_1810	1.000930180074647	r		462.6210635000607		SS MRS		2	m	2		
128	2993		Chest	2-back	1.0	2024_Jul_17_1810	1.9898187100188807	r		463.63507700001355		SS MRS	12.5	2	m	2	48.5	
129	2993		Chest	2-back	1.0	2024_Jul_17_1810	1.986743009998463	r		465.64526260003913		SS MRS	25.0	2	m	2	48.5	
130	2993		Chest	2-back	1.0	2024_Jul_17_1810	1.9872465099906549	r	0	467.64496910001617	0.3631834000116214	SS MRS	37.5	2	m	2	48.5	
131	2993		Chest	2-back	1.0	2024_Jul_17_1810	1.9871028100606054	r	2	469.6450826000655	0.5674792000791058	SS MRS	50.0	2	m	2	48.5	
132	2993		Chest	2-back	1.0	2024_Jul_17_1810	1.9869636100484058	r	2	471.6451629999792	0.5468569999793544	SS MRS	62.5	2	m	2	48.5	
133	2993		Chest	2-back	1.0	2024_Jul_17_1810	1.987780509982258	r	2	473.64479399996344	0.482890099985525	SS MRS	75.0	2	m	2	48.5	
134	2993		Chest	2-back	1.0	2024_Jul_17_1810	1.9874125100905076	r	0	475.64498810004443	0.45054530003108084	SS MRS	87.5	2	m	2	48.5	
135	2993		Chest	2-back	1.0	2024_Jul_17_1810	1.987412909977138	r	2	477.64501079998445	0.6299693000037223	SS MRS	100.0	2	m	2	48.5	
136	2993	48.0	Chest	ScoreReport		2024_Jul_17_1810	5.001210110029206	r		479.6548361000605		SS MRS		2	m	2		
137	2993	8	Chest	Post-trial Jitter		2024_Jul_17_1810	6.998696240014397	r		484.7144967999775		SS MRS		2	m	2		
138	2993	20	Chest	PainBinary		2024_Jul_17_1810	5.003293220070191	r		491.72893770004157	1.2339005999965593	SS MRS		2	m	2		1.0
139	2993	21	Chest	IntensityRating		2024_Jul_17_1810	5.011219720123336	r		496.7500273999758	2.883550100028515	SS MRS		2	m	2		26.172839506172842
140	2993	23	Chest	DistractBinary		2024_Jul_17_1810	5.006398220080882	r		501.77748260006774	1.0671201000222936	SS MRS		2	m	2		1.0
141	2993	9	Chest	Post-Q-Jitter		2024_Jul_17_1810	6.993975009885617	r		506.7837683999678		SS MRS		2	m	2		
142	2993	51	Chest	Expectancy		2024_Jul_17_1810	5.0117737603140995	r		514.699963800027	1.9168560999678448	SS MRS		2	m	2		28.14814814814815
143	2993	45	Chest	2-back Instruction		2024_Jul_17_1810	5.005647950107232	r		520.1197447000304		SS MRS		2	m	2		
144	2993	7	Chest	Pre-trial Jitter		2024_Jul_17_1810	7.003137610037811	r		525.1377272000536		SS MRS		2	m	2		
145	2993	44.0	Chest	pretrialfixation		2024_Jul_17_1810	1.0116634900914505	r		532.4418525999645		SS MRS		2	m	2		
146	2993		Chest	2-back	1.0	2024_Jul_17_1810	1.9907116100657731	r		533.4523442999925		SS MRS	12.5	2	m	2	48.5	
147	2993		Chest	2-back	1.0	2024_Jul_17_1810	1.9868433099472895	r		535.4626355000073		SS MRS	25.0	2	m	2	48.5	
148	2993		Chest	2-back	1.0	2024_Jul_17_1810	1.9880482099251822	r	0	537.4620648999698	0.3966352000134066	SS MRS	37.5	2	m	2	48.5	
149	2993		Chest	2-back	1.0	2024_Jul_17_1810	1.9875950099667534	r	2	539.4623079000739	0.4465959999943152	SS MRS	50.0	2	m	2	48.5	
150	2993		Chest	2-back	1.0	2024_Jul_17_1810	1.9866023099748418	r	2	541.4628410000587	0.6797357999021187	SS MRS	62.5	2	m	2	48.5	
151	2993		Chest	2-back	0.0	2024_Jul_17_1810	1.9873929100576788	r	0	543.4624550000299	0.6629846999421716	SS MRS	62.5	2	m	2	48.5	
152	2993		Chest	2-back	1.0	2024_Jul_17_1810	1.986713910009712	r	2	545.4628213000251	0.8631348999915645	SS MRS	75.0	2	m	2	48.5	
153	2993		Chest	2-back	1.0	2024_Jul_17_1810	1.9865874099778011	r	2	547.4629326000577	0.6503483999986202	SS MRS	87.5	2	m	2	48.5	
154	2993	48.0	Chest	ScoreReport		2024_Jul_17_1810	5.01126562000718	r		549.4755967999808		SS MRS		2	m	2		
155	2993	8	Chest	Post-trial Jitter		2024_Jul_17_1810	4.9971876399358734	r		554.5327204000205		SS MRS		2	m	2		
156	2993	20	Chest	PainBinary		2024_Jul_17_1810	5.000379019998945	r		559.5478653999744	1.019535299972631	SS MRS		2	m	2		1.0
157	2993	21	Chest	IntensityRating		2024_Jul_17_1810	5.012095620040782	r		564.5670533999801	2.633539800066501	SS MRS		2	m	2		28.580246913580247
158	2993	23	Chest	DistractBinary		2024_Jul_17_1810	5.003935020067729	r		569.5961989000207	1.000324000022374	SS MRS		2	m	2		1.0
159	2993	9	Chest	Post-Q-Jitter		2024_Jul_17_1810	4.992569310008548	r		574.6014394999947		SS MRS		2	m	2		
160	2993	51	Chest	Expectancy		2024_Jul_17_1810	4.997054230072536	r		579.7991532000015	3.1343471999280155	SS MRS		2	m	2		28.703703703703702
161	2993	44	Chest	0-back Instruction		2024_Jul_17_1810	5.013410150073469	r		585.1998612000607		SS MRS		2	m	2		
162	2993	7	Chest	Pre-Trial Jitter		2024_Jul_17_1810	9.002715710084885	r		590.2220670999959		SS MRS		2	m	2		
163	2993	44.0	Chest	pretrialfixation		2024_Jul_17_1810	1.010351079981774	r		599.5099720000289		SS MRS		2	m	2		
164	2993		Chest	0-back	1.0	2024_Jul_17_1810	1.990925209945999	r	0.0	600.5197100000223	0.9964460999472067	SS MRS	12.5	2	m	2	48.5	
165	2993		Chest	0-back	1.0	2024_Jul_17_1810	1.9876248099608347	r	0.0	602.5297033999814	0.42937390005681664	SS MRS	25.0	2	m	2	48.5	
166	2993		Chest	0-back	1.0	2024_Jul_17_1810	1.9882799100596458	r	0.0	604.5294083000626	0.3635220999130979	SS MRS	37.5	2	m	2	48.5	
167	2993		Chest	0-back	1.0	2024_Jul_17_1810	1.9888929100707173	r	0.0	606.5291123000206	0.07986779999919236	SS MRS	50.0	2	m	2	48.5	
168	2993		Chest	0-back	1.0	2024_Jul_17_1810	1.9887567100813612	r	0.0	608.5292107000714	0.31674819998443127	SS MRS	62.5	2	m	2	48.5	
169	2993		Chest	0-back	1.0	2024_Jul_17_1810	1.9884451100369915	r	0.0	610.5293843999971	0.2801088000414893	SS MRS	75.0	2	m	2	48.5	
170	2993		Chest	0-back	1.0	2024_Jul_17_1810	1.989006410120055	r	0.0	612.5291301000398	0.39677949994802475	SS MRS	87.5	2	m	2	48.5	
171	2993		Chest	0-back	1.0	2024_Jul_17_1810	1.9882979100802913	r	0.0	614.529515500064	0.37981549999676645	SS MRS	100.0	2	m	2	48.5	
172	2993	48.0	Chest	ScoreReport		2024_Jul_17_1810	5.004416109994054	r		616.5381561999675		SS MRS		2	m	2		
173	2993	8	Chest	Post-Trial Jitter		2024_Jul_17_1810	6.997299239970744	r		621.6001351000741		SS MRS		2	m	2		
174	2993	20	Chest	PainBinary		2024_Jul_17_1810	5.0027431200724095	r		628.6141398999607	1.300396699924022	SS MRS		2	m	2		1.0
175	2993	21	Chest	IntensityRating		2024_Jul_17_1810	5.011749220080674	r		633.6347003000556	3.8170474000507966	SS MRS		2	m	2		27.098765432098766
176	2993	23	Chest	DistractBinary		2024_Jul_17_1810	5.003992919926532	r		638.6636400000425	1.116950499941595	SS MRS		2	m	2		1.0
177	2993	9	Chest	Post-Q-Jitter		2024_Jul_17_1810	6.993761510006152	r		643.6688158999896		SS MRS		2	m	2		
178	2993	51	Chest	Expectancy		2024_Jul_17_1810	5.0122533201938495	r		651.009658099967	2.9003603999735788	SS MRS		2	m	2		25.98765432098766
179	2993	44	Chest	0-back Instruction		2024_Jul_17_1810	5.001325650140643	r		656.4151772999903		SS MRS		2	m	2		
180	2993	7	Chest	Pre-Trial Jitter		2024_Jul_17_1810	7.0031413101824	r		661.4226591000333		SS MRS		2	m	2		
181	2993	44.0	Chest	pretrialfixation		2024_Jul_17_1810	1.0130213799420744	r		668.7094343999634		SS MRS		2	m	2		
182	2993		Chest	0-back	1.0	2024_Jul_17_1810	1.9905687099089846	r	0.0	669.7206880999729	0.4965516000520438	SS MRS	12.5	2	m	2	48.5	
183	2993		Chest	0-back	1.0	2024_Jul_17_1810	1.9873700101161376	r	0.0	671.7306742999936	0.3801178999710828	SS MRS	25.0	2	m	2	48.5	
184	2993		Chest	0-back	1.0	2024_Jul_17_1810	1.988937609945424	r	0.0	673.7299083999824	0.3964824000140652	SS MRS	37.5	2	m	2	48.5	
185	2993		Chest	0-back	1.0	2024_Jul_17_1810	1.9887655100319535	r	0.0	675.7299570000032	0.2631706000538543	SS MRS	50.0	2	m	2	48.5	
186	2993		Chest	0-back	1.0	2024_Jul_17_1810	1.988772510085255	r	0.0	677.730032099993	0.30069730000104755	SS MRS	62.5	2	m	2	48.5	
187	2993		Chest	0-back	1.0	2024_Jul_17_1810	1.988295009941794	r	0.0	679.7302957000211	0.263417899957858	SS MRS	75.0	2	m	2	48.5	
188	2993		Chest	0-back	1.0	2024_Jul_17_1810	1.9885611101053655	r	0.0	681.7301732000196	0.22993250004947186	SS MRS	87.5	2	m	2	48.5	
189	2993		Chest	0-back	1.0	2024_Jul_17_1810	1.9883629101095721	r	0.0	683.730297000031	0.31338550010696054	SS MRS	100.0	2	m	2	48.5	
190	2993	48.0	Chest	ScoreReport		2024_Jul_17_1810	5.003595310030505	r		685.7393877999857		SS MRS		2	m	2		
191	2993	8	Chest	Post-Trial Jitter		2024_Jul_17_1810	8.999514639843255	r		690.7998496000655		SS MRS		2	m	2		
192	2993	20	Chest	PainBinary		2024_Jul_17_1810	5.002819120069034	r		699.8149447999895	1.283628600067459	SS MRS		2	m	2		1.0
193	2993	21	Chest	IntensityRating		2024_Jul_17_1810	5.013195820036344	r		704.8348269000417	2.383783300057985	SS MRS		2	m	2		23.14814814814815
194	2993	23	Chest	DistractBinary		2024_Jul_17_1810	5.004319420084357	r		709.864305300056	1.2503366000019014	SS MRS		2	m	2		1.0
195	2993	9	Chest	Post-Q-Jitter		2024_Jul_17_1810	8.993928009993397	r		714.8695881000021		SS MRS		2	m	2		
196	2993	26	Chest	ComfortRating		2024_Jul_17_1810	5.246233820100315	r		723.8852422999917	5.21693650004454	SS MRS		2	m	2		-12.71604938271605
197	2993	24	Chest	ValenceRating		2024_Jul_17_1810	4.7903801201609895	r		729.1548914000159	4.7669210999738425	SS MRS		2	m	2		35.80246913580247
198	2993	26	Chest	IntensityRating		2024_Jul_17_1810	2.378395220031962	r		733.9692711000098	2.3503533999901265	SS MRS		2	m	2		57.34567901234568
199	2993	27	Chest	AvoidanceRating		2024_Jul_17_1810	2.8767243201145902	r		736.3701479000738	2.850258899969049	SS MRS		2	m	2		35.67901234567901
200	2993	28	Chest	RelaxationRating		2024_Jul_17_1810	3.2327434200560674	r		739.2671717000194	3.2170758999418467	SS MRS		2	m	2		35.18518518518518
201	2993	29	Chest	AttentionRating		2024_Jul_17_1810	3.959638619911857	r		742.5204323000507	3.9336707999464124	SS MRS		2	m	2		32.407407407407405
202	2993	30	Chest	BoredomRating		2024_Jul_17_1810	5.2678165200632066	r		746.4997264000122	5.250391599955037	SS MRS		2	m	2		77.28395061728396
203	2993	31	Chest	AlertnessRating		2024_Jul_17_1810	2.9816691200248897	r		751.7844998000655	2.9669751999899745	SS MRS		2	m	2		-25.4320987654321
204	2993	32	Chest	PosThxRating		2024_Jul_17_1810	4.811798720038496	r		754.7861314000329	4.769201699993573	SS MRS		2	m	2		-38.27160493827161
205	2993	33	Chest	NegThxRating		2024_Jul_17_1810	1.563788520055823	r		759.6185199000174	1.5504182999720797	SS MRS		2	m	2		38.765432098765444
206	2993	34	Chest	SelfRating		2024_Jul_17_1810	5.682146620005369	r		761.2013034999836	5.668222400010563	SS MRS		2	m	2		18.148148148148138
207	2993	35	Chest	OtherRating		2024_Jul_17_1810	5.024868519976735	r		766.9049000999657	5.000303399981931	SS MRS		2	m	2		-9.259259259259252
208	2993	32	Chest	ImageryRating		2024_Jul_17_1810	2.726349520147778	r		771.9540824000724	2.7002997999079525	SS MRS		2	m	2		-24.5679012345679
209	2993	37	Chest	PresentRating		2024_Jul_17_1810	3.438806219957769	r		774.7062048000516	3.4170149998972192	SS MRS		2	m	2		-10.370370370370367
