	SID	date	sex	session	handedness	scanner	onset	duration	repetition	rating	body_site	keys	temperature	conditionrt	mouseclick	biopac_channel	condition	rt	value	skin_site
0	3012	2024_Sep_01_1719	m	3	r	BLK SS	2.7739170999266207	4.993493301095441			Left Leg					40	Experience Instruction			2
1	3012	2024_Sep_01_1719	m	3	r	BLK SS	8.11498080007732	9.014479920035228			Left Leg					7	Pre-Trial Jitter			2
2	3012	2024_Sep_01_1719	m	3	r	BLK SS	17.175069200107828	13.011282139923424			Left Leg		48.5			15	Heat-Stimulation			2
3	3012	2024_Sep_01_1719	m	3	r	BLK SS	30.232067100005224	7.0142042397055775			Left Leg					8	Post-Trial Jitter			2
4	3012	2024_Sep_01_1719	m	3	r	BLK SS	37.257131499936804	5.014213720103726			Left Leg					20	PainBinary	0.8861018000170588	1.0	2
5	3012	2024_Sep_01_1719	m	3	r	BLK SS	42.291505000088364	5.012230220017955			Left Leg					21	IntensityRating	1.850206800037995	31.851851851851855	2
6	3012	2024_Sep_01_1719	m	3	r	BLK SS	47.30916900001466	8.993755409959704			Left Leg					9	Post-Q-Jitter			2
7	3012	2024_Sep_01_1719	m	3	r	BLK SS	57.382854300085455	7.029777460731566			Left Leg					7	Pre-Trial Jitter			2
8	3012	2024_Sep_01_1719	m	3	r	BLK SS	64.46190929994918	13.0053778400179			Left Leg		48.5			15	Heat-Stimulation			2
9	3012	2024_Sep_01_1719	m	3	r	BLK SS	77.51273640012369	7.003950629848987			Left Leg					8	Post-Trial Jitter			2
10	3012	2024_Sep_01_1719	m	3	r	BLK SS	84.54216599999927	4.995271519990638			Left Leg					20	PainBinary	1.167422599857673	1.0	2
11	3012	2024_Sep_01_1719	m	3	r	BLK SS	89.55697100004181	4.999144719913602			Left Leg					21	IntensityRating	1.9336616001091897	33.641975308641975	2
12	3012	2024_Sep_01_1719	m	3	r	BLK SS	94.55958330002613	8.9940454098396			Left Leg					9	Post-Q-Jitter			2
13	3012	2024_Sep_01_1719	m	3	r	BLK SS	104.53642789996229	7.007115100743249			Left Leg					7	Pre-Trial Jitter			2
14	3012	2024_Sep_01_1719	m	3	r	BLK SS	111.57325490005314	13.000493929721415			Left Leg		48.5			15	Heat-Stimulation			2
15	3012	2024_Sep_01_1719	m	3	r	BLK SS	124.61335820006207	5.003835829906166			Left Leg					8	Post-Trial Jitter			2
16	3012	2024_Sep_01_1719	m	3	r	BLK SS	129.64246389991604	4.99578851996921			Left Leg					20	PainBinary	1.133794500026852	1.0	2
17	3012	2024_Sep_01_1719	m	3	r	BLK SS	134.65871530002914	4.996757720131427			Left Leg					21	IntensityRating	1.9680555001832545	34.01234567901235	2
18	3012	2024_Sep_01_1719	m	3	r	BLK SS	139.6602396001108	9.010519709903747			Left Leg					9	Post-Q-Jitter			2
19	3012	2024_Sep_01_1719	m	3	r	BLK SS	149.7097148001194	8.994984030723572			Left Leg					7	Pre-Trial Jitter			2
20	3012	2024_Sep_01_1719	m	3	r	BLK SS	158.73097639996558	13.002791619859636			Left Leg		48.5			15	Heat-Stimulation			2
21	3012	2024_Sep_01_1719	m	3	r	BLK SS	171.78108459990472	7.002834930084646			Left Leg					8	Post-Trial Jitter			2
22	3012	2024_Sep_01_1719	m	3	r	BLK SS	178.80950949992985	4.996229219948873			Left Leg					20	PainBinary	0.9503105999901891	1.0	2
23	3012	2024_Sep_01_1719	m	3	r	BLK SS	183.82503210008144	4.998634719988331			Left Leg					21	IntensityRating	1.700415899977088	33.76543209876544	2
24	3012	2024_Sep_01_1719	m	3	r	BLK SS	188.82770940009505	6.993422910105437			Left Leg					9	Post-Q-Jitter			2
25	3012	2024_Sep_01_1719	m	3	r	BLK SS	196.16393529996276	7.00444101030007			Left Leg					7	Pre-Trial Jitter			2
26	3012	2024_Sep_01_1719	m	3	r	BLK SS	203.22747309994884	13.010993040166795			Left Leg		48.5			15	Heat-Stimulation			2
27	3012	2024_Sep_01_1719	m	3	r	BLK SS	216.2807702999562	7.0046378299593925			Left Leg					8	Post-Trial Jitter			2
28	3012	2024_Sep_01_1719	m	3	r	BLK SS	223.31055740010925	4.995224419748411			Left Leg					20	PainBinary	0.9344591000117362	1.0	2
29	3012	2024_Sep_01_1719	m	3	r	BLK SS	228.3260345000308	4.997667620191351			Left Leg					21	IntensityRating	1.617111299885437	34.382716049382715	2
30	3012	2024_Sep_01_1719	m	3	r	BLK SS	233.32857330003753	7.009369010105729			Left Leg					9	Post-Q-Jitter			2
31	3012	2024_Sep_01_1719	m	3	r	BLK SS	241.41975879995152	7.010437660617754			Left Leg					7	Pre-Trial Jitter			2
32	3012	2024_Sep_01_1719	m	3	r	BLK SS	248.45455439994112	13.007953130174428			Left Leg		48.5			15	Heat-Stimulation			2
33	3012	2024_Sep_01_1719	m	3	r	BLK SS	261.49831430008635	5.003985430346802			Left Leg					8	Post-Trial Jitter			2
34	3012	2024_Sep_01_1719	m	3	r	BLK SS	266.5271024000831	4.996529419906437			Left Leg					20	PainBinary	1.0026159000117332	1.0	2
35	3012	2024_Sep_01_1719	m	3	r	BLK SS	271.54313699994236	4.997917019994929			Left Leg					21	IntensityRating	1.683748299954459	32.28395061728395	2
36	3012	2024_Sep_01_1719	m	3	r	BLK SS	276.5457941999193	5.009382609510794			Left Leg					9	Post-Q-Jitter			2
37	3012	2024_Sep_01_1719	m	3	r	BLK SS	281.895056999987	8.994316610274836			Left Leg					7	Pre-Trial Jitter			2
38	3012	2024_Sep_01_1719	m	3	r	BLK SS	290.94155310001224	13.00163903995417			Left Leg		48.5			15	Heat-Stimulation			2
39	3012	2024_Sep_01_1719	m	3	r	BLK SS	303.9835773999803	5.00114063010551			Left Leg					8	Post-Trial Jitter			2
40	3012	2024_Sep_01_1719	m	3	r	BLK SS	309.0108475999441	4.9967437197919935			Left Leg					20	PainBinary	0.9837058999110013	1.0	2
41	3012	2024_Sep_01_1719	m	3	r	BLK SS	314.02671310002916	4.998453920008615			Left Leg					21	IntensityRating	1.400330699980259	32.71604938271605	2
42	3012	2024_Sep_01_1719	m	3	r	BLK SS	319.0291754999198	4.993665810208768			Left Leg					9	Post-Q-Jitter			2
43	3012	2024_Sep_01_1719	m	3	r	BLK SS	324.3568530001212	9.005090110236779			Left Leg					7	Pre-Trial Jitter			2
44	3012	2024_Sep_01_1719	m	3	r	BLK SS	333.3899797999766	13.005821130005643			Left Leg		48.5			15	Heat-Stimulation			2
45	3012	2024_Sep_01_1719	m	3	r	BLK SS	346.4334196001291	5.002472930122167			Left Leg					8	Post-Trial Jitter			2
46	3012	2024_Sep_01_1719	m	3	r	BLK SS	351.4619515000377	4.995585420168936			Left Leg					20	PainBinary	1.15043029980734	1.0	2
47	3012	2024_Sep_01_1719	m	3	r	BLK SS	356.47750860010274	4.997913919854909			Left Leg					21	IntensityRating	1.63445739983581	33.641975308641975	2
48	3012	2024_Sep_01_1719	m	3	r	BLK SS	361.48002719995566	9.009702409850433			Left Leg					9	Post-Q-Jitter			2
49	3012	2024_Sep_01_1719	m	3	r	BLK SS	371.54136090003885	9.003812640439719			Left Leg					7	Pre-Trial Jitter			2
50	3012	2024_Sep_01_1719	m	3	r	BLK SS	380.5628160000779	12.994613219983876			Left Leg		48.5			15	Heat-Stimulation			2
51	3012	2024_Sep_01_1719	m	3	r	BLK SS	393.6001907000318	9.003500430146232			Left Leg					8	Post-Trial Jitter			2
52	3012	2024_Sep_01_1719	m	3	r	BLK SS	402.6291565001011	5.012396819889545			Left Leg					20	PainBinary	0.9361660000868142	1.0	2
53	3012	2024_Sep_01_1719	m	3	r	BLK SS	407.66154170013033	4.997763720108196			Left Leg					21	IntensityRating	1.6837935999501497	23.086419753086417	2
54	3012	2024_Sep_01_1719	m	3	r	BLK SS	412.66329940012656	8.994434610009193			Left Leg					9	Post-Q-Jitter			2
55	3012	2024_Sep_01_1719	m	3	r	BLK SS	422.62088900012895	5.012637990526855			Left Leg					7	Pre-Trial Jitter			2
56	3012	2024_Sep_01_1719	m	3	r	BLK SS	427.65038629993796	13.003989820135757			Left Leg		48.5			15	Heat-Stimulation			2
57	3012	2024_Sep_01_1719	m	3	r	BLK SS	440.70197800011374	5.001012729946524			Left Leg					8	Post-Trial Jitter			2
58	3012	2024_Sep_01_1719	m	3	r	BLK SS	445.7294630999677	4.996183620067313			Left Leg					20	PainBinary	1.0357091999612749	1.0	2
59	3012	2024_Sep_01_1719	m	3	r	BLK SS	450.7454568000976	4.99769321992062			Left Leg					21	IntensityRating	1.5025215002242476	32.098765432098766	2
60	3012	2024_Sep_01_1719	m	3	r	BLK SS	455.7481535000261	5.0090580098330975			Left Leg					9	Post-Q-Jitter			2
61	3012	2024_Sep_01_1719	m	3	r	BLK SS	461.12887690006755	8.997707130387425			Left Leg					7	Pre-Trial Jitter			2
62	3012	2024_Sep_01_1719	m	3	r	BLK SS	470.15198810002767	13.001803220249712			Left Leg		48.5			15	Heat-Stimulation			2
63	3012	2024_Sep_01_1719	m	3	r	BLK SS	483.201325800037	7.003403229871765			Left Leg					8	Post-Trial Jitter			2
64	3012	2024_Sep_01_1719	m	3	r	BLK SS	490.2300625999924	4.996069019893184			Left Leg					20	PainBinary	1.0863270999398082	1.0	2
65	3012	2024_Sep_01_1719	m	3	r	BLK SS	495.2466237999033	5.013065420091152			Left Leg					21	IntensityRating	2.01684940000996	33.888888888888886	2
66	3012	2024_Sep_01_1719	m	3	r	BLK SS	500.26535789994523	7.009040909819305			Left Leg					9	Post-Q-Jitter			2
67	3012	2024_Sep_01_1719	m	3	r	BLK SS	508.3493973000441	7.007651450810954			Left Leg					7	Pre-Trial Jitter			2
68	3012	2024_Sep_01_1719	m	3	r	BLK SS	515.3913181999233	13.007602729834616			Left Leg		48.5			15	Heat-Stimulation			2
69	3012	2024_Sep_01_1719	m	3	r	BLK SS	528.4353084000759	7.003201830200851			Left Leg					8	Post-Trial Jitter			2
70	3012	2024_Sep_01_1719	m	3	r	BLK SS	535.4631018999498	4.9977709201630205			Left Leg					20	PainBinary	1.1836590999737382	1.0	2
71	3012	2024_Sep_01_1719	m	3	r	BLK SS	540.4798467000946	4.997750219888985			Left Leg					21	IntensityRating	2.0525777000002563	27.160493827160494	2
72	3012	2024_Sep_01_1719	m	3	r	BLK SS	545.4823318000417	8.99293981003575			Left Leg					9	Post-Q-Jitter			2
73	3012	2024_Sep_01_1719	m	3	r	BLK SS	555.5121259000152	7.000122930621728			Left Leg					7	Pre-Trial Jitter			2
74	3012	2024_Sep_01_1719	m	3	r	BLK SS	562.5500654999632	13.007941029965878			Left Leg		48.5			15	Heat-Stimulation			2
75	3012	2024_Sep_01_1719	m	3	r	BLK SS	575.6021628999151	5.003928529797122			Left Leg					8	Post-Trial Jitter			2
76	3012	2024_Sep_01_1719	m	3	r	BLK SS	580.6312061999924	4.995952220167965			Left Leg					20	PainBinary	1.0690167001448572	1.0	2
77	3012	2024_Sep_01_1719	m	3	r	BLK SS	585.6471625999548	4.997554820030928			Left Leg					21	IntensityRating	2.5341591998003423	34.5679012345679	2
78	3012	2024_Sep_01_1719	m	3	r	BLK SS	590.6489210000727	8.994194810045883			Left Leg					9	Post-Q-Jitter			2
79	3012	2024_Sep_01_1719	m	3	r	BLK SS	600.625203399919	9.008403200423345			Left Leg					7	Pre-Trial Jitter			2
80	3012	2024_Sep_01_1719	m	3	r	BLK SS	609.676557400031	13.006027840077877			Left Leg		48.5			15	Heat-Stimulation			2
81	3012	2024_Sep_01_1719	m	3	r	BLK SS	622.7197525999509	5.003209129907191			Left Leg					8	Post-Trial Jitter			2
82	3012	2024_Sep_01_1719	m	3	r	BLK SS	627.7480742000043	4.996745319804177			Left Leg					20	PainBinary	1.100433100014925	1.0	2
83	3012	2024_Sep_01_1719	m	3	r	BLK SS	632.764494500123	5.014057820197195			Left Leg					21	IntensityRating	1.6335736999753863	32.71604938271605	2
84	3012	2024_Sep_01_1719	m	3	r	BLK SS	637.782668699976	4.994468510150909			Left Leg					9	Post-Q-Jitter			2
85	3012	2024_Sep_01_1719	m	3	r	BLK SS	643.1420716999564	9.009112130152062			Left Leg					7	Pre-Trial Jitter			2
86	3012	2024_Sep_01_1719	m	3	r	BLK SS	652.2028427999467	13.004570739809424			Left Leg		48.5			15	Heat-Stimulation			2
87	3012	2024_Sep_01_1719	m	3	r	BLK SS	665.2537263999693	7.00303912977688			Left Leg					8	Post-Trial Jitter			2
88	3012	2024_Sep_01_1719	m	3	r	BLK SS	672.2820693000685	4.99651332013309			Left Leg					20	PainBinary	1.0358851000200957	1.0	2
89	3012	2024_Sep_01_1719	m	3	r	BLK SS	677.2982725999318	5.014137519756332			Left Leg					21	IntensityRating	2.0669186001177877	35.37037037037037	2
90	3012	2024_Sep_01_1719	m	3	r	BLK SS	682.3165309999604	4.994424809934571			Left Leg					9	Post-Q-Jitter			2
91	3012	2024_Sep_01_1719	m	3	r	BLK SS	688.301807400072	7.007359200390056			Left Leg					7	Pre-Trial Jitter			2
92	3012	2024_Sep_01_1719	m	3	r	BLK SS	695.3351134001277	13.007778419880196			Left Leg		48.5			15	Heat-Stimulation			2
93	3012	2024_Sep_01_1719	m	3	r	BLK SS	708.3877143999562	5.002792429877445			Left Leg					8	Post-Trial Jitter			2
94	3012	2024_Sep_01_1719	m	3	r	BLK SS	713.4158322000876	4.9966768198646605			Left Leg					20	PainBinary	1.0837024999782443	1.0	2
95	3012	2024_Sep_01_1719	m	3	r	BLK SS	718.4318967000581	4.998005320318043			Left Leg					21	IntensityRating	1.767102099955082	33.827160493827165	2
96	3012	2024_Sep_01_1719	m	3	r	BLK SS	723.4347463999875	9.009133409941569			Left Leg					9	Post-Q-Jitter			2
97	3012	2024_Sep_01_1719	m	3	r	BLK SS	732.4743079000618	2.063600530382246			Left Leg					26	ComfortRating	2.0190481999889016	23.456790123456784	2
98	3012	2024_Sep_01_1719	m	3	r	BLK SS	734.553737899987	1.5381366200745106			Left Leg					24	ValenceRating	1.516921500209719	42.03703703703703	2
99	3012	2024_Sep_01_1719	m	3	r	BLK SS	736.1136904000305	0.9682767202612013			Left Leg					26	IntensityRating	0.9503489001654088	40.30864197530864	2
100	3012	2024_Sep_01_1719	m	3	r	BLK SS	737.0983875999227	2.0655706198886037			Left Leg					27	AvoidanceRating	2.050460400059819	19.75308641975309	2
101	3012	2024_Sep_01_1719	m	3	r	BLK SS	739.1784838999156	3.088764520129189			Left Leg					28	RelaxationRating	3.0530515001155436	78.51851851851852	2
102	3012	2024_Sep_01_1719	m	3	r	BLK SS	742.2819684001151	2.6818594199139625			Left Leg					29	AttentionRating	2.6669161000754684	95.55555555555556	2
103	3012	2024_Sep_01_1719	m	3	r	BLK SS	744.9784695000853	1.2556029201950878			Left Leg					30	BoredomRating	1.2340126000344753	28.76543209876543	2
104	3012	2024_Sep_01_1719	m	3	r	BLK SS	746.247265300015	1.7847701199352741			Left Leg					31	AlertnessRating	1.7671332999598235	100.0	2
105	3012	2024_Sep_01_1719	m	3	r	BLK SS	748.0480186000932	2.0666287201456726			Left Leg					32	PosThxRating	2.0503269000910223	100.0	2
106	3012	2024_Sep_01_1719	m	3	r	BLK SS	750.1300753001124	1.5524277200456709			Left Leg					33	NegThxRating	1.5335427999962121	-100.0	2
107	3012	2024_Sep_01_1719	m	3	r	BLK SS	751.6961956000887	1.5702039198949933			Left Leg					34	SelfRating	1.5502903000451624	100.0	2
108	3012	2024_Sep_01_1719	m	3	r	BLK SS	753.2795065999962	2.0704273199662566			Left Leg					35	OtherRating	2.0509331999346614	-100.0	2
109	3012	2024_Sep_01_1719	m	3	r	BLK SS	755.3648516999092	2.7664732201956213			Left Leg					32	ImageryRating	2.7503601000644267	100.0	2
110	3012	2024_Sep_01_1719	m	3	r	BLK SS	758.1496214999352	1.3969575203955173			Left Leg					37	PresentRating	1.3667664998210967	-100.0	2
