BodySiteInstructionText.started,BodySiteImg.started,BodySiteImg.stopped,BodySiteInstructionRead.keys,BodySiteInstructionRead.rt,BodySiteInstructionRead.started,BodySiteInstructionRead.stopped,fixation.started,fixation.stopped,IntensityRating.response,IntensityRating.rt,IntensityRating.started,IntensityRating.stopped,ComfortRating.response,ComfortRating.rt,ComfortRating.started,ComfortRating.stopped,ValenceRating.response,ValenceRating.rt,ValenceRating.started,ValenceRating.stopped,AvoidRating.response,AvoidRating.rt,AvoidRating.started,AvoidRating.stopped,RelaxRating.response,RelaxRating.rt,RelaxRating.started,RelaxRating.stopped,TaskAttentionRating.response,TaskAttentionRating.rt,TaskAttentionRating.started,TaskAttentionRating.stopped,BoredomRating.response,BoredomRating.rt,BoredomRating.started,BoredomRating.stopped,AlertnessRating.response,AlertnessRating.rt,AlertnessRating.started,AlertnessRating.stopped,PosThxRating.response,PosThxRating.rt,PosThxRating.started,PosThxRating.stopped,NegThxRating.response,NegThxRating.rt,NegThxRating.started,NegThxRating.stopped,SelfRating.response,SelfRating.rt,SelfRating.started,SelfRating.stopped,OtherRating.response,OtherRating.rt,OtherRating.started,OtherRating.stopped,ImageryRating.response,ImageryRating.rt,ImageryRating.started,ImageryRating.stopped,PresentRating.response,PresentRating.rt,PresentRating.started,PresentRating.stopped,subject number,gender,session,handedness,scanner,run,experience(1) or regulate(2),date,psychopyVersion,expName,body_site_order,frameRate,
33.42403469979763,33.42403469979763,None,space,73.38809909997508,33.42403469979763,None,138.80839819973335,None,15.185185185185182,122.52990902028978,,,,,,,,,,,,,,,,,,,,,,,,,,,,,,,,,,,,,,,,,,,,,,,,,,,,,,,5,m,27,r,MH,,1,2022_Jul_13_1434,2020.2.10,acceptmap-experience,"['Right Face', 'Left Face', 'Right Face', 'Left Face']",59.97652516291054,
,,,,,,,166.82530439971015,None,21.23456790123457,145.5315147205256,0.0166188795119524,5.016023179516196,,,,,,,,,,,,,,,,,,,,,,,,,,,,,,,,,,,,,,,,,,,,,,,,,,,,,5,m,27,r,MH,,1,2022_Jul_13_1434,2020.2.10,acceptmap-experience,"['Right Face', 'Left Face', 'Right Face', 'Left Face']",59.97652516291054,
,,,,,,,194.84222259977832,None,18.88888888888889,177.3970276201144,0.015223279595375061,5.013332079630345,,,,,,,,,,,,,,,,,,,,,,,,,,,,,,,,,,,,,,,,,,,,,,,,,,,,,5,m,27,r,MH,,1,2022_Jul_13_1434,2020.2.10,acceptmap-experience,"['Right Face', 'Left Face', 'Right Face', 'Left Face']",59.97652516291054,
,,,,,,,222.8591244998388,None,25.308641975308642,202.89725631987676,0.016651479993015528,5.016186879947782,,,,,,,,,,,,,,,,,,,,,,,,,,,,,,,,,,,,,,,,,,,,,,,,,,,,,5,m,27,r,MH,,1,2022_Jul_13_1434,2020.2.10,acceptmap-experience,"['Right Face', 'Left Face', 'Right Face', 'Left Face']",59.97652516291054,
,,,,,,,250.87604969972745,None,22.098765432098766,234.765785519965,0.016654579900205135,5.016188379842788,,,,,,,,,,,,,,,,,,,,,,,,,,,,,,,,,,,,,,,,,,,,,,,,,,,,,5,m,27,r,MH,,1,2022_Jul_13_1434,2020.2.10,acceptmap-experience,"['Right Face', 'Left Face', 'Right Face', 'Left Face']",59.97652516291054,
,,,,,,,278.8929681996815,None,23.14814814814815,263.43111781962216,0.01506588002666831,5.013071080204099,,,,,,,,,,,,,,,,,,,,,,,,,,,,,,,,,,,,,,,,,,,,,,,,,,,,,5,m,27,r,MH,,1,2022_Jul_13_1434,2020.2.10,acceptmap-experience,"['Right Face', 'Left Face', 'Right Face', 'Left Face']",59.97652516291054,
,,,,,,,306.90987559966743,None,25.0,287.53132271952927,0.01665608026087284,5.016174479853362,,,,,,,,,,,,,,,,,,,,,,,,,,,,,,,,,,,,,,,,,,,,,,,,,,,,,5,m,27,r,MH,,1,2022_Jul_13_1434,2020.2.10,acceptmap-experience,"['Right Face', 'Left Face', 'Right Face', 'Left Face']",59.97652516291054,
,,,,,,,334.9267861000262,None,26.172839506172842,315.366408420261,0.016649280209094286,5.016178079880774,,,,,,,,,,,,,,,,,,,,,,,,,,,,,,,,,,,,,,,,,,,,,,,,,,,,,5,m,27,r,MH,,1,2022_Jul_13_1434,2020.2.10,acceptmap-experience,"['Right Face', 'Left Face', 'Right Face', 'Left Face']",59.97652516291054,
,,,,,,,362.94370049983263,None,23.45679012345679,346.73393212025985,0.015141179785132408,5.013145779725164,,,,,,,,,,,,,,,,,,,,,,,,,,,,,,,,,,,,,,,,,,,,,,,,,,,,,5,m,27,r,MH,,1,2022_Jul_13_1434,2020.2.10,acceptmap-experience,"['Right Face', 'Left Face', 'Right Face', 'Left Face']",59.97652516291054,
,,,,,,,390.9606514996849,None,25.185185185185183,368.96753752045333,0.01458357973024249,5.012033479753882,,,,,,,,,,,,,,,,,,,,,,,,,,,,,,,,,,,,,,,,,,,,,,,,,,,,,5,m,27,r,MH,,1,2022_Jul_13_1434,2020.2.10,acceptmap-experience,"['Right Face', 'Left Face', 'Right Face', 'Left Face']",59.97652516291054,
,,,,,,,418.97754759993404,None,23.703703703703706,398.2172789196484,0.014481679536402225,5.011848579160869,,,,,,,,,,,,,,,,,,,,,,,,,,,,,,,,,,,,,,,,,,,,,,,,,,,,,5,m,27,r,MH,,1,2022_Jul_13_1434,2020.2.10,acceptmap-experience,"['Right Face', 'Left Face', 'Right Face', 'Left Face']",59.97652516291054,
,,,,,,,446.9944585999474,None,23.580246913580247,428.1347230197862,0.01500568026676774,5.012874479871243,,,,,,,,,,,,,,,,,,,,,,,,,,,,,,,,,,,,,,,,,,,,,,,,,,,,,5,m,27,r,MH,,1,2022_Jul_13_1434,2020.2.10,acceptmap-experience,"['Right Face', 'Left Face', 'Right Face', 'Left Face']",59.97652516291054,
,,,,,,,475.0113743999973,None,23.086419753086417,457.299507020507,0.01452718023210764,5.0119609804823995,,,,,,,,,,,,,,,,,,,,,,,,,,,,,,,,,,,,,,,,,,,,,,,,,,,,,5,m,27,r,MH,,1,2022_Jul_13_1434,2020.2.10,acceptmap-experience,"['Right Face', 'Left Face', 'Right Face', 'Left Face']",59.97652516291054,
,,,,,,,503.0282731996849,None,21.790123456790123,485.2520126202144,0.016646379604935646,5.01615847973153,,,,,,,,,,,,,,,,,,,,,,,,,,,,,,,,,,,,,,,,,,,,,,,,,,,,,5,m,27,r,MH,,1,2022_Jul_13_1434,2020.2.10,acceptmap-experience,"['Right Face', 'Left Face', 'Right Face', 'Left Face']",59.97652516291054,
,,,,,,,531.0452054999769,None,20.308641975308642,511.38331481954083,0.014401279855519533,5.011718879919499,,,,,,,,,,,,,,,,,,,,,,,,,,,,,,,,,,,,,,,,,,,,,,,,,,,,,5,m,27,r,MH,,1,2022_Jul_13_1434,2020.2.10,acceptmap-experience,"['Right Face', 'Left Face', 'Right Face', 'Left Face']",59.97652516291054,
,,,,,,,559.0621078000404,None,19.012345679012345,541.5002548205666,0.01665328023955226,5.016175080090761,,,,,,,,,,,,,,,,,,,,,,,,,,,,,,,,,,,,,,,,,,,,,,,,,,,,,5,m,27,r,MH,,1,2022_Jul_13_1434,2020.2.10,acceptmap-experience,"['Right Face', 'Left Face', 'Right Face', 'Left Face']",59.97652516291054,
,,,,,,,,,,,0.016646879259496927,5.016058379318565,11.851851851851848,548.2523237201385,,,,,,,,,,,,,,,,,,,,,,,,,,,,,,,,,,,,,,,,,,,,,,,,,,,5,m,27,r,MH,,1,2022_Jul_13_1434,2020.2.10,acceptmap-experience,"['Right Face', 'Left Face', 'Right Face', 'Left Face']",59.97652516291054,
,,,,,,,,,,,,,,,0.014668779913336039,None,-63.20987654320988,552.0864925198257,,,,,,,,,,,,,,,,,,,,,,,,,,,,,,,,,,,,,,,,,,,,,,,5,m,27,r,MH,,1,2022_Jul_13_1434,2020.2.10,acceptmap-experience,"['Right Face', 'Left Face', 'Right Face', 'Left Face']",59.97652516291054,
,,,,,,,,,22.530864197530864,554.2707749400288,,,,,,,,,0.013873579911887646,None,,,,,,,,,,,,,,,,,,,,,,,,,,,,,,,,,,,,,,,,,,,,,5,m,27,r,MH,,1,2022_Jul_13_1434,2020.2.10,acceptmap-experience,"['Right Face', 'Left Face', 'Right Face', 'Left Face']",59.97652516291054,
,,,,,,,,,,,0.012912659905850887,None,,,,,,,,,15.555555555555554,558.4860650198534,,,,,,,,,,,,,,,,,,,,,,,,,,,,,,,,,,,,,,,,,,,5,m,27,r,MH,,1,2022_Jul_13_1434,2020.2.10,acceptmap-experience,"['Right Face', 'Left Face', 'Right Face', 'Left Face']",59.97652516291054,
,,,,,,,,,,,,,,,,,,,,,,,0.014333880040794611,None,67.16049382716051,560.8694314202294,,,,,,,,,,,,,,,,,,,,,,,,,,,,,,,,,,,,,,,5,m,27,r,MH,,1,2022_Jul_13_1434,2020.2.10,acceptmap-experience,"['Right Face', 'Left Face', 'Right Face', 'Left Face']",59.97652516291054,
,,,,,,,,,,,,,,,,,,,,,,,,,,,0.014335779938846827,None,49.75308641975309,564.8691110196523,,,,,,,,,,,,,,,,,,,,,,,,,,,,,,,,,,,5,m,27,r,MH,,1,2022_Jul_13_1434,2020.2.10,acceptmap-experience,"['Right Face', 'Left Face', 'Right Face', 'Left Face']",59.97652516291054,
,,,,,,,,,,,,,,,,,,,,,,,,,,,,,,,0.01468908041715622,None,66.04938271604938,567.4201339199208,,,,,,,,,,,,,,,,,,,,,,,,,,,,,,,5,m,27,r,MH,,1,2022_Jul_13_1434,2020.2.10,acceptmap-experience,"['Right Face', 'Left Face', 'Right Face', 'Left Face']",59.97652516291054,
,,,,,,,,,,,,,,,,,,,,,,,,,,,,,,,,,,,0.013745780102908611,None,0.49382716049382225,572.5534012201242,,,,,,,,,,,,,,,,,,,,,,,,,,,5,m,27,r,MH,,1,2022_Jul_13_1434,2020.2.10,acceptmap-experience,"['Right Face', 'Left Face', 'Right Face', 'Left Face']",59.97652516291054,
,,,,,,,,,,,,,,,,,,,,,,,,,,,,,,,,,,,,,,,0.013805679976940155,None,0.0,575.2032876200974,,,,,,,,,,,,,,,,,,,,,,,5,m,27,r,MH,,1,2022_Jul_13_1434,2020.2.10,acceptmap-experience,"['Right Face', 'Left Face', 'Right Face', 'Left Face']",59.97652516291054,
,,,,,,,,,,,,,,,,,,,,,,,,,,,,,,,,,,,,,,,,,,,0.013920279685407877,None,-0.12345679012345556,577.0530662196688,,,,,,,,,,,,,,,,,,,5,m,27,r,MH,,1,2022_Jul_13_1434,2020.2.10,acceptmap-experience,"['Right Face', 'Left Face', 'Right Face', 'Left Face']",59.97652516291054,
,,,,,,,,,,,,,,,,,,,,,,,,,,,,,,,,,,,,,,,,,,,,,,,0.014181680046021938,None,-100.0,580.7697277199477,,,,,,,,,,,,,,,5,m,27,r,MH,,1,2022_Jul_13_1434,2020.2.10,acceptmap-experience,"['Right Face', 'Left Face', 'Right Face', 'Left Face']",59.97652516291054,
,,,,,,,,,,,,,,,,,,,,,,,,,,,,,,,,,,,,,,,,,,,,,,,,,,,0.014226479921489954,None,100.0,583.8035246203654,,,,,,,,,,,5,m,27,r,MH,,1,2022_Jul_13_1434,2020.2.10,acceptmap-experience,"['Right Face', 'Left Face', 'Right Face', 'Left Face']",59.97652516291054,
,,,,,,,,,,,,,,,,,,,,,,,,,,,,,,,,,,,,,,,,,,,,,,,,,,,,,,,0.013779779430478811,None,47.16049382716048,588.1530595198274,,,,,,,5,m,27,r,MH,,1,2022_Jul_13_1434,2020.2.10,acceptmap-experience,"['Right Face', 'Left Face', 'Right Face', 'Left Face']",59.97652516291054,
,,,,,,,,,,,,,,,,,,,,,,,,,,,,,,,,,,,,,,,,,,,,,,,,,,,,,,,,,,,0.014292479958385229,None,-97.28395061728395,592.3197265197523,,,5,m,27,r,MH,,1,2022_Jul_13_1434,2020.2.10,acceptmap-experience,"['Right Face', 'Left Face', 'Right Face', 'Left Face']",59.97652516291054,
742.3137809997424,742.3137809997424,None,space,102.89870020002127,742.3137809997424,None,884.298358200118,None,37.407407407407405,866.286516320426,,,,,,,,,,,,,,,,,,,,,,,,,,,,,,,,,,,,,,,,,,,,,,,,,,,,,0.014362180139869452,None,5,m,27,r,MH,,1,2022_Jul_13_1434,2020.2.10,acceptmap-experience,"['Right Face', 'Left Face', 'Right Face', 'Left Face']",59.97652516291054,
,,,,,,,912.3152574999258,None,29.691358024691354,889.8383500198834,0.01659397967159748,5.015989579726011,,,,,,,,,,,,,,,,,,,,,,,,,,,,,,,,,,,,,,,,,,,,,,,,,,,,,5,m,27,r,MH,,1,2022_Jul_13_1434,2020.2.10,acceptmap-experience,"['Right Face', 'Left Face', 'Right Face', 'Left Face']",59.97652516291054,
,,,,,,,940.3321825000457,None,29.876543209876544,924.0203593201004,0.015014079865068197,5.012889879755676,,,,,,,,,,,,,,,,,,,,,,,,,,,,,,,,,,,,,,,,,,,,,,,,,,,,,5,m,27,r,MH,,1,2022_Jul_13_1434,2020.2.10,acceptmap-experience,"['Right Face', 'Left Face', 'Right Face', 'Left Face']",59.97652516291054,
,,,,,,,968.3491087998264,None,29.629629629629626,949.7724398197606,0.01665477966889739,5.016183879692107,,,,,,,,,,,,,,,,,,,,,,,,,,,,,,,,,,,,,,,,,,,,,,,,,,,,,5,m,27,r,MH,,1,2022_Jul_13_1434,2020.2.10,acceptmap-experience,"['Right Face', 'Left Face', 'Right Face', 'Left Face']",59.97652516291054,
,,,,,,,996.3660319996998,None,27.22222222222222,975.5725477202795,0.014784079976379871,5.0124433799646795,,,,,,,,,,,,,,,,,,,,,,,,,,,,,,,,,,,,,,,,,,,,,,,,,,,,,5,m,27,r,MH,,1,2022_Jul_13_1434,2020.2.10,acceptmap-experience,"['Right Face', 'Left Face', 'Right Face', 'Left Face']",59.97652516291054,
,,,,,,,1024.3829423999414,None,23.580246913580247,1004.9231414198875,0.014914679806679487,5.012694879900664,,,,,,,,,,,,,,,,,,,,,,,,,,,,,,,,,,,,,,,,,,,,,,,,,,,,,5,m,27,r,MH,,1,2022_Jul_13_1434,2020.2.10,acceptmap-experience,"['Right Face', 'Left Face', 'Right Face', 'Left Face']",59.97652516291054,
,,,,,,,1052.3997847996652,None,23.703703703703706,1036.5563270198181,0.014545179903507233,5.01196907972917,,,,,,,,,,,,,,,,,,,,,,,,,,,,,,,,,,,,,,,,,,,,,,,,,,,,,5,m,27,r,MH,,1,2022_Jul_13_1434,2020.2.10,acceptmap-experience,"['Right Face', 'Left Face', 'Right Face', 'Left Face']",59.97652516291054,
,,,,,,,1080.4167820997536,None,26.296296296296294,1063.2549436204135,0.014995079953223467,5.012848879676312,,,,,,,,,,,,,,,,,,,,,,,,,,,,,,,,,,,,,,,,,,,,,,,,,,,,,5,m,27,r,MH,,1,2022_Jul_13_1434,2020.2.10,acceptmap-experience,"['Right Face', 'Left Face', 'Right Face', 'Left Face']",59.97652516291054,
,,,,,,,1108.4337005997077,None,33.580246913580254,1086.590417420026,0.01666787965223193,5.016200879588723,,,,,,,,,,,,,,,,,,,,,,,,,,,,,,,,,,,,,,,,,,,,,,,,,,,,,5,m,27,r,MH,,1,2022_Jul_13_1434,2020.2.10,acceptmap-experience,"['Right Face', 'Left Face', 'Right Face', 'Left Face']",59.97652516291054,
,,,,,,,1136.4506072998047,None,33.76543209876544,1119.322074919939,0.014707979746162891,5.012290379963815,,,,,,,,,,,,,,,,,,,,,,,,,,,,,,,,,,,,,,,,,,,,,,,,,,,,,5,m,27,r,MH,,1,2022_Jul_13_1434,2020.2.10,acceptmap-experience,"['Right Face', 'Left Face', 'Right Face', 'Left Face']",59.97652516291054,
,,,,,,,1164.4675425998867,None,32.34567901234568,1145.7738736197352,0.016650579869747162,5.016153079923242,,,,,,,,,,,,,,,,,,,,,,,,,,,,,,,,,,,,,,,,,,,,,,,,,,,,,5,m,27,r,MH,,1,2022_Jul_13_1434,2020.2.10,acceptmap-experience,"['Right Face', 'Left Face', 'Right Face', 'Left Face']",59.97652516291054,
,,,,,,,1192.4844589000568,None,26.60493827160494,1172.206976720132,0.015107579994946718,5.013106880243868,,,,,,,,,,,,,,,,,,,,,,,,,,,,,,,,,,,,,,,,,,,,,,,,,,,,,5,m,27,r,MH,,1,2022_Jul_13_1434,2020.2.10,acceptmap-experience,"['Right Face', 'Left Face', 'Right Face', 'Left Face']",59.97652516291054,
,,,,,,,1220.50134229986,None,26.97530864197531,1201.7917003203183,0.015461879782378674,5.013794979546219,,,,,,,,,,,,,,,,,,,,,,,,,,,,,,,,,,,,,,,,,,,,,,,,,,,,,5,m,27,r,MH,,1,2022_Jul_13_1434,2020.2.10,acceptmap-experience,"['Right Face', 'Left Face', 'Right Face', 'Left Face']",59.97652516291054,
,,,,,,,1248.5182980997488,None,31.790123456790127,1228.6749427202158,0.014464879408478737,5.011766179464757,,,,,,,,,,,,,,,,,,,,,,,,,,,,,,,,,,,,,,,,,,,,,,,,,,,,,5,m,27,r,MH,,1,2022_Jul_13_1434,2020.2.10,acceptmap-experience,"['Right Face', 'Left Face', 'Right Face', 'Left Face']",59.97652516291054,
,,,,,,,1276.5352190998383,None,31.234567901234566,1259.723364320118,0.014785179868340492,5.012290979735553,,,,,,,,,,,,,,,,,,,,,,,,,,,,,,,,,,,,,,,,,,,,,,,,,,,,,5,m,27,r,MH,,1,2022_Jul_13_1434,2020.2.10,acceptmap-experience,"['Right Face', 'Left Face', 'Right Face', 'Left Face']",59.97652516291054,
,,,,,,,1304.5521464999765,None,29.938271604938272,1285.0735758198425,0.016651179641485214,5.016169379465282,,,,,,,,,,,,,,,,,,,,,,,,,,,,,,,,,,,,,,,,,,,,,,,,,,,,,5,m,27,r,MH,,1,2022_Jul_13_1434,2020.2.10,acceptmap-experience,"['Right Face', 'Left Face', 'Right Face', 'Left Face']",59.97652516291054,
,,,,,,,,,,,0.016663480084389448,5.0161632797680795,4.8148148148148096,1290.392524920404,,,,,,,,,,,,,,,,,,,,,,,,,,,,,,,,,,,,,,,,,,,,,,,,,,,5,m,27,r,MH,,1,2022_Jul_13_1434,2020.2.10,acceptmap-experience,"['Right Face', 'Left Face', 'Right Face', 'Left Face']",59.97652516291054,
,,,,,,,,,,,,,,,0.014448579400777817,None,-1.2345679012345698,1295.0922465198673,,,,,,,,,,,,,,,,,,,,,,,,,,,,,,,,,,,,,,,,,,,,,,,5,m,27,r,MH,,1,2022_Jul_13_1434,2020.2.10,acceptmap-experience,"['Right Face', 'Left Face', 'Right Face', 'Left Face']",59.97652516291054,
,,,,,,,,,54.629629629629626,1297.00557992002,,,,,,,,,0.01476927986368537,None,,,,,,,,,,,,,,,,,,,,,,,,,,,,,,,,,,,,,,,,,,,,,5,m,27,r,MH,,1,2022_Jul_13_1434,2020.2.10,acceptmap-experience,"['Right Face', 'Left Face', 'Right Face', 'Left Face']",59.97652516291054,
,,,,,,,,,,,0.001429279800504446,None,,,,,,,,,40.555555555555564,1299.6424501203,,,,,,,,,,,,,,,,,,,,,,,,,,,,,,,,,,,,,,,,,,,5,m,27,r,MH,,1,2022_Jul_13_1434,2020.2.10,acceptmap-experience,"['Right Face', 'Left Face', 'Right Face', 'Left Face']",59.97652516291054,
,,,,,,,,,,,,,,,,,,,,,,,0.014602979645133018,None,60.80246913580246,1302.1433414202183,,,,,,,,,,,,,,,,,,,,,,,,,,,,,,,,,,,,,,,5,m,27,r,MH,,1,2022_Jul_13_1434,2020.2.10,acceptmap-experience,"['Right Face', 'Left Face', 'Right Face', 'Left Face']",59.97652516291054,
,,,,,,,,,,,,,,,,,,,,,,,,,,,0.013746479526162148,None,31.48148148148148,1307.6099647199735,,,,,,,,,,,,,,,,,,,,,,,,,,,,,,,,,,,5,m,27,r,MH,,1,2022_Jul_13_1434,2020.2.10,acceptmap-experience,"['Right Face', 'Left Face', 'Right Face', 'Left Face']",59.97652516291054,
,,,,,,,,,,,,,,,,,,,,,,,,,,,,,,,0.01382107986137271,None,40.4320987654321,1309.92615791969,,,,,,,,,,,,,,,,,,,,,,,,,,,,,,,5,m,27,r,MH,,1,2022_Jul_13_1434,2020.2.10,acceptmap-experience,"['Right Face', 'Left Face', 'Right Face', 'Left Face']",59.97652516291054,
,,,,,,,,,,,,,,,,,,,,,,,,,,,,,,,,,,,0.014337880071252584,None,35.06172839506175,1312.82634032052,,,,,,,,,,,,,,,,,,,,,,,,,,,5,m,27,r,MH,,1,2022_Jul_13_1434,2020.2.10,acceptmap-experience,"['Right Face', 'Left Face', 'Right Face', 'Left Face']",59.97652516291054,
,,,,,,,,,,,,,,,,,,,,,,,,,,,,,,,,,,,,,,,0.014157479628920555,None,-100.0,1315.7429172201082,,,,,,,,,,,,,,,,,,,,,,,5,m,27,r,MH,,1,2022_Jul_13_1434,2020.2.10,acceptmap-experience,"['Right Face', 'Left Face', 'Right Face', 'Left Face']",59.97652516291054,
,,,,,,,,,,,,,,,,,,,,,,,,,,,,,,,,,,,,,,,,,,,0.014276979956775904,None,100.0,1318.7100791200064,,,,,,,,,,,,,,,,,,,5,m,27,r,MH,,1,2022_Jul_13_1434,2020.2.10,acceptmap-experience,"['Right Face', 'Left Face', 'Right Face', 'Left Face']",59.97652516291054,
,,,,,,,,,,,,,,,,,,,,,,,,,,,,,,,,,,,,,,,,,,,,,,,0.013817979954183102,None,-100.0,1321.3092036200687,,,,,,,,,,,,,,,5,m,27,r,MH,,1,2022_Jul_13_1434,2020.2.10,acceptmap-experience,"['Right Face', 'Left Face', 'Right Face', 'Left Face']",59.97652516291054,
,,,,,,,,,,,,,,,,,,,,,,,,,,,,,,,,,,,,,,,,,,,,,,,,,,,0.014686079695820808,None,100.0,1324.310458819382,,,,,,,,,,,5,m,27,r,MH,,1,2022_Jul_13_1434,2020.2.10,acceptmap-experience,"['Right Face', 'Left Face', 'Right Face', 'Left Face']",59.97652516291054,
,,,,,,,,,,,,,,,,,,,,,,,,,,,,,,,,,,,,,,,,,,,,,,,,,,,,,,,0.013486880343407393,None,44.81481481481484,1327.3605342200026,,,,,,,5,m,27,r,MH,,1,2022_Jul_13_1434,2020.2.10,acceptmap-experience,"['Right Face', 'Left Face', 'Right Face', 'Left Face']",59.97652516291054,
,,,,,,,,,,,,,,,,,,,,,,,,,,,,,,,,,,,,,,,,,,,,,,,,,,,,,,,,,,,0.013450679834932089,None,-100.0,1332.976288920734,,,5,m,27,r,MH,,1,2022_Jul_13_1434,2020.2.10,acceptmap-experience,"['Right Face', 'Left Face', 'Right Face', 'Left Face']",59.97652516291054,
1461.55357179977,1461.55357179977,None,space,101.09973860019818,1461.55357179977,None,1606.0548694999889,None,23.271604938271608,1587.4612923203968,,,,,,,,,,,,,,,,,,,,,,,,,,,,,,,,,,,,,,,,,,,,,,,,,,,,,0.014472779352217913,None,5,m,27,r,MH,,1,2022_Jul_13_1434,2020.2.10,acceptmap-experience,"['Right Face', 'Left Face', 'Right Face', 'Left Face']",59.97652516291054,
,,,,,,,1634.071763199754,None,21.7283950617284,1613.5444540199824,0.015026879496872425,5.012921079527587,,,,,,,,,,,,,,,,,,,,,,,,,,,,,,,,,,,,,,,,,,,,,,,,,,,,,5,m,27,r,MH,,1,2022_Jul_13_1434,2020.2.10,acceptmap-experience,"['Right Face', 'Left Face', 'Right Face', 'Left Face']",59.97652516291054,
,,,,,,,1662.0886923996732,None,26.60493827160494,1644.7768022199161,0.015417779795825481,5.013749979902059,,,,,,,,,,,,,,,,,,,,,,,,,,,,,,,,,,,,,,,,,,,,,,,,,,,,,5,m,27,r,MH,,1,2022_Jul_13_1434,2020.2.10,acceptmap-experience,"['Right Face', 'Left Face', 'Right Face', 'Left Face']",59.97652516291054,
,,,,,,,1690.1056256000884,None,21.85185185185185,1672.3104363200255,0.016674779821187258,5.016311079729348,,,,,,,,,,,,,,,,,,,,,,,,,,,,,,,,,,,,,,,,,,,,,,,,,,,,,5,m,27,r,MH,,1,2022_Jul_13_1434,2020.2.10,acceptmap-experience,"['Right Face', 'Left Face', 'Right Face', 'Left Face']",59.97652516291054,
,,,,,,,1718.1225113999099,None,26.296296296296294,1698.2954666200094,0.016644079703837633,5.016165080014616,,,,,,,,,,,,,,,,,,,,,,,,,,,,,,,,,,,,,,,,,,,,,,,,,,,,,5,m,27,r,MH,,1,2022_Jul_13_1434,2020.2.10,acceptmap-experience,"['Right Face', 'Left Face', 'Right Face', 'Left Face']",59.97652516291054,
,,,,,,,1746.1394623997621,None,30.06172839506173,1726.6129648201168,0.015219979919493198,5.0133263799361885,,,,,,,,,,,,,,,,,,,,,,,,,,,,,,,,,,,,,,,,,,,,,,,,,,,,,5,m,27,r,MH,,1,2022_Jul_13_1434,2020.2.10,acceptmap-experience,"['Right Face', 'Left Face', 'Right Face', 'Left Face']",59.97652516291054,
,,,,,,,1774.1563750999048,None,27.40740740740741,1758.077852920629,0.014624679926782846,5.012143180239946,,,,,,,,,,,,,,,,,,,,,,,,,,,,,,,,,,,,,,,,,,,,,,,,,,,,,5,m,27,r,MH,,1,2022_Jul_13_1434,2020.2.10,acceptmap-experience,"['Right Face', 'Left Face', 'Right Face', 'Left Face']",59.97652516291054,
,,,,,,,1802.1733010997996,None,24.629629629629633,1780.1463703201152,0.01666017947718501,5.01617957977578,,,,,,,,,,,,,,,,,,,,,,,,,,,,,,,,,,,,,,,,,,,,,,,,,,,,,5,m,27,r,MH,,1,2022_Jul_13_1434,2020.2.10,acceptmap-experience,"['Right Face', 'Left Face', 'Right Face', 'Left Face']",59.97652516291054,
,,,,,,,1830.1902302997187,None,25.98765432098766,1812.578379520215,0.015010179951786995,5.012911079917103,,,,,,,,,,,,,,,,,,,,,,,,,,,,,,,,,,,,,,,,,,,,,,,,,,,,,5,m,27,r,MH,,1,2022_Jul_13_1434,2020.2.10,acceptmap-experience,"['Right Face', 'Left Face', 'Right Face', 'Left Face']",59.97652516291054,
,,,,,,,1858.2071321001276,None,26.666666666666668,1838.89746562019,0.016644979827106,5.016156279481947,,,,,,,,,,,,,,,,,,,,,,,,,,,,,,,,,,,,,,,,,,,,,,,,,,,,,5,m,27,r,MH,,1,2022_Jul_13_1434,2020.2.10,acceptmap-experience,"['Right Face', 'Left Face', 'Right Face', 'Left Face']",59.97652516291054,
,,,,,,,1886.2239871998318,None,27.65432098765432,1868.4788484196179,0.01445147953927517,5.011889379937202,,,,,,,,,,,,,,,,,,,,,,,,,,,,,,,,,,,,,,,,,,,,,,,,,,,,,5,m,27,r,MH,,1,2022_Jul_13_1434,2020.2.10,acceptmap-experience,"['Right Face', 'Left Face', 'Right Face', 'Left Face']",59.97652516291054,
,,,,,,,1914.2409751000814,None,31.049382716049383,1892.7480796203017,0.016674680169671774,5.016236779745668,,,,,,,,,,,,,,,,,,,,,,,,,,,,,,,,,,,,,,,,,,,,,,,,,,,,,5,m,27,r,MH,,1,2022_Jul_13_1434,2020.2.10,acceptmap-experience,"['Right Face', 'Left Face', 'Right Face', 'Left Face']",59.97652516291054,
,,,,,,,1942.257894499693,None,23.39506172839506,1924.09601932019,0.014325179625302553,5.0115221799351275,,,,,,,,,,,,,,,,,,,,,,,,,,,,,,,,,,,,,,,,,,,,,,,,,,,,,5,m,27,r,MH,,1,2022_Jul_13_1434,2020.2.10,acceptmap-experience,"['Right Face', 'Left Face', 'Right Face', 'Left Face']",59.97652516291054,
,,,,,,,1970.2748372997157,None,29.876543209876544,1948.3795851203613,0.016668779775500298,5.0162117797881365,,,,,,,,,,,,,,,,,,,,,,,,,,,,,,,,,,,,,,,,,,,,,,,,,,,,,5,m,27,r,MH,,1,2022_Jul_13_1434,2020.2.10,acceptmap-experience,"['Right Face', 'Left Face', 'Right Face', 'Left Face']",59.97652516291054,
,,,,,,,1998.291755599901,None,28.333333333333332,1982.4798864196055,0.0166531796567142,5.01619677990675,,,,,,,,,,,,,,,,,,,,,,,,,,,,,,,,,,,,,,,,,,,,,,,,,,,,,5,m,27,r,MH,,1,2022_Jul_13_1434,2020.2.10,acceptmap-experience,"['Right Face', 'Left Face', 'Right Face', 'Left Face']",59.97652516291054,
,,,,,,,2026.3086864999495,None,20.864197530864196,2005.6315651200712,0.01666198018938303,5.016174079850316,,,,,,,,,,,,,,,,,,,,,,,,,,,,,,,,,,,,,,,,,,,,,,,,,,,,,5,m,27,r,MH,,1,2022_Jul_13_1434,2020.2.10,acceptmap-experience,"['Right Face', 'Left Face', 'Right Face', 'Left Face']",59.97652516291054,
,,,,,,,,,,,0.015198079869151115,5.013300179969519,5.432098765432087,2010.4154724203981,,,,,,,,,,,,,,,,,,,,,,,,,,,,,,,,,,,,,,,,,,,,,,,,,,,5,m,27,r,MH,,1,2022_Jul_13_1434,2020.2.10,acceptmap-experience,"['Right Face', 'Left Face', 'Right Face', 'Left Face']",59.97652516291054,
,,,,,,,,,,,,,,,0.014649979770183563,None,-44.5679012345679,2013.9657860198058,,,,,,,,,,,,,,,,,,,,,,,,,,,,,,,,,,,,,,,,,,,,,,,5,m,27,r,MH,,1,2022_Jul_13_1434,2020.2.10,acceptmap-experience,"['Right Face', 'Left Face', 'Right Face', 'Left Face']",59.97652516291054,
,,,,,,,,,28.024691358024693,2015.529249520041,,,,,,,,,0.014429579954594374,None,,,,,,,,,,,,,,,,,,,,,,,,,,,,,,,,,,,,,,,,,,,,,5,m,27,r,MH,,1,2022_Jul_13_1434,2020.2.10,acceptmap-experience,"['Right Face', 'Left Face', 'Right Face', 'Left Face']",59.97652516291054,
,,,,,,,,,,,0.0009568799287080765,None,,,,,,,,,29.074074074074076,2018.515997719951,,,,,,,,,,,,,,,,,,,,,,,,,,,,,,,,,,,,,,,,,,,5,m,27,r,MH,,1,2022_Jul_13_1434,2020.2.10,acceptmap-experience,"['Right Face', 'Left Face', 'Right Face', 'Left Face']",59.97652516291054,
,,,,,,,,,,,,,,,,,,,,,,,0.014246880076825619,None,63.51851851851852,2021.0158415203914,,,,,,,,,,,,,,,,,,,,,,,,,,,,,,,,,,,,,,,5,m,27,r,MH,,1,2022_Jul_13_1434,2020.2.10,acceptmap-experience,"['Right Face', 'Left Face', 'Right Face', 'Left Face']",59.97652516291054,
,,,,,,,,,,,,,,,,,,,,,,,,,,,0.014416579622775316,None,50.0,2023.0657855197787,,,,,,,,,,,,,,,,,,,,,,,,,,,,,,,,,,,5,m,27,r,MH,,1,2022_Jul_13_1434,2020.2.10,acceptmap-experience,"['Right Face', 'Left Face', 'Right Face', 'Left Face']",59.97652516291054,
,,,,,,,,,,,,,,,,,,,,,,,,,,,,,,,0.014486480038613081,None,70.4320987654321,2025.032746420242,,,,,,,,,,,,,,,,,,,,,,,,,,,,,,,5,m,27,r,MH,,1,2022_Jul_13_1434,2020.2.10,acceptmap-experience,"['Right Face', 'Left Face', 'Right Face', 'Left Face']",59.97652516291054,
,,,,,,,,,,,,,,,,,,,,,,,,,,,,,,,,,,,0.014199079480022192,None,16.172839506172835,2027.3828938198276,,,,,,,,,,,,,,,,,,,,,,,,,,,5,m,27,r,MH,,1,2022_Jul_13_1434,2020.2.10,acceptmap-experience,"['Right Face', 'Left Face', 'Right Face', 'Left Face']",59.97652516291054,
,,,,,,,,,,,,,,,,,,,,,,,,,,,,,,,,,,,,,,,0.014087580144405365,None,49.1358024691358,2030.0163051201962,,,,,,,,,,,,,,,,,,,,,,,5,m,27,r,MH,,1,2022_Jul_13_1434,2020.2.10,acceptmap-experience,"['Right Face', 'Left Face', 'Right Face', 'Left Face']",59.97652516291054,
,,,,,,,,,,,,,,,,,,,,,,,,,,,,,,,,,,,,,,,,,,,0.014036279637366533,None,-51.851851851851855,2032.4836598201655,,,,,,,,,,,,,,,,,,,5,m,27,r,MH,,1,2022_Jul_13_1434,2020.2.10,acceptmap-experience,"['Right Face', 'Left Face', 'Right Face', 'Left Face']",59.97652516291054,
,,,,,,,,,,,,,,,,,,,,,,,,,,,,,,,,,,,,,,,,,,,,,,,0.013367579784244299,None,0.0,2034.3997205193155,,,,,,,,,,,,,,,5,m,27,r,MH,,1,2022_Jul_13_1434,2020.2.10,acceptmap-experience,"['Right Face', 'Left Face', 'Right Face', 'Left Face']",59.97652516291054,
,,,,,,,,,,,,,,,,,,,,,,,,,,,,,,,,,,,,,,,,,,,,,,,,,,,0.014003580436110497,None,0.0,2035.3830678202212,,,,,,,,,,,5,m,27,r,MH,,1,2022_Jul_13_1434,2020.2.10,acceptmap-experience,"['Right Face', 'Left Face', 'Right Face', 'Left Face']",59.97652516291054,
,,,,,,,,,,,,,,,,,,,,,,,,,,,,,,,,,,,,,,,,,,,,,,,,,,,,,,,0.013995779678225517,None,0.24691358024691112,2039.3827785202302,,,,,,,5,m,27,r,MH,,1,2022_Jul_13_1434,2020.2.10,acceptmap-experience,"['Right Face', 'Left Face', 'Right Face', 'Left Face']",59.97652516291054,
,,,,,,,,,,,,,,,,,,,,,,,,,,,,,,,,,,,,,,,,,,,,,,,,,,,,,,,,,,,0.014315079897642136,None,-100.0,2041.2494418197311,,,5,m,27,r,MH,,1,2022_Jul_13_1434,2020.2.10,acceptmap-experience,"['Right Face', 'Left Face', 'Right Face', 'Left Face']",59.97652516291054,
2200.2936219000258,2200.2936219000258,None,space,39.08769659977406,2200.2936219000258,None,2280.7776599996723,None,22.839506172839506,2261.9324615197256,,,,,,,,,,,,,,,,,,,,,,,,,,,,,,,,,,,,,,,,,,,,,,,,,,,,,0.014358180109411478,None,5,m,27,r,MH,,1,2022_Jul_13_1434,2020.2.10,acceptmap-experience,"['Right Face', 'Left Face', 'Right Face', 'Left Face']",59.97652516291054,
,,,,,,,2308.7945678997785,None,27.77777777777778,2289.7327215196565,0.016596480272710323,5.016023680567741,,,,,,,,,,,,,,,,,,,,,,,,,,,,,,,,,,,,,,,,,,,,,,,,,,,,,5,m,27,r,MH,,1,2022_Jul_13_1434,2020.2.10,acceptmap-experience,"['Right Face', 'Left Face', 'Right Face', 'Left Face']",59.97652516291054,
,,,,,,,2336.8115313998424,None,27.530864197530864,2319.8517083199695,0.016650380101054907,5.016165080014616,,,,,,,,,,,,,,,,,,,,,,,,,,,,,,,,,,,,,,,,,,,,,,,,,,,,,5,m,27,r,MH,,1,2022_Jul_13_1434,2020.2.10,acceptmap-experience,"['Right Face', 'Left Face', 'Right Face', 'Left Face']",59.97652516291054,
,,,,,,,2364.8284197999164,None,23.703703703703706,2345.468148319982,0.014590280130505562,5.012047979980707,,,,,,,,,,,,,,,,,,,,,,,,,,,,,,,,,,,,,,,,,,,,,,,,,,,,,5,m,27,r,MH,,1,2022_Jul_13_1434,2020.2.10,acceptmap-experience,"['Right Face', 'Left Face', 'Right Face', 'Left Face']",59.97652516291054,
,,,,,,,2392.845348400064,None,23.45679012345679,2372.485501919873,0.015051479917019606,5.013093079905957,,,,,,,,,,,,,,,,,,,,,,,,,,,,,,,,,,,,,,,,,,,,,,,,,,,,,5,m,27,r,MH,,1,2022_Jul_13_1434,2020.2.10,acceptmap-experience,"['Right Face', 'Left Face', 'Right Face', 'Left Face']",59.97652516291054,
,,,,,,,2420.862270399928,None,23.333333333333332,2405.2504206201993,0.01459447992965579,5.012011480052024,,,,,,,,,,,,,,,,,,,,,,,,,,,,,,,,,,,,,,,,,,,,,,,,,,,,,5,m,27,r,MH,,1,2022_Jul_13_1434,2020.2.10,acceptmap-experience,"['Right Face', 'Left Face', 'Right Face', 'Left Face']",59.97652516291054,
,,,,,,,2448.8791704000905,None,23.51851851851852,2427.0186746199615,0.016643879935145378,5.016158779617399,,,,,,,,,,,,,,,,,,,,,,,,,,,,,,,,,,,,,,,,,,,,,,,,,,,,,5,m,27,r,MH,,1,2022_Jul_13_1434,2020.2.10,acceptmap-experience,"['Right Face', 'Left Face', 'Right Face', 'Left Face']",59.97652516291054,
,,,,,,,2476.896112599876,None,26.851851851851855,2457.7189289205708,0.015265279915183783,5.013408179860562,,,,,,,,,,,,,,,,,,,,,,,,,,,,,,,,,,,,,,,,,,,,,,,,,,,,,5,m,27,r,MH,,1,2022_Jul_13_1434,2020.2.10,acceptmap-experience,"['Right Face', 'Left Face', 'Right Face', 'Left Face']",59.97652516291054,
,,,,,,,2504.9130154000595,None,31.728395061728392,2487.517829420045,0.015266479458659887,5.01343357982114,,,,,,,,,,,,,,,,,,,,,,,,,,,,,,,,,,,,,,,,,,,,,,,,,,,,,5,m,27,r,MH,,1,2022_Jul_13_1434,2020.2.10,acceptmap-experience,"['Right Face', 'Left Face', 'Right Face', 'Left Face']",59.97652516291054,
,,,,,,,2532.9299375996925,None,28.14814814814815,2515.834734420292,0.01664518006145954,5.0161646800115705,,,,,,,,,,,,,,,,,,,,,,,,,,,,,,,,,,,,,,,,,,,,,,,,,,,,,5,m,27,r,MH,,1,2022_Jul_13_1434,2020.2.10,acceptmap-experience,"['Right Face', 'Left Face', 'Right Face', 'Left Face']",59.97652516291054,
,,,,,,,2560.946873900015,None,27.098765432098766,2539.1707086199895,0.01665527978911996,5.016198080033064,,,,,,,,,,,,,,,,,,,,,,,,,,,,,,,,,,,,,,,,,,,,,,,,,,,,,5,m,27,r,MH,,1,2022_Jul_13_1434,2020.2.10,acceptmap-experience,"['Right Face', 'Left Face', 'Right Face', 'Left Face']",59.97652516291054,
,,,,,,,2588.9637875999324,None,25.432098765432098,2569.268551620189,0.014233179856091738,5.011324079707265,,,,,,,,,,,,,,,,,,,,,,,,,,,,,,,,,,,,,,,,,,,,,,,,,,,,,5,m,27,r,MH,,1,2022_Jul_13_1434,2020.2.10,acceptmap-experience,"['Right Face', 'Left Face', 'Right Face', 'Left Face']",59.97652516291054,
,,,,,,,2616.9807147998363,None,28.641975308641975,2598.9043477200903,0.016688679810613394,5.016186979599297,,,,,,,,,,,,,,,,,,,,,,,,,,,,,,,,,,,,,,,,,,,,,,,,,,,,,5,m,27,r,MH,,1,2022_Jul_13_1434,2020.2.10,acceptmap-experience,"['Right Face', 'Left Face', 'Right Face', 'Left Face']",59.97652516291054,
,,,,,,,2644.9976360998116,None,26.97530864197531,2627.371830120217,0.01448747981339693,5.011899179778993,,,,,,,,,,,,,,,,,,,,,,,,,,,,,,,,,,,,,,,,,,,,,,,,,,,,,5,m,27,r,MH,,1,2022_Jul_13_1434,2020.2.10,acceptmap-experience,"['Right Face', 'Left Face', 'Right Face', 'Left Face']",59.97652516291054,
,,,,,,,2673.01455130009,None,25.925925925925924,2656.069364619907,0.013919579796493053,5.010685780085623,,,,,,,,,,,,,,,,,,,,,,,,,,,,,,,,,,,,,,,,,,,,,,,,,,,,,5,m,27,r,MH,,1,2022_Jul_13_1434,2020.2.10,acceptmap-experience,"['Right Face', 'Left Face', 'Right Face', 'Left Face']",59.97652516291054,
,,,,,,,2701.0314780999906,None,27.283950617283953,2679.9052229197696,0.016657480038702488,5.016189579851925,,,,,,,,,,,,,,,,,,,,,,,,,,,,,,,,,,,,,,,,,,,,,,,,,,,,,5,m,27,r,MH,,1,2022_Jul_13_1434,2020.2.10,acceptmap-experience,"['Right Face', 'Left Face', 'Right Face', 'Left Face']",59.97652516291054,
,,,,,,,,,,,0.014366480056196451,5.011605780106038,0.0,2684.2389601203613,,,,,,,,,,,,,,,,,,,,,,,,,,,,,,,,,,,,,,,,,,,,,,,,,,,5,m,27,r,MH,,1,2022_Jul_13_1434,2020.2.10,acceptmap-experience,"['Right Face', 'Left Face', 'Right Face', 'Left Face']",59.97652516291054,
,,,,,,,,,,,,,,,0.013965779449790716,None,-36.04938271604938,2686.2228447203524,,,,,,,,,,,,,,,,,,,,,,,,,,,,,,,,,,,,,,,,,,,,,,,5,m,27,r,MH,,1,2022_Jul_13_1434,2020.2.10,acceptmap-experience,"['Right Face', 'Left Face', 'Right Face', 'Left Face']",59.97652516291054,
,,,,,,,,,40.74074074074075,2688.518853719812,,,,,,,,,0.01345717953518033,None,,,,,,,,,,,,,,,,,,,,,,,,,,,,,,,,,,,,,,,,,,,,,5,m,27,r,MH,,1,2022_Jul_13_1434,2020.2.10,acceptmap-experience,"['Right Face', 'Left Face', 'Right Face', 'Left Face']",59.97652516291054,
,,,,,,,,,,,0.0006940802559256554,None,,,,,,,,,39.32098765432099,2690.272021820303,,,,,,,,,,,,,,,,,,,,,,,,,,,,,,,,,,,,,,,,,,,5,m,27,r,MH,,1,2022_Jul_13_1434,2020.2.10,acceptmap-experience,"['Right Face', 'Left Face', 'Right Face', 'Left Face']",59.97652516291054,
,,,,,,,,,,,,,,,,,,,,,,,0.014314979780465364,None,50.0,2691.5055520203896,,,,,,,,,,,,,,,,,,,,,,,,,,,,,,,,,,,,,,,5,m,27,r,MH,,1,2022_Jul_13_1434,2020.2.10,acceptmap-experience,"['Right Face', 'Left Face', 'Right Face', 'Left Face']",59.97652516291054,
,,,,,,,,,,,,,,,,,,,,,,,,,,,0.014113079756498337,None,50.0,2693.4052387201227,,,,,,,,,,,,,,,,,,,,,,,,,,,,,,,,,,,5,m,27,r,MH,,1,2022_Jul_13_1434,2020.2.10,acceptmap-experience,"['Right Face', 'Left Face', 'Right Face', 'Left Face']",59.97652516291054,
,,,,,,,,,,,,,,,,,,,,,,,,,,,,,,,0.014456779696047306,None,64.19753086419753,2695.105260320008,,,,,,,,,,,,,,,,,,,,,,,,,,,,,,,5,m,27,r,MH,,1,2022_Jul_13_1434,2020.2.10,acceptmap-experience,"['Right Face', 'Left Face', 'Right Face', 'Left Face']",59.97652516291054,
,,,,,,,,,,,,,,,,,,,,,,,,,,,,,,,,,,,0.014448479749262333,None,20.0,2697.3218866200186,,,,,,,,,,,,,,,,,,,,,,,,,,,5,m,27,r,MH,,1,2022_Jul_13_1434,2020.2.10,acceptmap-experience,"['Right Face', 'Left Face', 'Right Face', 'Left Face']",59.97652516291054,
,,,,,,,,,,,,,,,,,,,,,,,,,,,,,,,,,,,,,,,0.014539879746735096,None,0.0,2698.9555064202286,,,,,,,,,,,,,,,,,,,,,,,5,m,27,r,MH,,1,2022_Jul_13_1434,2020.2.10,acceptmap-experience,"['Right Face', 'Left Face', 'Right Face', 'Left Face']",59.97652516291054,
,,,,,,,,,,,,,,,,,,,,,,,,,,,,,,,,,,,,,,,,,,,0.0142582799308002,None,0.0,2699.339691220317,,,,,,,,,,,,,,,,,,,5,m,27,r,MH,,1,2022_Jul_13_1434,2020.2.10,acceptmap-experience,"['Right Face', 'Left Face', 'Right Face', 'Left Face']",59.97652516291054,
,,,,,,,,,,,,,,,,,,,,,,,,,,,,,,,,,,,,,,,,,,,,,,,0.013390579726547003,None,0.0,2700.039254319854,,,,,,,,,,,,,,,5,m,27,r,MH,,1,2022_Jul_13_1434,2020.2.10,acceptmap-experience,"['Right Face', 'Left Face', 'Right Face', 'Left Face']",59.97652516291054,
,,,,,,,,,,,,,,,,,,,,,,,,,,,,,,,,,,,,,,,,,,,,,,,,,,,0.01386997988447547,None,0.0,2700.705959720537,,,,,,,,,,,5,m,27,r,MH,,1,2022_Jul_13_1434,2020.2.10,acceptmap-experience,"['Right Face', 'Left Face', 'Right Face', 'Left Face']",59.97652516291054,
,,,,,,,,,,,,,,,,,,,,,,,,,,,,,,,,,,,,,,,,,,,,,,,,,,,,,,,0.013825179543346167,None,0.0,2701.9728459203616,,,,,,,5,m,27,r,MH,,1,2022_Jul_13_1434,2020.2.10,acceptmap-experience,"['Right Face', 'Left Face', 'Right Face', 'Left Face']",59.97652516291054,
,,,,,,,,,,,,,,,,,,,,,,,,,,,,,,,,,,,,,,,,,,,,,,,,,,,,,,,,,,,0.013609079644083977,None,-24.320987654320987,2704.9888619198464,,,5,m,27,r,MH,,1,2022_Jul_13_1434,2020.2.10,acceptmap-experience,"['Right Face', 'Left Face', 'Right Face', 'Left Face']",59.97652516291054,
,,,,,,,,,,,,,,,,,,,,,,,,,,,,,,,,,,,,,,,,,,,,,,,,,,,,,,,,,,,,,,,0.014286980032920837,None,,,,,,,,,,,,,
