	SID	date	sex	session	handedness	scanner	onset	duration	repetition	rating	body_site	keys	temperature	conditionrt	mouseclick	biopac_channel	condition	rt	value
0	3108	2025_Feb_19_1109	f	1	r	TS SS	2.7738995999097824	4.994808607036248								19	Instructions		
1	3108	2025_Feb_19_1109	f	1	r	TS SS	8.492362399934791	2.010682900203392								6	Cue		
2	3108	2025_Feb_19_1109	f	1	r	TS SS	10.508451899979264	7.994808650109917								7	Pre-Jitter		
3	3108	2025_Feb_19_1109	f	1	r	TS SS	18.526109599974006	15.00977799994871			Abdomen		48.0			18	Heat-Stimulation		
4	3108	2025_Feb_19_1109	f	1	r	TS SS	33.616559399990365	7.01255089987535								8	Mid-Jitter		
5	3108	2025_Feb_19_1109	f	1	r	TS SS	40.642988899955526	5.0097733999136835								20	PainBinary	1.0858267999719828	1.0
6	3108	2025_Feb_19_1109	f	1	r	TS SS	45.67516430001706	5.012279200018384								21	IntensityRating	1.8335469000739977	51.97530864197532
7	3108	2025_Feb_19_1109	f	1	r	TS SS	50.70415389991831	5.004350199946202								22	ToleranceRating	0.7836101000430062	-1.0
8	3108	2025_Feb_19_1109	f	1	r	TS SS	55.71053889999166	7.008312250021845								9	Post-Q-Jitter		
9	3108	2025_Feb_19_1109	f	1	r	TS SS	64.2054881999502	2.0028978005284443								6	Cue		
10	3108	2025_Feb_19_1109	f	1	r	TS SS	66.20795199996792	3.9970938501646742								7	Pre-Jitter		
11	3108	2025_Feb_19_1109	f	1	r	TS SS	70.24203079997096	14.995863749878481			Abdomen		47.5			18	Heat-Stimulation		
12	3108	2025_Feb_19_1109	f	1	r	TS SS	85.31712349993177	9.012674700003117								8	Mid-Jitter		
13	3108	2025_Feb_19_1109	f	1	r	TS SS	94.34227899997495	5.01243199990131								20	PainBinary	1.1502195000648499	1.0
14	3108	2025_Feb_19_1109	f	1	r	TS SS	99.37426909990609	5.015264000045136								21	IntensityRating	2.18360740004573	41.97530864197531
15	3108	2025_Feb_19_1109	f	1	r	TS SS	104.4049107999308	5.0041016000323								22	ToleranceRating	0.7667815999593586	1.0
16	3108	2025_Feb_19_1109	f	1	r	TS SS	109.41097450000234	9.008785750018433								9	Post-Q-Jitter		
17	3108	2025_Feb_19_1109	f	1	r	TS SS	119.93707350001205	2.0077248002635315								6	Cue		
18	3108	2025_Feb_19_1109	f	1	r	TS SS	121.94186459993944	7.997317650122568								7	Pre-Jitter		
19	3108	2025_Feb_19_1109	f	1	r	TS SS	129.96264729998074	15.006012099911459			Abdomen		47.5			18	Heat-Stimulation		
20	3108	2025_Feb_19_1109	f	1	r	TS SS	145.05042360001244	5.014076999970712								8	Mid-Jitter		
21	3108	2025_Feb_19_1109	f	1	r	TS SS	150.07527359994128	4.997793599963188								20	PainBinary	0.9336748000932857	1.0
22	3108	2025_Feb_19_1109	f	1	r	TS SS	155.09098129998893	4.9998268999625								21	IntensityRating	2.1503157999832183	54.32098765432099
23	3108	2025_Feb_19_1109	f	1	r	TS SS	160.10618309990969	5.002891499898396								22	ToleranceRating	1.7355257000308484	-1.0
24	3108	2025_Feb_19_1109	f	1	r	TS SS	165.1118972999975	5.008257050067186								9	Post-Q-Jitter		
25	3108	2025_Feb_19_1109	f	1	r	TS SS	171.5759701000061	2.0144644004758447								6	Cue		
26	3108	2025_Feb_19_1109	f	1	r	TS SS	173.5926790999947	3.9968315500300378								7	Pre-Jitter		
27	3108	2025_Feb_19_1109	f	1	r	TS SS	177.64797109994106	15.003175700083375			Abdomen		47.0			18	Heat-Stimulation		
28	3108	2025_Feb_19_1109	f	1	r	TS SS	192.73337249993347	5.015971700078808								8	Mid-Jitter		
29	3108	2025_Feb_19_1109	f	1	r	TS SS	197.75988159992266	5.01301729993429								20	PainBinary	1.683586800005287	-1.0
30	3108	2025_Feb_19_1109	f	1	r	TS SS	212.78338339994662	5.006129053188488								9	Post-Q-Jitter		
31	3108	2025_Feb_19_1109	f	1	r	TS SS	219.19234379997943	2.016145450528711								6	Cue		
32	3108	2025_Feb_19_1109	f	1	r	TS SS	221.20971510000527	5.997263850062154								7	Pre-Jitter		
33	3108	2025_Feb_19_1109	f	1	r	TS SS	227.23953479994088	15.004533750005066			Abdomen		47.0			18	Heat-Stimulation		
34	3108	2025_Feb_19_1109	f	1	r	TS SS	242.31834609992802	7.013786700088531								8	Mid-Jitter		
35	3108	2025_Feb_19_1109	f	1	r	TS SS	249.3443571999669	5.011889699962921								20	PainBinary	1.1696570999920368	1.0
36	3108	2025_Feb_19_1109	f	1	r	TS SS	254.37573659990449	4.99924060003832								21	IntensityRating	2.9169657999882475	22.962962962962962
37	3108	2025_Feb_19_1109	f	1	r	TS SS	259.3896358999191	5.0048700999468565								22	ToleranceRating	1.3836411000229418	1.0
38	3108	2025_Feb_19_1109	f	1	r	TS SS	264.3967989999801	7.0074295500526205								9	Post-Q-Jitter		
39	3108	2025_Feb_19_1109	f	1	r	TS SS	272.8825680000009	2.0036409504245967								6	Cue		
40	3108	2025_Feb_19_1109	f	1	r	TS SS	274.8942152999807	5.996157150017098								7	Pre-Jitter		
41	3108	2025_Feb_19_1109	f	1	r	TS SS	280.91043289995287	14.997322899987921			Abdomen		47.0			18	Heat-Stimulation		
42	3108	2025_Feb_19_1109	f	1	r	TS SS	295.9855530000059	7.014044800074771								8	Mid-Jitter		
43	3108	2025_Feb_19_1109	f	1	r	TS SS	303.0105107999407	4.997565600089729								20	PainBinary	2.7674801000393927	1.0
44	3108	2025_Feb_19_1109	f	1	r	TS SS	308.0253103999421	5.001448399969377								21	IntensityRating	3.1503494998905808	26.296296296296294
45	3108	2025_Feb_19_1109	f	1	r	TS SS	313.0398465999169	5.005826000007801								22	ToleranceRating	0.9335889999056235	1.0
46	3108	2025_Feb_19_1109	f	1	r	TS SS	318.04742129996885	7.007446650066413								9	Post-Q-Jitter		
47	3108	2025_Feb_19_1109	f	1	r	TS SS	326.5561342999572	2.0077914505964145								6	Cue		
48	3108	2025_Feb_19_1109	f	1	r	TS SS	328.56106729991734	7.997085149982013								7	Pre-Jitter		
49	3108	2025_Feb_19_1109	f	1	r	TS SS	336.61319629999343	15.00981839990709			Abdomen		47.0			18	Heat-Stimulation		
50	3108	2025_Feb_19_1109	f	1	r	TS SS	351.7034498999128	5.012933699996211								8	Mid-Jitter		
51	3108	2025_Feb_19_1109	f	1	r	TS SS	356.7285611999687	5.012781499885023								20	PainBinary	3.1502634999342263	-1.0
52	3108	2025_Feb_19_1109	f	1	r	TS SS	371.7529268999351	5.004080853192136								9	Post-Q-Jitter		
53	3108	2025_Feb_19_1109	f	1	r	TS SS	376.785436199978	4.666243950021453								26	ComfortRating	4.633679099963047	38.765432098765444
54	3108	2025_Feb_19_1109	f	1	r	TS SS	381.4637838000199	3.359648899990134								24	ValenceRating	3.333608499960974	58.51851851851851
55	3108	2025_Feb_19_1109	f	1	r	TS SS	384.84114839998074	2.5383368999464437								26	IntensityRating	2.51692990004085	61.851851851851855
56	3108	2025_Feb_19_1109	f	1	r	TS SS	387.39598119992297	1.9953640998573974								27	AvoidanceRating	1.9668778999475762	-37.03703703703704
57	3108	2025_Feb_19_1109	f	1	r	TS SS	389.40801949996967	2.0879978999728337								28	RelaxationRating	2.0669228999176994	85.18518518518518
58	3108	2025_Feb_19_1109	f	1	r	TS SS	391.5103051000042	2.43348819995299								29	AttentionRating	2.417437899974175	100.0
59	3108	2025_Feb_19_1109	f	1	r	TS SS	393.95915289991535	1.7191613999893889								30	BoredomRating	1.7003091999795288	14.629629629629628
60	3108	2025_Feb_19_1109	f	1	r	TS SS	395.69169509992935	2.1375273999292403								31	AlertnessRating	2.117121099960059	82.22222222222223
61	3108	2025_Feb_19_1109	f	1	r	TS SS	397.84248190000653	2.552613899926655								32	PosThxRating	2.5337711999891326	-21.48148148148148
62	3108	2025_Feb_19_1109	f	1	r	TS SS	400.40898589999415	2.8030289999442175								33	NegThxRating	2.783727500005625	-64.19753086419752
63	3108	2025_Feb_19_1109	f	1	r	TS SS	403.2256690999493	2.236385600059293								34	SelfRating	2.2170798999723047	90.24691358024691
64	3108	2025_Feb_19_1109	f	1	r	TS SS	405.47594449995086	2.6691809999756515								35	OtherRating	2.636065899976529	-89.62962962962963
65	3108	2025_Feb_19_1109	f	1	r	TS SS	408.1594616000075	4.752240999951027								32	ImageryRating	4.733706699917093	15.06172839506172
66	3108	2025_Feb_19_1109	f	1	r	TS SS	412.9287027999526	2.0305348999099806								37	PresentRating	2.0002990999491885	39.50617283950618
