	SID	date	sex	session	handedness	scanner	onset	duration	repetition	rating	body_site	keys	temperature	conditionrt	mouseclick	biopac_channel	condition	rt	value
0	2270	2023_Mar_05_1032	f	1	r	MS MH	2.774475899990648	5.015282565029338								19	Instructions		
1	2270	2023_Mar_05_1032	f	1	r	MS MH	8.674728899961337	2.01344420039095								6	Cue		
2	2270	2023_Mar_05_1032	f	1	r	MS MH	10.68547090003267	8.008674779906869								7	Pre-Jitter		
3	2270	2023_Mar_05_1032	f	1	r	MS MH	18.750018700025976	14.9965544200968			Right Arm		48.0			14	Heat-Stimulation		
4	2270	2023_Mar_05_1032	f	1	r	MS MH	33.82985639991239	7.003797380020842								8	Mid-Jitter		
5	2270	2023_Mar_05_1032	f	1	r	MS MH	40.85197479999624	5.009657260030508								20	PainBinary	1.0835220001172274	1.0
6	2270	2023_Mar_05_1032	f	1	r	MS MH	45.88537799986079	5.009635060094297								21	IntensityRating	2.6002589999698102	57.22222222222223
7	2270	2023_Mar_05_1032	f	1	r	MS MH	50.91488839988597	5.000689360080287								22	ToleranceRating	2.4670789998490363	-1.0
8	2270	2023_Mar_05_1032	f	1	r	MS MH	55.92052159993909	7.006210780004039								9	Post-Q-Jitter		
9	2270	2023_Mar_05_1032	f	1	r	MS MH	64.4848028998822	2.0112010203301907								6	Cue		
10	2270	2023_Mar_05_1032	f	1	r	MS MH	66.50043609994464	3.9965250801760703								7	Pre-Jitter		
11	2270	2023_Mar_05_1032	f	1	r	MS MH	70.53175229998305	15.00074623990804			Right Arm		47.5			14	Heat-Stimulation		
12	2270	2023_Mar_05_1032	f	1	r	MS MH	85.61108109983616	7.0089047802612185								8	Mid-Jitter		
13	2270	2023_Mar_05_1032	f	1	r	MS MH	92.63731629983522	5.006586860166863								20	PainBinary	1.5168820000253618	1.0
14	2270	2023_Mar_05_1032	f	1	r	MS MH	97.66862179990858	5.01078165974468								21	IntensityRating	3.383337599923834	38.148148148148145
15	2270	2023_Mar_05_1032	f	1	r	MS MH	102.69872329989448	5.000696160132065								22	ToleranceRating	2.2169729999732226	-1.0
16	2270	2023_Mar_05_1032	f	1	r	MS MH	107.70418849983253	7.006539579946548								9	Post-Q-Jitter		
17	2270	2023_Mar_05_1032	f	1	r	MS MH	115.35718959989026	2.0006943200714886								6	Cue		
18	2270	2023_Mar_05_1032	f	1	r	MS MH	117.36746189999394	3.9968079801183194								7	Pre-Jitter		
19	2270	2023_Mar_05_1032	f	1	r	MS MH	121.44402719987556	15.010565879987553			Right Arm		47.0			14	Heat-Stimulation		
20	2270	2023_Mar_05_1032	f	1	r	MS MH	136.5310549000278	9.003424280090258								8	Mid-Jitter		
21	2270	2023_Mar_05_1032	f	1	r	MS MH	145.55564859998412	5.004392059985548								20	PainBinary	1.435330200009048	1.0
22	2270	2023_Mar_05_1032	f	1	r	MS MH	150.58548609982245	5.01146815973334								21	IntensityRating	3.016669000033289	29.938271604938272
23	2270	2023_Mar_05_1032	f	1	r	MS MH	155.6170032999944	4.998543560039252								22	ToleranceRating	3.0003536001313478	-1.0
24	2270	2023_Mar_05_1032	f	1	r	MS MH	160.62139679980464	9.006550679914653								9	Post-Q-Jitter		
25	2270	2023_Mar_05_1032	f	1	r	MS MH	170.29329219995998	2.0129268802702427								6	Cue		
26	2270	2023_Mar_05_1032	f	1	r	MS MH	172.30218699993566	7.995141479885206								7	Pre-Jitter		
27	2270	2023_Mar_05_1032	f	1	r	MS MH	180.338367999997	15.006328839808702			Right Arm		46.5			14	Heat-Stimulation		
28	2270	2023_Mar_05_1032	f	1	r	MS MH	195.4312171000056	5.004207680001855								8	Mid-Jitter		
29	2270	2023_Mar_05_1032	f	1	r	MS MH	200.4549912000075	5.006795859895647								20	PainBinary	1.8839020000305027	1.0
30	2270	2023_Mar_05_1032	f	1	r	MS MH	205.48612439981662	5.011255060089752								21	IntensityRating	4.650074200006202	19.753086419753085
31	2270	2023_Mar_05_1032	f	1	r	MS MH	210.51662310003303	5.000353160081431								22	ToleranceRating	1.086133300093934	1.0
32	2270	2023_Mar_05_1032	f	1	r	MS MH	215.52238979982212	5.005574979819357								9	Post-Q-Jitter		
33	2270	2023_Mar_05_1032	f	1	r	MS MH	221.20539999986067	2.0063420804217458								6	Cue		
34	2270	2023_Mar_05_1032	f	1	r	MS MH	223.21819339995272	5.997462579980493								7	Pre-Jitter		
35	2270	2023_Mar_05_1032	f	1	r	MS MH	229.27086719986983	15.008991519920528			Right Arm		46.5			14	Heat-Stimulation		
36	2270	2023_Mar_05_1032	f	1	r	MS MH	244.36161160003394	9.011100579984486								8	Mid-Jitter		
37	2270	2023_Mar_05_1032	f	1	r	MS MH	253.3883918998763	5.007667359896004								20	PainBinary	1.7000172000844032	1.0
38	2270	2023_Mar_05_1032	f	1	r	MS MH	258.42019469989464	5.010829459875822								21	IntensityRating	4.08509760000743	17.098765432098766
39	2270	2023_Mar_05_1032	f	1	r	MS MH	263.44979969994165	5.0017149602063								22	ToleranceRating	1.7003574001137167	1.0
40	2270	2023_Mar_05_1032	f	1	r	MS MH	268.45593169983476	9.00623437995091								9	Post-Q-Jitter		
41	2270	2023_Mar_05_1032	f	1	r	MS MH	278.1167762000114	2.0180821001995355								6	Cue		
42	2270	2023_Mar_05_1032	f	1	r	MS MH	280.1364694000222	3.9953376799821854								7	Pre-Jitter		
43	2270	2023_Mar_05_1032	f	1	r	MS MH	284.1830291999504	15.002415820024908			Right Arm		46.5			14	Heat-Stimulation		
44	2270	2023_Mar_05_1032	f	1	r	MS MH	299.26065630000085	9.014037679880857								8	Mid-Jitter		
45	2270	2023_Mar_05_1032	f	1	r	MS MH	308.28860109997913	5.008322659879923								20	PainBinary	1.5665870998054743	1.0
46	2270	2023_Mar_05_1032	f	1	r	MS MH	313.3207628999371	5.010793559951708								21	IntensityRating	4.86669069994241	18.333333333333336
47	2270	2023_Mar_05_1032	f	1	r	MS MH	318.3508405999746	5.0006901600863785								22	ToleranceRating	3.3172987999860197	1.0
48	2270	2023_Mar_05_1032	f	1	r	MS MH	323.3564000998158	9.006373079959303								9	Post-Q-Jitter		
49	2270	2023_Mar_05_1032	f	1	r	MS MH	333.8970297998749	2.0087833404541016								6	Cue		
50	2270	2023_Mar_05_1032	f	1	r	MS MH	335.90373989986256	5.995298080146313								7	Pre-Jitter		
51	2270	2023_Mar_05_1032	f	1	r	MS MH	341.92209779983386	15.008775260066614			Right Arm		46.5			14	Heat-Stimulation		
52	2270	2023_Mar_05_1032	f	1	r	MS MH	357.0137727998663	9.008993980009109								8	Mid-Jitter		
53	2270	2023_Mar_05_1032	f	1	r	MS MH	366.03893449995667	5.008786559803411								20	PainBinary	1.3165740000549704	1.0
54	2270	2023_Mar_05_1032	f	1	r	MS MH	371.0714184998069	5.010609859833494								21	IntensityRating	3.8854926999192685	24.19753086419753
55	2270	2023_Mar_05_1032	f	1	r	MS MH	376.10150199988857	5.000551460077986								22	ToleranceRating	2.1503192998934537	-1.0
56	2270	2023_Mar_05_1032	f	1	r	MS MH	381.10719809983857	9.005932080093771								9	Post-Q-Jitter		
57	2270	2023_Mar_05_1032	f	1	r	MS MH	390.1458222998772	6.395527740009129								26	ComfortRating	6.367589199915528	12.839506172839506
58	2270	2023_Mar_05_1032	f	1	r	MS MH	396.5591802999843	7.435577760217711								24	ValenceRating	7.4169624000787735	68.88888888888887
59	2270	2023_Mar_05_1032	f	1	r	MS MH	404.0186905998271	3.150101960171014								26	IntensityRating	3.133688500151038	71.35802469135803
60	2270	2023_Mar_05_1032	f	1	r	MS MH	407.1875521999318	3.045782360015437								27	AvoidanceRating	3.0169209998566657	17.777777777777786
61	2270	2023_Mar_05_1032	f	1	r	MS MH	410.2504279999994	3.853336959844455								28	RelaxationRating	3.833579999860376	57.46913580246914
62	2270	2023_Mar_05_1032	f	1	r	MS MH	414.12062089983374	4.496371460147202								29	AttentionRating	4.466713399859145	58.2716049382716
63	2270	2023_Mar_05_1032	f	1	r	MS MH	418.6340266999323	3.553067959845066								30	BoredomRating	3.534041700186208	36.97530864197531
64	2270	2023_Mar_05_1032	f	1	r	MS MH	422.20384539989755	4.380191559903324								31	AlertnessRating	4.367517200065777	-21.111111111111114
65	2270	2023_Mar_05_1032	f	1	r	MS MH	426.603097199928	3.2984944600611925								32	PosThxRating	3.284316999837756	35.925925925925924
66	2270	2023_Mar_05_1032	f	1	r	MS MH	429.91991309984587	2.614929459989071								33	NegThxRating	2.600322099868208	-21.111111111111114
67	2270	2023_Mar_05_1032	f	1	r	MS MH	432.55233269999735	4.033407459966838								34	SelfRating	4.017015199875459	46.419753086419746
68	2270	2023_Mar_05_1032	f	1	r	MS MH	436.6024056999013	1.7999535598792136								35	OtherRating	1.783692300086841	-35.55555555555556
69	2270	2023_Mar_05_1032	f	1	r	MS MH	438.42048369999975	3.8138634597416967								32	ImageryRating	3.8011084001045674	10.617283950617278
70	2270	2023_Mar_05_1032	f	1	r	MS MH	442.25541009986773	4.227416960289702								37	PresentRating	4.200085199903697	18.024691358024697
