	SID	date	sex	session	handedness	scanner	onset	duration	repetition	rating	body_site	keys	temperature	conditionrt	mouseclick	biopac_channel	condition	rt	value
0	3169	2025_Jul_30_1829	f	1	r	ss sw	2.7728361000772566	5.010469653410837								19	Instructions		
1	3169	2025_Jul_30_1829	f	1	r	ss sw	9.225000600097701	2.008130278205499								6	Cue		
2	3169	2025_Jul_30_1829	f	1	r	ss sw	11.243319500004873	4.008791739819571								7	Pre-Jitter		
3	3169	2025_Jul_30_1829	f	1	r	ss sw	15.289840399986133	15.009720419766381			Chest		48.0			17	Heat-Stimulation		
4	3169	2025_Jul_30_1829	f	1	r	ss sw	30.380289500113577	7.0158364397939295								8	Mid-Jitter		
5	3169	2025_Jul_30_1829	f	1	r	ss sw	37.407253000186756	5.00015827990137								20	PainBinary	1.137261399999261	1.0
6	3169	2025_Jul_30_1829	f	1	r	ss sw	42.42621239996515	5.0107867799233645								21	IntensityRating	2.4275854998268187	77.58333333333334
7	3169	2025_Jul_30_1829	f	1	r	ss sw	47.45357000012882	5.004672280047089								22	ToleranceRating	2.0400958999525756	-1.0
8	3169	2025_Jul_30_1829	f	1	r	ss sw	52.460194600047544	7.012910340214148								9	Post-Q-Jitter		
9	3169	2025_Jul_30_1829	f	1	r	ss sw	60.939040600089356	2.008275917964056								6	Cue		
10	3169	2025_Jul_30_1829	f	1	r	ss sw	62.9568292000331	4.010158539982513								7	Pre-Jitter		
11	3169	2025_Jul_30_1829	f	1	r	ss sw	67.0179849001579	15.015091859735548			Chest		47.5			17	Heat-Stimulation		
12	3169	2025_Jul_30_1829	f	1	r	ss sw	82.10812320001423	7.0217531400267035								8	Mid-Jitter		
13	3169	2025_Jul_30_1829	f	1	r	ss sw	89.13864980009384	4.999010379891843								20	PainBinary	1.5218485000077635	1.0
14	3169	2025_Jul_30_1829	f	1	r	ss sw	94.15524250012822	4.99765658006072								21	IntensityRating	2.725659399991855	71.66666666666667
15	3169	2025_Jul_30_1829	f	1	r	ss sw	99.16864520008676	5.002706179860979								22	ToleranceRating	1.220815199892968	-1.0
16	3169	2025_Jul_30_1829	f	1	r	ss sw	104.17332560010254	7.014819339616224								9	Post-Q-Jitter		
17	3169	2025_Jul_30_1829	f	1	r	ss sw	112.6759232999757	2.0127835981547832								6	Cue		
18	3169	2025_Jul_30_1829	f	1	r	ss sw	114.68752870010212	4.010263740085065								7	Pre-Jitter		
19	3169	2025_Jul_30_1829	f	1	r	ss sw	118.75130310002714	15.010081860003993			Chest		47.0			17	Heat-Stimulation		
20	3169	2025_Jul_30_1829	f	1	r	ss sw	133.8391901999712	7.0213175397366285								8	Mid-Jitter		
21	3169	2025_Jul_30_1829	f	1	r	ss sw	140.8696586000733	4.99860938009806								20	PainBinary	1.07038539997302	1.0
22	3169	2025_Jul_30_1829	f	1	r	ss sw	145.88492750003934	4.999930480029434								21	IntensityRating	2.3745671999640763	58.416666666666664
23	3169	2025_Jul_30_1829	f	1	r	ss sw	150.89883040008135	5.003953279927373								22	ToleranceRating	0.9034834001213312	-1.0
24	3169	2025_Jul_30_1829	f	1	r	ss sw	155.90484840003774	7.013401340227574								9	Post-Q-Jitter		
25	3169	2025_Jul_30_1829	f	1	r	ss sw	164.33111890009604	2.0136210981290787								6	Cue		
26	3169	2025_Jul_30_1829	f	1	r	ss sw	166.35130030009896	4.010590040124953								7	Pre-Jitter		
27	3169	2025_Jul_30_1829	f	1	r	ss sw	170.3893964001909	15.02833301993087			Chest		46.5			17	Heat-Stimulation		
28	3169	2025_Jul_30_1829	f	1	r	ss sw	185.48652310017496	5.014705040026456								8	Mid-Jitter		
29	3169	2025_Jul_30_1829	f	1	r	ss sw	190.51055280002765	4.9985456799622625								20	PainBinary	1.1874996998813003	1.0
30	3169	2025_Jul_30_1829	f	1	r	ss sw	195.52711810008623	4.9972663801163435								21	IntensityRating	1.6734380999114364	56.08333333333334
31	3169	2025_Jul_30_1829	f	1	r	ss sw	200.54126680013724	5.000800780020654								22	ToleranceRating	1.0391751001589	-1.0
32	3169	2025_Jul_30_1829	f	1	r	ss sw	205.54553840006702	5.007380239898339								9	Post-Q-Jitter		
33	3169	2025_Jul_30_1829	f	1	r	ss sw	212.0789972001221	2.020820677978918								6	Cue		
34	3169	2025_Jul_30_1829	f	1	r	ss sw	214.10330509999767	5.999326840043068								7	Pre-Jitter		
35	3169	2025_Jul_30_1829	f	1	r	ss sw	220.11754350014962	15.02093727979809			Chest		46.0			17	Heat-Stimulation		
36	3169	2025_Jul_30_1829	f	1	r	ss sw	235.2117559001781	7.019543839851394								8	Mid-Jitter		
37	3169	2025_Jul_30_1829	f	1	r	ss sw	242.24245210015215	4.996387779945508								20	PainBinary	1.1205056998878717	1.0
38	3169	2025_Jul_30_1829	f	1	r	ss sw	247.25643420009874	5.00025397981517								21	IntensityRating	1.3547213999554515	51.25000000000001
39	3169	2025_Jul_30_1829	f	1	r	ss sw	252.26949850004166	5.005970079917461								22	ToleranceRating	1.8394281999208033	1.0
40	3169	2025_Jul_30_1829	f	1	r	ss sw	257.2762675001286	7.01389994006604								9	Post-Q-Jitter		
41	3169	2025_Jul_30_1829	f	1	r	ss sw	265.6667016001884	2.0189698182512075								6	Cue		
42	3169	2025_Jul_30_1829	f	1	r	ss sw	267.6892902001273	4.011125440010801								7	Pre-Jitter		
43	3169	2025_Jul_30_1829	f	1	r	ss sw	271.74444909999147	15.028112060157582			Chest		46.0			17	Heat-Stimulation		
44	3169	2025_Jul_30_1829	f	1	r	ss sw	286.8415729000699	9.02726553985849								8	Mid-Jitter		
45	3169	2025_Jul_30_1829	f	1	r	ss sw	295.87963240011595	4.995801480021328								20	PainBinary	1.0874804998748004	1.0
46	3169	2025_Jul_30_1829	f	1	r	ss sw	300.89484270010144	4.997193979797885								21	IntensityRating	1.438407399924472	51.583333333333336
47	3169	2025_Jul_30_1829	f	1	r	ss sw	305.90848970017396	5.001722179818898								22	ToleranceRating	1.2877433998510242	-1.0
48	3169	2025_Jul_30_1829	f	1	r	ss sw	310.9135790001601	9.019411539891735								9	Post-Q-Jitter		
49	3169	2025_Jul_30_1829	f	1	r	ss sw	320.67698420002125	2.0148811992257833								6	Cue		
50	3169	2025_Jul_30_1829	f	1	r	ss sw	322.6972289001569	8.00696784001775								7	Pre-Jitter		
51	3169	2025_Jul_30_1829	f	1	r	ss sw	330.7696797000244	15.018835700117052			Chest		45.5			17	Heat-Stimulation		
52	3169	2025_Jul_30_1829	f	1	r	ss sw	345.8621929001529	5.01453603990376								8	Mid-Jitter		
53	3169	2025_Jul_30_1829	f	1	r	ss sw	350.8873087000102	4.996209179982543								20	PainBinary	1.5887581000570208	1.0
54	3169	2025_Jul_30_1829	f	1	r	ss sw	355.90338660008274	5.012581879971549								21	IntensityRating	1.5886735999956727	47.16666666666667
55	3169	2025_Jul_30_1829	f	1	r	ss sw	360.9320269001182	5.003936180146411								22	ToleranceRating	1.1540147999767214	1.0
56	3169	2025_Jul_30_1829	f	1	r	ss sw	365.9384868000634	5.006131839705631								9	Post-Q-Jitter		
57	3169	2025_Jul_30_1829	f	1	r	ss sw	370.9730043001473	3.5979867798741907								26	ComfortRating	3.5782792000100017	-34.83333333333333
58	3169	2025_Jul_30_1829	f	1	r	ss sw	374.5965899999719	1.6509542798157781								24	ValenceRating	1.6220537999179214	65.75
59	3169	2025_Jul_30_1829	f	1	r	ss sw	376.26500290003605	1.206624980084598								26	IntensityRating	1.187382800038904	66.91666666666666
60	3169	2025_Jul_30_1829	f	1	r	ss sw	377.4856816001702	1.992187179857865								27	AvoidanceRating	1.9732144998852164	44.5
61	3169	2025_Jul_30_1829	f	1	r	ss sw	379.48889670008793	2.065353679936379								28	RelaxationRating	2.0400884998962283	41.416666666666664
62	3169	2025_Jul_30_1829	f	1	r	ss sw	381.5673607001081	1.5031926799565554								29	AttentionRating	1.4883222999051213	65.5
63	3169	2025_Jul_30_1829	f	1	r	ss sw	383.0859362001065	1.1913611800409853								30	BoredomRating	1.1706922999583185	40.666666666666664
64	3169	2025_Jul_30_1829	f	1	r	ss sw	384.2889034000691	1.259923379868269								31	AlertnessRating	1.2375580000225455	23.16666666666667
65	3169	2025_Jul_30_1829	f	1	r	ss sw	385.55958070000634	1.1596429799683392								32	PosThxRating	1.1372765998821706	-21.833333333333343
66	3169	2025_Jul_30_1829	f	1	r	ss sw	386.731499500107	0.8221558800432831								33	NegThxRating	0.80282670003362	24.666666666666686
67	3169	2025_Jul_30_1829	f	1	r	ss sw	387.5658490001224	0.8755996800027788								34	SelfRating	0.8391834998037666	-18.0
68	3169	2025_Jul_30_1829	f	1	r	ss sw	388.4528537001461	0.8404687799047679								35	OtherRating	0.8195938998833299	18.33333333333333
69	3169	2025_Jul_30_1829	f	1	r	ss sw	389.30531430011615	1.2589282798580825								32	ImageryRating	1.2379236000124365	-19.66666666666667
70	3169	2025_Jul_30_1829	f	1	r	ss sw	390.5798536001239	1.0338726800400764								37	PresentRating	1.02018680004403	18.33333333333333
