	onset	duration	rt	response	correct	bodySite	temperature	condition	pretrial-jitter
0	9.75765380001394	20.01367198996013				Left Face	32.0	Rest-NoStim	7.0
1	29.7576820999966	5.013836789992638				Left Face		PostTrialFixation	
2	39.75769070000388	20.014139190025162				Left Face	32.0	Rest-NoStim	5.0
3	59.75872079998953	7.012319490080699				Left Face		PostTrialFixation	
4	69.75870360003319	20.012679090024903				Left Face	32.0	Rest-NoStim	3.0
5	89.75872490002075	7.012954189965967				Left Face		PostTrialFixation	
6	96.82792170002358	101.84231189999264				Left Face	32.0	2back Instructions	
7	104.87098720000358	1.9886040900601074			1.0	Left Face	49.0	2back-stim	
8	106.87939349998487	2.005213590047788			1.0	Left Face	49.0	2back-stim	3.0
9	108.89501799998106	2.007345490041189	0.0	2.0	1.0	Left Face	49.0	2back-stim	
10	110.91183880000608	2.007034190057311	0.0	2.0	1.0	Left Face	49.0	2back-stim	
11	112.96495180000784	1.967442570021376	0.0	2.0	0.0	Left Face	49.0	2back-stim	
12	114.94531909999205	2.0067889900528826	0.0	2.0	1.0	Left Face	49.0	2back-stim	
13	116.96176219999325	2.0072906900313683	0.46700040000723675	0.0	1.0	Left Face	49.0	2back-stim	
14	118.97841829998652	2.007308189989999	0.0	2.0	1.0	Left Face	49.0	2back-stim	
15	120.99507400003495	2.0074175900081173	0.0	2.0	0.0	Left Face	49.0	2back-stim	
16	123.01170849998016	2.0075654900283553	0.8503240999998525	0.0	1.0	Left Face	49.0	2back-stim	
17	132.06140010000672	5.008373190066777		51.17283950617284		Left Face	49.0	2back-stim Rating	7.0
18	137.07047129998682	142.09114089998184				Left Face	32.0	2back Instructions	
19	145.1207014999818	1.9899005900369957			1.0	Left Face	49.0	2back-stim	
20	147.12964920001104	2.0054393900209107			1.0	Left Face	49.0	2back-stim	3.0
21	149.14540540002054	2.007283989980351	0.617010299989488	0.0	1.0	Left Face	49.0	2back-stim	
22	151.16211059998022	2.007274990028236	0.0	2.0	1.0	Left Face	49.0	2back-stim	
23	153.24162859999342	1.9482217500335537	0.0	2.0	1.0	Left Face	49.0	2back-stim	
24	155.19553379999707	2.0071088900440373	0.0	2.0	1.0	Left Face	49.0	2back-stim	
25	157.21212769998237	2.0073535900446586	0.6836942000081763	0.0	1.0	Left Face	49.0	2back-stim	
26	159.22875890001887	2.007397490029689	0.0	2.0	0.0	Left Face	49.0	2back-stim	
27	161.24547700001858	2.0073282899684273	1.1338815999915823	0.0	1.0	Left Face	49.0	2back-stim	
28	163.26203220000025	2.0076165900100023	0.0	2.0	1.0	Left Face	49.0	2back-stim	
29	172.2952802000218	5.008258290006779		50.802469135802475		Left Face	49.0	2back-stim Rating	7.0
30	177.30487190000713	182.32491219998337				Left Face	32.0	2back Instructions	
31	185.35406640003202	1.9906022899667732			1.0	Left Face	49.0	2back-stim	
32	187.3633471999783	2.005352690059226			1.0	Left Face	49.0	2back-stim	3.0
33	189.37930710002547	2.006853390019387	0.9170297999517061	0.0	1.0	Left Face	49.0	2back-stim	
34	191.39567310002167	2.0074973899754696	0.0	2.0	1.0	Left Face	49.0	2back-stim	
35	193.44924809999065	1.9671035700594075	0.0	2.0	1.0	Left Face	49.0	2back-stim	
36	195.4290785000194	2.0075407900149003	0.0	2.0	1.0	Left Face	49.0	2back-stim	
37	197.44637130002957	2.006241789960768	0.6836355000268668	0.0	1.0	Left Face	49.0	2back-stim	
38	199.46248350001406	2.0073851899942383	0.0	2.0	1.0	Left Face	49.0	2back-stim	
39	201.4792058999883	2.0073200900806114	0.6022721999906935	0.0	0.0	Left Face	49.0	2back-stim	
40	203.49592140002642	2.007246689987369	0.7855939000146464	0.0	1.0	Left Face	49.0	2back-stim	
41	210.512461300008	5.0079705900279805		25.123456790123456		Left Face	49.0	2back-stim Rating	5.0
42	220.5248178000329	19.99995189002948				Left Face	49.0	Rest-Stim	5.0
43	240.52498899999773	6.99979389004875				Left Face		PostTrialFixation	
44	247.5254887000192	5.015753490035422		37.098765432098766		Left Face	49.0	Rest-Stim Rating	7.0
45	255.54181279998738	19.99992709007347				Left Face	49.0	Rest-Stim	3.0
46	275.54200070002116	3.0163476900197566				Left Face		PostTrialFixation	
47	278.54432019998785	5.011865690059494		37.160493827160494		Left Face	49.0	Rest-Stim Rating	3.0
48	290.5588349000318	19.999898090027273				Left Face	49.0	Rest-Stim	7.0
49	310.559058999992	3.016318990092259				Left Face		PostTrialFixation	
50	313.56136639998294	5.01174449006794		38.88888888888889		Left Face	49.0	Rest-Stim Rating	3.0
51	318.5721125000273	323.592823199986				Left Face	49.0	2back Instructions	
52	330.6083227000199	1.9848299900768325			1.0	Left Face	32.0	2back-nostim	
53	332.615040100005	2.004831189988181			1.0	Left Face	32.0	2back-nostim	7.0
54	334.6303742000018	2.00756168999942	0.0	2.0	1.0	Left Face	32.0	2back-nostim	
55	336.6474101000349	2.006825890042819	0.0	2.0	1.0	Left Face	32.0	2back-nostim	
56	338.66382930002874	2.0073380900430493	0.8172794999554753	0.0	1.0	Left Face	32.0	2back-nostim	
57	340.680601900036	2.007141189998947	0.0	2.0	0.0	Left Face	32.0	2back-nostim	
58	342.69742819998646	2.006938490027096	0.0	2.0	1.0	Left Face	32.0	2back-nostim	
59	344.7138011000352	2.0074601899832487	0.0	2.0	1.0	Left Face	32.0	2back-nostim	
60	346.73047479998786	2.0075042900862172	0.0	2.0	1.0	Left Face	32.0	2back-nostim	
61	348.74776679999195	2.0063228900544345	0.9836862000520341	0.0	1.0	Left Face	32.0	2back-nostim	
62	355.77413670002716	360.79273500002455				Left Face	49.0	2back Instructions	
63	365.80827049998334	1.9856580900377594			1.0	Left Face	32.0	2back-nostim	
64	367.81510350003373	2.005353889951948			1.0	Left Face	32.0	2back-nostim	5.0
65	369.83088060002774	2.007145289971959	0.0	2.0	1.0	Left Face	32.0	2back-nostim	
66	371.8476848999853	2.0068836900172755	0.0	2.0	1.0	Left Face	32.0	2back-nostim	
67	373.8642514999956	2.0071378900902346	1.0338942999951541	0.0	1.0	Left Face	32.0	2back-nostim	
68	375.8816654999973	2.005673890002072	1.2169930000090972	0.0	0.0	Left Face	32.0	2back-nostim	
69	377.897744100017	2.0068588900612667	0.0	2.0	1.0	Left Face	32.0	2back-nostim	
70	379.91444530000445	2.006880489992909	0.9195662999991328	0.0	1.0	Left Face	32.0	2back-nostim	
71	381.9311083999928	2.0068455900764093	0.0	2.0	1.0	Left Face	32.0	2back-nostim	
72	383.9476863000309	2.007088090002071	0.8169897000188939	0.0	0.0	Left Face	32.0	2back-nostim	
73	388.9911655000178	394.00970779999625				Left Face	49.0	2back Instructions	
74	401.022890000022	1.9903385899960995			1.0	Left Face	32.0	2back-nostim	
75	403.0321247000247	2.0053249900229275			1.0	Left Face	32.0	2back-nostim	7.0
76	405.0478976999875	2.007137290085666	0.7336438000202179	0.0	1.0	Left Face	32.0	2back-nostim	
77	407.06463879998773	2.0070207900134847	0.0	2.0	1.0	Left Face	32.0	2back-nostim	
78	409.0812230000156	2.007212190015707	0.0	2.0	1.0	Left Face	32.0	2back-nostim	
79	411.0978883000207	2.007228890026454	0.0	2.0	1.0	Left Face	32.0	2back-nostim	
80	413.11443170002894	2.0075070899911225	0.0	2.0	1.0	Left Face	32.0	2back-nostim	
81	415.13118159997975	2.0073069899808615	0.0	2.0	1.0	Left Face	32.0	2back-nostim	
82	417.1479071000358	2.007289490022231	0.8170184000045992	0.0	1.0	Left Face	32.0	2back-nostim	
83	419.1646377000143	2.0072148900362663	0.0	2.0	1.0	Left Face	32.0	2back-nostim	
84	431.22678379999707	19.999945190094877				Left Face	49.0	Rest-Stim	7.0
85	451.2269793000305	5.01640528999269				Left Face		PostTrialFixation	
86	456.22950670000864	5.01157209003577		37.901234567901234		Left Face	49.0	Rest-Stim Rating	5.0
87	466.24380850000307	19.999947689997498				Left Face	49.0	Rest-Stim	5.0
88	486.24406240001554	3.016305689990986				Left Face		PostTrialFixation	
89	489.2465351999854	5.011462790018413		41.79012345679013		Left Face	49.0	Rest-Stim Rating	3.0
90	501.26078800001414	19.99995869002305				Left Face	49.0	Rest-Stim	7.0
91	521.2610091000097	5.016419089981355				Left Face		PostTrialFixation	
92	526.263634300034	5.011331390007399		40.30864197530864		Left Face	49.0	Rest-Stim Rating	5.0
93	531.2751489999937	536.2948247999884				Left Face	32.0	2back Instructions	
94	541.324059400009	1.9906535900663584			1.0	Left Face	49.0	2back-stim	
95	543.333711299987	2.004734490008559			1.0	Left Face	49.0	2back-stim	5.0
96	545.3492453999934	2.007090590079315	0.0	2.0	1.0	Left Face	49.0	2back-stim	
97	547.3657174999826	2.00745509006083	0.7337008999893442	0.0	1.0	Left Face	49.0	2back-stim	
98	549.4434021000052	1.9354518599575385	0.0	2.0	1.0	Left Face	49.0	2back-stim	
99	551.3993280000286	2.00707108998904	0.0	2.0	1.0	Left Face	49.0	2back-stim	
100	553.4160170999821	2.0070559899904765	0.0	2.0	1.0	Left Face	49.0	2back-stim	
101	555.4327535000048	2.0069565899902955	0.9532317999983206	0.0	1.0	Left Face	49.0	2back-stim	
102	557.4493625999894	2.007091690087691	0.0	2.0	1.0	Left Face	49.0	2back-stim	
103	559.4663767000311	2.006404189975001	0.7336256999988109	0.0	1.0	Left Face	49.0	2back-stim	
104	566.4993703000364	5.007472790020984		25.061728395061728		Left Face	49.0	2back-stim Rating	5.0
105	571.5085519999848	576.5285869999789				Left Face	32.0	2back Instructions	
106	581.5580298000132	1.9900876900646836			1.0	Left Face	49.0	2back-stim	
107	583.5671985999797	2.0052625900134444			1.0	Left Face	49.0	2back-stim	5.0
108	585.5827885000035	2.0074068900430575	0.7170229000039399	0.0	1.0	Left Face	49.0	2back-stim	
109	587.5993585999822	2.0076144900522195	0.0	2.0	1.0	Left Face	49.0	2back-stim	
110	589.6680379000027	1.9536563600413501	0.6165658999816515	0.0	1.0	Left Face	49.0	2back-stim	
111	591.6328343999921	2.007403890020214	0.0	2.0	1.0	Left Face	49.0	2back-stim	
112	593.6496765000047	2.0070916900294833	0.0	2.0	1.0	Left Face	49.0	2back-stim	
113	595.6663989999797	2.007059890020173	0.0	2.0	1.0	Left Face	49.0	2back-stim	
114	597.6830560999806	2.0071479900507256	0.0	2.0	1.0	Left Face	49.0	2back-stim	
115	599.6996536999941	2.007317990064621	1.0837614000192843	0.0	1.0	Left Face	49.0	2back-stim	
116	604.7324346000096	5.008749290020205		17.716049382716047		Left Face	49.0	2back-stim Rating	3.0
117	609.7428704000195	614.7622878000257				Left Face	32.0	2back Instructions	
118	621.7924829000258	1.9886677900212817			1.0	Left Face	49.0	2back-stim	
119	623.801009399991	2.0050517900381237			1.0	Left Face	49.0	2back-stim	7.0
120	625.8165925000212	2.007235090015456	0.0	2.0	1.0	Left Face	49.0	2back-stim	
121	627.833284399996	2.0071690900367685	0.0	2.0	1.0	Left Face	49.0	2back-stim	
122	629.9123496999964	1.9489556499756873	0.8001361000351608	0.0	1.0	Left Face	49.0	2back-stim	
123	631.8667357999948	2.007049590058159	0.0	2.0	1.0	Left Face	49.0	2back-stim	
124	633.8831795000006	2.007506590045523	0.0	2.0	0.0	Left Face	49.0	2back-stim	
125	635.9001315000351	2.007016389979981	0.0	2.0	1.0	Left Face	49.0	2back-stim	
126	637.916663800017	2.0072866900009103	0.9362532999948598	0.0	1.0	Left Face	49.0	2back-stim	
127	639.933461699984	2.0070525900810026	0.0	2.0	0.0	Left Face	49.0	2back-stim	
128	644.9666800000123	5.007697290042415		27.34567901234568		Left Face	49.0	2back-stim Rating	3.0
