square,location,corrAns,trials.thisRepN,trials.thisTrialN,trials.thisN,trials.thisIndex,trials_2.thisRepN,trials_2.thisTrialN,trials_2.thisN,trials_2.thisIndex,fixation_1.started,fixation_1.stopped,grid_lines.started,grid_lines.stopped,target_square.started,target_square.stopped,fixation_2.started,fixation_2.stopped,response.corr,response.x,response.y,response.leftButton,response.click_left,response.click_right,response.started,response.stopped,ScoreReportText.started,ScoreReportText.stopped,ScoreReportResponse.keys,ScoreReportResponse.started,ScoreReportResponse.stopped,response_2.x,response_2.y,response_2.leftButton,grid_lines_2.started,grid_lines_2.stopped,target_square_2.started,target_square_2.stopped,fixation_3.started,fixation_3.stopped,response_2.click,response_2.corr,response_2.started,response_2.stopped,BodySiteInstructionText.started,BodySiteImg.started,BodySiteImg.stopped,BodySiteInstructionRead.keys,BodySiteInstructionRead.rt,BodySiteInstructionRead.started,BodySiteInstructionRead.stopped,IntensityRating.response,IntensityRating.rt,IntensityRating.started,IntensityRating.stopped,response.click,response_2.rt_left,response_2.rt_right,response.rt_left,response.rt_right,subject number,gender,distractMap first- or second-half (1 or 2),session,handedness,scanner,date,psychopyVersion,expName,frameRate,body_site_order,
6,"[0.2, 0]",None,0,0,0,0,,,,,382.38348789990414,None,383.4168134999927,None,383.4168134999927,384.41681079997215,384.4001589999534,None,1,0.022222222222222223,0.08611111111111111,"[0, 0, 0]",0,0,383.4168134999927,None,,,,,,,,,,,,,,,,,,,,,,,,,,,,,,,,,,,1,M,1,39,r,EIM,2022_Apr_12_1306,2020.2.10,distractmap1,59.992033067184366,"['Right Face', 'Left Arm', 'Chest', 'Right Leg']",
6,"[0.2, 0]",1,0,1,1,1,,,,,,,385.40012989996467,None,385.40012989996467,386.4001500000013,386.3834827999817,387.38350110000465,0,0.022222222222222223,0.08611111111111111,"[0, 0, 0]",0,0,385.40012989996467,None,,,,,,,,,,,,,,,,,,,,,,,,,,,,,,,,,,,1,M,1,39,r,EIM,2022_Apr_12_1306,2020.2.10,distractmap1,59.992033067184366,"['Right Face', 'Left Arm', 'Chest', 'Right Leg']",
2,"[0, 0.2]",0,0,2,2,2,,,,,,,387.40015120001044,None,387.40015120001044,388.4001615999732,388.3835015000077,389.3835052999202,0,0.022222222222222223,0.08611111111111111,"[0, 0, 0]",0,0,387.40015120001044,None,,,,,,,,,,,,,,,,,,,,,,,,,,,,,,,,,,,1,M,1,39,r,EIM,2022_Apr_12_1306,2020.2.10,distractmap1,59.992033067184366,"['Right Face', 'Left Arm', 'Chest', 'Right Leg']",
9,"[0.2, -0.2]",0,0,3,3,3,,,,,,,389.4001703999238,None,389.4001703999238,390.4001905999612,390.3835138999857,391.3835246999515,0,0.022222222222222223,0.08611111111111111,"[0, 0, 0]",0,0,389.4001703999238,None,,,,,,,,,,,,,,,,,,,,,,,,,,,,,,,,,,,1,M,1,39,r,EIM,2022_Apr_12_1306,2020.2.10,distractmap1,59.992033067184366,"['Right Face', 'Left Arm', 'Chest', 'Right Leg']",
9,"[0.2, -0.2]",1,0,4,4,4,,,,,,,391.40018369990867,None,391.40018369990867,392.40019079996273,392.38353110000025,393.38353679992724,0,0.022222222222222223,0.08611111111111111,"[0, 0, 0]",0,0,391.40018369990867,None,,,,,,,,,,,,,,,,,,,,,,,,,,,,,,,,,,,1,M,1,39,r,EIM,2022_Apr_12_1306,2020.2.10,distractmap1,59.992033067184366,"['Right Face', 'Left Arm', 'Chest', 'Right Leg']",
6,"[0.2, 0]",0,0,5,5,5,,,,,,,393.4002226999728,None,393.4002226999728,394.40021250001155,394.38355639996007,395.3835778000066,0,0.022222222222222223,0.08611111111111111,"[0, 0, 0]",0,0,393.4002226999728,None,,,,,,,,,,,,,,,,,,,,,,,,,,,,,,,,,,,1,M,1,39,r,EIM,2022_Apr_12_1306,2020.2.10,distractmap1,59.992033067184366,"['Right Face', 'Left Arm', 'Chest', 'Right Leg']",
4,"[-0.2, 0]",0,0,6,6,6,,,,,,,395.40023579995614,None,395.40023579995614,396.4002590000164,396.38357539998833,397.38360589998774,0,0.022222222222222223,0.08611111111111111,"[0, 0, 0]",0,0,395.40023579995614,None,,,,,,,,,,,,,,,,,,,,,,,,,,,,,,,,,,,1,M,1,39,r,EIM,2022_Apr_12_1306,2020.2.10,distractmap1,59.992033067184366,"['Right Face', 'Left Arm', 'Chest', 'Right Leg']",
3,"[0.2, 0.2]",0,0,7,7,7,,,,,,,397.4002413999988,None,397.4002413999988,398.4002650999464,398.3835791000165,399.38359420001507,0,0.022222222222222223,0.08611111111111111,"[0, 0, 0]",0,0,397.4002413999988,None,,,,,,,,,,,,,,,,,,,,,,,,,,,,,,,,,,,1,M,1,39,r,EIM,2022_Apr_12_1306,2020.2.10,distractmap1,59.992033067184366,"['Right Face', 'Left Arm', 'Chest', 'Right Leg']",
3,"[0.2, 0.2]",1,0,8,8,8,,,,,,,399.40027529990766,None,399.40027529990766,400.4002632999327,400.38359889993444,401.3836089000106,0,0.022222222222222223,0.08611111111111111,"[0, 0, 0]",0,0,399.40027529990766,None,,,,,,,,,,,,,,,,,,,,,,,,,,,,,,,,,,,1,M,1,39,r,EIM,2022_Apr_12_1306,2020.2.10,distractmap1,59.992033067184366,"['Right Face', 'Left Arm', 'Chest', 'Right Leg']",
8,"[0, -0.2]",0,0,9,9,9,,,,,,,401.40029079990927,None,401.40029079990927,402.40031489997637,402.3836381000001,403.38364669994917,0,0.022222222222222223,0.08611111111111111,"[0, 0, 0]",0,0,401.40029079990927,None,,,,,,,,,,,,,,,,,,,,,,,,,,,,,,,,,,,1,M,1,39,r,EIM,2022_Apr_12_1306,2020.2.10,distractmap1,59.992033067184366,"['Right Face', 'Left Arm', 'Chest', 'Right Leg']",
1,"[-0.2, 0.2]",0,0,10,10,10,,,,,,,403.40030739991926,None,403.40030739991926,404.4003380999202,404.3836397000123,405.38365809991956,0,0.022222222222222223,0.08611111111111111,"[0, 0, 0]",0,0,403.40030739991926,None,,,,,,,,,,,,,,,,,,,,,,,,,,,,,,,,,,,1,M,1,39,r,EIM,2022_Apr_12_1306,2020.2.10,distractmap1,59.992033067184366,"['Right Face', 'Left Arm', 'Chest', 'Right Leg']",
2,"[0, 0.2]",0,0,11,11,11,,,,,,,405.400263599935,None,405.400263599935,406.40033560001757,406.3837160000112,407.3836626999546,0,0.022222222222222223,0.08611111111111111,"[0, 0, 0]",0,0,405.400263599935,None,,,,,,,,,,,,,,,,,,,,,,,,,,,,,,,,,,,1,M,1,39,r,EIM,2022_Apr_12_1306,2020.2.10,distractmap1,59.992033067184366,"['Right Face', 'Left Arm', 'Chest', 'Right Leg']",
4,"[-0.2, 0]",0,0,12,12,12,,,,,,,407.40021220000926,None,407.40021220000926,408.40038689994253,408.38367779995315,409.3836978999898,0,0.022222222222222223,0.08611111111111111,"[0, 0, 0]",0,0,407.40021220000926,None,,,,,,,,,,,,,,,,,,,,,,,,,,,,,,,,,,,1,M,1,39,r,EIM,2022_Apr_12_1306,2020.2.10,distractmap1,59.992033067184366,"['Right Face', 'Left Arm', 'Chest', 'Right Leg']",
4,"[-0.2, 0]",1,0,13,13,13,,,,,,,409.4003568999469,None,409.4003568999469,410.400384199922,410.38370729994494,411.38371429999825,0,0.022222222222222223,0.08611111111111111,"[0, 0, 0]",0,0,409.4003568999469,None,,,,,,,,,,,,,,,,,,,,,,,,,,,,,,,,,,,1,M,1,39,r,EIM,2022_Apr_12_1306,2020.2.10,distractmap1,59.992033067184366,"['Right Face', 'Left Arm', 'Chest', 'Right Leg']",
8,"[0, -0.2]",0,0,14,14,14,,,,,,,411.40041429991834,None,411.40041429991834,412.400388799957,412.3837205999298,413.3837290999945,0,0.022222222222222223,0.08611111111111111,"[0, 0, 0]",0,0,411.40041429991834,None,,,,,,,,,,,,,,,,,,,,,,,,,,,,,,,,,,,1,M,1,39,r,EIM,2022_Apr_12_1306,2020.2.10,distractmap1,59.992033067184366,"['Right Face', 'Left Arm', 'Chest', 'Right Leg']",
5,"[0, 0]",0,0,15,15,15,,,,,,,413.40043009992223,None,413.40043009992223,414.4004231999861,414.38362549990416,415.38375329994597,0,0.022222222222222223,0.08611111111111111,"[0, 0, 0]",0,0,413.40043009992223,None,,,,,,,,,,,,,,,,,,,,,,,,,,,,,,,,,,,1,M,1,39,r,EIM,2022_Apr_12_1306,2020.2.10,distractmap1,59.992033067184366,"['Right Face', 'Left Arm', 'Chest', 'Right Leg']",
5,"[0, 0]",1,0,16,16,16,,,,,,,415.40038529993035,None,415.40038529993035,416.40043209993746,416.3837608000031,417.3837733999826,0,0.022222222222222223,0.08611111111111111,"[0, 0, 0]",0,0,415.40038529993035,None,,,,,,,,,,,,,,,,,,,,,,,,,,,,,,,,,,,1,M,1,39,r,EIM,2022_Apr_12_1306,2020.2.10,distractmap1,59.992033067184366,"['Right Face', 'Left Arm', 'Chest', 'Right Leg']",
1,"[-0.2, 0.2]",0,0,17,17,17,,,,,,,417.40044200001284,None,417.40044200001284,418.40048099996056,418.38379170000553,419.3837857999606,0,0.022222222222222223,0.08611111111111111,"[0, 0, 0]",0,0,417.40044200001284,None,,,,,,,,,,,,,,,,,,,,,,,,,,,,,,,,,,,1,M,1,39,r,EIM,2022_Apr_12_1306,2020.2.10,distractmap1,59.992033067184366,"['Right Face', 'Left Arm', 'Chest', 'Right Leg']",
3,"[0.2, 0.2]",0,0,18,18,18,,,,,,,419.40047589992173,None,419.40047589992173,420.4004912999226,420.38381629996,421.3838239000179,0,0.022222222222222223,0.08611111111111111,"[0, 0, 0]",0,0,419.40047589992173,None,,,,,,,,,,,,,,,,,,,,,,,,,,,,,,,,,,,1,M,1,39,r,EIM,2022_Apr_12_1306,2020.2.10,distractmap1,59.992033067184366,"['Right Face', 'Left Arm', 'Chest', 'Right Leg']",
6,"[0.2, 0]",0,0,19,19,19,,,,,,,421.4004699999932,None,421.4004699999932,422.40049079991877,422.3837876999751,423.38381029991433,0,0.022222222222222223,0.08611111111111111,"[0, 0, 0]",0,0,421.4004699999932,None,,,,,,,,,,,,,,,,,,,,,,,,,,,,,,,,,,,1,M,1,39,r,EIM,2022_Apr_12_1306,2020.2.10,distractmap1,59.992033067184366,"['Right Face', 'Left Arm', 'Chest', 'Right Leg']",
1,"[-0.2, 0.2]",0,0,20,20,20,,,,,,,423.400513999979,None,423.400513999979,424.40038120001554,424.383818399976,425.3838170999661,0,0.022222222222222223,0.08611111111111111,"[0, 0, 0]",0,0,423.400513999979,None,,,,,,,,,,,,,,,,,,,,,,,,,,,,,,,,,,,1,M,1,39,r,EIM,2022_Apr_12_1306,2020.2.10,distractmap1,59.992033067184366,"['Right Face', 'Left Arm', 'Chest', 'Right Leg']",
1,"[-0.2, 0.2]",1,0,21,21,21,,,,,,,425.4005079999333,None,425.4005079999333,426.4005406999495,426.3838312999578,427.38384989998303,0,0.022222222222222223,0.08611111111111111,"[0, 0, 0]",0,0,425.4005079999333,None,,,,,,,,,,,,,,,,,,,,,,,,,,,,,,,,,,,1,M,1,39,r,EIM,2022_Apr_12_1306,2020.2.10,distractmap1,59.992033067184366,"['Right Face', 'Left Arm', 'Chest', 'Right Leg']",
1,"[-0.2, 0.2]",1,0,22,22,22,,,,,,,427.4005069999257,None,427.4005069999257,428.40051029995084,428.38386039994657,429.38386750000063,0,0.022222222222222223,0.08611111111111111,"[0, 0, 0]",0,0,427.4005069999257,None,,,,,,,,,,,,,,,,,,,,,,,,,,,,,,,,,,,1,M,1,39,r,EIM,2022_Apr_12_1306,2020.2.10,distractmap1,59.992033067184366,"['Right Face', 'Left Arm', 'Chest', 'Right Leg']",
3,"[0.2, 0.2]",0,0,23,23,23,,,,,,,429.4005088999402,None,429.4005088999402,430.4005329000065,430.38386019994505,431.3838684000075,0,0.022222222222222223,0.08611111111111111,"[0, 0, 0]",0,0,429.4005088999402,None,,,,,,,,,,,,,,,,,,,,,,,,,,,,,,,,,,,1,M,1,39,r,EIM,2022_Apr_12_1306,2020.2.10,distractmap1,59.992033067184366,"['Right Face', 'Left Arm', 'Chest', 'Right Leg']",
2,"[0, 0.2]",0,0,24,24,24,,,,,,,431.4004363999702,None,431.4004363999702,432.40056460001506,432.38389509997796,433.38390109990723,0,0.022222222222222223,0.08611111111111111,"[0, 0, 0]",0,0,431.4004363999702,None,,,,,,,,,,,,,,,,,,,,,,,,,,,,,,,,,,,1,M,1,39,r,EIM,2022_Apr_12_1306,2020.2.10,distractmap1,59.992033067184366,"['Right Face', 'Left Arm', 'Chest', 'Right Leg']",
1,"[-0.2, 0.2]",0,0,25,25,25,,,,,,,433.4005579999648,None,433.4005579999648,434.40057209995575,434.38391579990275,435.38390959997196,0,0.022222222222222223,0.08611111111111111,"[0, 0, 0]",0,0,433.4005579999648,None,,,,,,,,,,,,,,,,,,,,,,,,,,,,,,,,,,,1,M,1,39,r,EIM,2022_Apr_12_1306,2020.2.10,distractmap1,59.992033067184366,"['Right Face', 'Left Arm', 'Chest', 'Right Leg']",
7,"[-0.2, -0.2]",0,0,26,26,26,,,,,,,435.400591099984,None,435.400591099984,436.40058839996345,436.3839327999158,437.3839324999135,0,0.022222222222222223,0.08611111111111111,"[0, 0, 0]",0,0,435.400591099984,None,,,,,,,,,,,,,,,,,,,,,,,,,,,,,,,,,,,1,M,1,39,r,EIM,2022_Apr_12_1306,2020.2.10,distractmap1,59.992033067184366,"['Right Face', 'Left Arm', 'Chest', 'Right Leg']",
7,"[-0.2, -0.2]",1,0,27,27,27,,,,,,,437.40052969998214,None,437.40052969998214,438.4006141999271,438.38393879996147,439.38394510000944,0,0.022222222222222223,0.08611111111111111,"[0, 0, 0]",0,0,437.40052969998214,None,,,,,,,,,,,,,,,,,,,,,,,,,,,,,,,,,,,1,M,1,39,r,EIM,2022_Apr_12_1306,2020.2.10,distractmap1,59.992033067184366,"['Right Face', 'Left Arm', 'Chest', 'Right Leg']",
2,"[0, 0.2]",0,0,28,28,28,,,,,,,439.40060759999324,None,439.40060759999324,440.400588999968,440.38395960000344,441.38395829999354,0,0.022222222222222223,0.08611111111111111,"[0, 0, 0]",0,0,439.40060759999324,None,,,,,,,,,,,,,,,,,,,,,,,,,,,,,,,,,,,1,M,1,39,r,EIM,2022_Apr_12_1306,2020.2.10,distractmap1,59.992033067184366,"['Right Face', 'Left Arm', 'Chest', 'Right Leg']",
6,"[0.2, 0]",0,0,29,29,29,,,,,,,441.40063839999493,None,441.40063839999493,442.40062329999637,442.3839674999472,443.3839844999602,0,0.022222222222222223,0.08611111111111111,"[0, 0, 0]",0,0,441.40063839999493,None,,,,,,,,,,,,,,,,,,,,,,,,,,,,,,,,,,,1,M,1,39,r,EIM,2022_Apr_12_1306,2020.2.10,distractmap1,59.992033067184366,"['Right Face', 'Left Arm', 'Chest', 'Right Leg']",
,,,,,,,,,,,,,,,,,,,,,,,,,,,443.43399389996193,None,space,443.43399389996193,None,,,,,,,,,,,,,,,,,,,,,,,,,,,,,,1,M,1,39,r,EIM,2022_Apr_12_1306,2020.2.10,distractmap1,59.992033067184366,"['Right Face', 'Left Arm', 'Chest', 'Right Leg']",
6,"[0.2, 0]",None,,,,,0,0,0,0,457.95079479995184,None,,,,,,,,,,,,,,,,,,,,None,None,"[0, 0, 0]",458.9674444999546,None,458.9674444999546,459.96748669992667,459.9507946999511,460.9507946999511,"[0, 0, 0]",1,458.9674444999546,None,,,,,,,,,,,,,,,,,1,M,1,39,r,EIM,2022_Apr_12_1306,2020.2.10,distractmap1,59.992033067184366,"['Right Face', 'Left Arm', 'Chest', 'Right Leg']",
7,"[-0.2, -0.2]",None,,,,,0,1,1,1,,,,,,,,,,,,,,,,,,,,,,None,None,"[0, 0, 0]",460.9674847999122,462.9674922999693,460.9674847999122,461.9674995999085,461.9508166000014,462.950817200006,"[0, 0, 0]",1,460.9674847999122,462.9674922999693,,,,,,,,,,,,,,,,,1,M,1,39,r,EIM,2022_Apr_12_1306,2020.2.10,distractmap1,59.992033067184366,"['Right Face', 'Left Arm', 'Chest', 'Right Leg']",
6,"[0.2, 0]",1,,,,,0,2,2,2,,,,,,,,,,,,,,,,,,,,,,None,None,"[0, 0, 0]",462.9841425999766,464.9841648999136,462.9841425999766,463.98416859994177,463.9675238999771,464.96739459992386,"[0, 0, 0]",0,462.9841425999766,464.9841648999136,,,,,,,,,,,,,,,,,1,M,1,39,r,EIM,2022_Apr_12_1306,2020.2.10,distractmap1,59.992033067184366,"['Right Face', 'Left Arm', 'Chest', 'Right Leg']",
2,"[0, 0.2]",0,,,,,0,3,3,3,,,,,,,,,,,,,,,,,,,,,,None,None,"[0, 0, 0]",465.0008253999986,467.0008514999645,465.0008253999986,466.0008390999865,465.984178799903,466.9841912999982,"[0, 0, 0]",0,465.0008253999986,467.0008514999645,,,,,,,,,,,,,,,,,1,M,1,39,r,EIM,2022_Apr_12_1306,2020.2.10,distractmap1,59.992033067184366,"['Right Face', 'Left Arm', 'Chest', 'Right Leg']",
5,"[0, 0]",0,,,,,0,4,4,4,,,,,,,,,,,,,,,,,,,,,,None,None,"[0, 0, 0]",467.0175022999756,469.0175304999575,467.0175022999756,468.0175210000016,468.0008638999425,469.0008540999843,"[0, 0, 0]",0,467.0175022999756,469.0175304999575,,,,,,,,,,,,,,,,,1,M,1,39,r,EIM,2022_Apr_12_1306,2020.2.10,distractmap1,59.992033067184366,"['Right Face', 'Left Arm', 'Chest', 'Right Leg']",
4,"[-0.2, 0]",0,,,,,0,5,5,5,,,,,,,,,,,,,,,,,,,,,,None,None,"[0, 0, 0]",469.03420679992996,471.03421019995585,469.03420679992996,470.03420919994824,470.0175330999773,471.01754739996977,"[0, 0, 0]",0,469.03420679992996,471.03421019995585,,,,,,,,,,,,,,,,,1,M,1,39,r,EIM,2022_Apr_12_1306,2020.2.10,distractmap1,59.992033067184366,"['Right Face', 'Left Arm', 'Chest', 'Right Leg']",
4,"[-0.2, 0]",0,,,,,0,6,6,6,,,,,,,,,,,,,,,,,,,,,,None,None,"[0, 0, 0]",471.050883699907,473.0508803999983,471.050883699907,472.0509033999406,472.0342310999986,473.0342454999918,"[0, 0, 0]",0,471.050883699907,473.0508803999983,,,,,,,,,,,,,,,,,1,M,1,39,r,EIM,2022_Apr_12_1306,2020.2.10,distractmap1,59.992033067184366,"['Right Face', 'Left Arm', 'Chest', 'Right Leg']",
7,"[-0.2, -0.2]",0,,,,,0,7,7,7,,,,,,,,,,,,,,,,,,,,,,None,None,"[0, 0, 0]",473.0675895999884,475.0675802999176,473.0675895999884,474.0675746999914,474.0509134000167,475.0509343999438,"[0, 0, 0]",0,473.0675895999884,475.0675802999176,,,,,,,,,,,,,,,,,1,M,1,39,r,EIM,2022_Apr_12_1306,2020.2.10,distractmap1,59.992033067184366,"['Right Face', 'Left Arm', 'Chest', 'Right Leg']",
4,"[-0.2, 0]",1,,,,,0,8,8,8,,,,,,,,,,,,,,,,,,,,,,None,None,"[0, 0, 0]",475.08425979991443,477.0842631999403,475.08425979991443,476.0842626999365,476.0676028999733,477.0676033999771,"[0, 0, 0]",0,475.08425979991443,477.0842631999403,,,,,,,,,,,,,,,,,1,M,1,39,r,EIM,2022_Apr_12_1306,2020.2.10,distractmap1,59.992033067184366,"['Right Face', 'Left Arm', 'Chest', 'Right Leg']",
3,"[0.2, 0.2]",0,,,,,0,9,9,9,,,,,,,,,,,,,,,,,,,,,,None,None,"[0, 0, 0]",477.1009425999364,479.1009653999936,477.1009425999364,478.1009402999189,478.08428249997087,479.0842847999884,"[0, 0, 0]",0,477.1009425999364,479.1009653999936,,,,,,,,,,,,,,,,,1,M,1,39,r,EIM,2022_Apr_12_1306,2020.2.10,distractmap1,59.992033067184366,"['Right Face', 'Left Arm', 'Chest', 'Right Leg']",
5,"[0, 0]",0,,,,,0,10,10,10,,,,,,,,,,,,,,,,,,,,,,None,None,"[0, 0, 0]",479.11762429994997,481.11763260001317,479.11762429994997,480.11762719997205,480.1009653999936,481.10097109992057,"[0, 0, 0]",0,479.11762429994997,481.11763260001317,,,,,,,,,,,,,,,,,1,M,1,39,r,EIM,2022_Apr_12_1306,2020.2.10,distractmap1,59.992033067184366,"['Right Face', 'Left Arm', 'Chest', 'Right Leg']",
3,"[0.2, 0.2]",1,,,,,0,11,11,11,,,,,,,,,,,,,,,,,,,,,,None,None,"[0, 0, 0]",481.134299099911,483.1343066999689,481.134299099911,482.13432149996515,482.11764609999955,483.1176503999159,"[0, 0, 0]",0,481.134299099911,483.1343066999689,,,,,,,,,,,,,,,,,1,M,1,39,r,EIM,2022_Apr_12_1306,2020.2.10,distractmap1,59.992033067184366,"['Right Face', 'Left Arm', 'Chest', 'Right Leg']",
1,"[-0.2, 0.2]",0,,,,,0,12,12,12,,,,,,,,,,,,,,,,,,,,,,None,None,"[0, 0, 0]",483.15099869994447,485.15099619992543,483.15099869994447,484.1509938999079,484.13433239993174,485.1343626999296,"[0, 0, 0]",0,483.15099869994447,485.15099619992543,,,,,,,,,,,,,,,,,1,M,1,39,r,EIM,2022_Apr_12_1306,2020.2.10,distractmap1,59.992033067184366,"['Right Face', 'Left Arm', 'Chest', 'Right Leg']",
9,"[0.2, -0.2]",0,,,,,0,13,13,13,,,,,,,,,,,,,,,,,,,,,,None,None,"[0, 0, 0]",485.1676858999999,487.1676900999155,485.1676858999999,486.1676815999672,486.1510027999757,487.15101739997044,"[0, 0, 0]",0,485.1676858999999,487.1676900999155,,,,,,,,,,,,,,,,,1,M,1,39,r,EIM,2022_Apr_12_1306,2020.2.10,distractmap1,59.992033067184366,"['Right Face', 'Left Arm', 'Chest', 'Right Leg']",
9,"[0.2, -0.2]",0,,,,,0,14,14,14,,,,,,,,,,,,,,,,,,,,,,None,None,"[0, 0, 0]",487.18433869990986,489.1843851999147,487.18433869990986,488.1843805999961,488.16769669996575,489.1677060999209,"[0, 0, 0]",0,487.18433869990986,489.1843851999147,,,,,,,,,,,,,,,,,1,M,1,39,r,EIM,2022_Apr_12_1306,2020.2.10,distractmap1,59.992033067184366,"['Right Face', 'Left Arm', 'Chest', 'Right Leg']",
8,"[0, -0.2]",0,,,,,0,15,15,15,,,,,,,,,,,,,,,,,,,,,,None,None,"[0, 0, 0]",489.20103559992276,491.2010662999237,489.20103559992276,490.20104419998825,490.18439379998017,491.18440959998406,"[0, 0, 0]",0,489.20103559992276,491.2010662999237,,,,,,,,,,,,,,,,,1,M,1,39,r,EIM,2022_Apr_12_1306,2020.2.10,distractmap1,59.992033067184366,"['Right Face', 'Left Arm', 'Chest', 'Right Leg']",
6,"[0.2, 0]",0,,,,,0,16,16,16,,,,,,,,,,,,,,,,,,,,,,None,None,"[0, 0, 0]",491.2177227999782,493.21773569996003,491.2177227999782,492.2177132999059,492.2010910999961,493.20107469998766,"[0, 0, 0]",0,491.2177227999782,493.21773569996003,,,,,,,,,,,,,,,,,1,M,1,39,r,EIM,2022_Apr_12_1306,2020.2.10,distractmap1,59.992033067184366,"['Right Face', 'Left Arm', 'Chest', 'Right Leg']",
3,"[0.2, 0.2]",0,,,,,0,17,17,17,,,,,,,,,,,,,,,,,,,,,,None,None,"[0, 0, 0]",493.2343834999483,495.23444369994104,493.2343834999483,494.2344192999881,494.2177672999678,495.21777879993897,"[0, 0, 0]",0,493.2343834999483,495.23444369994104,,,,,,,,,,,,,,,,,1,M,1,39,r,EIM,2022_Apr_12_1306,2020.2.10,distractmap1,59.992033067184366,"['Right Face', 'Left Arm', 'Chest', 'Right Leg']",
6,"[0.2, 0]",1,,,,,0,18,18,18,,,,,,,,,,,,,,,,,,,,,,None,None,"[0, 0, 0]",495.25109319994226,497.25110429991037,495.25109319994226,496.2510966999689,496.2344284999417,497.2344434999395,"[0, 0, 0]",0,495.25109319994226,497.25110429991037,,,,,,,,,,,,,,,,,1,M,1,39,r,EIM,2022_Apr_12_1306,2020.2.10,distractmap1,59.992033067184366,"['Right Face', 'Left Arm', 'Chest', 'Right Leg']",
5,"[0, 0]",0,,,,,0,19,19,19,,,,,,,,,,,,,,,,,,,,,,None,None,"[0, 0, 0]",497.26775190001354,499.2677751999581,497.26775190001354,498.2676541999681,498.2511147999903,499.25111840001773,"[0, 0, 0]",0,497.26775190001354,499.2677751999581,,,,,,,,,,,,,,,,,1,M,1,39,r,EIM,2022_Apr_12_1306,2020.2.10,distractmap1,59.992033067184366,"['Right Face', 'Left Arm', 'Chest', 'Right Leg']",
7,"[-0.2, -0.2]",0,,,,,0,20,20,20,,,,,,,,,,,,,,,,,,,,,,None,None,"[0, 0, 0]",499.2843981999904,501.28448189992923,499.2843981999904,500.2844870999688,500.2678021999309,501.2678073999705,"[0, 0, 0]",0,499.2843981999904,501.28448189992923,,,,,,,,,,,,,,,,,1,M,1,39,r,EIM,2022_Apr_12_1306,2020.2.10,distractmap1,59.992033067184366,"['Right Face', 'Left Arm', 'Chest', 'Right Leg']",
5,"[0, 0]",1,,,,,0,21,21,21,,,,,,,,,,,,,,,,,,,,,,None,None,"[0, 0, 0]",501.30114949995186,503.30116709996946,501.30114949995186,502.30116169992834,502.2844919000054,503.2844941999065,"[0, 0, 0]",0,501.30114949995186,503.30116709996946,,,,,,,,,,,,,,,,,1,M,1,39,r,EIM,2022_Apr_12_1306,2020.2.10,distractmap1,59.992033067184366,"['Right Face', 'Left Arm', 'Chest', 'Right Leg']",
1,"[-0.2, 0.2]",0,,,,,0,22,22,22,,,,,,,,,,,,,,,,,,,,,,None,None,"[0, 0, 0]",503.31783169996925,505.31782939995173,503.31783169996925,504.3178323999746,504.30116509995423,505.30119319993537,"[0, 0, 0]",0,503.31783169996925,505.31782939995173,,,,,,,,,,,,,,,,,1,M,1,39,r,EIM,2022_Apr_12_1306,2020.2.10,distractmap1,59.992033067184366,"['Right Face', 'Left Arm', 'Chest', 'Right Leg']",
7,"[-0.2, -0.2]",0,,,,,0,23,23,23,,,,,,,,,,,,,,,,,,,,,,None,None,"[0, 0, 0]",505.3345216999296,507.3345235999441,505.3345216999296,506.3345260999631,506.31784459995106,507.3178643999854,"[0, 0, 0]",0,505.3345216999296,507.3345235999441,,,,,,,,,,,,,,,,,1,M,1,39,r,EIM,2022_Apr_12_1306,2020.2.10,distractmap1,59.992033067184366,"['Right Face', 'Left Arm', 'Chest', 'Right Leg']",
9,"[0.2, -0.2]",0,,,,,0,24,24,24,,,,,,,,,,,,,,,,,,,,,,None,None,"[0, 0, 0]",507.35119469999336,509.35121489991434,507.35119469999336,508.35122599999886,508.33451509999577,509.3345410999609,"[0, 0, 0]",0,507.35119469999336,509.35121489991434,,,,,,,,,,,,,,,,,1,M,1,39,r,EIM,2022_Apr_12_1306,2020.2.10,distractmap1,59.992033067184366,"['Right Face', 'Left Arm', 'Chest', 'Right Leg']",
3,"[0.2, 0.2]",0,,,,,0,25,25,25,,,,,,,,,,,,,,,,,,,,,,None,None,"[0, 0, 0]",509.36786809994373,511.3678904999979,509.36786809994373,510.3678838999476,510.3512164999265,511.3512390999822,"[0, 0, 0]",0,509.36786809994373,511.3678904999979,,,,,,,,,,,,,,,,,1,M,1,39,r,EIM,2022_Apr_12_1306,2020.2.10,distractmap1,59.992033067184366,"['Right Face', 'Left Arm', 'Chest', 'Right Leg']",
9,"[0.2, -0.2]",1,,,,,0,26,26,26,,,,,,,,,,,,,,,,,,,,,,None,None,"[0, 0, 0]",511.3845729000168,513.3845752999187,511.3845729000168,512.3845744999126,512.3679009999614,513.3679100999143,"[0, 0, 0]",0,511.3845729000168,513.3845752999187,,,,,,,,,,,,,,,,,1,M,1,39,r,EIM,2022_Apr_12_1306,2020.2.10,distractmap1,59.992033067184366,"['Right Face', 'Left Arm', 'Chest', 'Right Leg']",
6,"[0.2, 0]",0,,,,,0,27,27,27,,,,,,,,,,,,,,,,,,,,,,None,None,"[0, 0, 0]",513.4011179999216,515.401269499911,513.4011179999216,514.4012533999048,514.3845778999384,515.3845998999896,"[0, 0, 0]",0,513.4011179999216,515.401269499911,,,,,,,,,,,,,,,,,1,M,1,39,r,EIM,2022_Apr_12_1306,2020.2.10,distractmap1,59.992033067184366,"['Right Face', 'Left Arm', 'Chest', 'Right Leg']",
2,"[0, 0.2]",0,,,,,0,28,28,28,,,,,,,,,,,,,,,,,,,,,,None,None,"[0, 0, 0]",515.4179036999121,517.4179511999246,515.4179036999121,516.41793399991,516.401273699943,517.4012647999916,"[0, 0, 0]",0,515.4179036999121,517.4179511999246,,,,,,,,,,,,,,,,,1,M,1,39,r,EIM,2022_Apr_12_1306,2020.2.10,distractmap1,59.992033067184366,"['Right Face', 'Left Arm', 'Chest', 'Right Leg']",
5,"[0, 0]",0,,,,,0,29,29,29,,,,,,,,,,,,,,,,,,,,,,None,None,"[0, 0, 0]",517.4346082999837,519.4346319999313,517.4346082999837,518.4346185999457,518.4179493999109,519.4179534999421,"[0, 0, 0]",0,517.4346082999837,519.4346319999313,,,,,,,,,,,,,,,,,1,M,1,39,r,EIM,2022_Apr_12_1306,2020.2.10,distractmap1,59.992033067184366,"['Right Face', 'Left Arm', 'Chest', 'Right Leg']",
,,,,,,,,,,,,,,,,,,,,,,,,,,,519.4846446999582,None,space,519.4846446999582,None,,,,,,,,,,,,,,,,,,,,,,,,,,,,,,1,M,1,39,r,EIM,2022_Apr_12_1306,2020.2.10,distractmap1,59.992033067184366,"['Right Face', 'Left Arm', 'Chest', 'Right Leg']",
3,"[0.2, 0.2]",None,,,,,0,0,0,0,689.4864120999118,None,,,,,,,,,,,,,,,,,,,,None,None,"[0, 0, 0]",696.1194977000123,None,696.1194977000123,697.1194918999681,697.1028132999782,698.1027292999206,"[0, 0, 0]",1,696.1194977000123,None,526.8349725999869,526.8349725999869,None,space,76.02802279999014,526.8349725999869,None,,,,,,,,,,1,M,1,39,r,EIM,2022_Apr_12_1306,2020.2.10,distractmap1,59.992033067184366,"['Right Face', 'Left Arm', 'Chest', 'Right Leg']",
3,"[0.2, 0.2]",None,,,,,0,1,1,1,,,,,,,,,,,,,,,,,,,,,,None,None,"[0, 0, 0]",698.1195035999408,700.1195223999675,698.1195035999408,699.1195036999416,699.1028363999212,700.1028446999844,"[0, 0, 0]",1,698.1195035999408,700.1195223999675,,,,,,,,,,,,,,,,,1,M,1,39,r,EIM,2022_Apr_12_1306,2020.2.10,distractmap1,59.992033067184366,"['Right Face', 'Left Arm', 'Chest', 'Right Leg']",
5,"[0, 0]",0,,,,,0,2,2,2,,,,,,,,,,,,,,,,,,,,,,None,None,"[0, 0, 0]",700.1361699999543,702.136186699965,700.1361699999543,701.1361978999339,701.1195186999394,702.1194751999574,"[0, 0, 0]",1,700.1361699999543,702.136186699965,,,,,,,,,,,,,,,,,1,M,1,39,r,EIM,2022_Apr_12_1306,2020.2.10,distractmap1,59.992033067184366,"['Right Face', 'Left Arm', 'Chest', 'Right Leg']",
1,"[-0.2, 0.2]",0,,,,,0,3,3,3,,,,,,,,,,,,,,,,,,,,,,None,None,"[0, 0, 0]",702.1528898999095,704.1528715000022,702.1528898999095,703.1528550999938,703.1362081000116,704.1362234000117,"[0, 0, 0]",1,702.1528898999095,704.1528715000022,,,,,,,,,,,,,,,,,1,M,1,39,r,EIM,2022_Apr_12_1306,2020.2.10,distractmap1,59.992033067184366,"['Right Face', 'Left Arm', 'Chest', 'Right Leg']",
5,"[0, 0]",1,,,,,0,4,4,4,,,,,,,,,,,,,,,,,,,,,,None,None,"[0, 0, 0]",704.2365352999186,None,704.2365352999186,705.2362171999412,705.2195630999049,None,"[0, 0, 0]",1,704.2365352999186,None,,,,,,,,,,,,,,,,,1,M,1,39,r,EIM,2022_Apr_12_1306,2020.2.10,distractmap1,59.992033067184366,"['Right Face', 'Left Arm', 'Chest', 'Right Leg']",
8,"[0, -0.2]",0,,,,,0,5,5,5,,,,,,,,,,,,,,,,,,,,,,None,None,"[0, 0, 0]",706.1862366999267,708.186239499948,706.1862366999267,707.1862526999321,707.1695610999595,708.1695885999361,"[0, 0, 0]",1,706.1862366999267,708.186239499948,,,,,,,,,,,,,,,,,1,M,1,39,r,EIM,2022_Apr_12_1306,2020.2.10,distractmap1,59.992033067184366,"['Right Face', 'Left Arm', 'Chest', 'Right Leg']",
5,"[0, 0]",1,,,,,0,6,6,6,,,,,,,,,,,,,,,,,,,,,,None,None,"[0, 0, 0]",708.2029151999159,710.2029338999419,708.2029151999159,709.2029343999457,709.1862678999314,710.1861753999256,"[0, 0, 0]",1,708.2029151999159,710.2029338999419,,,,,,,,,,,,,,,,,1,M,1,39,r,EIM,2022_Apr_12_1306,2020.2.10,distractmap1,59.992033067184366,"['Right Face', 'Left Arm', 'Chest', 'Right Leg']",
7,"[-0.2, -0.2]",0,,,,,0,7,7,7,,,,,,,,,,,,,,,,,,,,,,None,None,"[0, 0, 0]",710.2195736999856,712.2195862999652,710.2195736999856,711.2196112999227,711.2029421000043,712.2029524999671,"[0, 0, 0]",1,710.2195736999856,712.2195862999652,,,,,,,,,,,,,,,,,1,M,1,39,r,EIM,2022_Apr_12_1306,2020.2.10,distractmap1,59.992033067184366,"['Right Face', 'Left Arm', 'Chest', 'Right Leg']",
5,"[0, 0]",1,,,,,0,8,8,8,,,,,,,,,,,,,,,,,,,,,,None,None,"[0, 0, 0]",712.236347099999,714.2363007999957,712.236347099999,713.2362981999759,713.2196146999486,714.2196123999311,"[0, 0, 0]",1,712.236347099999,714.2363007999957,,,,,,,,,,,,,,,,,1,M,1,39,r,EIM,2022_Apr_12_1306,2020.2.10,distractmap1,59.992033067184366,"['Right Face', 'Left Arm', 'Chest', 'Right Leg']",
7,"[-0.2, -0.2]",1,,,,,0,9,9,9,,,,,,,,,,,,,,,,,,,,,,None,None,"[0, 0, 0]",714.2529521000106,716.2529774999712,714.2529521000106,715.2529839999042,715.2363207999151,716.2363239999395,"[0, 0, 0]",1,714.2529521000106,716.2529774999712,,,,,,,,,,,,,,,,,1,M,1,39,r,EIM,2022_Apr_12_1306,2020.2.10,distractmap1,59.992033067184366,"['Right Face', 'Left Arm', 'Chest', 'Right Leg']",
,,,,,,,,,,,716.2696421999717,None,,,,,,,,,,,,,,,,,,,,,,,,,,,,,,,,,,,,,,,,15.0,360.88118934002705,,,,,,,,1,M,1,39,r,EIM,2022_Apr_12_1306,2020.2.10,distractmap1,59.992033067184366,"['Right Face', 'Left Arm', 'Chest', 'Right Leg']",
5,"[0, 0]",None,0,0,0,0,,,,,732.1699124999577,None,736.3365051000146,None,736.3365051000146,737.3365012999857,737.3031622999115,738.3031631999183,1,None,None,"[0, 0, 0]",,,736.3365051000146,None,,,,,,,,,,,,,,,,,,,,,,,,,,,,0.01507255993783474,5.012409559916705,"[0, 0, 0]",,,,,1,M,1,39,r,EIM,2022_Apr_12_1306,2020.2.10,distractmap1,59.992033067184366,"['Right Face', 'Left Arm', 'Chest', 'Right Leg']",
5,"[0, 0]",1,0,1,1,1,,,,,,,738.3365228999173,None,738.3365228999173,739.3365199000109,739.3198997,740.3198619999457,1,None,None,"[0, 0, 0]",,,738.3365228999173,None,,,,,,,,,,,,,,,,,,,,,,,,,,,,,,"[0, 0, 0]",,,,,1,M,1,39,r,EIM,2022_Apr_12_1306,2020.2.10,distractmap1,59.992033067184366,"['Right Face', 'Left Arm', 'Chest', 'Right Leg']",
4,"[-0.2, 0]",0,0,2,2,2,,,,,,,740.336553299916,740.336553299916,740.336553299916,741.3365180999972,741.3198646999663,742.3198602999328,1,None,None,"[0, 0, 0]",,,740.336553299916,740.336553299916,,,,,,,,,,,,,,,,,,,,,,,,,,,,,,"[0, 0, 0]",,,,,1,M,1,39,r,EIM,2022_Apr_12_1306,2020.2.10,distractmap1,59.992033067184366,"['Right Face', 'Left Arm', 'Chest', 'Right Leg']",
2,"[0, 0.2]",0,0,3,3,3,,,,,,,742.336510199937,742.336510199937,742.336510199937,743.3365374999121,743.3198823999846,744.3197096999502,1,None,None,"[0, 0, 0]",,,742.336510199937,742.336510199937,,,,,,,,,,,,,,,,,,,,,,,,,,,,,,"[0, 0, 0]",,,,,1,M,1,39,r,EIM,2022_Apr_12_1306,2020.2.10,distractmap1,59.992033067184366,"['Right Face', 'Left Arm', 'Chest', 'Right Leg']",
6,"[0.2, 0]",0,0,4,4,4,,,,,,,744.35351549997,744.35351549997,744.35351549997,745.353220299934,745.3365678999107,746.3364605999086,1,None,None,"[0, 0, 0]",,,744.35351549997,744.35351549997,,,,,,,,,,,,,,,,,,,,,,,,,,,,,,"[0, 0, 0]",,,,,1,M,1,39,r,EIM,2022_Apr_12_1306,2020.2.10,distractmap1,59.992033067184366,"['Right Face', 'Left Arm', 'Chest', 'Right Leg']",
8,"[0, -0.2]",0,0,5,5,5,,,,,,,746.3532478999114,None,746.3532478999114,747.3532473999076,747.3365888999542,748.3365773999831,1,None,None,"[0, 0, 0]",,,746.3532478999114,None,,,,,,,,,,,,,,,,,,,,,,,,,,,,,,"[0, 0, 0]",,,,,1,M,1,39,r,EIM,2022_Apr_12_1306,2020.2.10,distractmap1,59.992033067184366,"['Right Face', 'Left Arm', 'Chest', 'Right Leg']",
1,"[-0.2, 0.2]",0,0,6,6,6,,,,,,,748.3532498999266,748.3532498999266,748.3532498999266,749.3532631999115,749.3365994999185,750.3366155999247,1,None,None,"[0, 0, 0]",,,748.3532498999266,748.3532498999266,,,,,,,,,,,,,,,,,,,,,,,,,,,,,,"[0, 0, 0]",,,,,1,M,1,39,r,EIM,2022_Apr_12_1306,2020.2.10,distractmap1,59.992033067184366,"['Right Face', 'Left Arm', 'Chest', 'Right Leg']",
4,"[-0.2, 0]",0,0,7,7,7,,,,,,,750.3532660999335,750.3532660999335,750.3532660999335,751.3533670000033,751.3366023999406,752.3366143999156,1,None,None,"[0, 0, 0]",,,750.3532660999335,750.3532660999335,,,,,,,,,,,,,,,,,,,,,,,,,,,,,,"[0, 0, 0]",,,,,1,M,1,39,r,EIM,2022_Apr_12_1306,2020.2.10,distractmap1,59.992033067184366,"['Right Face', 'Left Arm', 'Chest', 'Right Leg']",
8,"[0, -0.2]",0,0,8,8,8,,,,,,,752.3533021999756,752.3533021999756,752.3533021999756,753.3532972999383,753.336607699981,754.336637499975,1,None,None,"[0, 0, 0]",,,752.3533021999756,752.3533021999756,,,,,,,,,,,,,,,,,,,,,,,,,,,,,,"[0, 0, 0]",,,,,1,M,1,39,r,EIM,2022_Apr_12_1306,2020.2.10,distractmap1,59.992033067184366,"['Right Face', 'Left Arm', 'Chest', 'Right Leg']",
8,"[0, -0.2]",1,0,9,9,9,,,,,,,754.3532961999299,754.3532961999299,754.3532961999299,755.353318599984,755.3366522999713,756.3366492999485,0,None,None,"[0, 0, 0]",,,754.3532961999299,754.3532961999299,,,,,,,,,,,,,,,,,,,,,,,,,,,,,,"[0, 0, 0]",,,,,1,M,1,39,r,EIM,2022_Apr_12_1306,2020.2.10,distractmap1,59.992033067184366,"['Right Face', 'Left Arm', 'Chest', 'Right Leg']",
,,,,,,,,,,,756.3533192999894,None,,,,,,,,,,,,,,,,,,,,,,,,,,,,,,,,,,,,,,,,20.061728395061728,403.16514143988024,,,,,,,,1,M,1,39,r,EIM,2022_Apr_12_1306,2020.2.10,distractmap1,59.992033067184366,"['Right Face', 'Left Arm', 'Chest', 'Right Leg']",
6,"[0.2, 0]",None,,,,,0,0,0,0,774.2370030999882,None,,,,,,,,,,,,,,,,,,,,None,None,"[0, 0, 0]",776.4201598999789,None,776.4201598999789,777.4201625999995,777.4035119999899,778.4035151000135,"[0, 0, 0]",1,776.4201598999789,None,,,,,,,,,,0.014830160071142018,5.012068859999999,,,,,,1,M,1,39,r,EIM,2022_Apr_12_1306,2020.2.10,distractmap1,59.992033067184366,"['Right Face', 'Left Arm', 'Chest', 'Right Leg']",
1,"[-0.2, 0.2]",None,,,,,0,1,1,1,,,,,,,,,,,,,,,,,,,,,,None,None,"[0, 0, 0]",778.420181299909,780.4201889999676,778.420181299909,779.4201811999083,779.4035024999175,780.4035094999708,"[0, 0, 0]",1,778.420181299909,780.4201889999676,,,,,,,,,,,,,,,,,1,M,1,39,r,EIM,2022_Apr_12_1306,2020.2.10,distractmap1,59.992033067184366,"['Right Face', 'Left Arm', 'Chest', 'Right Leg']",
6,"[0.2, 0]",1,,,,,0,2,2,2,,,,,,,,,,,,,,,,,,,,,,None,None,"[0, 0, 0]",780.4368681999622,782.4368881999981,780.4368681999622,781.4368694999721,781.4201964999083,782.4202099000104,"[0, 0, 0]",1,780.4368681999622,782.4368881999981,,,,,,,,,,,,,,,,,1,M,1,39,r,EIM,2022_Apr_12_1306,2020.2.10,distractmap1,59.992033067184366,"['Right Face', 'Left Arm', 'Chest', 'Right Leg']",
4,"[-0.2, 0]",0,,,,,0,3,3,3,,,,,,,,,,,,,,,,,,,,,,None,None,"[0, 0, 0]",782.4535343999742,784.4535533000017,782.4535343999742,783.4535652999766,783.4368829999585,784.4369027999928,"[0, 0, 0]",1,782.4535343999742,784.4535533000017,,,,,,,,,,,,,,,,,1,M,1,39,r,EIM,2022_Apr_12_1306,2020.2.10,distractmap1,59.992033067184366,"['Right Face', 'Left Arm', 'Chest', 'Right Leg']",
1,"[-0.2, 0.2]",0,,,,,0,4,4,4,,,,,,,,,,,,,,,,,,,,,,None,None,"[0, 0, 0]",784.5034958999604,None,784.5034958999604,785.5035869999556,785.5035869999556,None,"[0, 0, 0]",1,784.5034958999604,None,,,,,,,,,,,,,,,,,1,M,1,39,r,EIM,2022_Apr_12_1306,2020.2.10,distractmap1,59.992033067184366,"['Right Face', 'Left Arm', 'Chest', 'Right Leg']",
8,"[0, -0.2]",0,,,,,0,5,5,5,,,,,,,,,,,,,,,,,,,,,,None,None,"[0, 0, 0]",786.4869139000075,788.4869313999079,786.4869139000075,787.4869165999116,787.4702610999811,788.470255299937,"[0, 0, 0]",1,786.4869139000075,788.4869313999079,,,,,,,,,,,,,,,,,1,M,1,39,r,EIM,2022_Apr_12_1306,2020.2.10,distractmap1,59.992033067184366,"['Right Face', 'Left Arm', 'Chest', 'Right Leg']",
1,"[-0.2, 0.2]",1,,,,,0,6,6,6,,,,,,,,,,,,,,,,,,,,,,None,None,"[0, 0, 0]",788.5035902999807,790.5036092000082,788.5035902999807,789.503602999961,789.4869411999825,790.4869522999506,"[0, 0, 0]",1,788.5035902999807,790.5036092000082,,,,,,,,,,,,,,,,,1,M,1,39,r,EIM,2022_Apr_12_1306,2020.2.10,distractmap1,59.992033067184366,"['Right Face', 'Left Arm', 'Chest', 'Right Leg']",
8,"[0, -0.2]",1,,,,,0,7,7,7,,,,,,,,,,,,,,,,,,,,,,None,None,"[1, 0, 0]",790.5202808999456,792.5203043000074,790.5202808999456,791.5202868999913,791.5036282999208,792.5036133999238,"[1, 0, 0]",1,790.5202808999456,792.5203043000074,,,,,,,,,,,,,0.6670912000117823,0.0,,,1,M,1,39,r,EIM,2022_Apr_12_1306,2020.2.10,distractmap1,59.992033067184366,"['Right Face', 'Left Arm', 'Chest', 'Right Leg']",
1,"[-0.2, 0.2]",1,,,,,0,8,8,8,,,,,,,,,,,,,,,,,,,,,,None,None,"[0, 0, 0]",792.5369681000011,794.5369795999723,792.5369681000011,793.5369735999266,793.5202967999503,794.5203136999626,"[0, 0, 0]",0,792.5369681000011,794.5369795999723,,,,,,,,,,,,,,,,,1,M,1,39,r,EIM,2022_Apr_12_1306,2020.2.10,distractmap1,59.992033067184366,"['Right Face', 'Left Arm', 'Chest', 'Right Leg']",
6,"[0.2, 0]",0,,,,,0,9,9,9,,,,,,,,,,,,,,,,,,,,,,None,None,"[0, 0, 0]",794.5536569999531,796.5536495000124,794.5536569999531,795.5536663999083,795.5369963999838,796.5370060999412,"[0, 0, 0]",1,794.5536569999531,796.5536495000124,,,,,,,,,,,,,,,,,1,M,1,39,r,EIM,2022_Apr_12_1306,2020.2.10,distractmap1,59.992033067184366,"['Right Face', 'Left Arm', 'Chest', 'Right Leg']",
,,,,,,,,,,,796.5703404999804,None,,,,,,,,,,,,,,,,,,,,,,,,,,,,,,,,,,,,,,,,11.481481481481486,443.11552294006106,,,,,,,,1,M,1,39,r,EIM,2022_Apr_12_1306,2020.2.10,distractmap1,59.992033067184366,"['Right Face', 'Left Arm', 'Chest', 'Right Leg']",
3,"[0.2, 0.2]",None,0,0,0,0,,,,,814.5706635999959,None,816.6371764999349,None,816.6371764999349,817.637177299941,817.6038496999536,818.603865699959,1,None,None,"[0, 0, 0]",,,816.6371764999349,None,,,,,,,,,,,,,,,,,,,,,,,,,,,,0.014785359962843359,5.011948160012253,"[0, 0, 0]",,,,,1,M,1,39,r,EIM,2022_Apr_12_1306,2020.2.10,distractmap1,59.992033067184366,"['Right Face', 'Left Arm', 'Chest', 'Right Leg']",
4,"[-0.2, 0]",0,0,1,1,1,,,,,,,818.637192199938,None,818.637192199938,819.6372057999251,819.6205263999291,820.6205399999162,1,None,None,"[0, 0, 0]",,,818.637192199938,None,,,,,,,,,,,,,,,,,,,,,,,,,,,,,,"[0, 0, 0]",,,,,1,M,1,39,r,EIM,2022_Apr_12_1306,2020.2.10,distractmap1,59.992033067184366,"['Right Face', 'Left Arm', 'Chest', 'Right Leg']",
1,"[-0.2, 0.2]",0,0,2,2,2,,,,,,,820.6371830999851,820.6371830999851,820.6371830999851,821.6372110999655,821.620559199946,822.620561699965,1,None,None,"[0, 0, 0]",,,820.6371830999851,820.6371830999851,,,,,,,,,,,,,,,,,,,,,,,,,,,,,,"[0, 0, 0]",,,,,1,M,1,39,r,EIM,2022_Apr_12_1306,2020.2.10,distractmap1,59.992033067184366,"['Right Face', 'Left Arm', 'Chest', 'Right Leg']",
2,"[0, 0.2]",0,0,3,3,3,,,,,,,822.6372297999915,822.6372297999915,822.6372297999915,823.6372292999877,823.6205597999506,824.620578299975,1,None,None,"[0, 0, 0]",,,822.6372297999915,822.6372297999915,,,,,,,,,,,,,,,,,,,,,,,,,,,,,,"[0, 0, 0]",,,,,1,M,1,39,r,EIM,2022_Apr_12_1306,2020.2.10,distractmap1,59.992033067184366,"['Right Face', 'Left Arm', 'Chest', 'Right Leg']",
2,"[0, 0.2]",1,0,4,4,4,,,,,,,824.6872552999994,824.6872552999994,824.6872552999994,825.6872425999027,825.6872425999027,None,1,None,None,"[1, 0, 0]",,,824.6872552999994,824.6872552999994,,,,,,,,,,,,,,,,,,,,,,,,,,,,,,"[1, 0, 0]",,,0.6962114999769256,0.0,1,M,1,39,r,EIM,2022_Apr_12_1306,2020.2.10,distractmap1,59.992033067184366,"['Right Face', 'Left Arm', 'Chest', 'Right Leg']",
5,"[0, 0]",0,0,5,5,5,,,,,,,826.6539464999223,None,826.6539464999223,827.6539341999451,827.6372697999468,828.6372848999454,1,None,None,"[1, 0, 0]",,,826.6539464999223,None,,,,,,,,,,,,,,,,,,,,,,,,,,,,,,"[1, 0, 0]",,,0.0,0.545635599992238,1,M,1,39,r,EIM,2022_Apr_12_1306,2020.2.10,distractmap1,59.992033067184366,"['Right Face', 'Left Arm', 'Chest', 'Right Leg']",
1,"[-0.2, 0.2]",0,0,6,6,6,,,,,,,828.6539424000075,828.6539424000075,828.6539424000075,829.653960699914,829.637281699921,830.6372985999333,1,None,None,"[1, 0, 0]",,,828.6539424000075,828.6539424000075,,,,,,,,,,,,,,,,,,,,,,,,,,,,,,"[1, 0, 0]",,,0.0,0.4963275999762118,1,M,1,39,r,EIM,2022_Apr_12_1306,2020.2.10,distractmap1,59.992033067184366,"['Right Face', 'Left Arm', 'Chest', 'Right Leg']",
1,"[-0.2, 0.2]",1,0,7,7,7,,,,,,,830.6539372999687,830.6539372999687,830.6539372999687,831.653962399927,831.637307500001,832.6373111999128,0,None,None,"[0, 0, 0]",,,830.6539372999687,830.6539372999687,,,,,,,,,,,,,,,,,,,,,,,,,,,,,,"[0, 0, 0]",,,,,1,M,1,39,r,EIM,2022_Apr_12_1306,2020.2.10,distractmap1,59.992033067184366,"['Right Face', 'Left Arm', 'Chest', 'Right Leg']",
8,"[0, -0.2]",0,0,8,8,8,,,,,,,832.6539689999772,832.6539689999772,832.6539689999772,833.6539842999773,833.6373216999928,834.6373300999403,1,None,None,"[0, 0, 0]",,,832.6539689999772,832.6539689999772,,,,,,,,,,,,,,,,,,,,,,,,,,,,,,"[0, 0, 0]",,,,,1,M,1,39,r,EIM,2022_Apr_12_1306,2020.2.10,distractmap1,59.992033067184366,"['Right Face', 'Left Arm', 'Chest', 'Right Leg']",
7,"[-0.2, -0.2]",0,0,9,9,9,,,,,,,834.6538880999433,834.6538880999433,834.6538880999433,835.6539993999759,835.6373415999115,836.637361299945,1,None,None,"[0, 0, 0]",,,834.6538880999433,834.6538880999433,,,,,,,,,,,,,,,,,,,,,,,,,,,,,,"[0, 0, 0]",,,,,1,M,1,39,r,EIM,2022_Apr_12_1306,2020.2.10,distractmap1,59.992033067184366,"['Right Face', 'Left Arm', 'Chest', 'Right Leg']",
,,,,,,,,,,,836.6539924999233,None,,,,,,,,,,,,,,,,,,,,,,,,,,,,,,,,,,,,,,,,18.765432098765434,478.04953763994854,,,,,,,,1,M,1,39,r,EIM,2022_Apr_12_1306,2020.2.10,distractmap1,59.992033067184366,"['Right Face', 'Left Arm', 'Chest', 'Right Leg']",
7,"[-0.2, -0.2]",None,,,,,0,0,0,0,849.904350399971,None,,,,,,,,,,,,,,,,,,,,None,None,"[0, 0, 0]",856.7208609000081,None,856.7208609000081,857.7208560999716,857.704193099984,858.7042085999856,"[0, 0, 0]",1,856.7208609000081,None,,,,,,,,,,0.014423560001887381,5.01126255991403,,,,,,1,M,1,39,r,EIM,2022_Apr_12_1306,2020.2.10,distractmap1,59.992033067184366,"['Right Face', 'Left Arm', 'Chest', 'Right Leg']",
7,"[-0.2, -0.2]",None,,,,,0,1,1,1,,,,,,,,,,,,,,,,,,,,,,None,None,"[0, 0, 0]",858.7208617000142,860.7208957999246,858.7208617000142,859.7208647999214,859.7042086999863,860.7042143999133,"[0, 0, 0]",0,858.7208617000142,860.7208957999246,,,,,,,,,,,,,,,,,1,M,1,39,r,EIM,2022_Apr_12_1306,2020.2.10,distractmap1,59.992033067184366,"['Right Face', 'Left Arm', 'Chest', 'Right Leg']",
7,"[-0.2, -0.2]",1,,,,,0,2,2,2,,,,,,,,,,,,,,,,,,,,,,None,None,"[0, 0, 0]",860.737525900011,862.7375639999518,860.737525900011,861.7375541999936,861.720886999974,862.7209077000152,"[0, 0, 0]",1,860.737525900011,862.7375639999518,,,,,,,,,,,,,,,,,1,M,1,39,r,EIM,2022_Apr_12_1306,2020.2.10,distractmap1,59.992033067184366,"['Right Face', 'Left Arm', 'Chest', 'Right Leg']",
5,"[0, 0]",0,,,,,0,3,3,3,,,,,,,,,,,,,,,,,,,,,,None,None,"[0, 0, 0]",862.7542389999144,864.754260799964,862.7542389999144,863.7542358000064,863.737586800009,864.7375879999017,"[0, 0, 0]",1,862.7542389999144,864.754260799964,,,,,,,,,,,,,,,,,1,M,1,39,r,EIM,2022_Apr_12_1306,2020.2.10,distractmap1,59.992033067184366,"['Right Face', 'Left Arm', 'Chest', 'Right Leg']",
1,"[-0.2, 0.2]",0,,,,,0,4,4,4,,,,,,,,,,,,,,,,,,,,,,None,None,"[0, 0, 0]",864.7878461999353,None,864.7878461999353,865.7875974999042,865.7709108999697,866.7709420999745,"[0, 0, 0]",1,864.7878461999353,None,,,,,,,,,,,,,,,,,1,M,1,39,r,EIM,2022_Apr_12_1306,2020.2.10,distractmap1,59.992033067184366,"['Right Face', 'Left Arm', 'Chest', 'Right Leg']",
6,"[0.2, 0]",0,,,,,0,5,5,5,,,,,,,,,,,,,,,,,,,,,,None,None,"[0, 0, 0]",866.7875960000092,868.7876154999249,866.7875960000092,867.7876168999355,867.7709485999076,868.770947999903,"[0, 0, 0]",1,866.7875960000092,868.7876154999249,,,,,,,,,,,,,,,,,1,M,1,39,r,EIM,2022_Apr_12_1306,2020.2.10,distractmap1,59.992033067184366,"['Right Face', 'Left Arm', 'Chest', 'Right Leg']",
1,"[-0.2, 0.2]",1,,,,,0,6,6,6,,,,,,,,,,,,,,,,,,,,,,None,None,"[0, 0, 0]",868.8042936999118,870.8043011999689,868.8042936999118,869.8043038999895,869.7876230999827,870.7876310999272,"[0, 0, 0]",0,868.8042936999118,870.8043011999689,,,,,,,,,,,,,,,,,1,M,1,39,r,EIM,2022_Apr_12_1306,2020.2.10,distractmap1,59.992033067184366,"['Right Face', 'Left Arm', 'Chest', 'Right Leg']",
7,"[-0.2, -0.2]",0,,,,,0,7,7,7,,,,,,,,,,,,,,,,,,,,,,None,None,"[0, 0, 0]",870.8209663999733,872.8209816999733,870.8209663999733,871.8209852,871.8043171999743,872.8043480999768,"[0, 0, 0]",1,870.8209663999733,872.8209816999733,,,,,,,,,,,,,,,,,1,M,1,39,r,EIM,2022_Apr_12_1306,2020.2.10,distractmap1,59.992033067184366,"['Right Face', 'Left Arm', 'Chest', 'Right Leg']",
6,"[0.2, 0]",0,,,,,0,8,8,8,,,,,,,,,,,,,,,,,,,,,,None,None,"[0, 0, 0]",872.8376300999662,874.8376627999824,872.8376300999662,873.8376601999626,873.820867799921,874.8210035999073,"[0, 0, 0]",1,872.8376300999662,874.8376627999824,,,,,,,,,,,,,,,,,1,M,1,39,r,EIM,2022_Apr_12_1306,2020.2.10,distractmap1,59.992033067184366,"['Right Face', 'Left Arm', 'Chest', 'Right Leg']",
7,"[-0.2, -0.2]",1,,,,,0,9,9,9,,,,,,,,,,,,,,,,,,,,,,None,None,"[0, 0, 0]",874.8544195999857,876.8543826999376,874.8544195999857,875.8543620000128,875.83767909999,876.8376854999224,"[0, 0, 0]",1,874.8544195999857,876.8543826999376,,,,,,,,,,,,,,,,,1,M,1,39,r,EIM,2022_Apr_12_1306,2020.2.10,distractmap1,59.992033067184366,"['Right Face', 'Left Arm', 'Chest', 'Right Leg']",
,,,,,,,,,,,876.8710180999478,None,,,,,,,,,,,,,,,,,,,,,,,,,,,,,,,,,,,,,,,,10.679012345679013,521.0332408399554,,,,,,,,1,M,1,39,r,EIM,2022_Apr_12_1306,2020.2.10,distractmap1,59.992033067184366,"['Right Face', 'Left Arm', 'Chest', 'Right Leg']",
6,"[0.2, 0]",None,0,0,0,0,,,,,892.1546929000178,None,896.9378680000082,None,896.9378680000082,897.9378759999527,897.9212078999262,898.9212055999087,1,None,None,"[0, 0, 0]",,,896.9378680000082,None,,,,,,,,,,,,,,,,,,,,,,,,,,,,0.014425460016354918,5.011229760013521,"[0, 0, 0]",,,,,1,M,1,39,r,EIM,2022_Apr_12_1306,2020.2.10,distractmap1,59.992033067184366,"['Right Face', 'Left Arm', 'Chest', 'Right Leg']",
6,"[0.2, 0]",1,0,1,1,1,,,,,,,898.9377645999193,None,898.9377645999193,899.9378792999778,899.9212265999522,900.921230899985,1,None,None,"[0, 0, 0]",,,898.9377645999193,None,,,,,,,,,,,,,,,,,,,,,,,,,,,,,,"[0, 0, 0]",,,,,1,M,1,39,r,EIM,2022_Apr_12_1306,2020.2.10,distractmap1,59.992033067184366,"['Right Face', 'Left Arm', 'Chest', 'Right Leg']",
1,"[-0.2, 0.2]",0,0,2,2,2,,,,,,,900.9379065999528,900.9379065999528,900.9379065999528,901.9379087999696,901.9212326999987,902.921243299963,1,None,None,"[0, 0, 0]",,,900.9379065999528,900.9379065999528,,,,,,,,,,,,,,,,,,,,,,,,,,,,,,"[0, 0, 0]",,,,,1,M,1,39,r,EIM,2022_Apr_12_1306,2020.2.10,distractmap1,59.992033067184366,"['Right Face', 'Left Arm', 'Chest', 'Right Leg']",
8,"[0, -0.2]",0,0,3,3,3,,,,,,,902.9379064999521,902.9379064999521,902.9379064999521,903.9379316999111,903.9212530999212,904.9212693999289,1,None,None,"[0, 0, 0]",,,902.9379064999521,902.9379064999521,,,,,,,,,,,,,,,,,,,,,,,,,,,,,,"[0, 0, 0]",,,,,1,M,1,39,r,EIM,2022_Apr_12_1306,2020.2.10,distractmap1,59.992033067184366,"['Right Face', 'Left Arm', 'Chest', 'Right Leg']",
1,"[-0.2, 0.2]",0,0,4,4,4,,,,,,,904.988428200013,904.988428200013,904.988428200013,905.9879472999601,905.9712692999747,None,1,None,None,"[0, 0, 0]",,,904.988428200013,904.988428200013,,,,,,,,,,,,,,,,,,,,,,,,,,,,,,"[0, 0, 0]",,,,,1,M,1,39,r,EIM,2022_Apr_12_1306,2020.2.10,distractmap1,59.992033067184366,"['Right Face', 'Left Arm', 'Chest', 'Right Leg']",
4,"[-0.2, 0]",0,0,5,5,5,,,,,,,906.9545866999542,None,906.9545866999542,907.9546297999332,907.93795339996,908.9379948999267,1,None,None,"[0, 0, 0]",,,906.9545866999542,None,,,,,,,,,,,,,,,,,,,,,,,,,,,,,,"[0, 0, 0]",,,,,1,M,1,39,r,EIM,2022_Apr_12_1306,2020.2.10,distractmap1,59.992033067184366,"['Right Face', 'Left Arm', 'Chest', 'Right Leg']",
5,"[0, 0]",0,0,6,6,6,,,,,,,908.9546225999948,908.9546225999948,908.9546225999948,909.9546334999613,909.9379800999304,910.9379843999632,1,None,None,"[0, 0, 0]",,,908.9546225999948,908.9546225999948,,,,,,,,,,,,,,,,,,,,,,,,,,,,,,"[0, 0, 0]",,,,,1,M,1,39,r,EIM,2022_Apr_12_1306,2020.2.10,distractmap1,59.992033067184366,"['Right Face', 'Left Arm', 'Chest', 'Right Leg']",
7,"[-0.2, -0.2]",0,0,7,7,7,,,,,,,910.9546429999173,910.9546429999173,910.9546429999173,911.954661799944,911.9379857999738,912.9379952999298,1,None,None,"[0, 0, 0]",,,910.9546429999173,910.9546429999173,,,,,,,,,,,,,,,,,,,,,,,,,,,,,,"[0, 0, 0]",,,,,1,M,1,39,r,EIM,2022_Apr_12_1306,2020.2.10,distractmap1,59.992033067184366,"['Right Face', 'Left Arm', 'Chest', 'Right Leg']",
7,"[-0.2, -0.2]",1,0,8,8,8,,,,,,,912.9546568999067,912.9546568999067,912.9546568999067,913.9546805999707,913.9380083999131,914.9380221999018,1,None,None,"[0, 0, 0]",,,912.9546568999067,912.9546568999067,,,,,,,,,,,,,,,,,,,,,,,,,,,,,,"[0, 0, 0]",,,,,1,M,1,39,r,EIM,2022_Apr_12_1306,2020.2.10,distractmap1,59.992033067184366,"['Right Face', 'Left Arm', 'Chest', 'Right Leg']",
7,"[-0.2, -0.2]",1,0,9,9,9,,,,,,,914.9546712000156,914.9546712000156,914.9546712000156,915.9546856000088,915.938037200016,916.9380303999642,1,None,None,"[0, 0, 0]",,,914.9546712000156,914.9546712000156,,,,,,,,,,,,,,,,,,,,,,,,,,,,,,"[0, 0, 0]",,,,,1,M,1,39,r,EIM,2022_Apr_12_1306,2020.2.10,distractmap1,59.992033067184366,"['Right Face', 'Left Arm', 'Chest', 'Right Leg']",
,,,,,,,,,,,916.9547058999306,None,,,,,,,,,,,,,,,,,,,,,,,,,,,,,,,,,,,,,,,,16.54320987654321,564.816162639996,,,,,,,,1,M,1,39,r,EIM,2022_Apr_12_1306,2020.2.10,distractmap1,59.992033067184366,"['Right Face', 'Left Arm', 'Chest', 'Right Leg']",
8,"[0, -0.2]",None,0,0,0,0,,,,,934.2216578999069,None,937.0048722999636,None,937.0048722999636,938.004858899978,937.9715346000157,938.9715311999898,1,None,None,"[0, 0, 0]",,,937.0048722999636,None,,,,,,,,,,,,,,,,,,,,,,,,,,,,0.015184759977273643,5.0128201600164175,"[0, 0, 0]",,,,,1,M,1,39,r,EIM,2022_Apr_12_1306,2020.2.10,distractmap1,59.992033067184366,"['Right Face', 'Left Arm', 'Chest', 'Right Leg']",
6,"[0.2, 0]",0,0,1,1,1,,,,,,,939.004881599918,None,939.004881599918,940.0048854999477,939.9882253999822,940.9882459999062,1,None,None,"[0, 0, 0]",,,939.004881599918,None,,,,,,,,,,,,,,,,,,,,,,,,,,,,,,"[0, 0, 0]",,,,,1,M,1,39,r,EIM,2022_Apr_12_1306,2020.2.10,distractmap1,59.992033067184366,"['Right Face', 'Left Arm', 'Chest', 'Right Leg']",
6,"[0.2, 0]",1,0,2,2,2,,,,,,,941.0049047999782,941.0049047999782,941.0049047999782,942.0048979999265,941.988252799958,942.9882559999824,1,None,None,"[0, 0, 0]",,,941.0049047999782,941.0049047999782,,,,,,,,,,,,,,,,,,,,,,,,,,,,,,"[0, 0, 0]",,,,,1,M,1,39,r,EIM,2022_Apr_12_1306,2020.2.10,distractmap1,59.992033067184366,"['Right Face', 'Left Arm', 'Chest', 'Right Leg']",
2,"[0, 0.2]",0,0,3,3,3,,,,,,,943.0049120999174,943.0049120999174,943.0049120999174,944.0049397000112,943.988259900012,944.9882746000076,1,None,None,"[0, 0, 0]",,,943.0049120999174,943.0049120999174,,,,,,,,,,,,,,,,,,,,,,,,,,,,,,"[0, 0, 0]",,,,,1,M,1,39,r,EIM,2022_Apr_12_1306,2020.2.10,distractmap1,59.992033067184366,"['Right Face', 'Left Arm', 'Chest', 'Right Leg']",
1,"[-0.2, 0.2]",0,0,4,4,4,,,,,,,945.03864839999,945.03864839999,945.03864839999,946.0382831000024,946.0216135999653,None,1,None,None,"[0, 0, 0]",,,945.03864839999,945.03864839999,,,,,,,,,,,,,,,,,,,,,,,,,,,,,,"[0, 0, 0]",,,,,1,M,1,39,r,EIM,2022_Apr_12_1306,2020.2.10,distractmap1,59.992033067184366,"['Right Face', 'Left Arm', 'Chest', 'Right Leg']",
6,"[0.2, 0]",0,0,5,5,5,,,,,,,947.0216238999274,None,947.0216238999274,948.0216136999661,948.0049711999018,949.0049803999718,1,None,None,"[0, 0, 0]",,,947.0216238999274,None,,,,,,,,,,,,,,,,,,,,,,,,,,,,,,"[0, 0, 0]",,,,,1,M,1,39,r,EIM,2022_Apr_12_1306,2020.2.10,distractmap1,59.992033067184366,"['Right Face', 'Left Arm', 'Chest', 'Right Leg']",
9,"[0.2, -0.2]",0,0,6,6,6,,,,,,,949.0216421999503,949.0216421999503,949.0216421999503,950.021658899961,950.0049885999179,951.0050071999431,1,None,None,"[0, 0, 0]",,,949.0216421999503,949.0216421999503,,,,,,,,,,,,,,,,,,,,,,,,,,,,,,"[0, 0, 0]",,,,,1,M,1,39,r,EIM,2022_Apr_12_1306,2020.2.10,distractmap1,59.992033067184366,"['Right Face', 'Left Arm', 'Chest', 'Right Leg']",
1,"[-0.2, 0.2]",0,0,7,7,7,,,,,,,951.0216467999853,951.0216467999853,951.0216467999853,952.021642299951,952.0050154000055,953.0050098999636,1,None,None,"[0, 0, 0]",,,951.0216467999853,951.0216467999853,,,,,,,,,,,,,,,,,,,,,,,,,,,,,,"[0, 0, 0]",,,,,1,M,1,39,r,EIM,2022_Apr_12_1306,2020.2.10,distractmap1,59.992033067184366,"['Right Face', 'Left Arm', 'Chest', 'Right Leg']",
6,"[0.2, 0]",0,0,8,8,8,,,,,,,953.0216888999566,953.0216888999566,953.0216888999566,954.021668399917,954.005011399975,955.0050216999371,1,None,None,"[0, 0, 0]",,,953.0216888999566,953.0216888999566,,,,,,,,,,,,,,,,,,,,,,,,,,,,,,"[0, 0, 0]",,,,,1,M,1,39,r,EIM,2022_Apr_12_1306,2020.2.10,distractmap1,59.992033067184366,"['Right Face', 'Left Arm', 'Chest', 'Right Leg']",
6,"[0.2, 0]",1,0,9,9,9,,,,,,,955.0216872999445,955.0216872999445,955.0216872999445,956.0216830999125,956.005036199931,957.0050413999707,1,None,None,"[0, 0, 0]",,,955.0216872999445,955.0216872999445,,,,,,,,,,,,,,,,,,,,,,,,,,,,,,"[0, 0, 0]",,,,,1,M,1,39,r,EIM,2022_Apr_12_1306,2020.2.10,distractmap1,59.992033067184366,"['Right Face', 'Left Arm', 'Chest', 'Right Leg']",
,,,,,,,,,,,957.0216934999917,None,,,,,,,,,,,,,,,,,,,,,,,,,,,,,,,,,,,,,,,,19.259259259259256,603.3665815400891,,,,,,,,1,M,1,39,r,EIM,2022_Apr_12_1306,2020.2.10,distractmap1,59.992033067184366,"['Right Face', 'Left Arm', 'Chest', 'Right Leg']",
4,"[-0.2, 0]",None,,,,,0,0,0,0,974.288978699944,None,,,,,,,,,,,,,,,,,,,,None,None,"[0, 0, 0]",977.0885480999714,None,977.0885480999714,978.0885581999319,978.0719009999884,979.0718916999176,"[0, 0, 0]",1,977.0885480999714,None,,,,,,,,,,0.015102559933438897,5.012460759957321,,,,,,1,M,1,39,r,EIM,2022_Apr_12_1306,2020.2.10,distractmap1,59.992033067184366,"['Right Face', 'Left Arm', 'Chest', 'Right Leg']",
5,"[0, 0]",None,,,,,0,1,1,1,,,,,,,,,,,,,,,,,,,,,,None,None,"[0, 0, 0]",979.0885576999281,981.0885802999837,979.0885576999281,980.0885709999129,980.0719073999207,981.0719150999794,"[0, 0, 0]",1,979.0885576999281,981.0885802999837,,,,,,,,,,,,,,,,,1,M,1,39,r,EIM,2022_Apr_12_1306,2020.2.10,distractmap1,59.992033067184366,"['Right Face', 'Left Arm', 'Chest', 'Right Leg']",
6,"[0.2, 0]",0,,,,,0,2,2,2,,,,,,,,,,,,,,,,,,,,,,None,None,"[0, 0, 0]",981.1052625000011,983.1052686999319,981.1052625000011,982.105259599979,982.088587999926,983.0885962999891,"[0, 0, 0]",1,981.1052625000011,983.1052686999319,,,,,,,,,,,,,,,,,1,M,1,39,r,EIM,2022_Apr_12_1306,2020.2.10,distractmap1,59.992033067184366,"['Right Face', 'Left Arm', 'Chest', 'Right Leg']",
1,"[-0.2, 0.2]",0,,,,,0,3,3,3,,,,,,,,,,,,,,,,,,,,,,None,None,"[0, 0, 0]",983.121931099915,985.1219503999455,983.121931099915,984.1219430000056,984.1052828999236,985.1052900999784,"[0, 0, 0]",1,983.121931099915,985.1219503999455,,,,,,,,,,,,,,,,,1,M,1,39,r,EIM,2022_Apr_12_1306,2020.2.10,distractmap1,59.992033067184366,"['Right Face', 'Left Arm', 'Chest', 'Right Leg']",
6,"[0.2, 0]",1,,,,,0,4,4,4,,,,,,,,,,,,,,,,,,,,,,None,None,"[0, 0, 0]",985.2055948999478,None,985.2055948999478,986.2053110999987,986.1886423999676,None,"[0, 0, 0]",1,985.2055948999478,None,,,,,,,,,,,,,,,,,1,M,1,39,r,EIM,2022_Apr_12_1306,2020.2.10,distractmap1,59.992033067184366,"['Right Face', 'Left Arm', 'Chest', 'Right Leg']",
1,"[-0.2, 0.2]",1,,,,,0,5,5,5,,,,,,,,,,,,,,,,,,,,,,None,None,"[0, 0, 0]",987.1552998999832,989.1553199999034,987.1552998999832,988.1553212999133,988.1386448999401,989.1386649999768,"[0, 0, 0]",1,987.1552998999832,989.1553199999034,,,,,,,,,,,,,,,,,1,M,1,39,r,EIM,2022_Apr_12_1306,2020.2.10,distractmap1,59.992033067184366,"['Right Face', 'Left Arm', 'Chest', 'Right Leg']",
2,"[0, 0.2]",0,,,,,0,6,6,6,,,,,,,,,,,,,,,,,,,,,,None,None,"[0, 0, 0]",989.1719996000174,991.1720023999223,989.1719996000174,990.1719980000053,990.1553585999645,991.1553626999957,"[0, 0, 0]",1,989.1719996000174,991.1720023999223,,,,,,,,,,,,,,,,,1,M,1,39,r,EIM,2022_Apr_12_1306,2020.2.10,distractmap1,59.992033067184366,"['Right Face', 'Left Arm', 'Chest', 'Right Leg']",
3,"[0.2, 0.2]",0,,,,,0,7,7,7,,,,,,,,,,,,,,,,,,,,,,None,None,"[0, 0, 0]",991.1886555999517,993.1887021999573,991.1886555999517,992.1886789000127,992.1720250999788,993.172028800007,"[0, 0, 0]",1,991.1886555999517,993.1887021999573,,,,,,,,,,,,,,,,,1,M,1,39,r,EIM,2022_Apr_12_1306,2020.2.10,distractmap1,59.992033067184366,"['Right Face', 'Left Arm', 'Chest', 'Right Leg']",
6,"[0.2, 0]",0,,,,,0,8,8,8,,,,,,,,,,,,,,,,,,,,,,None,None,"[0, 0, 0]",993.205384699977,995.2053839999717,993.205384699977,994.2053706999868,994.1886984999292,995.1887193999719,"[0, 0, 0]",1,993.205384699977,995.2053839999717,,,,,,,,,,,,,,,,,1,M,1,39,r,EIM,2022_Apr_12_1306,2020.2.10,distractmap1,59.992033067184366,"['Right Face', 'Left Arm', 'Chest', 'Right Leg']",
3,"[0.2, 0.2]",1,,,,,0,9,9,9,,,,,,,,,,,,,,,,,,,,,,None,None,"[0, 0, 0]",995.2220417999197,997.2220539000118,995.2220417999197,996.2220578999259,996.205411199946,997.2053975999588,"[0, 0, 0]",1,995.2220417999197,997.2220539000118,,,,,,,,,,,,,,,,,1,M,1,39,r,EIM,2022_Apr_12_1306,2020.2.10,distractmap1,59.992033067184366,"['Right Face', 'Left Arm', 'Chest', 'Right Leg']",
,,,,,,,,,,,997.2386160999304,None,,,,,,,,,,,,,,,,,,,,,,,,,,,,,,,,,,,,,,,,10.61728395061728,639.1337099400116,,,,,,,,1,M,1,39,r,EIM,2022_Apr_12_1306,2020.2.10,distractmap1,59.992033067184366,"['Right Face', 'Left Arm', 'Chest', 'Right Leg']",
9,"[0.2, -0.2]",None,0,0,0,0,,,,,1010.4890248000156,None,1017.2889037999557,None,1017.2889037999557,1018.2889469999354,1018.255608699983,1019.255579699995,1,None,None,"[0, 0, 0]",,,1017.2889037999557,None,,,,,,,,,,,,,,,,,,,,,,,,,,,,0.014969259966164827,5.01235216006171,"[0, 0, 0]",,,,,1,M,1,39,r,EIM,2022_Apr_12_1306,2020.2.10,distractmap1,59.992033067184366,"['Right Face', 'Left Arm', 'Chest', 'Right Leg']",
9,"[0.2, -0.2]",1,0,1,1,1,,,,,,,1019.2889130999101,None,1019.2889130999101,1020.2889290999155,1020.2722654999234,1021.2722651999211,1,None,None,"[0, 0, 0]",,,1019.2889130999101,None,,,,,,,,,,,,,,,,,,,,,,,,,,,,,,"[0, 0, 0]",,,,,1,M,1,39,r,EIM,2022_Apr_12_1306,2020.2.10,distractmap1,59.992033067184366,"['Right Face', 'Left Arm', 'Chest', 'Right Leg']",
9,"[0.2, -0.2]",1,0,2,2,2,,,,,,,1021.2888085999293,1021.2888085999293,1021.2888085999293,1022.2889423000161,1022.272266899934,1023.2722819999326,1,None,None,"[0, 0, 0]",,,1021.2888085999293,1021.2888085999293,,,,,,,,,,,,,,,,,,,,,,,,,,,,,,"[0, 0, 0]",,,,,1,M,1,39,r,EIM,2022_Apr_12_1306,2020.2.10,distractmap1,59.992033067184366,"['Right Face', 'Left Arm', 'Chest', 'Right Leg']",
3,"[0.2, 0.2]",0,0,3,3,3,,,,,,,1023.2889566000085,1023.2889566000085,1023.2889566000085,1024.2889548999956,1024.2722853999585,1025.2722977999365,1,None,None,"[0, 0, 0]",,,1023.2889566000085,1023.2889566000085,,,,,,,,,,,,,,,,,,,,,,,,,,,,,,"[0, 0, 0]",,,,,1,M,1,39,r,EIM,2022_Apr_12_1306,2020.2.10,distractmap1,59.992033067184366,"['Right Face', 'Left Arm', 'Chest', 'Right Leg']",
5,"[0, 0]",0,0,4,4,4,,,,,,,1025.3559577999404,1025.3559577999404,1025.3559577999404,1026.3556406999705,1026.3389798999997,None,1,None,None,"[0, 0, 0]",,,1025.3559577999404,1025.3559577999404,,,,,,,,,,,,,,,,,,,,,,,,,,,,,,"[0, 0, 0]",,,,,1,M,1,39,r,EIM,2022_Apr_12_1306,2020.2.10,distractmap1,59.992033067184366,"['Right Face', 'Left Arm', 'Chest', 'Right Leg']",
4,"[-0.2, 0]",0,0,5,5,5,,,,,,,1027.3056530000176,None,1027.3056530000176,1028.305643599946,1028.2889866000041,1029.2890066999244,1,None,None,"[0, 0, 0]",,,1027.3056530000176,None,,,,,,,,,,,,,,,,,,,,,,,,,,,,,,"[0, 0, 0]",,,,,1,M,1,39,r,EIM,2022_Apr_12_1306,2020.2.10,distractmap1,59.992033067184366,"['Right Face', 'Left Arm', 'Chest', 'Right Leg']",
9,"[0.2, -0.2]",0,0,6,6,6,,,,,,,1029.3056733999401,1029.3056733999401,1029.3056733999401,1030.3056723999325,1030.2890270999633,1031.2890636000084,1,None,None,"[0, 0, 0]",,,1029.3056733999401,1029.3056733999401,,,,,,,,,,,,,,,,,,,,,,,,,,,,,,"[0, 0, 0]",,,,,1,M,1,39,r,EIM,2022_Apr_12_1306,2020.2.10,distractmap1,59.992033067184366,"['Right Face', 'Left Arm', 'Chest', 'Right Leg']",
6,"[0.2, 0]",0,0,7,7,7,,,,,,,1031.3056802999927,1031.3056802999927,1031.3056802999927,1032.3057205999503,1032.2890389999375,1033.2890340000158,1,None,None,"[0, 0, 0]",,,1031.3056802999927,1031.3056802999927,,,,,,,,,,,,,,,,,,,,,,,,,,,,,,"[0, 0, 0]",,,,,1,M,1,39,r,EIM,2022_Apr_12_1306,2020.2.10,distractmap1,59.992033067184366,"['Right Face', 'Left Arm', 'Chest', 'Right Leg']",
2,"[0, 0.2]",0,0,8,8,8,,,,,,,1033.3057094999822,1033.3057094999822,1033.3057094999822,1034.3056924999692,1034.2890554999467,1035.2890651999041,1,None,None,"[0, 0, 0]",,,1033.3057094999822,1033.3057094999822,,,,,,,,,,,,,,,,,,,,,,,,,,,,,,"[0, 0, 0]",,,,,1,M,1,39,r,EIM,2022_Apr_12_1306,2020.2.10,distractmap1,59.992033067184366,"['Right Face', 'Left Arm', 'Chest', 'Right Leg']",
2,"[0, 0.2]",1,0,9,9,9,,,,,,,1035.305714899907,1035.305714899907,1035.305714899907,1036.3057216999587,1036.2890591999749,1037.289103899966,1,None,None,"[0, 0, 0]",,,1035.305714899907,1035.305714899907,,,,,,,,,,,,,,,,,,,,,,,,,,,,,,"[0, 0, 0]",,,,,1,M,1,39,r,EIM,2022_Apr_12_1306,2020.2.10,distractmap1,59.992033067184366,"['Right Face', 'Left Arm', 'Chest', 'Right Leg']",
,,,,,,,,,,,1037.305746799917,None,,,,,,,,,,,,,,,,,,,,,,,,,,,,,,,,,,,,,,,,18.148148148148145,682.4840540399309,,,,,,,,1,M,1,39,r,EIM,2022_Apr_12_1306,2020.2.10,distractmap1,59.992033067184366,"['Right Face', 'Left Arm', 'Chest', 'Right Leg']",
2,"[0, 0.2]",None,0,0,0,0,,,,,1052.539644000004,None,1057.355923099909,None,1057.355923099909,1058.3559475999791,1058.3225801999215,1059.3225935999071,1,None,None,"[0, 0, 0]",,,1057.355923099909,None,,,,,,,,,,,,,,,,,,,,,,,,,,,,0.014969960087910295,5.012380160042085,"[0, 0, 0]",,,,,1,M,1,39,r,EIM,2022_Apr_12_1306,2020.2.10,distractmap1,59.992033067184366,"['Right Face', 'Left Arm', 'Chest', 'Right Leg']",
8,"[0, -0.2]",0,0,1,1,1,,,,,,,1059.3559464999707,None,1059.3559464999707,1060.3562421000097,1060.339256700012,1061.3392840999877,0,None,None,"[0, 0, 0]",,,1059.3559464999707,None,,,,,,,,,,,,,,,,,,,,,,,,,,,,,,"[0, 0, 0]",,,,,1,M,1,39,r,EIM,2022_Apr_12_1306,2020.2.10,distractmap1,59.992033067184366,"['Right Face', 'Left Arm', 'Chest', 'Right Leg']",
1,"[-0.2, 0.2]",0,0,2,2,2,,,,,,,1061.355946799973,1061.355946799973,1061.355946799973,1062.3559470999753,1062.3392944999505,1063.3392891999101,1,None,None,"[0, 0, 0]",,,1061.355946799973,1061.355946799973,,,,,,,,,,,,,,,,,,,,,,,,,,,,,,"[0, 0, 0]",,,,,1,M,1,39,r,EIM,2022_Apr_12_1306,2020.2.10,distractmap1,59.992033067184366,"['Right Face', 'Left Arm', 'Chest', 'Right Leg']",
2,"[0, 0.2]",0,0,3,3,3,,,,,,,1063.355958799948,1063.355958799948,1063.355958799948,1064.3559734999435,1064.3393020000076,1065.3393075999338,1,None,None,"[0, 0, 0]",,,1063.355958799948,1063.355958799948,,,,,,,,,,,,,,,,,,,,,,,,,,,,,,"[0, 0, 0]",,,,,1,M,1,39,r,EIM,2022_Apr_12_1306,2020.2.10,distractmap1,59.992033067184366,"['Right Face', 'Left Arm', 'Chest', 'Right Leg']",
2,"[0, 0.2]",1,0,4,4,4,,,,,,,1065.4065310999285,1065.4065310999285,1065.4065310999285,1066.4059942999156,1066.3893315999303,None,1,None,None,"[0, 0, 0]",,,1065.4065310999285,1065.4065310999285,,,,,,,,,,,,,,,,,,,,,,,,,,,,,,"[0, 0, 0]",,,,,1,M,1,39,r,EIM,2022_Apr_12_1306,2020.2.10,distractmap1,59.992033067184366,"['Right Face', 'Left Arm', 'Chest', 'Right Leg']",
7,"[-0.2, -0.2]",0,0,5,5,5,,,,,,,1067.3726538999472,None,1067.3726538999472,1068.3726607999997,1068.3560002999147,1069.3560246999841,1,None,None,"[0, 0, 0]",,,1067.3726538999472,None,,,,,,,,,,,,,,,,,,,,,,,,,,,,,,"[0, 0, 0]",,,,,1,M,1,39,r,EIM,2022_Apr_12_1306,2020.2.10,distractmap1,59.992033067184366,"['Right Face', 'Left Arm', 'Chest', 'Right Leg']",
9,"[0.2, -0.2]",0,0,6,6,6,,,,,,,1069.3726857999573,1069.3726857999573,1069.3726857999573,1070.372688399977,1070.3560352999484,1071.3560361999553,1,None,None,"[0, 0, 0]",,,1069.3726857999573,1069.3726857999573,,,,,,,,,,,,,,,,,,,,,,,,,,,,,,"[0, 0, 0]",,,,,1,M,1,39,r,EIM,2022_Apr_12_1306,2020.2.10,distractmap1,59.992033067184366,"['Right Face', 'Left Arm', 'Chest', 'Right Leg']",
9,"[0.2, -0.2]",1,0,7,7,7,,,,,,,1071.3725447999313,1071.3725447999313,1071.3725447999313,1072.3726966999238,1072.3560543999774,1073.3560487999348,1,None,None,"[0, 0, 0]",,,1071.3725447999313,1071.3725447999313,,,,,,,,,,,,,,,,,,,,,,,,,,,,,,"[0, 0, 0]",,,,,1,M,1,39,r,EIM,2022_Apr_12_1306,2020.2.10,distractmap1,59.992033067184366,"['Right Face', 'Left Arm', 'Chest', 'Right Leg']",
4,"[-0.2, 0]",0,0,8,8,8,,,,,,,1073.372715699952,1073.372715699952,1073.372715699952,1074.3726445999928,1074.3560515999561,1075.3560866999906,1,None,None,"[0, 0, 0]",,,1073.372715699952,1073.372715699952,,,,,,,,,,,,,,,,,,,,,,,,,,,,,,"[0, 0, 0]",,,,,1,M,1,39,r,EIM,2022_Apr_12_1306,2020.2.10,distractmap1,59.992033067184366,"['Right Face', 'Left Arm', 'Chest', 'Right Leg']",
5,"[0, 0]",0,0,9,9,9,,,,,,,1075.3727298999438,1075.3727298999438,1075.3727298999438,1076.3727590999333,1076.356078999932,1077.356079399935,1,None,None,"[0, 0, 0]",,,1075.3727298999438,1075.3727298999438,,,,,,,,,,,,,,,,,,,,,,,,,,,,,,"[0, 0, 0]",,,,,1,M,1,39,r,EIM,2022_Apr_12_1306,2020.2.10,distractmap1,59.992033067184366,"['Right Face', 'Left Arm', 'Chest', 'Right Leg']",
,,,,,,,,,,,1077.3727737999288,None,,,,,,,,,,,,,,,,,,,,,,,,,,,,,,,,,,,,,,,,11.234567901234566,724.2677345400443,,,,,,,,1,M,1,39,r,EIM,2022_Apr_12_1306,2020.2.10,distractmap1,59.992033067184366,"['Right Face', 'Left Arm', 'Chest', 'Right Leg']",
2,"[0, 0.2]",None,0,0,0,0,,,,,1094.6063498000149,None,1097.4229340999154,None,1097.4229340999154,1098.4229295999976,1098.4062713999301,1099.406273099943,1,None,None,"[0, 0, 0]",,,1097.4229340999154,None,,,,,,,,,,,,,,,,,,,,,,,,,,,,0.014980959938839078,5.012438460020348,"[0, 0, 0]",,,,,1,M,1,39,r,EIM,2022_Apr_12_1306,2020.2.10,distractmap1,59.992033067184366,"['Right Face', 'Left Arm', 'Chest', 'Right Leg']",
2,"[0, 0.2]",1,0,1,1,1,,,,,,,1099.4229244999588,None,1099.4229244999588,1100.4229515999323,1100.4062830999028,1101.406316199922,1,None,None,"[0, 0, 0]",,,1099.4229244999588,None,,,,,,,,,,,,,,,,,,,,,,,,,,,,,,"[0, 0, 0]",,,,,1,M,1,39,r,EIM,2022_Apr_12_1306,2020.2.10,distractmap1,59.992033067184366,"['Right Face', 'Left Arm', 'Chest', 'Right Leg']",
1,"[-0.2, 0.2]",0,0,2,2,2,,,,,,,1101.422945600003,1101.422945600003,1101.422945600003,1102.422975399997,1102.4062990999082,1103.4063205999555,1,None,None,"[0, 0, 0]",,,1101.422945600003,1101.422945600003,,,,,,,,,,,,,,,,,,,,,,,,,,,,,,"[0, 0, 0]",,,,,1,M,1,39,r,EIM,2022_Apr_12_1306,2020.2.10,distractmap1,59.992033067184366,"['Right Face', 'Left Arm', 'Chest', 'Right Leg']",
2,"[0, 0.2]",0,0,3,3,3,,,,,,,1103.4229717999697,1103.4229717999697,1103.4229717999697,1104.422871000017,1104.4063320999267,1105.4063536999747,1,None,None,"[0, 0, 0]",,,1103.4229717999697,1103.4229717999697,,,,,,,,,,,,,,,,,,,,,,,,,,,,,,"[0, 0, 0]",,,,,1,M,1,39,r,EIM,2022_Apr_12_1306,2020.2.10,distractmap1,59.992033067184366,"['Right Face', 'Left Arm', 'Chest', 'Right Leg']",
2,"[0, 0.2]",1,0,4,4,4,,,,,,,1105.4732028999133,1105.4732028999133,1105.4732028999133,1106.472999599995,1106.4563646999886,None,1,None,None,"[0, 0, 0]",,,1105.4732028999133,1105.4732028999133,,,,,,,,,,,,,,,,,,,,,,,,,,,,,,"[0, 0, 0]",,,,,1,M,1,39,r,EIM,2022_Apr_12_1306,2020.2.10,distractmap1,59.992033067184366,"['Right Face', 'Left Arm', 'Chest', 'Right Leg']",
4,"[-0.2, 0]",0,0,5,5,5,,,,,,,1107.4396686999826,None,1107.4396686999826,1108.439680499956,1108.4230246999068,1109.4230168999638,1,None,None,"[0, 0, 0]",,,1107.4396686999826,None,,,,,,,,,,,,,,,,,,,,,,,,,,,,,,"[0, 0, 0]",,,,,1,M,1,39,r,EIM,2022_Apr_12_1306,2020.2.10,distractmap1,59.992033067184366,"['Right Face', 'Left Arm', 'Chest', 'Right Leg']",
6,"[0.2, 0]",0,0,6,6,6,,,,,,,1109.4395804000087,1109.4395804000087,1109.4395804000087,1110.4396922999294,1110.4230273999274,1111.4230554999085,1,None,None,"[0, 0, 0]",,,1109.4395804000087,1109.4395804000087,,,,,,,,,,,,,,,,,,,,,,,,,,,,,,"[0, 0, 0]",,,,,1,M,1,39,r,EIM,2022_Apr_12_1306,2020.2.10,distractmap1,59.992033067184366,"['Right Face', 'Left Arm', 'Chest', 'Right Leg']",
8,"[0, -0.2]",0,0,7,7,7,,,,,,,1111.4397167999996,1111.4397167999996,1111.4397167999996,1112.439718700014,1112.4230541000143,1113.4230634999694,1,None,None,"[0, 0, 0]",,,1111.4397167999996,1111.4397167999996,,,,,,,,,,,,,,,,,,,,,,,,,,,,,,"[0, 0, 0]",,,,,1,M,1,39,r,EIM,2022_Apr_12_1306,2020.2.10,distractmap1,59.992033067184366,"['Right Face', 'Left Arm', 'Chest', 'Right Leg']",
9,"[0.2, -0.2]",0,0,8,8,8,,,,,,,1113.4396171999397,1113.4396171999397,1113.4396171999397,1114.4397287999745,1114.423084500013,1115.42306619999,1,None,None,"[0, 0, 0]",,,1113.4396171999397,1113.4396171999397,,,,,,,,,,,,,,,,,,,,,,,,,,,,,,"[0, 0, 0]",,,,,1,M,1,39,r,EIM,2022_Apr_12_1306,2020.2.10,distractmap1,59.992033067184366,"['Right Face', 'Left Arm', 'Chest', 'Right Leg']",
9,"[0.2, -0.2]",1,0,9,9,9,,,,,,,1115.4396436999086,1115.4396436999086,1115.4396436999086,1116.439770399942,1116.42309019994,1117.4230974999955,1,None,None,"[0, 0, 0]",,,1115.4396436999086,1115.4396436999086,,,,,,,,,,,,,,,,,,,,,,,,,,,,,,"[0, 0, 0]",,,,,1,M,1,39,r,EIM,2022_Apr_12_1306,2020.2.10,distractmap1,59.992033067184366,"['Right Face', 'Left Arm', 'Chest', 'Right Leg']",
,,,,,,,,,,,1117.4397953000152,None,,,,,,,,,,,,,,,,,,,,,,,,,,,,,,,,,,,,,,,,20.185185185185183,759.3681122401031,,,,,,,,1,M,1,39,r,EIM,2022_Apr_12_1306,2020.2.10,distractmap1,59.992033067184366,"['Right Face', 'Left Arm', 'Chest', 'Right Leg']",
2,"[0, 0.2]",None,,,,,0,0,0,0,1130.6900548000121,None,,,,,,,,,,,,,,,,,,,,None,None,"[0, 0, 0]",1137.5066079999087,None,1137.5066079999087,1138.5066020999802,1138.489940200001,1139.4899597999174,"[0, 0, 0]",1,1137.5066079999087,None,,,,,,,,,,0.014918259927071631,5.012268959893845,,,,,,1,M,1,39,r,EIM,2022_Apr_12_1306,2020.2.10,distractmap1,59.992033067184366,"['Right Face', 'Left Arm', 'Chest', 'Right Leg']",
5,"[0, 0]",None,,,,,0,1,1,1,,,,,,,,,,,,,,,,,,,,,,None,None,"[0, 0, 0]",1139.506628299947,1141.50667849998,1139.506628299947,1140.5066367000109,1140.4900073999306,1141.489969599992,"[0, 0, 0]",0,1139.506628299947,1141.50667849998,,,,,,,,,,,,,,,,,1,M,1,39,r,EIM,2022_Apr_12_1306,2020.2.10,distractmap1,59.992033067184366,"['Right Face', 'Left Arm', 'Chest', 'Right Leg']",
6,"[0.2, 0]",0,,,,,0,2,2,2,,,,,,,,,,,,,,,,,,,,,,None,None,"[0, 0, 0]",1141.5233186999103,1143.5233295999933,1141.5233186999103,1142.5233129999833,1142.5066514000064,1143.5066623999737,"[0, 0, 0]",1,1141.5233186999103,1143.5233295999933,,,,,,,,,,,,,,,,,1,M,1,39,r,EIM,2022_Apr_12_1306,2020.2.10,distractmap1,59.992033067184366,"['Right Face', 'Left Arm', 'Chest', 'Right Leg']",
1,"[-0.2, 0.2]",0,,,,,0,3,3,3,,,,,,,,,,,,,,,,,,,,,,None,None,"[0, 0, 0]",1143.5399915999733,1145.5400009999285,1143.5399915999733,1144.5400093999924,1144.523333699908,1145.5233489999082,"[0, 0, 0]",1,1143.5399915999733,1145.5400009999285,,,,,,,,,,,,,,,,,1,M,1,39,r,EIM,2022_Apr_12_1306,2020.2.10,distractmap1,59.992033067184366,"['Right Face', 'Left Arm', 'Chest', 'Right Leg']",
6,"[0.2, 0]",1,,,,,0,4,4,4,,,,,,,,,,,,,,,,,,,,,,None,None,"[0, 0, 0]",1145.6237427999731,None,1145.6237427999731,1146.6233633999946,1146.6066970999818,None,"[0, 0, 0]",1,1145.6237427999731,None,,,,,,,,,,,,,,,,,1,M,1,39,r,EIM,2022_Apr_12_1306,2020.2.10,distractmap1,59.992033067184366,"['Right Face', 'Left Arm', 'Chest', 'Right Leg']",
6,"[0.2, 0]",0,,,,,0,5,5,5,,,,,,,,,,,,,,,,,,,,,,None,None,"[0, 0, 0]",1147.5733843999915,1149.573377499939,1147.5733843999915,1148.5733861000044,1148.5567014999688,1149.5567001999589,"[0, 0, 0]",1,1147.5733843999915,1149.573377499939,,,,,,,,,,,,,,,,,1,M,1,39,r,EIM,2022_Apr_12_1306,2020.2.10,distractmap1,59.992033067184366,"['Right Face', 'Left Arm', 'Chest', 'Right Leg']",
9,"[0.2, -0.2]",0,,,,,0,6,6,6,,,,,,,,,,,,,,,,,,,,,,None,None,"[0, 0, 0]",1149.5900412999326,1151.59006889991,1149.5900412999326,1150.5900481999852,1150.5733963999664,1151.573410199955,"[0, 0, 0]",1,1149.5900412999326,1151.59006889991,,,,,,,,,,,,,,,,,1,M,1,39,r,EIM,2022_Apr_12_1306,2020.2.10,distractmap1,59.992033067184366,"['Right Face', 'Left Arm', 'Chest', 'Right Leg']",
6,"[0.2, 0]",1,,,,,0,7,7,7,,,,,,,,,,,,,,,,,,,,,,None,None,"[0, 0, 0]",1151.60672349995,1153.6067388999509,1151.60672349995,1152.606728499988,1152.590124099981,1153.5900804999983,"[0, 0, 0]",1,1151.60672349995,1153.6067388999509,,,,,,,,,,,,,,,,,1,M,1,39,r,EIM,2022_Apr_12_1306,2020.2.10,distractmap1,59.992033067184366,"['Right Face', 'Left Arm', 'Chest', 'Right Leg']",
3,"[0.2, 0.2]",0,,,,,0,8,8,8,,,,,,,,,,,,,,,,,,,,,,None,None,"[0, 0, 0]",1153.62341739994,1155.6234406000003,1153.62341739994,1154.6234277999029,1154.6066445999313,1155.6067913000006,"[0, 0, 0]",1,1153.62341739994,1155.6234406000003,,,,,,,,,,,,,,,,,1,M,1,39,r,EIM,2022_Apr_12_1306,2020.2.10,distractmap1,59.992033067184366,"['Right Face', 'Left Arm', 'Chest', 'Right Leg']",
9,"[0.2, -0.2]",0,,,,,0,9,9,9,,,,,,,,,,,,,,,,,,,,,,None,None,"[0, 0, 0]",1155.6401067000115,1157.6401131999446,1155.6401067000115,1156.640084499959,1156.6234679999761,1157.6234767999267,"[0, 0, 0]",0,1155.6401067000115,1157.6401131999446,,,,,,,,,,,,,,,,,1,M,1,39,r,EIM,2022_Apr_12_1306,2020.2.10,distractmap1,59.992033067184366,"['Right Face', 'Left Arm', 'Chest', 'Right Leg']",
,,,,,,,,,,,1157.6567918999353,None,,,,,,,,,,,,,,,,,,,,,,,,,,,,,,,,,,,,,,,,10.679012345679013,800.8518326398917,,,,,,,,1,M,1,39,r,EIM,2022_Apr_12_1306,2020.2.10,distractmap1,59.992033067184366,"['Right Face', 'Left Arm', 'Chest', 'Right Leg']",
3,"[0.2, 0.2]",None,,,,,0,0,0,0,1173.57392539992,None,,,,,,,,,,,,,,,,,,,,None,None,"[0, 0, 0]",1177.7069702999434,None,1177.7069702999434,1178.7069984999252,1178.6902958999854,1179.6903114999877,"[0, 0, 0]",1,1177.7069702999434,None,,,,,,,,,,0.01490376004949212,5.012228160048835,,,,,,1,M,1,39,r,EIM,2022_Apr_12_1306,2020.2.10,distractmap1,59.992033067184366,"['Right Face', 'Left Arm', 'Chest', 'Right Leg']",
9,"[0.2, -0.2]",None,,,,,0,1,1,1,,,,,,,,,,,,,,,,,,,,,,None,None,"[0, 0, 0]",1179.7069826999214,1181.7069970999146,1179.7069826999214,1180.7069769999944,1180.6903194999322,1181.6903217999497,"[0, 0, 0]",1,1179.7069826999214,1181.7069970999146,,,,,,,,,,,,,,,,,1,M,1,39,r,EIM,2022_Apr_12_1306,2020.2.10,distractmap1,59.992033067184366,"['Right Face', 'Left Arm', 'Chest', 'Right Leg']",
3,"[0.2, 0.2]",1,,,,,0,2,2,2,,,,,,,,,,,,,,,,,,,,,,None,None,"[0, 0, 0]",1181.7236482999288,1183.723681799951,1181.7236482999288,1182.723656599992,1182.7070089000044,1183.706948200008,"[0, 0, 0]",1,1181.7236482999288,1183.723681799951,,,,,,,,,,,,,,,,,1,M,1,39,r,EIM,2022_Apr_12_1306,2020.2.10,distractmap1,59.992033067184366,"['Right Face', 'Left Arm', 'Chest', 'Right Leg']",
7,"[-0.2, -0.2]",0,,,,,0,3,3,3,,,,,,,,,,,,,,,,,,,,,,None,None,"[0, 0, 0]",1183.7403639999684,1185.7403740999289,1183.7403639999684,1184.7403725999175,1184.7236832999624,1185.7236951999366,"[0, 0, 0]",1,1183.7403639999684,1185.7403740999289,,,,,,,,,,,,,,,,,1,M,1,39,r,EIM,2022_Apr_12_1306,2020.2.10,distractmap1,59.992033067184366,"['Right Face', 'Left Arm', 'Chest', 'Right Leg']",
8,"[0, -0.2]",0,,,,,0,4,4,4,,,,,,,,,,,,,,,,,,,,,,None,None,"[0, 0, 0]",1185.8073676999193,None,1185.8073676999193,1186.8070539999753,1186.790378100006,None,"[0, 0, 0]",1,1185.8073676999193,None,,,,,,,,,,,,,,,,,1,M,1,39,r,EIM,2022_Apr_12_1306,2020.2.10,distractmap1,59.992033067184366,"['Right Face', 'Left Arm', 'Chest', 'Right Leg']",
4,"[-0.2, 0]",0,,,,,0,5,5,5,,,,,,,,,,,,,,,,,,,,,,None,None,"[0, 0, 0]",1187.7737125999993,1189.7737213999499,1187.7737125999993,1188.773715899908,1188.757061399985,1189.7570678999182,"[0, 0, 0]",1,1187.7737125999993,1189.7737213999499,,,,,,,,,,,,,,,,,1,M,1,39,r,EIM,2022_Apr_12_1306,2020.2.10,distractmap1,59.992033067184366,"['Right Face', 'Left Arm', 'Chest', 'Right Leg']",
4,"[-0.2, 0]",0,,,,,0,6,6,6,,,,,,,,,,,,,,,,,,,,,,None,None,"[0, 0, 0]",1189.7903976999223,1191.7904254000168,1189.7903976999223,1190.7904216999887,1190.773761899909,1191.7737318999134,"[0, 0, 0]",1,1189.7903976999223,1191.7904254000168,,,,,,,,,,,,,,,,,1,M,1,39,r,EIM,2022_Apr_12_1306,2020.2.10,distractmap1,59.992033067184366,"['Right Face', 'Left Arm', 'Chest', 'Right Leg']",
1,"[-0.2, 0.2]",0,,,,,0,7,7,7,,,,,,,,,,,,,,,,,,,,,,None,None,"[0, 0, 0]",1191.8070827999618,1193.8070944999345,1191.8070827999618,1192.8070790999336,1192.7904228999978,1193.7904704000102,"[0, 0, 0]",1,1191.8070827999618,1193.8070944999345,,,,,,,,,,,,,,,,,1,M,1,39,r,EIM,2022_Apr_12_1306,2020.2.10,distractmap1,59.992033067184366,"['Right Face', 'Left Arm', 'Chest', 'Right Leg']",
4,"[-0.2, 0]",1,,,,,0,8,8,8,,,,,,,,,,,,,,,,,,,,,,None,None,"[0, 0, 0]",1193.823750999989,1195.82378039998,1193.823750999989,1194.8237986000022,1194.8070998999756,1195.8071085999254,"[0, 0, 0]",0,1193.823750999989,1195.82378039998,,,,,,,,,,,,,,,,,1,M,1,39,r,EIM,2022_Apr_12_1306,2020.2.10,distractmap1,59.992033067184366,"['Right Face', 'Left Arm', 'Chest', 'Right Leg']",
8,"[0, -0.2]",0,,,,,0,9,9,9,,,,,,,,,,,,,,,,,,,,,,None,None,"[0, 0, 0]",1195.8404873999534,1197.8404870999511,1195.8404873999534,1196.8407416999107,1196.8237930999603,1197.823824299965,"[0, 0, 0]",1,1195.8404873999534,1197.8404870999511,,,,,,,,,,,,,,,,,1,M,1,39,r,EIM,2022_Apr_12_1306,2020.2.10,distractmap1,59.992033067184366,"['Right Face', 'Left Arm', 'Chest', 'Right Leg']",
,,,,,,,,,,,1197.8571219999576,None,,,,,,,,,,,,,,,,,,,,,,,,,,,,,,,,,,,,,,,,12.469135802469133,841.5528902399819,,,,,,,,1,M,1,39,r,EIM,2022_Apr_12_1306,2020.2.10,distractmap1,59.992033067184366,"['Right Face', 'Left Arm', 'Chest', 'Right Leg']",
2,"[0, 0.2]",None,,,,,0,0,0,0,1211.8241626999807,None,,,,,,,,,,,,,,,,,,,,None,None,"[0, 0, 0]",1217.9073051000014,None,1217.9073051000014,1218.9073165999725,1218.8906490999507,1219.8906608999241,"[0, 0, 0]",1,1217.9073051000014,None,,,,,,,,,,0.014186260057613254,5.010768959997222,,,,,,1,M,1,39,r,EIM,2022_Apr_12_1306,2020.2.10,distractmap1,59.992033067184366,"['Right Face', 'Left Arm', 'Chest', 'Right Leg']",
5,"[0, 0]",None,,,,,0,1,1,1,,,,,,,,,,,,,,,,,,,,,,None,None,"[0, 0, 0]",1219.907351700007,1221.9073518000077,1219.907351700007,1220.9073388999095,1220.8906628999393,1221.8906739999074,"[0, 0, 0]",1,1219.907351700007,1221.9073518000077,,,,,,,,,,,,,,,,,1,M,1,39,r,EIM,2022_Apr_12_1306,2020.2.10,distractmap1,59.992033067184366,"['Right Face', 'Left Arm', 'Chest', 'Right Leg']",
3,"[0.2, 0.2]",0,,,,,0,2,2,2,,,,,,,,,,,,,,,,,,,,,,None,None,"[0, 0, 0]",1221.9239897999214,1223.9240165000083,1221.9239897999214,1222.924017500016,1222.9073870999273,1223.907364099985,"[0, 0, 0]",1,1221.9239897999214,1223.9240165000083,,,,,,,,,,,,,,,,,1,M,1,39,r,EIM,2022_Apr_12_1306,2020.2.10,distractmap1,59.992033067184366,"['Right Face', 'Left Arm', 'Chest', 'Right Leg']",
5,"[0, 0]",1,,,,,0,3,3,3,,,,,,,,,,,,,,,,,,,,,,None,None,"[0, 0, 0]",1223.940687199938,1225.9406861999305,1223.940687199938,1224.9407347999513,1224.9240503999172,1225.9240464000031,"[0, 0, 0]",0,1223.940687199938,1225.9406861999305,,,,,,,,,,,,,,,,,1,M,1,39,r,EIM,2022_Apr_12_1306,2020.2.10,distractmap1,59.992033067184366,"['Right Face', 'Left Arm', 'Chest', 'Right Leg']",
2,"[0, 0.2]",0,,,,,0,4,4,4,,,,,,,,,,,,,,,,,,,,,,None,None,"[0, 0, 0]",1225.9911050999071,None,1225.9911050999071,1226.9906572999898,1226.9740507999668,None,"[0, 0, 0]",1,1225.9911050999071,None,,,,,,,,,,,,,,,,,1,M,1,39,r,EIM,2022_Apr_12_1306,2020.2.10,distractmap1,59.992033067184366,"['Right Face', 'Left Arm', 'Chest', 'Right Leg']",
8,"[0, -0.2]",0,,,,,0,5,5,5,,,,,,,,,,,,,,,,,,,,,,None,None,"[0, 0, 0]",1227.9740631999448,1229.9740755999228,1227.9740631999448,1228.9740657999646,1228.9574353999924,1229.957434299984,"[0, 0, 0]",1,1227.9740631999448,1229.9740755999228,,,,,,,,,,,,,,,,,1,M,1,39,r,EIM,2022_Apr_12_1306,2020.2.10,distractmap1,59.992033067184366,"['Right Face', 'Left Arm', 'Chest', 'Right Leg']",
4,"[-0.2, 0]",0,,,,,0,6,6,6,,,,,,,,,,,,,,,,,,,,,,None,None,"[0, 0, 0]",1229.9907609999646,1231.9907729999395,1229.9907609999646,1230.9907828000141,1230.974083499983,1231.9740907999221,"[0, 0, 0]",1,1229.9907609999646,1231.9907729999395,,,,,,,,,,,,,,,,,1,M,1,39,r,EIM,2022_Apr_12_1306,2020.2.10,distractmap1,59.992033067184366,"['Right Face', 'Left Arm', 'Chest', 'Right Leg']",
8,"[0, -0.2]",1,,,,,0,7,7,7,,,,,,,,,,,,,,,,,,,,,,None,None,"[0, 0, 0]",1232.007435599924,1234.0074789999053,1232.007435599924,1233.0074209999293,1232.990773199941,1233.9908083999762,"[0, 0, 0]",1,1232.007435599924,1234.0074789999053,,,,,,,,,,,,,,,,,1,M,1,39,r,EIM,2022_Apr_12_1306,2020.2.10,distractmap1,59.992033067184366,"['Right Face', 'Left Arm', 'Chest', 'Right Leg']",
7,"[-0.2, -0.2]",0,,,,,0,8,8,8,,,,,,,,,,,,,,,,,,,,,,None,None,"[0, 0, 0]",1234.0241125999019,1236.0241077999817,1234.0241125999019,1235.0241315999301,1235.0074890999822,1236.007397599984,"[0, 0, 0]",1,1234.0241125999019,1236.0241077999817,,,,,,,,,,,,,,,,,1,M,1,39,r,EIM,2022_Apr_12_1306,2020.2.10,distractmap1,59.992033067184366,"['Right Face', 'Left Arm', 'Chest', 'Right Leg']",
8,"[0, -0.2]",1,,,,,0,9,9,9,,,,,,,,,,,,,,,,,,,,,,None,None,"[0, 0, 0]",1236.040806200006,1238.040813599946,1236.040806200006,1237.0407936999109,1237.024135799962,1238.0241518999683,"[0, 0, 0]",1,1236.040806200006,1238.040813599946,,,,,,,,,,,,,,,,,1,M,1,39,r,EIM,2022_Apr_12_1306,2020.2.10,distractmap1,59.992033067184366,"['Right Face', 'Left Arm', 'Chest', 'Right Leg']",
,,,,,,,,,,,1238.0574907999253,None,,,,,,,,,,,,,,,,,,,,,,,,,,,,,,,,,,,,,,,,10.8641975308642,880.3862677400466,,,,,,,,1,M,1,39,r,EIM,2022_Apr_12_1306,2020.2.10,distractmap1,59.992033067184366,"['Right Face', 'Left Arm', 'Chest', 'Right Leg']",
4,"[-0.2, 0]",None,0,0,0,0,,,,,1251.30759579991,None,1258.124354199972,None,1258.124354199972,1259.1243273,1259.091007299954,1260.091002299916,1,None,None,"[0, 0, 0]",,,1258.124354199972,None,,,,,,,,,,,,,,,,,,,,,,,,,,,,0.014474959927611053,5.011378159979358,"[0, 0, 0]",,,,,1,M,1,39,r,EIM,2022_Apr_12_1306,2020.2.10,distractmap1,59.992033067184366,"['Right Face', 'Left Arm', 'Chest', 'Right Leg']",
7,"[-0.2, -0.2]",0,0,1,1,1,,,,,,,1260.1243297999026,None,1260.1243297999026,1261.1243712999858,1261.1076842999319,1262.1076998999342,0,None,None,"[0, 0, 0]",,,1260.1243297999026,None,,,,,,,,,,,,,,,,,,,,,,,,,,,,,,"[0, 0, 0]",,,,,1,M,1,39,r,EIM,2022_Apr_12_1306,2020.2.10,distractmap1,59.992033067184366,"['Right Face', 'Left Arm', 'Chest', 'Right Leg']",
7,"[-0.2, -0.2]",1,0,2,2,2,,,,,,,1262.1243630999234,1262.1243630999234,1262.1243630999234,1263.1243742000079,1263.107706699986,1264.1077178999549,0,None,None,"[0, 0, 0]",,,1262.1243630999234,1262.1243630999234,,,,,,,,,,,,,,,,,,,,,,,,,,,,,,"[0, 0, 0]",,,,,1,M,1,39,r,EIM,2022_Apr_12_1306,2020.2.10,distractmap1,59.992033067184366,"['Right Face', 'Left Arm', 'Chest', 'Right Leg']",
4,"[-0.2, 0]",0,0,3,3,3,,,,,,,1264.124260099954,1264.124260099954,1264.124260099954,1265.124382399954,1265.1077196999686,1266.1077200999716,1,None,None,"[0, 0, 0]",,,1264.124260099954,1264.124260099954,,,,,,,,,,,,,,,,,,,,,,,,,,,,,,"[0, 0, 0]",,,,,1,M,1,39,r,EIM,2022_Apr_12_1306,2020.2.10,distractmap1,59.992033067184366,"['Right Face', 'Left Arm', 'Chest', 'Right Leg']",
8,"[0, -0.2]",0,0,4,4,4,,,,,,,1266.1913702000165,1266.1913702000165,1266.1913702000165,1267.1910866999533,1267.1744267999893,None,1,None,None,"[0, 0, 0]",,,1266.1913702000165,1266.1913702000165,,,,,,,,,,,,,,,,,,,,,,,,,,,,,,"[0, 0, 0]",,,,,1,M,1,39,r,EIM,2022_Apr_12_1306,2020.2.10,distractmap1,59.992033067184366,"['Right Face', 'Left Arm', 'Chest', 'Right Leg']",
4,"[-0.2, 0]",0,0,5,5,5,,,,,,,1268.1410669999896,None,1268.1410669999896,1269.1411006000126,1269.124411799945,1270.124418899999,1,None,None,"[0, 0, 0]",,,1268.1410669999896,None,,,,,,,,,,,,,,,,,,,,,,,,,,,,,,"[0, 0, 0]",,,,,1,M,1,39,r,EIM,2022_Apr_12_1306,2020.2.10,distractmap1,59.992033067184366,"['Right Face', 'Left Arm', 'Chest', 'Right Leg']",
7,"[-0.2, -0.2]",0,0,6,6,6,,,,,,,1270.1410739999264,1270.1410739999264,1270.1410739999264,1271.1412216000026,1271.1244280999526,1272.12447099993,1,None,None,"[0, 0, 0]",,,1270.1410739999264,1270.1410739999264,,,,,,,,,,,,,,,,,,,,,,,,,,,,,,"[0, 0, 0]",,,,,1,M,1,39,r,EIM,2022_Apr_12_1306,2020.2.10,distractmap1,59.992033067184366,"['Right Face', 'Left Arm', 'Chest', 'Right Leg']",
6,"[0.2, 0]",0,0,7,7,7,,,,,,,1272.1411117999814,1272.1411117999814,1272.1411117999814,1273.1411178999115,1273.1244906999636,1274.1244814000092,1,None,None,"[0, 0, 0]",,,1272.1411117999814,1272.1411117999814,,,,,,,,,,,,,,,,,,,,,,,,,,,,,,"[0, 0, 0]",,,,,1,M,1,39,r,EIM,2022_Apr_12_1306,2020.2.10,distractmap1,59.992033067184366,"['Right Face', 'Left Arm', 'Chest', 'Right Leg']",
6,"[0.2, 0]",1,0,8,8,8,,,,,,,1274.1411248999648,1274.1411248999648,1274.1411248999648,1275.1411305000074,1275.1244996999158,1276.124493499985,0,None,None,"[0, 0, 0]",,,1274.1411248999648,1274.1411248999648,,,,,,,,,,,,,,,,,,,,,,,,,,,,,,"[0, 0, 0]",,,,,1,M,1,39,r,EIM,2022_Apr_12_1306,2020.2.10,distractmap1,59.992033067184366,"['Right Face', 'Left Arm', 'Chest', 'Right Leg']",
1,"[-0.2, 0.2]",0,0,9,9,9,,,,,,,1276.141148399911,1276.141148399911,1276.141148399911,1277.1411496999208,1277.1244860999286,1278.124517899938,1,None,None,"[0, 0, 0]",,,1276.141148399911,1276.141148399911,,,,,,,,,,,,,,,,,,,,,,,,,,,,,,"[0, 0, 0]",,,,,1,M,1,39,r,EIM,2022_Apr_12_1306,2020.2.10,distractmap1,59.992033067184366,"['Right Face', 'Left Arm', 'Chest', 'Right Leg']",
,,,,,,,,,,,1278.141166599933,None,,,,,,,,,,,,,,,,,,,,,,,,,,,,,,,,,,,,,,,,20.925925925925924,920.2036518399836,,,,,,,,1,M,1,39,r,EIM,2022_Apr_12_1306,2020.2.10,distractmap1,59.992033067184366,"['Right Face', 'Left Arm', 'Chest', 'Right Leg']",
2,"[0, 0.2]",None,,,,,0,0,0,0,1291.3917725000065,None,,,,,,,,,,,,,,,,,,,,None,None,"[0, 0, 0]",1298.1913673999952,None,1298.1913673999952,1299.1913793999702,1299.1746555999853,1300.1746918999124,"[0, 0, 0]",1,1298.1913673999952,None,,,,,,,,,,0.014095559949055314,5.0104806600138545,,,,,,1,M,1,39,r,EIM,2022_Apr_12_1306,2020.2.10,distractmap1,59.992033067184366,"['Right Face', 'Left Arm', 'Chest', 'Right Leg']",
2,"[0, 0.2]",None,,,,,0,1,1,1,,,,,,,,,,,,,,,,,,,,,,None,None,"[0, 0, 0]",1300.191353400005,1302.1913800999755,1300.191353400005,1301.1912486999063,1301.1746899000136,1302.174716599984,"[0, 0, 0]",1,1300.191353400005,1302.1913800999755,,,,,,,,,,,,,,,,,1,M,1,39,r,EIM,2022_Apr_12_1306,2020.2.10,distractmap1,59.992033067184366,"['Right Face', 'Left Arm', 'Chest', 'Right Leg']",
2,"[0, 0.2]",1,,,,,0,2,2,2,,,,,,,,,,,,,,,,,,,,,,None,None,"[0, 0, 0]",1302.2080338000087,1304.208054699935,1302.2080338000087,1303.2080623999937,1303.1913860999048,1304.1913983999984,"[0, 0, 0]",1,1302.2080338000087,1304.208054699935,,,,,,,,,,,,,,,,,1,M,1,39,r,EIM,2022_Apr_12_1306,2020.2.10,distractmap1,59.992033067184366,"['Right Face', 'Left Arm', 'Chest', 'Right Leg']",
8,"[0, -0.2]",0,,,,,0,3,3,3,,,,,,,,,,,,,,,,,,,,,,None,None,"[0, 0, 0]",1304.2247098999796,1306.2247180999257,1304.2247098999796,1305.224734099931,1305.208050899906,1306.208084499929,"[0, 0, 0]",1,1304.2247098999796,1306.2247180999257,,,,,,,,,,,,,,,,,1,M,1,39,r,EIM,2022_Apr_12_1306,2020.2.10,distractmap1,59.992033067184366,"['Right Face', 'Left Arm', 'Chest', 'Right Leg']",
2,"[0, 0.2]",1,,,,,0,4,4,4,,,,,,,,,,,,,,,,,,,,,,None,None,"[0, 0, 0]",1306.3083891000133,None,1306.3083891000133,1307.308078299975,1307.2914494000142,None,"[0, 0, 0]",1,1306.3083891000133,None,,,,,,,,,,,,,,,,,1,M,1,39,r,EIM,2022_Apr_12_1306,2020.2.10,distractmap1,59.992033067184366,"['Right Face', 'Left Arm', 'Chest', 'Right Leg']",
5,"[0, 0]",0,,,,,0,5,5,5,,,,,,,,,,,,,,,,,,,,,,None,None,"[0, 0, 0]",1308.258091299911,1310.258001399925,1308.258091299911,1309.2580944999354,1309.241480399971,1310.2414676999906,"[0, 0, 0]",1,1308.258091299911,1310.258001399925,,,,,,,,,,,,,,,,,1,M,1,39,r,EIM,2022_Apr_12_1306,2020.2.10,distractmap1,59.992033067184366,"['Right Face', 'Left Arm', 'Chest', 'Right Leg']",
1,"[-0.2, 0.2]",0,,,,,0,6,6,6,,,,,,,,,,,,,,,,,,,,,,None,None,"[0, 0, 0]",1310.2747912999475,1312.2747992000077,1310.2747912999475,1311.2747832000023,1311.2581200000132,1312.2581293999683,"[0, 0, 0]",1,1310.2747912999475,1312.2747992000077,,,,,,,,,,,,,,,,,1,M,1,39,r,EIM,2022_Apr_12_1306,2020.2.10,distractmap1,59.992033067184366,"['Right Face', 'Left Arm', 'Chest', 'Right Leg']",
1,"[-0.2, 0.2]",0,,,,,0,7,7,7,,,,,,,,,,,,,,,,,,,,,,None,None,"[0, 0, 0]",1312.2914859999437,1314.2914970999118,1312.2914859999437,1313.2914898999734,1313.2748012999073,1314.2748124999925,"[0, 0, 0]",1,1312.2914859999437,1314.2914970999118,,,,,,,,,,,,,,,,,1,M,1,39,r,EIM,2022_Apr_12_1306,2020.2.10,distractmap1,59.992033067184366,"['Right Face', 'Left Arm', 'Chest', 'Right Leg']",
6,"[0.2, 0]",0,,,,,0,8,8,8,,,,,,,,,,,,,,,,,,,,,,None,None,"[0, 0, 0]",1314.3081547999755,1316.3080477999756,1314.3081547999755,1315.3081653999398,1315.2914993999293,1316.2915294999257,"[0, 0, 0]",1,1314.3081547999755,1316.3080477999756,,,,,,,,,,,,,,,,,1,M,1,39,r,EIM,2022_Apr_12_1306,2020.2.10,distractmap1,59.992033067184366,"['Right Face', 'Left Arm', 'Chest', 'Right Leg']",
1,"[-0.2, 0.2]",1,,,,,0,9,9,9,,,,,,,,,,,,,,,,,,,,,,None,None,"[0, 0, 0]",1316.3248247000156,1318.324843499926,1316.3248247000156,1317.3248407999054,1317.308172799996,1318.3081848999718,"[0, 0, 0]",1,1316.3248247000156,1318.324843499926,,,,,,,,,,,,,,,,,1,M,1,39,r,EIM,2022_Apr_12_1306,2020.2.10,distractmap1,59.992033067184366,"['Right Face', 'Left Arm', 'Chest', 'Right Leg']",
,,,,,,,,,,,1318.341531299986,None,,,,,,,,,,,,,,,,,,,,,,,,,,,,,,,,,,,,,,,,10.679012345679013,959.6703595401486,,,,,,,,1,M,1,39,r,EIM,2022_Apr_12_1306,2020.2.10,distractmap1,59.992033067184366,"['Right Face', 'Left Arm', 'Chest', 'Right Leg']",
5,"[0, 0]",None,0,0,0,0,,,,,1643.777822199976,None,1646.5110398000106,None,1646.5110398000106,1647.5109229999362,1647.4943932999158,1648.4943815999432,1,None,None,"[0, 0, 0]",,,1646.5110398000106,None,,,,,,,,,,,,,,,,,,,1414.7593711999943,1414.7593711999943,None,space,188.79238620004617,1414.7593711999943,None,,,0.014403559849597514,5.011263859923929,"[0, 0, 0]",,,,,1,M,1,39,r,EIM,2022_Apr_12_1306,2020.2.10,distractmap1,59.992033067184366,"['Right Face', 'Left Arm', 'Chest', 'Right Leg']",
5,"[0, 0]",1,0,1,1,1,,,,,,,1648.5110518999863,None,1648.5110518999863,1649.5110596999293,1649.4943963999394,1650.4944226999069,1,None,None,"[0, 0, 0]",,,1648.5110518999863,None,,,,,,,,,,,,,,,,,,,,,,,,,,,,,,"[0, 0, 0]",,,,,1,M,1,39,r,EIM,2022_Apr_12_1306,2020.2.10,distractmap1,59.992033067184366,"['Right Face', 'Left Arm', 'Chest', 'Right Leg']",
4,"[-0.2, 0]",0,0,2,2,2,,,,,,,1650.5110525999917,1650.5110525999917,1650.5110525999917,1651.5110831999918,1651.494409799925,1652.494416499976,1,None,None,"[0, 0, 0]",,,1650.5110525999917,1650.5110525999917,,,,,,,,,,,,,,,,,,,,,,,,,,,,,,"[0, 0, 0]",,,,,1,M,1,39,r,EIM,2022_Apr_12_1306,2020.2.10,distractmap1,59.992033067184366,"['Right Face', 'Left Arm', 'Chest', 'Right Leg']",
2,"[0, 0.2]",0,0,3,3,3,,,,,,,1652.5110911999363,1652.5110911999363,1652.5110911999363,1653.511101400014,1653.494435600005,1654.4944443999557,1,None,None,"[0, 0, 0]",,,1652.5110911999363,1652.5110911999363,,,,,,,,,,,,,,,,,,,,,,,,,,,,,,"[0, 0, 0]",,,,,1,M,1,39,r,EIM,2022_Apr_12_1306,2020.2.10,distractmap1,59.992033067184366,"['Right Face', 'Left Arm', 'Chest', 'Right Leg']",
6,"[0.2, 0]",0,0,4,4,4,,,,,,,1654.5777853999753,1654.5777853999753,1654.5777853999753,1655.5777561999857,1655.561114699929,None,1,None,None,"[0, 0, 0]",,,1654.5777853999753,1654.5777853999753,,,,,,,,,,,,,,,,,,,,,,,,,,,,,,"[0, 0, 0]",,,,,1,M,1,39,r,EIM,2022_Apr_12_1306,2020.2.10,distractmap1,59.992033067184366,"['Right Face', 'Left Arm', 'Chest', 'Right Leg']",
8,"[0, -0.2]",0,0,5,5,5,,,,,,,1656.5278114000103,None,1656.5278114000103,1657.527818899951,1657.511131700012,1658.5111380999442,1,None,None,"[0, 0, 0]",,,1656.5278114000103,None,,,,,,,,,,,,,,,,,,,,,,,,,,,,,,"[0, 0, 0]",,,,,1,M,1,39,r,EIM,2022_Apr_12_1306,2020.2.10,distractmap1,59.992033067184366,"['Right Face', 'Left Arm', 'Chest', 'Right Leg']",
1,"[-0.2, 0.2]",0,0,6,6,6,,,,,,,1658.5277662000153,1658.5277662000153,1658.5277662000153,1659.5278223999776,1659.511129999999,1660.5111415999709,1,None,None,"[0, 0, 0]",,,1658.5277662000153,1658.5277662000153,,,,,,,,,,,,,,,,,,,,,,,,,,,,,,"[0, 0, 0]",,,,,1,M,1,39,r,EIM,2022_Apr_12_1306,2020.2.10,distractmap1,59.992033067184366,"['Right Face', 'Left Arm', 'Chest', 'Right Leg']",
4,"[-0.2, 0]",0,0,7,7,7,,,,,,,1660.5277986999135,1660.5277986999135,1660.5277986999135,1661.527818899951,1661.511164699914,1662.5111670999322,1,None,None,"[0, 0, 0]",,,1660.5277986999135,1660.5277986999135,,,,,,,,,,,,,,,,,,,,,,,,,,,,,,"[0, 0, 0]",,,,,1,M,1,39,r,EIM,2022_Apr_12_1306,2020.2.10,distractmap1,59.992033067184366,"['Right Face', 'Left Arm', 'Chest', 'Right Leg']",
8,"[0, -0.2]",0,0,8,8,8,,,,,,,1662.5278357999632,1662.5278357999632,1662.5278357999632,1663.5278276999015,1663.5111864999635,1664.5111613000045,1,None,None,"[0, 0, 0]",,,1662.5278357999632,1662.5278357999632,,,,,,,,,,,,,,,,,,,,,,,,,,,,,,"[0, 0, 0]",,,,,1,M,1,39,r,EIM,2022_Apr_12_1306,2020.2.10,distractmap1,59.992033067184366,"['Right Face', 'Left Arm', 'Chest', 'Right Leg']",
8,"[0, -0.2]",1,0,9,9,9,,,,,,,1664.527863999945,1664.527863999945,1664.527863999945,1665.5279010999948,1665.5111844999483,1666.5111947999103,1,None,None,"[0, 0, 0]",,,1664.527863999945,1664.527863999945,,,,,,,,,,,,,,,,,,,,,,,,,,,,,,"[0, 0, 0]",,,,,1,M,1,39,r,EIM,2022_Apr_12_1306,2020.2.10,distractmap1,59.992033067184366,"['Right Face', 'Left Arm', 'Chest', 'Right Leg']",
,,,,,,,,,,,1666.527850399958,None,,,,,,,,,,,,,,,,,,,,,,,,,,,,,,,,,,,,,,,,22.65432098765432,1312.5391037400113,,,,,,,,1,M,1,39,r,EIM,2022_Apr_12_1306,2020.2.10,distractmap1,59.992033067184366,"['Right Face', 'Left Arm', 'Chest', 'Right Leg']",
3,"[0.2, 0.2]",None,,,,,0,0,0,0,1683.7962182000047,None,,,,,,,,,,,,,,,,,,,,None,None,"[0, 0, 0]",1686.5947061999468,None,1686.5947061999468,1687.5947041999316,1687.578041599947,1688.5780429999577,"[0, 0, 0]",1,1686.5947061999468,None,,,,,,,,,,0.015395059948787093,5.013180059962906,,,,,,1,M,1,39,r,EIM,2022_Apr_12_1306,2020.2.10,distractmap1,59.992033067184366,"['Right Face', 'Left Arm', 'Chest', 'Right Leg']",
3,"[0.2, 0.2]",None,,,,,0,1,1,1,,,,,,,,,,,,,,,,,,,,,,None,None,"[0, 0, 0]",1688.594716399908,1690.5947525999509,1688.594716399908,1689.6114151999354,1689.6114151999354,None,"[0, 0, 0]",1,1688.594716399908,1690.5947525999509,,,,,,,,,,,,,,,,,1,M,1,39,r,EIM,2022_Apr_12_1306,2020.2.10,distractmap1,59.992033067184366,"['Right Face', 'Left Arm', 'Chest', 'Right Leg']",
5,"[0, 0]",0,,,,,0,2,2,2,,,,,,,,,,,,,,,,,,,,,,None,None,"[0, 0, 0]",1690.611443099915,1692.6114465999417,1690.611443099915,1691.6114169999491,1691.5947654999327,1692.5947816999396,"[0, 0, 0]",1,1690.611443099915,1692.6114465999417,,,,,,,,,,,,,,,,,1,M,1,39,r,EIM,2022_Apr_12_1306,2020.2.10,distractmap1,59.992033067184366,"['Right Face', 'Left Arm', 'Chest', 'Right Leg']",
1,"[-0.2, 0.2]",0,,,,,0,3,3,3,,,,,,,,,,,,,,,,,,,,,,None,None,"[0, 0, 0]",1692.6280834999634,1694.6281127999537,1692.6280834999634,1693.6281179999933,1693.6114448999288,1694.6114356999751,"[0, 0, 0]",1,1692.6280834999634,1694.6281127999537,,,,,,,,,,,,,,,,,1,M,1,39,r,EIM,2022_Apr_12_1306,2020.2.10,distractmap1,59.992033067184366,"['Right Face', 'Left Arm', 'Chest', 'Right Leg']",
5,"[0, 0]",1,,,,,0,4,4,4,,,,,,,,,,,,,,,,,,,,,,None,None,"[0, 0, 0]",1694.6950757999439,None,1694.6950757999439,1695.694695299957,1695.6781279999996,None,"[0, 0, 0]",1,1694.6950757999439,None,,,,,,,,,,,,,,,,,1,M,1,39,r,EIM,2022_Apr_12_1306,2020.2.10,distractmap1,59.992033067184366,"['Right Face', 'Left Arm', 'Chest', 'Right Leg']",
8,"[0, -0.2]",0,,,,,0,5,5,5,,,,,,,,,,,,,,,,,,,,,,None,None,"[0, 0, 0]",1696.6614870999474,1698.6614868999459,1696.6614870999474,1697.6614925999893,1697.6448255999712,1698.6448022999102,"[0, 0, 0]",1,1696.6614870999474,1698.6614868999459,,,,,,,,,,,,,,,,,1,M,1,39,r,EIM,2022_Apr_12_1306,2020.2.10,distractmap1,59.992033067184366,"['Right Face', 'Left Arm', 'Chest', 'Right Leg']",
5,"[0, 0]",1,,,,,0,6,6,6,,,,,,,,,,,,,,,,,,,,,,None,None,"[0, 0, 0]",1698.6781484999228,1700.6781478999183,1698.6781484999228,1699.6781367999502,1699.6615030999528,1700.6615219999803,"[0, 0, 0]",1,1698.6781484999228,1700.6781478999183,,,,,,,,,,,,,,,,,1,M,1,39,r,EIM,2022_Apr_12_1306,2020.2.10,distractmap1,59.992033067184366,"['Right Face', 'Left Arm', 'Chest', 'Right Leg']",
7,"[-0.2, -0.2]",0,,,,,0,7,7,7,,,,,,,,,,,,,,,,,,,,,,None,None,"[0, 0, 0]",1700.6948188999668,1702.694851999986,1700.6948188999668,1701.6948413999053,1701.6781627999153,1702.6781596000073,"[0, 0, 0]",1,1700.6948188999668,1702.694851999986,,,,,,,,,,,,,,,,,1,M,1,39,r,EIM,2022_Apr_12_1306,2020.2.10,distractmap1,59.992033067184366,"['Right Face', 'Left Arm', 'Chest', 'Right Leg']",
5,"[0, 0]",1,,,,,0,8,8,8,,,,,,,,,,,,,,,,,,,,,,None,None,"[0, 0, 0]",1702.7115053000161,1704.7115299999714,1702.7115053000161,1703.711514399969,1703.694854500005,1704.6948670999845,"[0, 0, 0]",1,1702.7115053000161,1704.7115299999714,,,,,,,,,,,,,,,,,1,M,1,39,r,EIM,2022_Apr_12_1306,2020.2.10,distractmap1,59.992033067184366,"['Right Face', 'Left Arm', 'Chest', 'Right Leg']",
7,"[-0.2, -0.2]",1,,,,,0,9,9,9,,,,,,,,,,,,,,,,,,,,,,None,None,"[0, 0, 0]",1704.7281961999834,1706.7282010999043,1704.7281961999834,1705.7282220999477,1705.7115354000125,1706.7115407999372,"[0, 0, 0]",1,1704.7281961999834,1706.7282010999043,,,,,,,,,,,,,,,,,1,M,1,39,r,EIM,2022_Apr_12_1306,2020.2.10,distractmap1,59.992033067184366,"['Right Face', 'Left Arm', 'Chest', 'Right Leg']",
,,,,,,,,,,,1706.7448869999498,None,,,,,,,,,,,,,,,,,,,,,,,,,,,,,,,,,,,,,,,,13.209876543209878,1351.8061299399706,,,,,,,,1,M,1,39,r,EIM,2022_Apr_12_1306,2020.2.10,distractmap1,59.992033067184366,"['Right Face', 'Left Arm', 'Chest', 'Right Leg']",
6,"[0.2, 0]",None,,,,,0,0,0,0,1721.9618523999816,None,,,,,,,,,,,,,,,,,,,,None,None,"[0, 0, 0]",1726.795057100011,None,1726.795057100011,1727.7950672999723,1727.7784232000122,None,"[0, 0, 0]",1,1726.795057100011,None,,,,,,,,,,0.01537496002856642,5.013107859995216,,,,,,1,M,1,39,r,EIM,2022_Apr_12_1306,2020.2.10,distractmap1,59.992033067184366,"['Right Face', 'Left Arm', 'Chest', 'Right Leg']",
1,"[-0.2, 0.2]",None,,,,,0,1,1,1,,,,,,,,,,,,,,,,,,,,,,None,None,"[0, 0, 0]",1728.778405399993,1730.7784436999355,1728.778405399993,1729.7784178999718,1729.7617583000101,1730.7617880000034,"[0, 0, 0]",1,1728.778405399993,1730.7784436999355,,,,,,,,,,,,,,,,,1,M,1,39,r,EIM,2022_Apr_12_1306,2020.2.10,distractmap1,59.992033067184366,"['Right Face', 'Left Arm', 'Chest', 'Right Leg']",
6,"[0.2, 0]",1,,,,,0,2,2,2,,,,,,,,,,,,,,,,,,,,,,None,None,"[0, 0, 0]",1730.7950932999374,1732.7951017000014,1730.7950932999374,1731.7951082999352,1731.7784346999833,1732.7784407999134,"[0, 0, 0]",1,1730.7950932999374,1732.7951017000014,,,,,,,,,,,,,,,,,1,M,1,39,r,EIM,2022_Apr_12_1306,2020.2.10,distractmap1,59.992033067184366,"['Right Face', 'Left Arm', 'Chest', 'Right Leg']",
4,"[-0.2, 0]",0,,,,,0,3,3,3,,,,,,,,,,,,,,,,,,,,,,None,None,"[0, 0, 0]",1732.8117822000058,1734.8117030999856,1732.8117822000058,1733.81179539999,1733.7951404999476,1734.795130399987,"[0, 0, 0]",1,1732.8117822000058,1734.8117030999856,,,,,,,,,,,,,,,,,1,M,1,39,r,EIM,2022_Apr_12_1306,2020.2.10,distractmap1,59.992033067184366,"['Right Face', 'Left Arm', 'Chest', 'Right Leg']",
1,"[-0.2, 0.2]",0,,,,,0,4,4,4,,,,,,,,,,,,,,,,,,,,,,None,None,"[0, 0, 0]",1734.8620903999545,None,1734.8620903999545,1735.8617971999338,1735.8451428000117,None,"[0, 0, 0]",0,1734.8620903999545,None,,,,,,,,,,,,,,,,,1,M,1,39,r,EIM,2022_Apr_12_1306,2020.2.10,distractmap1,59.992033067184366,"['Right Face', 'Left Arm', 'Chest', 'Right Leg']",
8,"[0, -0.2]",0,,,,,0,5,5,5,,,,,,,,,,,,,,,,,,,,,,None,None,"[0, 0, 0]",1736.845140599995,1738.8451696999837,1736.845140599995,1737.845147899934,1737.8283774999436,1738.828500899952,"[0, 0, 0]",1,1736.845140599995,1738.8451696999837,,,,,,,,,,,,,,,,,1,M,1,39,r,EIM,2022_Apr_12_1306,2020.2.10,distractmap1,59.992033067184366,"['Right Face', 'Left Arm', 'Chest', 'Right Leg']",
1,"[-0.2, 0.2]",1,,,,,0,6,6,6,,,,,,,,,,,,,,,,,,,,,,None,None,"[0, 0, 0]",1738.8618230000138,1740.861853200011,1738.8618230000138,1739.861849399982,1739.8451757999137,1740.8451714999974,"[0, 0, 0]",1,1738.8618230000138,1740.861853200011,,,,,,,,,,,,,,,,,1,M,1,39,r,EIM,2022_Apr_12_1306,2020.2.10,distractmap1,59.992033067184366,"['Right Face', 'Left Arm', 'Chest', 'Right Leg']",
8,"[0, -0.2]",1,,,,,0,7,7,7,,,,,,,,,,,,,,,,,,,,,,None,None,"[0, 0, 0]",1740.8785052999156,1742.8784460999304,1740.8785052999156,1741.8785174000077,1741.8618576999288,1742.8618816999951,"[0, 0, 0]",1,1740.8785052999156,1742.8784460999304,,,,,,,,,,,,,,,,,1,M,1,39,r,EIM,2022_Apr_12_1306,2020.2.10,distractmap1,59.992033067184366,"['Right Face', 'Left Arm', 'Chest', 'Right Leg']",
1,"[-0.2, 0.2]",1,,,,,0,8,8,8,,,,,,,,,,,,,,,,,,,,,,None,None,"[0, 0, 0]",1742.8950883999933,1744.8952066999627,1742.8950883999933,1743.8946932000108,1743.8785236999393,1744.878536999924,"[0, 0, 0]",1,1742.8950883999933,1744.8952066999627,,,,,,,,,,,,,,,,,1,M,1,39,r,EIM,2022_Apr_12_1306,2020.2.10,distractmap1,59.992033067184366,"['Right Face', 'Left Arm', 'Chest', 'Right Leg']",
6,"[0.2, 0]",0,,,,,0,9,9,9,,,,,,,,,,,,,,,,,,,,,,None,None,"[0, 0, 0]",1744.9118596999906,1746.9118972999277,1744.9118596999906,1745.9117933999514,1745.8952148999088,1746.8951202000026,"[0, 0, 0]",1,1744.9118596999906,1746.9118972999277,,,,,,,,,,,,,,,,,1,M,1,39,r,EIM,2022_Apr_12_1306,2020.2.10,distractmap1,59.992033067184366,"['Right Face', 'Left Arm', 'Chest', 'Right Leg']",
,,,,,,,,,,,1746.9285533999791,None,,,,,,,,,,,,,,,,,,,,,,,,,,,,,,,,,,,,,,,,14.320987654320986,1392.1735010399716,,,,,,,,1,M,1,39,r,EIM,2022_Apr_12_1306,2020.2.10,distractmap1,59.992033067184366,"['Right Face', 'Left Arm', 'Chest', 'Right Leg']",
