	SID	date	sex	session	handedness	scanner	onset	duration	repetition	rating	body_site	keys	temperature	conditionrt	mouseclick	biopac_channel	condition	rt	value
0	3083	2024_Oct_31_1252	f	1	r	TS SS	2.774022600147873	5.010861962568015								19	Instructions		
1	3083	2024_Oct_31_1252	f	1	r	TS SS	9.069636200089008	2.00311276037246								6	Cue		
2	3083	2024_Oct_31_1252	f	1	r	TS SS	11.082720700185746	3.994873970048502								7	Pre-Jitter		
3	3083	2024_Oct_31_1252	f	1	r	TS SS	15.107661500107497	15.011854009935632			Left Arm		48.0			13	Heat-Stimulation		
4	3083	2024_Oct_31_1252	f	1	r	TS SS	30.192630200181156	5.008796520065516								8	Mid-Jitter		
5	3083	2024_Oct_31_1252	f	1	r	TS SS	35.21493320004083	4.99768973980099								20	PainBinary	2.719030800042674	1.0
6	3083	2024_Oct_31_1252	f	1	r	TS SS	40.234018500195816	5.009630139684305								21	IntensityRating	4.71697419998236	71.04938271604938
7	3083	2024_Oct_31_1252	f	1	r	TS SS	45.2639185001608	4.999943039845675								22	ToleranceRating	1.283672799821943	-1.0
8	3083	2024_Oct_31_1252	f	1	r	TS SS	50.268451699987054	5.007720670197159								9	Post-Q-Jitter		
9	3083	2024_Oct_31_1252	f	1	r	TS SS	56.55578110017814	2.0152753603179008								6	Cue		
10	3083	2024_Oct_31_1252	f	1	r	TS SS	58.56550410017371	5.996978470124304								7	Pre-Jitter		
11	3083	2024_Oct_31_1252	f	1	r	TS SS	64.59786440012977	14.9992045101244			Left Arm		47.5			13	Heat-Stimulation		
12	3083	2024_Oct_31_1252	f	1	r	TS SS	79.67402510019019	7.01392932026647								8	Mid-Jitter		
13	3083	2024_Oct_31_1252	f	1	r	TS SS	86.69980669999495	5.012559039751068								20	PainBinary	2.2505622999742627	1.0
14	3083	2024_Oct_31_1252	f	1	r	TS SS	91.73132010013796	4.999626639997587								21	IntensityRating	2.0504580000415444	58.88888888888889
15	3083	2024_Oct_31_1252	f	1	r	TS SS	96.74571120017208	5.004304439760745								22	ToleranceRating	4.000349099980667	-1.0
16	3083	2024_Oct_31_1252	f	1	r	TS SS	101.75248490017839	7.007599069969729								9	Post-Q-Jitter		
17	3083	2024_Oct_31_1252	f	1	r	TS SS	110.04664129996672	2.001545460196212								6	Cue		
18	3083	2024_Oct_31_1252	f	1	r	TS SS	112.04955870006233	5.99699267023243								7	Pre-Jitter		
19	3083	2024_Oct_31_1252	f	1	r	TS SS	118.10749590001069	15.014664649963379			Left Arm		47.0			13	Heat-Stimulation		
20	3083	2024_Oct_31_1252	f	1	r	TS SS	133.19162920000963	5.0133235200773925								8	Mid-Jitter		
21	3083	2024_Oct_31_1252	f	1	r	TS SS	138.21638420014642	4.997352639911696								20	PainBinary	2.0536444999743253	1.0
22	3083	2024_Oct_31_1252	f	1	r	TS SS	143.23417180008255	5.01189443981275								21	IntensityRating	2.400324300164357	47.46913580246914
23	3083	2024_Oct_31_1252	f	1	r	TS SS	148.26256439997815	5.005236340221018								22	ToleranceRating	1.0670666000805795	1.0
24	3083	2024_Oct_31_1252	f	1	r	TS SS	153.2698741001077	5.007423170143738								9	Post-Q-Jitter		
25	3083	2024_Oct_31_1252	f	1	r	TS SS	158.84713330003433	2.002485850127414								6	Cue		
26	3083	2024_Oct_31_1252	f	1	r	TS SS	160.84953630017117	3.998288470087573								7	Pre-Jitter		
27	3083	2024_Oct_31_1252	f	1	r	TS SS	164.87031839997508	15.006940439809114			Left Arm		47.0			13	Heat-Stimulation		
28	3083	2024_Oct_31_1252	f	1	r	TS SS	179.95736830006354	7.016456220066175								8	Mid-Jitter		
29	3083	2024_Oct_31_1252	f	1	r	TS SS	186.98290930013172	4.998917639954016								20	PainBinary	2.0336595999542624	1.0
30	3083	2024_Oct_31_1252	f	1	r	TS SS	191.99903210019693	5.000058339908719								21	IntensityRating	2.8336531999520957	48.148148148148145
31	3083	2024_Oct_31_1252	f	1	r	TS SS	197.013747200137	5.004098139936104								22	ToleranceRating	1.7670155998785049	1.0
32	3083	2024_Oct_31_1252	f	1	r	TS SS	202.02153749996796	7.005353270098567								9	Post-Q-Jitter		
33	3083	2024_Oct_31_1252	f	1	r	TS SS	209.5837640000973	1.997146979905665								6	Cue		
34	3083	2024_Oct_31_1252	f	1	r	TS SS	211.58339460007846	5.99850556999445								7	Pre-Jitter		
35	3083	2024_Oct_31_1252	f	1	r	TS SS	217.63037990010343	15.004850379657			Left Arm		47.0			13	Heat-Stimulation		
36	3083	2024_Oct_31_1252	f	1	r	TS SS	232.71065030014142	9.011238520033658								8	Mid-Jitter		
37	3083	2024_Oct_31_1252	f	1	r	TS SS	241.73481110017747	4.9964290398638695								20	PainBinary	1.2358871998731047	1.0
38	3083	2024_Oct_31_1252	f	1	r	TS SS	246.75010520010255	4.999304839875549								21	IntensityRating	3.683672600192949	47.71604938271605
39	3083	2024_Oct_31_1252	f	1	r	TS SS	251.76488320017233	5.003209939692169								22	ToleranceRating	2.1669751000590622	1.0
40	3083	2024_Oct_31_1252	f	1	r	TS SS	256.77048710011877	9.008867669850588								9	Post-Q-Jitter		
41	3083	2024_Oct_31_1252	f	1	r	TS SS	266.33833350008354	2.0061275800690055								6	Cue		
42	3083	2024_Oct_31_1252	f	1	r	TS SS	268.3515481001232	5.996964170131832								7	Pre-Jitter		
43	3083	2024_Oct_31_1252	f	1	r	TS SS	274.40081590018235	14.998649779940024			Left Arm		47.0			13	Heat-Stimulation		
44	3083	2024_Oct_31_1252	f	1	r	TS SS	289.4776862000581	7.011878420133144								8	Mid-Jitter		
45	3083	2024_Oct_31_1252	f	1	r	TS SS	296.5023190001957	5.012804639991373								20	PainBinary	2.1502673998475075	1.0
46	3083	2024_Oct_31_1252	f	1	r	TS SS	301.53388500004075	4.999747339868918								21	IntensityRating	2.10028350003995	48.641975308641975
47	3083	2024_Oct_31_1252	f	1	r	TS SS	306.54849499999546	5.004014139994979								22	ToleranceRating	2.4169933998491615	1.0
48	3083	2024_Oct_31_1252	f	1	r	TS SS	311.55488430010155	7.0080460698809475								9	Post-Q-Jitter		
49	3083	2024_Oct_31_1252	f	1	r	TS SS	319.11790459998883	2.014928880147636								6	Cue		
50	3083	2024_Oct_31_1252	f	1	r	TS SS	321.1354906000197	7.997060369933024								7	Pre-Jitter		
51	3083	2024_Oct_31_1252	f	1	r	TS SS	329.18317370000295	15.001978079788387			Left Arm		47.0			13	Heat-Stimulation		
52	3083	2024_Oct_31_1252	f	1	r	TS SS	344.2599920001812	5.015280620194972								8	Mid-Jitter		
53	3083	2024_Oct_31_1252	f	1	r	TS SS	349.2859529000707	4.996873439988121								20	PainBinary	1.8170712999999523	1.0
54	3083	2024_Oct_31_1252	f	1	r	TS SS	354.3007508001756	5.000714839901775								21	IntensityRating	2.300333700142801	47.22222222222223
55	3083	2024_Oct_31_1252	f	1	r	TS SS	359.31736350012943	5.0009561399929225								22	ToleranceRating	1.7169568999670446	1.0
56	3083	2024_Oct_31_1252	f	1	r	TS SS	364.322703700047	5.007074170047417								9	Post-Q-Jitter		
57	3083	2024_Oct_31_1252	f	1	r	TS SS	369.35906490008347	6.051270839758217								26	ComfortRating	6.0189417998772115	-32.592592592592595
58	3083	2024_Oct_31_1252	f	1	r	TS SS	375.4392238999717	3.0243933401070535								24	ValenceRating	3.000265800161287	64.25925925925927
59	3083	2024_Oct_31_1252	f	1	r	TS SS	378.4850046001375	2.1828749398700893								26	IntensityRating	2.1527338998857886	76.17283950617283
60	3083	2024_Oct_31_1252	f	1	r	TS SS	380.6844109001104	3.3674421401228756								27	AvoidanceRating	3.3503263001330197	35.06172839506175
61	3083	2024_Oct_31_1252	f	1	r	TS SS	384.06373740010895	2.3755287397652864								28	RelaxationRating	2.350302299950272	45.30864197530864
62	3083	2024_Oct_31_1252	f	1	r	TS SS	386.45263020019047	2.931152739794925								29	AttentionRating	2.900271699996665	60.67901234567902
63	3083	2024_Oct_31_1252	f	1	r	TS SS	389.39903870015405	3.421749340137467								30	BoredomRating	3.400330499978736	64.69135802469135
64	3083	2024_Oct_31_1252	f	1	r	TS SS	392.83291050000116	4.120758339995518								31	AlertnessRating	4.086147799855098	22.71604938271605
65	3083	2024_Oct_31_1252	f	1	r	TS SS	396.9676378001459	3.66805633995682								32	PosThxRating	3.6503452998586	-21.234567901234556
66	3083	2024_Oct_31_1252	f	1	r	TS SS	400.64999940013513	2.1200450400356203								33	NegThxRating	2.086294800043106	22.34567901234567
67	3083	2024_Oct_31_1252	f	1	r	TS SS	402.78386360011064	3.102418839931488								34	SelfRating	3.0836584998760372	30.370370370370352
68	3083	2024_Oct_31_1252	f	1	r	TS SS	405.89926840015687	3.505046639824286								35	OtherRating	3.4836848000995815	34.5679012345679
69	3083	2024_Oct_31_1252	f	1	r	TS SS	409.4174534000922	4.368742339545861								32	ImageryRating	4.350324400002137	33.703703703703695
70	3083	2024_Oct_31_1252	f	1	r	TS SS	413.80214849999174	3.916088140103966								37	PresentRating	3.9003538999240845	-22.222222222222214
