	SID	date	sex	session	handedness	scanner	onset	duration	repetition	rating	body_site	keys	temperature	conditionrt	mouseclick	biopac_channel	condition	rt	value
0	3083	2024_Oct_31_1252	f	1	r	TS SS	2.7739847998600453	4.9976769126951694								19	Instructions		
1	3083	2024_Oct_31_1252	f	1	r	TS SS	8.45146179990843	2.0104684398975223								6	Cue		
2	3083	2024_Oct_31_1252	f	1	r	TS SS	10.45893849991262	5.996274670353159								7	Pre-Jitter		
3	3083	2024_Oct_31_1252	f	1	r	TS SS	16.480180399958044	15.004054540069774			Right Leg		48.0			16	Heat-Stimulation		
4	3083	2024_Oct_31_1252	f	1	r	TS SS	31.5699477000162	9.008062220178545								8	Mid-Jitter		
5	3083	2024_Oct_31_1252	f	1	r	TS SS	40.59169749985449	4.997997540049255								20	PainBinary	3.200365799944848	1.0
6	3083	2024_Oct_31_1252	f	1	r	TS SS	45.60758419986814	4.999803039943799								21	IntensityRating	3.0170903999824077	74.75308641975307
7	3083	2024_Oct_31_1252	f	1	r	TS SS	50.62278149998747	5.002979839919135								22	ToleranceRating	1.8502635001204908	-1.0
8	3083	2024_Oct_31_1252	f	1	r	TS SS	55.62876809993759	9.007729870267212								9	Post-Q-Jitter		
9	3083	2024_Oct_31_1252	f	1	r	TS SS	65.37769500003196	2.009362350217998								6	Cue		
10	3083	2024_Oct_31_1252	f	1	r	TS SS	67.39203540002927	7.998181469971314								7	Pre-Jitter		
11	3083	2024_Oct_31_1252	f	1	r	TS SS	75.41979069984518	15.009597710100934			Right Leg		47.5			16	Heat-Stimulation		
12	3083	2024_Oct_31_1252	f	1	r	TS SS	90.49967160006054	7.016599019989371								8	Mid-Jitter		
13	3083	2024_Oct_31_1252	f	1	r	TS SS	97.52575769997202	4.997967739822343								20	PainBinary	2.0007619000971317	1.0
14	3083	2024_Oct_31_1252	f	1	r	TS SS	102.54251249996014	4.99803764000535								21	IntensityRating	2.533777500037104	60.55555555555555
15	3083	2024_Oct_31_1252	f	1	r	TS SS	107.55617920006625	5.0041389397811145								22	ToleranceRating	1.901960999937728	1.0
16	3083	2024_Oct_31_1252	f	1	r	TS SS	112.5628199998755	7.007688669953495								9	Post-Q-Jitter		
17	3083	2024_Oct_31_1252	f	1	r	TS SS	120.19286870001815	2.013824959984049								6	Cue		
18	3083	2024_Oct_31_1252	f	1	r	TS SS	122.20999930007383	3.9968559702392668								7	Pre-Jitter		
19	3083	2024_Oct_31_1252	f	1	r	TS SS	126.24369629984722	14.99635320995003			Right Leg		47.5			16	Heat-Stimulation		
20	3083	2024_Oct_31_1252	f	1	r	TS SS	141.31940479995683	9.011882820166647								8	Mid-Jitter		
21	3083	2024_Oct_31_1252	f	1	r	TS SS	150.3440536998678	5.012823739787564								20	PainBinary	2.8669657001737505	1.0
22	3083	2024_Oct_31_1252	f	1	r	TS SS	155.37668540002778	5.014356140047312								21	IntensityRating	2.0169494999572635	54.19753086419753
23	3083	2024_Oct_31_1252	f	1	r	TS SS	160.40737649984658	5.003088839817792								22	ToleranceRating	0.7336027999408543	1.0
24	3083	2024_Oct_31_1252	f	1	r	TS SS	165.41292169992812	9.008829170139506								9	Post-Q-Jitter		
25	3083	2024_Oct_31_1252	f	1	r	TS SS	175.88649679999799	2.0104873303789645								6	Cue		
26	3083	2024_Oct_31_1252	f	1	r	TS SS	177.89401489985175	5.996920769801363								7	Pre-Jitter		
27	3083	2024_Oct_31_1252	f	1	r	TS SS	183.93094029999338	15.00664971000515			Right Leg		47.5			16	Heat-Stimulation		
28	3083	2024_Oct_31_1252	f	1	r	TS SS	199.02050310000777	7.011104320175946								8	Mid-Jitter		
29	3083	2024_Oct_31_1252	f	1	r	TS SS	206.04510620003566	5.012090140022337								20	PainBinary	2.216869099996984	1.0
30	3083	2024_Oct_31_1252	f	1	r	TS SS	211.07763980003074	5.013802740024403								21	IntensityRating	1.500271099852398	49.93827160493827
31	3083	2024_Oct_31_1252	f	1	r	TS SS	216.10702509991825	5.005166639806703								22	ToleranceRating	1.8836246998980641	1.0
32	3083	2024_Oct_31_1252	f	1	r	TS SS	221.11415149993263	7.007740970002487								9	Post-Q-Jitter		
33	3083	2024_Oct_31_1252	f	1	r	TS SS	229.3643054999411	2.0064280501101166								6	Cue		
34	3083	2024_Oct_31_1252	f	1	r	TS SS	231.37780929985456	7.997387669980526								7	Pre-Jitter		
35	3083	2024_Oct_31_1252	f	1	r	TS SS	239.40254819998518	15.01480531017296			Right Leg		47.5			16	Heat-Stimulation		
36	3083	2024_Oct_31_1252	f	1	r	TS SS	254.48729790002108	5.01212482014671								8	Mid-Jitter		
37	3083	2024_Oct_31_1252	f	1	r	TS SS	259.51346419984475	5.010057040024549								20	PainBinary	1.966947300126776	1.0
38	3083	2024_Oct_31_1252	f	1	r	TS SS	264.55192760005593	5.016559809911996								21	IntensityRating	2.2502855001948774	46.48148148148148
39	3083	2024_Oct_31_1252	f	1	r	TS SS	269.57520229998045	5.003449640003964								22	ToleranceRating	1.1669280000496656	1.0
40	3083	2024_Oct_31_1252	f	1	r	TS SS	274.5809231000021	5.008816170040518								9	Post-Q-Jitter		
41	3083	2024_Oct_31_1252	f	1	r	TS SS	281.06344519997947	2.009201930137351								6	Cue		
42	3083	2024_Oct_31_1252	f	1	r	TS SS	283.0778405999299	7.998601170256734								7	Pre-Jitter		
43	3083	2024_Oct_31_1252	f	1	r	TS SS	291.11056059994735	14.99995150999166			Right Leg		47.5			16	Heat-Stimulation		
44	3083	2024_Oct_31_1252	f	1	r	TS SS	306.186298500048	7.015379420015961								8	Mid-Jitter		
45	3083	2024_Oct_31_1252	f	1	r	TS SS	313.21176919993013	4.998118239920586								20	PainBinary	1.6834704000502825	1.0
46	3083	2024_Oct_31_1252	f	1	r	TS SS	318.2271016999148	5.000866339774802								21	IntensityRating	1.7669728000182658	54.93827160493827
47	3083	2024_Oct_31_1252	f	1	r	TS SS	323.24427659995854	4.999963340116665								22	ToleranceRating	0.9003295998554677	1.0
48	3083	2024_Oct_31_1252	f	1	r	TS SS	328.2488412000239	7.007687370292842								9	Post-Q-Jitter		
49	3083	2024_Oct_31_1252	f	1	r	TS SS	335.911926999921	2.014392100041732								6	Cue		
50	3083	2024_Oct_31_1252	f	1	r	TS SS	337.9289307000581	7.997762370156124								7	Pre-Jitter		
51	3083	2024_Oct_31_1252	f	1	r	TS SS	345.98855850007385	15.01205285009928			Right Leg		47.5			16	Heat-Stimulation		
52	3083	2024_Oct_31_1252	f	1	r	TS SS	361.0751839999575	7.005759319989011								8	Mid-Jitter		
53	3083	2024_Oct_31_1252	f	1	r	TS SS	368.09623819985427	4.9971920400857925								20	PainBinary	2.0504213001113385	1.0
54	3083	2024_Oct_31_1252	f	1	r	TS SS	373.1125067998655	4.998097439762205								21	IntensityRating	0.9688933999277651	48.086419753086425
55	3083	2024_Oct_31_1252	f	1	r	TS SS	378.12581479991786	5.004927039844915								22	ToleranceRating	0.8337248000316322	1.0
56	3083	2024_Oct_31_1252	f	1	r	TS SS	383.13273419998586	7.007912670029327								9	Post-Q-Jitter		
57	3083	2024_Oct_31_1252	f	1	r	TS SS	390.1711353000719	2.681327410042286								26	ComfortRating	2.6502666000742465	-32.469135802469125
58	3083	2024_Oct_31_1252	f	1	r	TS SS	392.8670133999549	2.6396497399546206								24	ValenceRating	2.616976900026202	68.88888888888887
59	3083	2024_Oct_31_1252	f	1	r	TS SS	395.5285652000457	1.4832546398974955								26	IntensityRating	1.4669709000736475	71.48148148148148
60	3083	2024_Oct_31_1252	f	1	r	TS SS	397.02791099995375	3.1012355401180685								27	AvoidanceRating	3.083581499988213	31.481481481481495
61	3083	2024_Oct_31_1252	f	1	r	TS SS	400.14242839999497	3.55564903980121								28	RelaxationRating	3.533966900082305	59.50617283950618
62	3083	2024_Oct_31_1252	f	1	r	TS SS	403.71292650001124	2.981441139942035								29	AttentionRating	2.9502916999626905	55.37037037037037
63	3083	2024_Oct_31_1252	f	1	r	TS SS	406.7113294999581	1.817999439779669								30	BoredomRating	1.800279299961403	38.88888888888889
64	3083	2024_Oct_31_1252	f	1	r	TS SS	408.54400220001116	2.986044139834121								31	AlertnessRating	2.9669858999550343	34.69135802469137
65	3083	2024_Oct_31_1252	f	1	r	TS SS	411.543315500021	3.4875397400464863								32	PosThxRating	3.4670452000573277	25.925925925925924
66	3083	2024_Oct_31_1252	f	1	r	TS SS	415.04352719988674	3.4205413397867233								33	NegThxRating	3.400346899870783	-26.41975308641976
67	3083	2024_Oct_31_1252	f	1	r	TS SS	418.47675999999046	3.0708116400055587								34	SelfRating	3.050327200209722	-28.148148148148152
68	3083	2024_Oct_31_1252	f	1	r	TS SS	421.5600757000502	3.3209243398159742								35	OtherRating	3.3003708999603987	21.975308641975303
69	3083	2024_Oct_31_1252	f	1	r	TS SS	424.8961978999432	2.982083539944142								32	ImageryRating	2.967081499984488	26.666666666666657
70	3083	2024_Oct_31_1252	f	1	r	TS SS	427.89692019997165	2.6807070397771895								37	PresentRating	2.650277900043875	-39.629629629629626
