RestT1,TaskT1,square,location,corrAns,counterbalancer.thisRepN,counterbalancer.thisTrialN,counterbalancer.thisN,counterbalancer.thisIndex,RestT1Loop.thisRepN,RestT1Loop.thisTrialN,RestT1Loop.thisN,RestT1Loop.thisIndex,TaskT1Loop.thisRepN,TaskT1Loop.thisTrialN,TaskT1Loop.thisN,TaskT1Loop.thisIndex,trials_2.thisRepN,trials_2.thisTrialN,trials_2.thisN,trials_2.thisIndex,fixation_1.started,fixation_1.stopped,NbackInstructions.started,NbackInstructions.stopped,NbackStart.keys,NbackStart.rt,NbackStart.started,NbackStart.stopped,fixation_2.started,fixation_2.stopped,response_2.x,response_2.y,response_2.leftButton,grid_lines_2.started,grid_lines_2.stopped,target_square_2.started,target_square_2.stopped,fixation_3.started,fixation_3.stopped,response_2.click,response_2.corr,response_2.started,response_2.stopped,subject number,gender,session,handedness,scanner,date,expName,psychopyVersion,frameRate,
1,0,,,,0,0,0,0,0,0,0,0,,,,,,,,,53.194569200015394,None,,,,,,,,,,,,,,,,,,,,,,1,m,34,r,MCK,2022_Jan_14_1510,WASABI Nback,2020.2.10,60.0145355228918,
0,1,,,,0,1,1,1,,,,,0,0,0,0,,,,,,,328.3133126000175,None,space,34.42237169999862,328.3133126000175,None,,,,,,,,,,,,,,,,1,m,34,r,MCK,2022_Jan_14_1510,WASABI Nback,2020.2.10,60.0145355228918,
0,1,5,"[0, 0]",None,0,1,1,1,,,,,0,0,0,0,0,0,0,0,,,,,,,,,None,None,None,None,[],None,None,None,None,None,None,[],[],None,None,1,m,34,r,MCK,2022_Jan_14_1510,WASABI Nback,2020.2.10,60.0145355228918,
0,1,2,"[0, 0.2]",None,0,1,1,1,,,,,0,0,0,0,0,1,1,1,,,,,,,,,,,None,None,[],None,None,None,None,None,None,[],[],None,None,1,m,34,r,MCK,2022_Jan_14_1510,WASABI Nback,2020.2.10,60.0145355228918,
0,1,6,"[0.2, 0]",None,0,1,1,1,,,,,0,0,0,0,0,2,2,2,,,,,,,,,,,None,None,0,369.49684170002,None,369.49684170002,None,None,None,0,1,369.49684170002,None,1,m,34,r,MCK,2022_Jan_14_1510,WASABI Nback,2020.2.10,60.0145355228918,
0,1,9,"[0.2, -0.2]",None,0,1,1,1,,,,,0,0,0,0,0,3,3,3,,,,,,,,,,,None,None,0,369.7802714999998,None,369.7802714999998,370.7802925000142,370.76360210002167,371.76360910001677,0,1,369.7802714999998,None,1,m,34,r,MCK,2022_Jan_14_1510,WASABI Nback,2020.2.10,60.0145355228918,
0,1,3,"[0.2, 0.2]",None,0,1,1,1,,,,,0,0,0,0,0,4,4,4,,,,,,,,,,,None,None,0,371.78029620001325,None,371.78029620001325,372.78029980001156,372.7636312000104,373.7636427000107,0,1,371.78029620001325,None,1,m,34,r,MCK,2022_Jan_14_1510,WASABI Nback,2020.2.10,60.0145355228918,
0,1,9,"[0.2, -0.2]",1,0,1,1,1,,,,,0,0,0,0,0,5,5,5,,,,,,,,,,,None,None,0,373.7803101000027,None,373.7803101000027,374.78031200001715,374.76364100002684,375.76365880001686,0,1,373.7803101000027,None,1,m,34,r,MCK,2022_Jan_14_1510,WASABI Nback,2020.2.10,60.0145355228918,
0,1,7,"[-0.2, -0.2]",None,0,1,1,1,,,,,0,0,0,0,0,6,6,6,,,,,,,,,,,None,None,0,375.7802042000112,None,375.7802042000112,376.7803186000092,376.7636656000104,377.76365780000924,0,1,375.7802042000112,None,1,m,34,r,MCK,2022_Jan_14_1510,WASABI Nback,2020.2.10,60.0145355228918,
0,1,1,"[-0.2, 0.2]",None,0,1,1,1,,,,,0,0,0,0,0,7,7,7,,,,,,,,,,,None,None,0,377.78033010000945,None,377.78033010000945,378.78033240002696,378.7636802000052,379.763669500011,0,1,377.78033010000945,None,1,m,34,r,MCK,2022_Jan_14_1510,WASABI Nback,2020.2.10,60.0145355228918,
0,1,5,"[0, 0]",None,0,1,1,1,,,,,0,0,0,0,0,8,8,8,,,,,,,,,,,None,None,0,379.780341900012,None,379.780341900012,380.78034330002265,380.7636832999997,381.7636869000271,0,1,379.780341900012,None,1,m,34,r,MCK,2022_Jan_14_1510,WASABI Nback,2020.2.10,60.0145355228918,
0,1,7,"[-0.2, -0.2]",None,0,1,1,1,,,,,0,0,0,0,0,9,9,9,,,,,,,,,,,None,None,0,381.7804407000076,None,381.7804407000076,382.78035730001284,382.76369859999977,383.76371210001525,0,1,381.7804407000076,None,1,m,34,r,MCK,2022_Jan_14_1510,WASABI Nback,2020.2.10,60.0145355228918,
0,1,5,"[0, 0]",1,0,1,1,1,,,,,0,0,0,0,0,10,10,10,,,,,,,,,,,None,None,0,383.78045020002173,None,383.78045020002173,384.78037750002113,384.7637270000123,385.763715100009,0,1,383.78045020002173,None,1,m,34,r,MCK,2022_Jan_14_1510,WASABI Nback,2020.2.10,60.0145355228918,
0,1,6,"[0.2, 0]",None,0,1,1,1,,,,,0,0,0,0,0,11,11,11,,,,,,,,,,,None,None,0,385.780387900013,None,385.780387900013,386.78038500002003,386.7637431000185,387.7637443000276,0,1,385.780387900013,None,1,m,34,r,MCK,2022_Jan_14_1510,WASABI Nback,2020.2.10,60.0145355228918,
0,1,3,"[0.2, 0.2]",None,0,1,1,1,,,,,0,0,0,0,0,12,12,12,,,,,,,,,,,None,None,0,387.7804034000146,None,387.7804034000146,388.78040360001614,388.7637541000149,389.7637484000006,0,1,387.7804034000146,None,1,m,34,r,MCK,2022_Jan_14_1510,WASABI Nback,2020.2.10,60.0145355228918,
0,1,6,"[0.2, 0]",1,0,1,1,1,,,,,0,0,0,0,0,13,13,13,,,,,,,,,,,None,None,0,389.78042530000675,None,389.78042530000675,390.7804255000083,390.76377810002305,391.76377010002034,0,1,389.78042530000675,None,1,m,34,r,MCK,2022_Jan_14_1510,WASABI Nback,2020.2.10,60.0145355228918,
0,1,8,"[0, -0.2]",None,0,1,1,1,,,,,0,0,0,0,0,14,14,14,,,,,,,,,,,None,None,0,391.78047399999923,None,391.78047399999923,392.7804309000203,392.7637707000249,393.76377810002305,0,1,391.78047399999923,None,1,m,34,r,MCK,2022_Jan_14_1510,WASABI Nback,2020.2.10,60.0145355228918,
0,1,9,"[0.2, -0.2]",None,0,1,1,1,,,,,0,0,0,0,0,15,15,15,,,,,,,,,,,None,None,0,393.780445100012,None,393.780445100012,394.7804475000012,394.7637811000168,395.76379330002237,0,1,393.780445100012,None,1,m,34,r,MCK,2022_Jan_14_1510,WASABI Nback,2020.2.10,60.0145355228918,
0,1,9,"[0.2, -0.2]",None,0,1,1,1,,,,,0,0,0,0,0,16,16,16,,,,,,,,,,,None,None,0,395.7804661000264,None,395.7804661000264,396.7804684000148,396.76380220000283,397.7638232000172,0,1,395.7804661000264,None,1,m,34,r,MCK,2022_Jan_14_1510,WASABI Nback,2020.2.10,60.0145355228918,
0,1,1,"[-0.2, 0.2]",None,0,1,1,1,,,,,0,0,0,0,0,17,17,17,,,,,,,,,,,None,None,0,397.78047420000075,None,397.78047420000075,398.78048660000786,398.7638157000183,399.7638191000151,0,1,397.78047420000075,None,1,m,34,r,MCK,2022_Jan_14_1510,WASABI Nback,2020.2.10,60.0145355228918,
0,1,3,"[0.2, 0.2]",None,0,1,1,1,,,,,0,0,0,0,0,18,18,18,,,,,,,,,,,None,None,0,399.78050450002775,None,399.78050450002775,400.78048870002385,400.7638253000041,401.76383760001045,0,1,399.78050450002775,None,1,m,34,r,MCK,2022_Jan_14_1510,WASABI Nback,2020.2.10,60.0145355228918,
0,1,5,"[0, 0]",None,0,1,1,1,,,,,0,0,0,0,0,19,19,19,,,,,,,,,,,None,None,0,401.7805118000251,None,401.7805118000251,402.7805030000163,402.76385260000825,403.76385110002593,0,1,401.7805118000251,None,1,m,34,r,MCK,2022_Jan_14_1510,WASABI Nback,2020.2.10,60.0145355228918,
0,1,3,"[0.2, 0.2]",1,0,1,1,1,,,,,0,0,0,0,0,20,20,20,,,,,,,,,,,None,None,0,403.7805206000048,None,403.7805206000048,404.7805346000241,404.7638682000106,405.76388730001054,0,0,403.7805206000048,None,1,m,34,r,MCK,2022_Jan_14_1510,WASABI Nback,2020.2.10,60.0145355228918,
0,1,4,"[-0.2, 0]",None,0,1,1,1,,,,,0,0,0,0,0,21,21,21,,,,,,,,,,,None,None,0,405.7805502000265,None,405.7805502000265,406.78054850001354,406.7639127000002,407.7638814000238,0,1,405.7805502000265,None,1,m,34,r,MCK,2022_Jan_14_1510,WASABI Nback,2020.2.10,60.0145355228918,
0,1,7,"[-0.2, -0.2]",None,0,1,1,1,,,,,0,0,0,0,0,22,22,22,,,,,,,,,,,None,None,0,407.7804619000235,None,407.7804619000235,408.7805587000039,408.7639057000051,409.76391240002704,0,1,407.7804619000235,None,1,m,34,r,MCK,2022_Jan_14_1510,WASABI Nback,2020.2.10,60.0145355228918,
0,1,4,"[-0.2, 0]",1,0,1,1,1,,,,,0,0,0,0,0,23,23,23,,,,,,,,,,,None,None,0,409.7805797000183,None,409.7805797000183,410.7805683000188,410.76390690001426,411.76393180000014,0,1,409.7805797000183,None,1,m,34,r,MCK,2022_Jan_14_1510,WASABI Nback,2020.2.10,60.0145355228918,
0,1,4,"[-0.2, 0]",None,0,1,1,1,,,,,0,0,0,0,0,24,24,24,,,,,,,,,,,None,None,0,411.7805789000122,None,411.7805789000122,412.780585600005,412.76393310001004,413.7639386000228,0,1,411.7805789000122,None,1,m,34,r,MCK,2022_Jan_14_1510,WASABI Nback,2020.2.10,60.0145355228918,
0,1,5,"[0, 0]",None,0,1,1,1,,,,,0,0,0,0,0,25,25,25,,,,,,,,,,,None,None,0,413.78058470002725,None,413.78058470002725,414.7806048000057,414.76396150002256,415.763958000025,0,1,413.78058470002725,None,1,m,34,r,MCK,2022_Jan_14_1510,WASABI Nback,2020.2.10,60.0145355228918,
0,1,2,"[0, 0.2]",None,0,1,1,1,,,,,0,0,0,0,0,26,26,26,,,,,,,,,,,None,None,0,415.7806278000062,None,415.7806278000062,416.78061240000534,416.76395300001604,417.7639560000098,0,1,415.7806278000062,None,1,m,34,r,MCK,2022_Jan_14_1510,WASABI Nback,2020.2.10,60.0145355228918,
0,1,6,"[0.2, 0]",None,0,1,1,1,,,,,0,0,0,0,0,27,27,27,,,,,,,,,,,None,None,0,417.7806228000263,None,417.7806228000263,418.78064890002133,418.7639782000042,419.76398020001943,0,1,417.7806228000263,None,1,m,34,r,MCK,2022_Jan_14_1510,WASABI Nback,2020.2.10,60.0145355228918,
0,1,7,"[-0.2, -0.2]",None,0,1,1,1,,,,,0,0,0,0,0,28,28,28,,,,,,,,,,,None,None,0,419.78063850000035,None,419.78063850000035,420.7806506000052,420.76398840002366,421.7639940000081,0,1,419.78063850000035,None,1,m,34,r,MCK,2022_Jan_14_1510,WASABI Nback,2020.2.10,60.0145355228918,
0,1,6,"[0.2, 0]",1,0,1,1,1,,,,,0,0,0,0,0,29,29,29,,,,,,,,,,,None,None,0,421.78067240002565,None,421.78067240002565,422.78066700001364,422.7639049999998,423.7640207000077,0,1,421.78067240002565,None,1,m,34,r,MCK,2022_Jan_14_1510,WASABI Nback,2020.2.10,60.0145355228918,
0,1,6,"[0.2, 0]",None,0,1,1,1,,,,,0,0,0,0,0,30,30,30,,,,,,,,,,,None,None,0,423.7806733000034,None,423.7806733000034,424.78069490002235,424.76401480002096,425.76402280002367,0,0,423.7806733000034,None,1,m,34,r,MCK,2022_Jan_14_1510,WASABI Nback,2020.2.10,60.0145355228918,
0,1,7,"[-0.2, -0.2]",None,0,1,1,1,,,,,0,0,0,0,0,31,31,31,,,,,,,,,,,None,None,0,425.7806837000244,None,425.7806837000244,426.7807206000143,426.7640289000119,427.76404950002325,0,0,425.7806837000244,None,1,m,34,r,MCK,2022_Jan_14_1510,WASABI Nback,2020.2.10,60.0145355228918,
0,1,6,"[0.2, 0]",1,0,1,1,1,,,,,0,0,0,0,0,32,32,32,,,,,,,,,,,None,None,0,427.78071869999985,None,427.78071869999985,428.78071560000535,428.7640542000008,429.7640493000217,0,0,427.78071869999985,None,1,m,34,r,MCK,2022_Jan_14_1510,WASABI Nback,2020.2.10,60.0145355228918,
0,1,2,"[0, 0.2]",None,0,1,1,1,,,,,0,0,0,0,0,33,33,33,,,,,,,,,,,None,None,0,429.7807323000161,None,429.7807323000161,430.78073760002735,430.76407800000743,431.76406480002333,0,1,429.7807323000161,None,1,m,34,r,MCK,2022_Jan_14_1510,WASABI Nback,2020.2.10,60.0145355228918,
0,1,5,"[0, 0]",None,0,1,1,1,,,,,0,0,0,0,0,34,34,34,,,,,,,,,,,None,None,0,431.7807375000266,None,431.7807375000266,432.78074610000476,432.7641001000011,433.7640991000226,0,1,431.7807375000266,None,1,m,34,r,MCK,2022_Jan_14_1510,WASABI Nback,2020.2.10,60.0145355228918,
0,1,4,"[-0.2, 0]",None,0,1,1,1,,,,,0,0,0,0,0,35,35,35,,,,,,,,,,,None,None,0,433.7807639000239,None,433.7807639000239,434.780759700021,434.76411160000134,435.76408880000236,0,1,433.7807639000239,None,1,m,34,r,MCK,2022_Jan_14_1510,WASABI Nback,2020.2.10,60.0145355228918,
0,1,4,"[-0.2, 0]",None,0,1,1,1,,,,,0,0,0,0,0,36,36,36,,,,,,,,,,,None,None,0,435.78077300000587,None,435.78077300000587,436.7807853000122,436.76411420002114,437.76413620001404,0,1,435.78077300000587,None,1,m,34,r,MCK,2022_Jan_14_1510,WASABI Nback,2020.2.10,60.0145355228918,
0,1,7,"[-0.2, -0.2]",None,0,1,1,1,,,,,0,0,0,0,0,37,37,37,,,,,,,,,,,None,None,0,437.78077870002016,None,437.78077870002016,438.7807323000161,438.7641363000148,439.76412450001226,0,1,437.78077870002016,None,1,m,34,r,MCK,2022_Jan_14_1510,WASABI Nback,2020.2.10,60.0145355228918,
0,1,4,"[-0.2, 0]",1,0,1,1,1,,,,,0,0,0,0,0,38,38,38,,,,,,,,,,,None,None,0,439.78069959999993,None,439.78069959999993,440.780791600002,440.76415220001945,441.7641577000031,0,1,439.78069959999993,None,1,m,34,r,MCK,2022_Jan_14_1510,WASABI Nback,2020.2.10,60.0145355228918,
0,1,3,"[0.2, 0.2]",None,0,1,1,1,,,,,0,0,0,0,0,39,39,39,,,,,,,,,,,None,None,0,441.78080900001805,None,441.78080900001805,442.7808128000179,442.7641612000007,443.76416950000566,0,1,441.78080900001805,None,1,m,34,r,MCK,2022_Jan_14_1510,WASABI Nback,2020.2.10,60.0145355228918,
0,1,5,"[0, 0]",None,0,1,1,1,,,,,0,0,0,0,0,40,40,40,,,,,,,,,,,None,None,0,443.78083050000714,None,443.78083050000714,444.78083490001154,444.76418040000135,445.76417290000245,0,1,443.78083050000714,None,1,m,34,r,MCK,2022_Jan_14_1510,WASABI Nback,2020.2.10,60.0145355228918,
0,1,3,"[0.2, 0.2]",1,0,1,1,1,,,,,0,0,0,0,0,41,41,41,,,,,,,,,,,None,None,0,445.7808451000019,None,445.7808451000019,446.7808361000207,446.7641855000111,447.76418530000956,0,1,445.7808451000019,None,1,m,34,r,MCK,2022_Jan_14_1510,WASABI Nback,2020.2.10,60.0145355228918,
0,1,1,"[-0.2, 0.2]",None,0,1,1,1,,,,,0,0,0,0,0,42,42,42,,,,,,,,,,,None,None,0,447.78088590002153,None,447.78088590002153,448.78086850000545,448.7641929000092,449.7642305000045,0,1,447.78088590002153,None,1,m,34,r,MCK,2022_Jan_14_1510,WASABI Nback,2020.2.10,60.0145355228918,
0,1,9,"[0.2, -0.2]",None,0,1,1,1,,,,,0,0,0,0,0,43,43,43,,,,,,,,,,,None,None,0,449.7808756000013,None,449.7808756000013,450.78088220002246,450.76420990002225,451.7642092000169,0,1,449.7808756000013,None,1,m,34,r,MCK,2022_Jan_14_1510,WASABI Nback,2020.2.10,60.0145355228918,
0,1,9,"[0.2, -0.2]",None,0,1,1,1,,,,,0,0,0,0,0,44,44,44,,,,,,,,,,,None,None,0,451.78090400001383,None,451.78090400001383,452.7808878000069,452.7642524000257,453.7642199000111,0,1,451.78090400001383,None,1,m,34,r,MCK,2022_Jan_14_1510,WASABI Nback,2020.2.10,60.0145355228918,
0,1,8,"[0, -0.2]",None,0,1,1,1,,,,,0,0,0,0,0,45,45,45,,,,,,,,,,,None,None,0,453.78089850000106,None,453.78089850000106,454.780951200024,454.7642403000209,455.76427410001634,0,1,453.78089850000106,None,1,m,34,r,MCK,2022_Jan_14_1510,WASABI Nback,2020.2.10,60.0145355228918,
0,1,6,"[0.2, 0]",None,0,1,1,1,,,,,0,0,0,0,0,46,46,46,,,,,,,,,,,None,None,0,455.78092410002137,None,455.78092410002137,456.7809170000255,456.76425600002403,457.76427490002243,0,1,455.78092410002137,None,1,m,34,r,MCK,2022_Jan_14_1510,WASABI Nback,2020.2.10,60.0145355228918,
0,1,3,"[0.2, 0.2]",None,0,1,1,1,,,,,0,0,0,0,0,47,47,47,,,,,,,,,,,None,None,0,457.78093090001494,None,457.78093090001494,458.7809457000112,458.76428230002057,459.76429600000847,0,1,457.78093090001494,None,1,m,34,r,MCK,2022_Jan_14_1510,WASABI Nback,2020.2.10,60.0145355228918,
0,1,6,"[0.2, 0]",1,0,1,1,1,,,,,0,0,0,0,0,48,48,48,,,,,,,,,,,None,None,0,459.7809455000097,None,459.7809455000097,460.78095800001756,460.7643003000121,461.7642938000208,0,0,459.7809455000097,None,1,m,34,r,MCK,2022_Jan_14_1510,WASABI Nback,2020.2.10,60.0145355228918,
0,1,5,"[0, 0]",None,0,1,1,1,,,,,0,0,0,0,0,49,49,49,,,,,,,,,,,None,None,0,461.7809593999991,None,461.7809593999991,462.78097330001765,462.764316100016,463.7643052000203,0,1,461.7809593999991,None,1,m,34,r,MCK,2022_Jan_14_1510,WASABI Nback,2020.2.10,60.0145355228918,
0,1,7,"[-0.2, -0.2]",None,0,1,1,1,,,,,0,0,0,0,0,50,50,50,,,,,,,,,,,None,None,0,463.7809907000046,None,463.7809907000046,464.7809778000228,464.76433020000695,465.7643366000266,0,1,463.7809907000046,None,1,m,34,r,MCK,2022_Jan_14_1510,WASABI Nback,2020.2.10,60.0145355228918,
0,1,5,"[0, 0]",1,0,1,1,1,,,,,0,0,0,0,0,51,51,51,,,,,,,,,,,None,None,0,465.7809967000212,None,465.7809967000212,466.7810129999998,466.764345100004,467.76435170002514,0,1,465.7809967000212,None,1,m,34,r,MCK,2022_Jan_14_1510,WASABI Nback,2020.2.10,60.0145355228918,
0,1,1,"[-0.2, 0.2]",None,0,1,1,1,,,,,0,0,0,0,0,52,52,52,,,,,,,,,,,None,None,0,467.7810123000236,None,467.7810123000236,468.78100880002603,468.76435120002134,469.76436070000636,0,1,467.7810123000236,None,1,m,34,r,MCK,2022_Jan_14_1510,WASABI Nback,2020.2.10,60.0145355228918,
0,1,7,"[-0.2, -0.2]",None,0,1,1,1,,,,,0,0,0,0,0,53,53,53,,,,,,,,,,,None,None,0,469.7810510000272,None,469.7810510000272,470.7810337000119,470.76438010000857,471.7643635000277,0,1,469.7810510000272,None,1,m,34,r,MCK,2022_Jan_14_1510,WASABI Nback,2020.2.10,60.0145355228918,
0,1,9,"[0.2, -0.2]",None,0,1,1,1,,,,,0,0,0,0,0,54,54,54,,,,,,,,,,,None,None,0,471.7810645000136,None,471.7810645000136,472.78106150001986,472.76439260001644,473.76438640002743,0,1,471.7810645000136,None,1,m,34,r,MCK,2022_Jan_14_1510,WASABI Nback,2020.2.10,60.0145355228918,
0,1,3,"[0.2, 0.2]",None,0,1,1,1,,,,,0,0,0,0,0,55,55,55,,,,,,,,,,,None,None,0,473.7810508000257,None,473.7810508000257,474.7810570000147,474.76440520002507,475.7644010000222,0,1,473.7810508000257,None,1,m,34,r,MCK,2022_Jan_14_1510,WASABI Nback,2020.2.10,60.0145355228918,
0,1,9,"[0.2, -0.2]",1,0,1,1,1,,,,,0,0,0,0,0,56,56,56,,,,,,,,,,,None,None,0,475.78107710002223,None,475.78107710002223,476.78108140002587,476.76441070000874,477.76442880000104,0,1,475.78107710002223,None,1,m,34,r,MCK,2022_Jan_14_1510,WASABI Nback,2020.2.10,60.0145355228918,
0,1,6,"[0.2, 0]",None,0,1,1,1,,,,,0,0,0,0,0,57,57,57,,,,,,,,,,,None,None,0,477.7811155000236,None,477.7811155000236,478.7811041000241,478.76443680000375,479.764425500005,0,1,477.7811155000236,None,1,m,34,r,MCK,2022_Jan_14_1510,WASABI Nback,2020.2.10,60.0145355228918,
0,1,2,"[0, 0.2]",None,0,1,1,1,,,,,0,0,0,0,0,58,58,58,,,,,,,,,,,None,None,0,479.78110010002274,None,479.78110010002274,480.781114900019,480.7644387000182,481.76444150001043,0,1,479.78110010002274,None,1,m,34,r,MCK,2022_Jan_14_1510,WASABI Nback,2020.2.10,60.0145355228918,
0,1,5,"[0, 0]",None,0,1,1,1,,,,,0,0,0,0,0,59,59,59,,,,,,,,,,,None,None,0,481.7811308000237,None,481.7811308000237,482.7811273000261,482.7644473000255,483.76447530000587,0,1,481.7811308000237,None,1,m,34,r,MCK,2022_Jan_14_1510,WASABI Nback,2020.2.10,60.0145355228918,
0,1,5,"[0, 0]",None,0,1,1,1,,,,,0,0,0,0,0,60,60,60,,,,,,,,,,,None,None,0,483.781129400013,None,483.781129400013,484.78115390002495,484.764482700004,485.76440450001974,0,1,483.781129400013,None,1,m,34,r,MCK,2022_Jan_14_1510,WASABI Nback,2020.2.10,60.0145355228918,
0,1,2,"[0, 0.2]",None,0,1,1,1,,,,,0,0,0,0,0,61,61,61,,,,,,,,,,,None,None,0,485.7810290000052,None,485.7810290000052,486.7811685000197,486.76449300002423,487.7645052000007,0,0,485.7810290000052,None,1,m,34,r,MCK,2022_Jan_14_1510,WASABI Nback,2020.2.10,60.0145355228918,
0,1,6,"[0.2, 0]",None,0,1,1,1,,,,,0,0,0,0,0,62,62,62,,,,,,,,,,,None,None,0,487.78110110000125,None,487.78110110000125,488.781169599999,488.7644938000012,489.764502200007,0,1,487.78110110000125,None,1,m,34,r,MCK,2022_Jan_14_1510,WASABI Nback,2020.2.10,60.0145355228918,
0,1,9,"[0.2, -0.2]",None,0,1,1,1,,,,,0,0,0,0,0,63,63,63,,,,,,,,,,,None,None,0,489.781191600021,None,489.781191600021,490.7811954000208,490.7645279999997,491.7645176000078,0,1,489.781191600021,None,1,m,34,r,MCK,2022_Jan_14_1510,WASABI Nback,2020.2.10,60.0145355228918,
0,1,3,"[0.2, 0.2]",None,0,1,1,1,,,,,0,0,0,0,0,64,64,64,,,,,,,,,,,None,None,0,491.7811905000126,None,491.7811905000126,492.78108350001276,492.7645414000144,493.7645422000205,0,1,491.7811905000126,None,1,m,34,r,MCK,2022_Jan_14_1510,WASABI Nback,2020.2.10,60.0145355228918,
0,1,9,"[0.2, -0.2]",1,0,1,1,1,,,,,0,0,0,0,0,65,65,65,,,,,,,,,,,None,None,0,493.78125870000804,None,493.78125870000804,494.78122190001886,494.76453720001155,495.7645629000035,0,1,493.78125870000804,None,1,m,34,r,MCK,2022_Jan_14_1510,WASABI Nback,2020.2.10,60.0145355228918,
0,1,7,"[-0.2, -0.2]",None,0,1,1,1,,,,,0,0,0,0,0,66,66,66,,,,,,,,,,,None,None,0,495.78123510000296,None,495.78123510000296,496.78122580001946,496.7645549000008,497.76458250000724,0,1,495.78123510000296,None,1,m,34,r,MCK,2022_Jan_14_1510,WASABI Nback,2020.2.10,60.0145355228918,
0,1,1,"[-0.2, 0.2]",None,0,1,1,1,,,,,0,0,0,0,0,67,67,67,,,,,,,,,,,None,None,0,497.781238399999,None,497.781238399999,498.7812441000133,498.76457940001274,499.76459080001223,0,1,497.781238399999,None,1,m,34,r,MCK,2022_Jan_14_1510,WASABI Nback,2020.2.10,60.0145355228918,
0,1,5,"[0, 0]",None,0,1,1,1,,,,,0,0,0,0,0,68,68,68,,,,,,,,,,,None,None,0,499.7812456000247,None,499.7812456000247,500.78126640000846,500.7645849000255,501.76460370002314,0,1,499.7812456000247,None,1,m,34,r,MCK,2022_Jan_14_1510,WASABI Nback,2020.2.10,60.0145355228918,
0,1,7,"[-0.2, -0.2]",None,0,1,1,1,,,,,0,0,0,0,0,69,69,69,,,,,,,,,,,None,None,0,501.7813201000099,None,501.7813201000099,502.7812890000059,502.7646111000213,503.76460600001155,0,1,501.7813201000099,None,1,m,34,r,MCK,2022_Jan_14_1510,WASABI Nback,2020.2.10,60.0145355228918,
0,1,5,"[0, 0]",1,0,1,1,1,,,,,0,0,0,0,0,70,70,70,,,,,,,,,,,None,None,0,503.78128429999924,None,503.78128429999924,504.78130060000694,504.7646214000124,505.76462230001925,0,0,503.78128429999924,None,1,m,34,r,MCK,2022_Jan_14_1510,WASABI Nback,2020.2.10,60.0145355228918,
0,1,6,"[0.2, 0]",None,0,1,1,1,,,,,0,0,0,0,0,71,71,71,,,,,,,,,,,None,None,0,505.78130290002446,None,505.78130290002446,506.7813015000138,506.7646276000014,507.76465310002095,0,1,505.78130290002446,None,1,m,34,r,MCK,2022_Jan_14_1510,WASABI Nback,2020.2.10,60.0145355228918,
0,1,3,"[0.2, 0.2]",None,0,1,1,1,,,,,0,0,0,0,0,72,72,72,,,,,,,,,,,None,None,0,507.7813370000222,None,507.7813370000222,508.7813380000007,508.7646561000147,509.7646511000057,0,1,507.7813370000222,None,1,m,34,r,MCK,2022_Jan_14_1510,WASABI Nback,2020.2.10,60.0145355228918,
0,1,6,"[0.2, 0]",1,0,1,1,1,,,,,0,0,0,0,0,73,73,73,,,,,,,,,,,None,None,0,509.7814107000013,None,509.7814107000013,510.78135490001296,510.76467920001596,511.76466730001266,0,1,509.7814107000013,None,1,m,34,r,MCK,2022_Jan_14_1510,WASABI Nback,2020.2.10,60.0145355228918,
0,1,8,"[0, -0.2]",None,0,1,1,1,,,,,0,0,0,0,0,74,74,74,,,,,,,,,,,None,None,0,511.7813543000084,None,511.7813543000084,512.7813401000167,512.7646706000087,513.7647025000188,0,1,511.7813543000084,None,1,m,34,r,MCK,2022_Jan_14_1510,WASABI Nback,2020.2.10,60.0145355228918,
0,1,9,"[0.2, -0.2]",None,0,1,1,1,,,,,0,0,0,0,0,75,75,75,,,,,,,,,,,None,None,0,513.7813601000234,None,513.7813601000234,514.781366500014,514.7647130000114,515.7647147000243,0,1,513.7813601000234,None,1,m,34,r,MCK,2022_Jan_14_1510,WASABI Nback,2020.2.10,60.0145355228918,
0,1,9,"[0.2, -0.2]",None,0,1,1,1,,,,,0,0,0,0,0,76,76,76,,,,,,,,,,,None,None,0,515.7813673000201,None,515.7813673000201,516.7814111000043,516.7647084000055,517.7647312000045,0,1,515.7813673000201,None,1,m,34,r,MCK,2022_Jan_14_1510,WASABI Nback,2020.2.10,60.0145355228918,
0,1,1,"[-0.2, 0.2]",None,0,1,1,1,,,,,0,0,0,0,0,77,77,77,,,,,,,,,,,None,None,0,517.7814026000269,None,517.7814026000269,518.7814040000085,518.7647264000261,519.764745100023,0,1,517.7814026000269,None,1,m,34,r,MCK,2022_Jan_14_1510,WASABI Nback,2020.2.10,60.0145355228918,
0,1,3,"[0.2, 0.2]",None,0,1,1,1,,,,,0,0,0,0,0,78,78,78,,,,,,,,,,,None,None,0,519.7813939000189,None,519.7813939000189,520.7814065999992,520.7647556000156,521.7647479000152,0,1,519.7813939000189,None,1,m,34,r,MCK,2022_Jan_14_1510,WASABI Nback,2020.2.10,60.0145355228918,
0,1,5,"[0, 0]",None,0,1,1,1,,,,,0,0,0,0,0,79,79,79,,,,,,,,,,,None,None,0,521.7814207000192,None,521.7814207000192,522.7814165000163,522.7647516000143,523.7647792000207,0,1,521.7814207000192,None,1,m,34,r,MCK,2022_Jan_14_1510,WASABI Nback,2020.2.10,60.0145355228918,
0,1,3,"[0.2, 0.2]",1,0,1,1,1,,,,,0,0,0,0,0,80,80,80,,,,,,,,,,,None,None,0,523.7814292000257,None,523.7814292000257,524.7814437000197,524.7647735000064,525.7647933000117,0,1,523.7814292000257,None,1,m,34,r,MCK,2022_Jan_14_1510,WASABI Nback,2020.2.10,60.0145355228918,
0,1,4,"[-0.2, 0]",None,0,1,1,1,,,,,0,0,0,0,0,81,81,81,,,,,,,,,,,None,None,0,525.781453100004,None,525.781453100004,526.7814703000186,526.7647831000213,527.7647956000001,0,1,525.781453100004,None,1,m,34,r,MCK,2022_Jan_14_1510,WASABI Nback,2020.2.10,60.0145355228918,
0,1,7,"[-0.2, -0.2]",None,0,1,1,1,,,,,0,0,0,0,0,82,82,82,,,,,,,,,,,None,None,0,527.7814652000088,None,527.7814652000088,528.7814691000094,528.7647971000115,529.7648224000004,0,1,527.7814652000088,None,1,m,34,r,MCK,2022_Jan_14_1510,WASABI Nback,2020.2.10,60.0145355228918,
0,1,4,"[-0.2, 0]",1,0,1,1,1,,,,,0,0,0,0,0,83,83,83,,,,,,,,,,,None,None,0,529.7814713000262,None,529.7814713000262,530.7814897000208,530.7648164000129,531.7648361000174,0,1,529.7814713000262,None,1,m,34,r,MCK,2022_Jan_14_1510,WASABI Nback,2020.2.10,60.0145355228918,
0,1,4,"[-0.2, 0]",None,0,1,1,1,,,,,0,0,0,0,0,84,84,84,,,,,,,,,,,None,None,0,531.7814908,None,531.7814908,532.7815127000213,532.7648439000186,533.7648536000052,0,1,531.7814908,None,1,m,34,r,MCK,2022_Jan_14_1510,WASABI Nback,2020.2.10,60.0145355228918,
0,1,5,"[0, 0]",None,0,1,1,1,,,,,0,0,0,0,0,85,85,85,,,,,,,,,,,None,None,0,533.7814930000168,None,533.7814930000168,534.7815258000046,534.764754600008,535.7648587000149,0,1,533.7814930000168,None,1,m,34,r,MCK,2022_Jan_14_1510,WASABI Nback,2020.2.10,60.0145355228918,
0,1,2,"[0, 0.2]",None,0,1,1,1,,,,,0,0,0,0,0,86,86,86,,,,,,,,,,,None,None,0,535.78154180001,None,535.78154180001,536.7815245000238,536.7648640000261,537.7648713000235,0,1,535.78154180001,None,1,m,34,r,MCK,2022_Jan_14_1510,WASABI Nback,2020.2.10,60.0145355228918,
0,1,6,"[0.2, 0]",None,0,1,1,1,,,,,0,0,0,0,0,87,87,87,,,,,,,,,,,None,None,0,537.7815450000053,None,537.7815450000053,538.7815527000057,538.7648727000051,539.7648909999989,0,1,537.7815450000053,None,1,m,34,r,MCK,2022_Jan_14_1510,WASABI Nback,2020.2.10,60.0145355228918,
0,1,7,"[-0.2, -0.2]",None,0,1,1,1,,,,,0,0,0,0,0,88,88,88,,,,,,,,,,,None,None,0,539.7815427000169,None,539.7815427000169,540.7815662000212,540.7648990000016,541.7648956000048,0,1,539.7815427000169,None,1,m,34,r,MCK,2022_Jan_14_1510,WASABI Nback,2020.2.10,60.0145355228918,
0,1,6,"[0.2, 0]",1,0,1,1,1,,,,,0,0,0,0,0,89,89,89,,,,,,,,,,,None,None,0,541.7815726000117,None,541.7815726000117,542.7815720000071,542.7649081000127,543.7649101000279,0,1,541.7815726000117,None,1,m,34,r,MCK,2022_Jan_14_1510,WASABI Nback,2020.2.10,60.0145355228918,
0,1,6,"[0.2, 0]",None,0,1,1,1,,,,,0,0,0,0,0,90,90,90,,,,,,,,,,,None,None,0,543.7815879000118,None,543.7815879000118,544.7815974000259,544.7649194000114,545.7649414000043,0,1,543.7815879000118,None,1,m,34,r,MCK,2022_Jan_14_1510,WASABI Nback,2020.2.10,60.0145355228918,
0,1,7,"[-0.2, -0.2]",None,0,1,1,1,,,,,0,0,0,0,0,91,91,91,,,,,,,,,,,None,None,0,545.7815889000194,None,545.7815889000194,546.7816031000111,546.7649521999992,547.76495110002,0,1,545.7815889000194,None,1,m,34,r,MCK,2022_Jan_14_1510,WASABI Nback,2020.2.10,60.0145355228918,
0,1,6,"[0.2, 0]",1,0,1,1,1,,,,,0,0,0,0,0,92,92,92,,,,,,,,,,,None,None,0,547.7816153000167,None,547.7816153000167,548.781636300002,548.7649514000223,549.7648786000209,0,1,547.7816153000167,None,1,m,34,r,MCK,2022_Jan_14_1510,WASABI Nback,2020.2.10,60.0145355228918,
0,1,2,"[0, 0.2]",None,0,1,1,1,,,,,0,0,0,0,0,93,93,93,,,,,,,,,,,None,None,0,549.7816307000176,None,549.7816307000176,550.7816468000237,550.7649657000147,551.7649891000183,0,1,549.7816307000176,None,1,m,34,r,MCK,2022_Jan_14_1510,WASABI Nback,2020.2.10,60.0145355228918,
0,1,5,"[0, 0]",None,0,1,1,1,,,,,0,0,0,0,0,94,94,94,,,,,,,,,,,None,None,0,551.7816262000124,None,551.7816262000124,552.7816536000173,552.7649941999989,553.7649994000094,0,1,551.7816262000124,None,1,m,34,r,MCK,2022_Jan_14_1510,WASABI Nback,2020.2.10,60.0145355228918,
0,1,4,"[-0.2, 0]",None,0,1,1,1,,,,,0,0,0,0,0,95,95,95,,,,,,,,,,,None,None,0,553.7816693000204,None,553.7816693000204,554.7816565000103,554.765008300019,555.7650171999994,0,1,553.7816693000204,None,1,m,34,r,MCK,2022_Jan_14_1510,WASABI Nback,2020.2.10,60.0145355228918,
0,1,4,"[-0.2, 0]",None,0,1,1,1,,,,,0,0,0,0,0,96,96,96,,,,,,,,,,,None,None,0,555.7816755000094,None,555.7816755000094,556.7816837000137,556.7650088000228,557.7650219000061,0,1,555.7816755000094,None,1,m,34,r,MCK,2022_Jan_14_1510,WASABI Nback,2020.2.10,60.0145355228918,
0,1,7,"[-0.2, -0.2]",None,0,1,1,1,,,,,0,0,0,0,0,97,97,97,,,,,,,,,,,None,None,0,557.7817073000188,None,557.7817073000188,558.781699300016,558.7650471000234,559.7650508000224,0,1,557.7817073000188,None,1,m,34,r,MCK,2022_Jan_14_1510,WASABI Nback,2020.2.10,60.0145355228918,
0,1,4,"[-0.2, 0]",1,0,1,1,1,,,,,0,0,0,0,0,98,98,98,,,,,,,,,,,None,None,0,559.7816976000031,None,559.7816976000031,560.7817156000237,560.7650405000022,561.7650676000048,0,1,559.7816976000031,None,1,m,34,r,MCK,2022_Jan_14_1510,WASABI Nback,2020.2.10,60.0145355228918,
0,1,3,"[0.2, 0.2]",None,0,1,1,1,,,,,0,0,0,0,0,99,99,99,,,,,,,,,,,None,None,0,561.7817203000013,None,561.7817203000013,562.7817319000023,562.7650767000159,563.7650838000118,0,1,561.7817203000013,None,1,m,34,r,MCK,2022_Jan_14_1510,WASABI Nback,2020.2.10,60.0145355228918,
0,1,5,"[0, 0]",None,0,1,1,1,,,,,0,0,0,0,0,100,100,100,,,,,,,,,,,None,None,0,563.7817263000179,None,563.7817263000179,564.7817421000218,564.7650883000169,565.7651004000218,0,1,563.7817263000179,None,1,m,34,r,MCK,2022_Jan_14_1510,WASABI Nback,2020.2.10,60.0145355228918,
0,1,3,"[0.2, 0.2]",1,0,1,1,1,,,,,0,0,0,0,0,101,101,101,,,,,,,,,,,None,None,0,565.7817453000171,None,565.7817453000171,566.7817639000132,566.7651189000171,567.7651193000202,0,1,565.7817453000171,None,1,m,34,r,MCK,2022_Jan_14_1510,WASABI Nback,2020.2.10,60.0145355228918,
0,1,1,"[-0.2, 0.2]",None,0,1,1,1,,,,,0,0,0,0,0,102,102,102,,,,,,,,,,,None,None,0,567.7817674000107,None,567.7817674000107,568.781773900002,568.7651193000202,569.765116500028,0,1,567.7817674000107,None,1,m,34,r,MCK,2022_Jan_14_1510,WASABI Nback,2020.2.10,60.0145355228918,
0,1,9,"[0.2, -0.2]",None,0,1,1,1,,,,,0,0,0,0,0,103,103,103,,,,,,,,,,,None,None,0,569.7817951000179,None,569.7817951000179,570.781787600019,570.7651411000115,571.765144200006,0,1,569.7817951000179,None,1,m,34,r,MCK,2022_Jan_14_1510,WASABI Nback,2020.2.10,60.0145355228918,
0,1,9,"[0.2, -0.2]",None,0,1,1,1,,,,,0,0,0,0,0,104,104,104,,,,,,,,,,,None,None,0,571.781802100013,None,571.781802100013,572.7817920000234,572.7651597000076,573.7651436000015,0,1,571.781802100013,None,1,m,34,r,MCK,2022_Jan_14_1510,WASABI Nback,2020.2.10,60.0145355228918,
0,1,8,"[0, -0.2]",None,0,1,1,1,,,,,0,0,0,0,0,105,105,105,,,,,,,,,,,None,None,0,573.7818079999997,None,573.7818079999997,574.7818237000029,574.765165800025,575.7651843000203,0,1,573.7818079999997,None,1,m,34,r,MCK,2022_Jan_14_1510,WASABI Nback,2020.2.10,60.0145355228918,
0,1,6,"[0.2, 0]",None,0,1,1,1,,,,,0,0,0,0,0,106,106,106,,,,,,,,,,,None,None,0,575.7818324000109,None,575.7818324000109,576.7818295000179,576.7651828000089,577.7651779000007,0,1,575.7818324000109,None,1,m,34,r,MCK,2022_Jan_14_1510,WASABI Nback,2020.2.10,60.0145355228918,
0,1,3,"[0.2, 0.2]",None,0,1,1,1,,,,,0,0,0,0,0,107,107,107,,,,,,,,,,,None,None,0,577.7818453000218,None,577.7818453000218,578.781856400019,578.7652025000134,579.7652081000269,0,1,577.7818453000218,None,1,m,34,r,MCK,2022_Jan_14_1510,WASABI Nback,2020.2.10,60.0145355228918,
0,1,6,"[0.2, 0]",1,0,1,1,1,,,,,0,0,0,0,0,108,108,108,,,,,,,,,,,None,None,0,579.78186800002,None,579.78186800002,580.7817724000197,580.7652170000074,581.7650985000073,0,1,579.78186800002,None,1,m,34,r,MCK,2022_Jan_14_1510,WASABI Nback,2020.2.10,60.0145355228918,
0,1,5,"[0, 0]",None,0,1,1,1,,,,,0,0,0,0,0,109,109,109,,,,,,,,,,,None,None,0,581.7818751000159,None,581.7818751000159,582.7818843999994,582.7652152000228,583.7652320000052,0,1,581.7818751000159,None,1,m,34,r,MCK,2022_Jan_14_1510,WASABI Nback,2020.2.10,60.0145355228918,
0,1,7,"[-0.2, -0.2]",None,0,1,1,1,,,,,0,0,0,0,0,110,110,110,,,,,,,,,,,None,None,0,583.781927700009,None,583.781927700009,584.7818936000112,584.7652298000176,585.765249500022,0,1,583.781927700009,None,1,m,34,r,MCK,2022_Jan_14_1510,WASABI Nback,2020.2.10,60.0145355228918,
0,1,5,"[0, 0]",1,0,1,1,1,,,,,0,0,0,0,0,111,111,111,,,,,,,,,,,None,None,0,585.7819160000072,None,585.7819160000072,586.7819251000183,586.7652547000034,587.7652677000151,0,1,585.7819160000072,None,1,m,34,r,MCK,2022_Jan_14_1510,WASABI Nback,2020.2.10,60.0145355228918,
0,1,1,"[-0.2, 0.2]",None,0,1,1,1,,,,,0,0,0,0,0,112,112,112,,,,,,,,,,,None,None,0,587.7819126000104,None,587.7819126000104,588.7818329000147,588.765275200014,589.7652613000246,0,1,587.7819126000104,None,1,m,34,r,MCK,2022_Jan_14_1510,WASABI Nback,2020.2.10,60.0145355228918,
0,1,7,"[-0.2, -0.2]",None,0,1,1,1,,,,,0,0,0,0,0,113,113,113,,,,,,,,,,,None,None,0,589.7819535000017,None,589.7819535000017,590.7819587000122,590.7652761000209,591.7652874000196,0,1,589.7819535000017,None,1,m,34,r,MCK,2022_Jan_14_1510,WASABI Nback,2020.2.10,60.0145355228918,
0,1,9,"[0.2, -0.2]",None,0,1,1,1,,,,,0,0,0,0,0,114,114,114,,,,,,,,,,,None,None,0,591.7819484000211,None,591.7819484000211,592.7819747000176,592.7653058000142,593.7652946000162,0,1,591.7819484000211,None,1,m,34,r,MCK,2022_Jan_14_1510,WASABI Nback,2020.2.10,60.0145355228918,
0,1,3,"[0.2, 0.2]",None,0,1,1,1,,,,,0,0,0,0,0,115,115,115,,,,,,,,,,,None,None,0,593.7819566000253,None,593.7819566000253,594.7819792000228,594.7653219000204,595.7653281000094,0,1,593.7819566000253,None,1,m,34,r,MCK,2022_Jan_14_1510,WASABI Nback,2020.2.10,60.0145355228918,
0,1,9,"[0.2, -0.2]",1,0,1,1,1,,,,,0,0,0,0,0,116,116,116,,,,,,,,,,,None,None,0,595.7819988000265,None,595.7819988000265,596.7819979000196,596.7653365000151,597.7653514000122,0,1,595.7819988000265,None,1,m,34,r,MCK,2022_Jan_14_1510,WASABI Nback,2020.2.10,60.0145355228918,
0,1,6,"[0.2, 0]",None,0,1,1,1,,,,,0,0,0,0,0,117,117,117,,,,,,,,,,,None,None,0,597.7819892000116,None,597.7819892000116,598.7820195000095,598.7653516000137,599.7653510000091,0,1,597.7819892000116,None,1,m,34,r,MCK,2022_Jan_14_1510,WASABI Nback,2020.2.10,60.0145355228918,
0,1,2,"[0, 0.2]",None,0,1,1,1,,,,,0,0,0,0,0,118,118,118,,,,,,,,,,,None,None,0,599.7820091000176,None,599.7820091000176,600.7820175000234,600.7653539000021,601.7653731000028,0,1,599.7820091000176,None,1,m,34,r,MCK,2022_Jan_14_1510,WASABI Nback,2020.2.10,60.0145355228918,
0,1,5,"[0, 0]",None,0,1,1,1,,,,,0,0,0,0,0,119,119,119,,,,,,,,,,,None,None,0,601.7820448000275,None,601.7820448000275,602.7820278000145,602.765370100009,603.7653754000203,0,1,601.7820448000275,None,1,m,34,r,MCK,2022_Jan_14_1510,WASABI Nback,2020.2.10,60.0145355228918,
