	SID	biopac_channel	body_site	condition	correct	date	duration	handedness	mouseclick	onset	rt	scanner	score	session	sex	skin_site	temperature	value
0	3153	42	Chest	0-back Instruction		2025_Aug_06_1948	5.004763976670802	r		2.7832428999245167		sw ss		2	f	3		
1	3153	7	Chest	Pre-Trial Jitter		2025_Aug_06_1948	4.999690620228648	r		7.791104200296104		sw ss		2	f	3		
2	3153	44.0	Chest	pretrialfixation		2025_Aug_06_1948	1.0037705395370722	r		13.066037100274116		sw ss		2	f	3		
3	3153		Chest	0-back	1.0	2025_Aug_06_1948	1.9815580397844315	r	0.0	14.082022199872881	0.5318645001389086	sw ss	12.5	2	f	3	32.0	
4	3153		Chest	0-back	1.0	2025_Aug_06_1948	1.994372219312936	r	0.0	16.073609000071883	0.4150396999903023	sw ss	25.0	2	f	3	32.0	
5	3153		Chest	0-back	1.0	2025_Aug_06_1948	1.9956218199804425	r	0.0	18.07935950020328	0.46512420009821653	sw ss	37.5	2	f	3	32.0	
6	3153		Chest	0-back	1.0	2025_Aug_06_1948	1.9782204199582338	r	0.0	20.08605829998851	0.4485972998663783	sw ss	50.0	2	f	3	32.0	
7	3153		Chest	0-back	1.0	2025_Aug_06_1948	1.9948003198951483	r	0.0	22.075778800062835	0.46531250001862645	sw ss	62.5	2	f	3	32.0	
8	3153		Chest	0-back	1.0	2025_Aug_06_1948	1.9788490193895996	r	0.0	24.08176700025797	0.34812729991972446	sw ss	75.0	2	f	3	32.0	
9	3153		Chest	0-back	1.0	2025_Aug_06_1948	1.9950088197365403	r	0.0	26.07169929984957	0.38136819982901216	sw ss	87.5	2	f	3	32.0	
10	3153		Chest	0-back	1.0	2025_Aug_06_1948	1.9955152198672295	r	0.0	28.07781400019303	0.3849826999939978	sw ss	100.0	2	f	3	32.0	
11	3153	48.0	Chest	ScoreReport		2025_Aug_06_1948	5.003609919920564	r		30.093275899998844		sw ss		2	f	3		
12	3153	8	Chest	Post-Trial Jitter		2025_Aug_06_1948	7.001817679964006	r		35.15505379997194		sw ss		2	f	3		
13	3153	42	Chest	0-back Instruction		2025_Aug_06_1948	5.004647539462894	r		42.172765700146556		sw ss		2	f	3		
14	3153	7	Chest	Pre-Trial Jitter		2025_Aug_06_1948	7.011535620316863	r		47.1800433001481		sw ss		2	f	3		
15	3153	44.0	Chest	pretrialfixation		2025_Aug_06_1948	1.0187912196852267	r		54.43985000019893		sw ss		2	f	3		
16	3153		Chest	0-back	1.0	2025_Aug_06_1948	1.9790018196217716	r	0.0	55.45627220021561	0.8202146999537945	sw ss	12.5	2	f	3	32.0	
17	3153		Chest	0-back	1.0	2025_Aug_06_1948	1.9939497201703489	r	0.0	57.455155400093645	0.31483000004664063	sw ss	25.0	2	f	3	32.0	
18	3153		Chest	0-back	1.0	2025_Aug_06_1948	1.9953429196029902	r	0.0	59.460839100182056	0.4150983998551965	sw ss	37.5	2	f	3	32.0	
19	3153		Chest	0-back	1.0	2025_Aug_06_1948	1.9779993197880685	r	0.0	61.46751660015434	0.41504000034183264	sw ss	50.0	2	f	3	32.0	
20	3153		Chest	0-back	1.0	2025_Aug_06_1948	1.995210519991815	r	0.0	63.456919400021434	0.38503290014341474	sw ss	62.5	2	f	3	32.0	
21	3153		Chest	0-back	1.0	2025_Aug_06_1948	1.9786993195302784	r	0.0	65.46317190025002	0.29792860010638833	sw ss	75.0	2	f	3	32.0	
22	3153		Chest	0-back	1.0	2025_Aug_06_1948	1.9951015198603272	r	0.0	67.45298410020769	0.3314332999289036	sw ss	87.5	2	f	3	32.0	
23	3153		Chest	0-back	1.0	2025_Aug_06_1948	1.995289620012045	r	0.0	69.45927349990234	0.34806689992547035	sw ss	100.0	2	f	3	32.0	
24	3153	48.0	Chest	ScoreReport		2025_Aug_06_1948	5.00531741976738	r		71.47373560024425		sw ss		2	f	3		
25	3153	8	Chest	Post-Trial Jitter		2025_Aug_06_1948	7.017343380488455	r		76.52863189997151		sw ss		2	f	3		
26	3153	51	Chest	Expectancy		2025_Aug_06_1948	5.009090138133615	r		84.63831159984693		sw ss		2	f	3		28.666666666666668
27	3153	45	Chest	2-back Instruction		2025_Aug_06_1948	5.029295759741217	r		90.01215279987082		sw ss		2	f	3		
28	3153	7	Chest	Pre-trial Jitter		2025_Aug_06_1948	7.01036671968177	r		95.04919880023226		sw ss		2	f	3		
29	3153	44.0	Chest	pretrialfixation		2025_Aug_06_1948	1.0173208797350526	r		102.3593468000181		sw ss		2	f	3		
30	3153		Chest	2-back	1.0	2025_Aug_06_1948	1.9796770201064646	r		103.37469159998		sw ss	12.5	2	f	3	47.0	
31	3153		Chest	2-back	1.0	2025_Aug_06_1948	1.9937161202542484	r		105.37402600003406		sw ss	25.0	2	f	3	47.0	
32	3153		Chest	2-back	1.0	2025_Aug_06_1948	1.99458691990003	r	2	107.37996640009806	0.6358564998954535	sw ss	37.5	2	f	3	47.0	
33	3153		Chest	2-back	1.0	2025_Aug_06_1948	1.9771219198592007	r	2	109.38666690001264	1.2008471000008285	sw ss	50.0	2	f	3	47.0	
34	3153		Chest	2-back	0.0	2025_Aug_06_1948	1.9934964198619127	r	2	111.3765296000056	0.732609000056982	sw ss	50.0	2	f	3	47.0	
35	3153		Chest	2-back	1.0	2025_Aug_06_1948	1.977042819838971	r	0	113.38274009991437	0.6323528001084924	sw ss	62.5	2	f	3	47.0	
36	3153		Chest	2-back	1.0	2025_Aug_06_1948	1.9942748197354376	r	2	115.37215849990025	0.9703110000118613	sw ss	75.0	2	f	3	47.0	
37	3153		Chest	2-back	1.0	2025_Aug_06_1948	1.9936864199116826	r	2	117.3788117999211	0.8162131998687983	sw ss	87.5	2	f	3	47.0	
38	3153	48.0	Chest	ScoreReport		2025_Aug_06_1948	5.014021739829332	r		119.39651810005307		sw ss		2	f	3		
39	3153	8	Chest	Post-trial Jitter		2025_Aug_06_1948	9.016314079985023	r		124.45106959994882		sw ss		2	f	3		
40	3153	20	Chest	PainBinary		2025_Aug_06_1948	5.006303639616817	r		133.4783789999783	2.6253488999791443	sw ss		2	f	3		-1.0
41	3153	21	Chest	IntensityRating		2025_Aug_06_1948	4.995654239784926	r		138.49962599994615	3.4617667999118567	sw ss		2	f	3		21.833333333333336
42	3153	9	Chest	Post-Q-Jitter		2025_Aug_06_1948	9.007970519829541	r		143.49906009994447		sw ss		2	f	3		
43	3153	51	Chest	Expectancy		2025_Aug_06_1948	4.997967938426882	r		153.4455925002694	3.277438399847597	sw ss		2	f	3		25.75
44	3153	45	Chest	2-back Instruction		2025_Aug_06_1948	5.017495339270681	r		158.8030659002252		sw ss		2	f	3		
45	3153	7	Chest	Pre-trial Jitter		2025_Aug_06_1948	5.020510419737548	r		163.83433180022985		sw ss		2	f	3		
46	3153	44.0	Chest	pretrialfixation		2025_Aug_06_1948	1.019036939367652	r		169.12039150018245		sw ss		2	f	3		
47	3153		Chest	2-back	1.0	2025_Aug_06_1948	1.9786682198755443	r		170.13709410000592		sw ss	12.5	2	f	3	47.0	
48	3153		Chest	2-back	1.0	2025_Aug_06_1948	1.9939242200925946	r		172.13582810014486		sw ss	25.0	2	f	3	47.0	
49	3153		Chest	2-back	1.0	2025_Aug_06_1948	1.9945658198557794	r	0	174.14187629986554	0.6993137001991272	sw ss	37.5	2	f	3	47.0	
50	3153		Chest	2-back	1.0	2025_Aug_06_1948	1.9773023203015327	r	2	176.1485183001496	0.5991111001931131	sw ss	50.0	2	f	3	47.0	
51	3153		Chest	2-back	1.0	2025_Aug_06_1948	1.9939936203882098	r	2	178.1381151000969	0.7663268996402621	sw ss	62.5	2	f	3	47.0	
52	3153		Chest	2-back	1.0	2025_Aug_06_1948	1.9775363197550178	r	2	180.14441339997575	0.6520853000693023	sw ss	75.0	2	f	3	47.0	
53	3153		Chest	2-back	0.0	2025_Aug_06_1948	1.9941775198094547	r	2	182.13409799989313	0.8034151000902057	sw ss	75.0	2	f	3	47.0	
54	3153		Chest	2-back	1.0	2025_Aug_06_1948	1.994515819940716	r	2	184.14023819984868	0.7996537000872195	sw ss	87.5	2	f	3	47.0	
55	3153	48.0	Chest	ScoreReport		2025_Aug_06_1948	5.0153494398109615	r		186.15773960016668		sw ss		2	f	3		
56	3153	8	Chest	Post-trial Jitter		2025_Aug_06_1948	9.013608080334961	r		191.21433140011504		sw ss		2	f	3		
57	3153	20	Chest	PainBinary		2025_Aug_06_1948	5.006064040120691	r		200.24041710002348	1.822731599677354	sw ss		2	f	3		1.0
58	3153	21	Chest	IntensityRating		2025_Aug_06_1948	4.9975222395733	r		205.26058600004762	3.294086500070989	sw ss		2	f	3		23.666666666666668
59	3153	23	Chest	DistractBinary		2025_Aug_06_1948	5.009250239934772	r		210.27064940007403	2.842661399859935	sw ss		2	f	3		1.0
60	3153	9	Chest	Post-Q-Jitter		2025_Aug_06_1948	9.00616071978584	r		215.27777109993622		sw ss		2	f	3		
61	3153	51	Chest	Expectancy		2025_Aug_06_1948	5.002243438269943	r		225.2212597001344	4.467102599795908	sw ss		2	f	3		22.083333333333332
62	3153	44	Chest	0-back Instruction		2025_Aug_06_1948	5.020683560054749	r		230.58763420023024		sw ss		2	f	3		
63	3153	7	Chest	Pre-Trial Jitter		2025_Aug_06_1948	5.018834420014173	r		235.61297400016338		sw ss		2	f	3		
64	3153	44.0	Chest	pretrialfixation		2025_Aug_06_1948	1.0045168194919825	r		240.89711129991338		sw ss		2	f	3		
65	3153		Chest	0-back	1.0	2025_Aug_06_1948	1.979817219544202	r	0.0	241.91435990016907	0.6323526999913156	sw ss	12.5	2	f	3	47.0	
66	3153		Chest	0-back	1.0	2025_Aug_06_1948	1.994133620057255	r	0.0	243.91353850020096	0.3857396002858877	sw ss	25.0	2	f	3	47.0	
67	3153		Chest	0-back	1.0	2025_Aug_06_1948	1.9955442198552191	r	0.0	245.9191923001781	0.3854094003327191	sw ss	37.5	2	f	3	47.0	
68	3153		Chest	0-back	1.0	2025_Aug_06_1948	1.9781480194069445	r	0.0	247.9259031000547	0.5822740998119116	sw ss	50.0	2	f	3	47.0	
69	3153		Chest	0-back	1.0	2025_Aug_06_1948	1.9950756197795272	r	0.0	249.91547439992428	0.33539329981431365	sw ss	62.5	2	f	3	47.0	
70	3153		Chest	0-back	1.0	2025_Aug_06_1948	1.9778647194616497	r	0.0	251.9220114001073	0.281220399774611	sw ss	75.0	2	f	3	47.0	
71	3153		Chest	0-back	1.0	2025_Aug_06_1948	1.99555121967569	r	0.0	253.9112205002457	0.3816102999262512	sw ss	87.5	2	f	3	47.0	
72	3153		Chest	0-back	1.0	2025_Aug_06_1948	1.9949465193785727	r	0.0	255.9179046000354	0.4317995999008417	sw ss	100.0	2	f	3	47.0	
73	3153	48.0	Chest	ScoreReport		2025_Aug_06_1948	5.005439019296318	r		257.9321742001921		sw ss		2	f	3		
74	3153	8	Chest	Post-Trial Jitter		2025_Aug_06_1948	9.018175680190325	r		262.9898673999123		sw ss		2	f	3		
75	3153	20	Chest	PainBinary		2025_Aug_06_1948	5.0068216398358345	r		272.0178382000886	1.956468400079757	sw ss		2	f	3		1.0
76	3153	21	Chest	IntensityRating		2025_Aug_06_1948	5.001017940230668	r		277.03667030017823	2.6587398000992835	sw ss		2	f	3		26.25
77	3153	23	Chest	DistractBinary		2025_Aug_06_1948	5.008474239613861	r		282.0488582001999	2.4246523999609053	sw ss		2	f	3		1.0
78	3153	9	Chest	Post-Q-Jitter		2025_Aug_06_1948	9.006516519933939	r		287.0553883998655		sw ss		2	f	3		
79	3153	51	Chest	Expectancy		2025_Aug_06_1948	5.00338301807642	r		297.23249439988285	2.4079370996914804	sw ss		2	f	3		27.916666666666668
80	3153	44	Chest	0-back Instruction		2025_Aug_06_1948	5.016456539276987	r		302.5932860998437		sw ss		2	f	3		
81	3153	7	Chest	Pre-Trial Jitter		2025_Aug_06_1948	5.0208035204559565	r		307.62387270014733		sw ss		2	f	3		
82	3153	44.0	Chest	pretrialfixation		2025_Aug_06_1948	1.0161916394717991	r		312.91151820030063		sw ss		2	f	3		
83	3153		Chest	0-back	1.0	2025_Aug_06_1948	1.9796525198034942	r	0.0	313.9263026001863	1.016435599885881	sw ss	12.5	2	f	3	47.0	
84	3153		Chest	0-back	1.0	2025_Aug_06_1948	1.9940751199610531	r	0.0	315.9254598002881	0.33147430000826716	sw ss	25.0	2	f	3	47.0	
85	3153		Chest	0-back	0.0	2025_Aug_06_1948	1.9952861196361482	r		317.9311391999945		sw ss	25.0	2	f	3	47.0	
86	3153		Chest	0-back	1.0	2025_Aug_06_1948	1.9776369202882051	r	0	319.93803570000455	0.2312633004039526	sw ss	37.5	2	f	3	47.0	
87	3153		Chest	0-back	1.0	2025_Aug_06_1948	1.99418101971969	r	0	321.9277892000973	0.297586299944669	sw ss	50.0	2	f	3	47.0	
88	3153		Chest	0-back	1.0	2025_Aug_06_1948	1.977725219912827	r	0	323.9340153001249	0.24793489975854754	sw ss	62.5	2	f	3	47.0	
89	3153		Chest	0-back	1.0	2025_Aug_06_1948	1.9943871195428073	r	0	325.9236981002614	0.26449389988556504	sw ss	75.0	2	f	3	47.0	
90	3153		Chest	0-back	1.0	2025_Aug_06_1948	1.99435271974653	r	0	327.93008230021223	0.33485479978844523	sw ss	87.5	2	f	3	47.0	
91	3153	48.0	Chest	ScoreReport		2025_Aug_06_1948	5.015226139687002	r		329.94750310014933		sw ss		2	f	3		
92	3153	8	Chest	Post-Trial Jitter		2025_Aug_06_1948	5.019252879545093	r		335.00317959999666		sw ss		2	f	3		
93	3153	20	Chest	PainBinary		2025_Aug_06_1948	5.007382839452475	r		340.03338030027226	1.2710397001355886	sw ss		2	f	3		1.0
94	3153	21	Chest	IntensityRating		2025_Aug_06_1948	4.998006139881909	r		345.0540090999566	2.9430006998591125	sw ss		2	f	3		28.499999999999996
95	3153	23	Chest	DistractBinary		2025_Aug_06_1948	5.009149339981377	r		350.064377900213	1.0062263999134302	sw ss		2	f	3		1.0
96	3153	9	Chest	Post-Q-Jitter		2025_Aug_06_1948	4.9944562199525535	r		355.0709739001468		sw ss		2	f	3		
97	3153	43	Chest	2-back Instruction		2025_Aug_06_1948	5.00372303975746	r		360.0822650999762		sw ss		2	f	3		
98	3153	7	Chest	Pre-trial Jitter		2025_Aug_06_1948	9.014026419725269	r		365.0909867002629		sw ss		2	f	3		
99	3153	44.0	Chest	pretrialfixation		2025_Aug_06_1948	1.005972999613732	r		374.35326380003244		sw ss		2	f	3		
100	3153		Chest	2-back	0.0	2025_Aug_06_1948	1.9784333198331296	r	0.0	375.37189600011334	0.73252630000934	sw ss	0.0	2	f	3	32.0	
101	3153		Chest	2-back	1.0	2025_Aug_06_1948	1.994628719985485	r		377.37027670023963		sw ss	12.5	2	f	3	32.0	
102	3153		Chest	2-back	1.0	2025_Aug_06_1948	1.9943352197296917	r	0	379.3767157001421	0.4317259998060763	sw ss	25.0	2	f	3	32.0	
103	3153		Chest	2-back	1.0	2025_Aug_06_1948	1.9771225200966	r	2	381.38331540022045	0.9669077000580728	sw ss	37.5	2	f	3	32.0	
104	3153		Chest	2-back	1.0	2025_Aug_06_1948	1.994301519356668	r	2	383.3727497998625	0.602318899706006	sw ss	50.0	2	f	3	32.0	
105	3153		Chest	2-back	1.0	2025_Aug_06_1948	1.9766790196299553	r	2	385.37954979995266	0.5487573998980224	sw ss	62.5	2	f	3	32.0	
106	3153		Chest	2-back	0.0	2025_Aug_06_1948	1.9942076192237437	r	2	387.36880359984934	0.7329126996919513	sw ss	62.5	2	f	3	32.0	
107	3153		Chest	2-back	0.0	2025_Aug_06_1948	1.9937546197324991	r	2	389.3753916998394	0.5990309999324381	sw ss	62.5	2	f	3	32.0	
108	3153	50.0	Chest	ScoreReport		2025_Aug_06_1948	5.015475039836019	r		391.39239520020783		sw ss		2	f	3		
109	3153	8	Chest	Post-trial Jitter		2025_Aug_06_1948	9.018688479904085	r		396.4464937001467		sw ss		2	f	3		
110	3153	43	Chest	2-back Instruction		2025_Aug_06_1948	5.002447639591992	r		405.4769133999944		sw ss		2	f	3		
111	3153	7	Chest	Pre-trial Jitter		2025_Aug_06_1948	5.00245511950925	r		410.4844825002365		sw ss		2	f	3		
112	3153	44.0	Chest	pretrialfixation		2025_Aug_06_1948	1.0036659995093942	r		415.7357733999379		sw ss		2	f	3		
113	3153		Chest	2-back	1.0	2025_Aug_06_1948	1.9796067201532423	r		416.75267329998314		sw ss	12.5	2	f	3	32.0	
114	3153		Chest	2-back	1.0	2025_Aug_06_1948	1.99324821960181	r		418.752219799906		sw ss	25.0	2	f	3	32.0	
115	3153		Chest	2-back	1.0	2025_Aug_06_1948	1.9944875203073025	r	0	420.75796779990196	0.5321895997039974	sw ss	37.5	2	f	3	32.0	
116	3153		Chest	2-back	1.0	2025_Aug_06_1948	1.9768654201179743	r	2	422.76470900001004	0.6993665997870266	sw ss	50.0	2	f	3	32.0	
117	3153		Chest	2-back	0.0	2025_Aug_06_1948	1.994258920662105	r	2	424.7541008000262	1.134164100047201	sw ss	50.0	2	f	3	32.0	
118	3153		Chest	2-back	1.0	2025_Aug_06_1948	1.9775786199606955	r	2	426.760443800129	0.7995652002282441	sw ss	62.5	2	f	3	32.0	
119	3153		Chest	2-back	1.0	2025_Aug_06_1948	1.9943861197680235	r	2	428.7500517000444	0.7491405000910163	sw ss	75.0	2	f	3	32.0	
120	3153		Chest	2-back	1.0	2025_Aug_06_1948	1.9934307201765478	r	2	430.75689049996436	0.5655331998132169	sw ss	87.5	2	f	3	32.0	
121	3153	48.0	Chest	ScoreReport		2025_Aug_06_1948	5.015056639909744	r		432.773927600123		sw ss		2	f	3		
122	3153	8	Chest	Post-trial Jitter		2025_Aug_06_1948	9.019326779991388	r		437.8275176002644		sw ss		2	f	3		
123	3153	51	Chest	Expectancy		2025_Aug_06_1948	5.0167446583509445	r		447.9542016000487	2.794971500057727	sw ss		2	f	3		27.666666666666668
124	3153	44	Chest	0-back Instruction		2025_Aug_06_1948	5.023356259334832	r		453.32656690012664		sw ss		2	f	3		
125	3153	7	Chest	Pre-Trial Jitter		2025_Aug_06_1948	5.0010224198922515	r		458.3538001999259		sw ss		2	f	3		
126	3153	44.0	Chest	pretrialfixation		2025_Aug_06_1948	1.0001220391131938	r		463.63120699999854		sw ss		2	f	3		
127	3153		Chest	0-back	1.0	2025_Aug_06_1948	1.9814797202125192	r	0.0	464.63704180018976	0.6155520998872817	sw ss	12.5	2	f	3	47.0	
128	3153		Chest	0-back	1.0	2025_Aug_06_1948	1.9936034199781716	r	0.0	466.63733830023557	0.2814875999465585	sw ss	25.0	2	f	3	47.0	
129	3153		Chest	0-back	1.0	2025_Aug_06_1948	1.99563062004745	r	0.0	468.6426957002841	0.2980631999671459	sw ss	37.5	2	f	3	47.0	
130	3153		Chest	0-back	1.0	2025_Aug_06_1948	1.9783273204229772	r	0.0	470.6493599000387	1.067167299799621	sw ss	50.0	2	f	3	47.0	
131	3153		Chest	0-back	1.0	2025_Aug_06_1948	1.9955016197636724	r	0.0	472.63879240024835	0.4521387000568211	sw ss	62.5	2	f	3	47.0	
132	3153		Chest	0-back	1.0	2025_Aug_06_1948	1.9779481198638678	r	0.0	474.6455645002425	0.26473020017147064	sw ss	75.0	2	f	3	47.0	
133	3153		Chest	0-back	1.0	2025_Aug_06_1948	1.9955036202445626	r	0.0	476.63480360014364	0.6188642997294664	sw ss	87.5	2	f	3	47.0	
134	3153		Chest	0-back	1.0	2025_Aug_06_1948	1.995027819648385	r	0.0	478.641336500179	0.24793989956378937	sw ss	100.0	2	f	3	47.0	
135	3153	48.0	Chest	ScoreReport		2025_Aug_06_1948	5.005586019717157	r		480.65555270016193		sw ss		2	f	3		
136	3153	8	Chest	Post-Trial Jitter		2025_Aug_06_1948	9.013861380051821	r		485.7155610001646		sw ss		2	f	3		
137	3153	20	Chest	PainBinary		2025_Aug_06_1948	5.007665439508855	r		494.7409588000737	2.006631300318986	sw ss		2	f	3		1.0
138	3153	21	Chest	IntensityRating		2025_Aug_06_1948	5.000158439856023	r		499.7606246001087	2.708897499833256	sw ss		2	f	3		24.666666666666668
139	3153	23	Chest	DistractBinary		2025_Aug_06_1948	5.00622983975336	r		504.7735128002241	1.8060196000151336	sw ss		2	f	3		1.0
140	3153	9	Chest	Post-Q-Jitter		2025_Aug_06_1948	9.006110519170761	r		509.7791503998451		sw ss		2	f	3		
141	3153	51	Chest	Expectancy		2025_Aug_06_1948	5.008569718338549	r		519.9534448999912	2.558366899844259	sw ss		2	f	3		28.999999999999996
142	3153	44	Chest	0-back Instruction		2025_Aug_06_1948	5.017133739311248	r		525.3164826002903		sw ss		2	f	3		
143	3153	7	Chest	Pre-Trial Jitter		2025_Aug_06_1948	5.018570919521153	r		530.348535399884		sw ss		2	f	3		
144	3153	44.0	Chest	pretrialfixation		2025_Aug_06_1948	1.0040051392279565	r		535.6495119002648		sw ss		2	f	3		
145	3153		Chest	0-back	1.0	2025_Aug_06_1948	1.979445820208639	r	0.0	536.6666755001061	0.699280200060457	sw ss	12.5	2	f	3	47.0	
146	3153		Chest	0-back	0.0	2025_Aug_06_1948	1.994002019520849	r		538.6656853999011		sw ss	12.5	2	f	3	47.0	
147	3153		Chest	0-back	1.0	2025_Aug_06_1948	1.9947523204609752	r	0	540.6717416001484	0.5487834000959992	sw ss	25.0	2	f	3	47.0	
148	3153		Chest	0-back	1.0	2025_Aug_06_1948	1.9769577202387154	r	0	542.6786821000278	0.498753699939698	sw ss	37.5	2	f	3	47.0	
149	3153		Chest	0-back	1.0	2025_Aug_06_1948	1.9938591201789677	r	0	544.6681999000721	0.4321981999091804	sw ss	50.0	2	f	3	47.0	
150	3153		Chest	0-back	1.0	2025_Aug_06_1948	1.9773954199627042	r	0	546.6744423001073	0.2645458001643419	sw ss	62.5	2	f	3	47.0	
151	3153		Chest	0-back	1.0	2025_Aug_06_1948	1.9941306193359196	r	0	548.6640884000808	0.31821649987250566	sw ss	75.0	2	f	3	47.0	
152	3153		Chest	0-back	1.0	2025_Aug_06_1948	1.994412719272077	r	0	550.6703122998588	0.3983868001960218	sw ss	87.5	2	f	3	47.0	
153	3153	48.0	Chest	ScoreReport		2025_Aug_06_1948	5.015117540024221	r		552.6878225998953		sw ss		2	f	3		
154	3153	8	Chest	Post-Trial Jitter		2025_Aug_06_1948	9.012439779937267	r		557.744865400251		sw ss		2	f	3		
155	3153	20	Chest	PainBinary		2025_Aug_06_1948	5.006296540144831	r		566.7702438998967	1.4548964998684824	sw ss		2	f	3		1.0
156	3153	21	Chest	IntensityRating		2025_Aug_06_1948	4.997845139820129	r		571.7903195000254	3.0293926000595093	sw ss		2	f	3		32.25
157	3153	23	Chest	DistractBinary		2025_Aug_06_1948	5.009135039988905	r		576.8005888001062	1.7391511001624167	sw ss		2	f	3		-1.0
158	3153	9	Chest	Post-Q-Jitter		2025_Aug_06_1948	9.005333419889212	r		581.8081264002249		sw ss		2	f	3		
159	3153	51	Chest	Expectancy		2025_Aug_06_1948	5.005580299533904	r		591.1311300001107	1.9899399001151323	sw ss		2	f	3		37.083333333333336
160	3153	45	Chest	2-back Instruction		2025_Aug_06_1948	5.017446539364755	r		596.4922251999378		sw ss		2	f	3		
161	3153	7	Chest	Pre-trial Jitter		2025_Aug_06_1948	5.0194627195596695	r		601.5239865002222		sw ss		2	f	3		
162	3153	44.0	Chest	pretrialfixation		2025_Aug_06_1948	1.0066356388852	r		606.815742299892		sw ss		2	f	3		
163	3153		Chest	2-back	1.0	2025_Aug_06_1948	1.9774844199419022	r		607.8268376002088		sw ss	12.5	2	f	3	47.0	
164	3153		Chest	2-back	1.0	2025_Aug_06_1948	1.993692219723016	r		609.8250843002461		sw ss	25.0	2	f	3	47.0	
165	3153		Chest	2-back	0.0	2025_Aug_06_1948	1.9948199205100536	r	2	611.8308818000369	0.4818891999311745	sw ss	25.0	2	f	3	47.0	
166	3153		Chest	2-back	1.0	2025_Aug_06_1948	1.9768400201573968	r	2	613.8378957002424	0.7828937000595033	sw ss	37.5	2	f	3	47.0	
167	3153		Chest	2-back	1.0	2025_Aug_06_1948	1.9938037195242941	r	2	615.8274027002044	1.0003470000810921	sw ss	50.0	2	f	3	47.0	
168	3153		Chest	2-back	1.0	2025_Aug_06_1948	1.977504319511354	r	2	617.8335699001327	0.5822562999092042	sw ss	62.5	2	f	3	47.0	
169	3153		Chest	2-back	1.0	2025_Aug_06_1948	1.9928934196941555	r	2	619.8238876000978	0.6153884003870189	sw ss	75.0	2	f	3	47.0	
170	3153		Chest	2-back	1.0	2025_Aug_06_1948	1.9936523200012743	r	2	621.8298631999642	0.6030430998653173	sw ss	87.5	2	f	3	47.0	
171	3153	48.0	Chest	ScoreReport		2025_Aug_06_1948	5.015050840098411	r		623.847008000128		sw ss		2	f	3		
172	3153	8	Chest	Post-trial Jitter		2025_Aug_06_1948	9.014345179777592	r		628.9030814999714		sw ss		2	f	3		
173	3153	20	Chest	PainBinary		2025_Aug_06_1948	5.007228439673781	r		637.9289375999942	2.2427840000018477	sw ss		2	f	3		-1.0
174	3153	21	Chest	IntensityRating		2025_Aug_06_1948	4.997619740199298	r		642.9496666998602	1.8227403000928462	sw ss		2	f	3		22.0
175	3153	9	Chest	Post-Q-Jitter		2025_Aug_06_1948	9.006362020038068	r		647.9508711001836		sw ss		2	f	3		
176	3153	51	Chest	Expectancy		2025_Aug_06_1948	5.006814017891884	r		658.1260887999088	1.588644600007683	sw ss		2	f	3		31.33333333333333
177	3153	45	Chest	2-back Instruction		2025_Aug_06_1948	5.030697059351951	r		663.489833000116		sw ss		2	f	3		
178	3153	7	Chest	Pre-trial Jitter		2025_Aug_06_1948	5.018422220367938	r		668.520458899904		sw ss		2	f	3		
179	3153	44.0	Chest	pretrialfixation		2025_Aug_06_1948	1.0028947396203876	r		673.8135644001886		sw ss		2	f	3		
180	3153		Chest	2-back	1.0	2025_Aug_06_1948	1.9809841196984053	r		674.8210312002338		sw ss	12.5	2	f	3	47.0	
181	3153		Chest	2-back	1.0	2025_Aug_06_1948	1.9940315196290612	r		676.820841900073		sw ss	25.0	2	f	3	47.0	
182	3153		Chest	2-back	1.0	2025_Aug_06_1948	1.9946763198822737	r	0	678.8269217000343	0.7495513996109366	sw ss	37.5	2	f	3	47.0	
183	3153		Chest	2-back	1.0	2025_Aug_06_1948	1.9775623194873333	r	2	680.8334674001671	0.49870120035484433	sw ss	50.0	2	f	3	47.0	
184	3153		Chest	2-back	1.0	2025_Aug_06_1948	1.9940651203505695	r	2	682.8232300998643	0.4986642999574542	sw ss	62.5	2	f	3	47.0	
185	3153		Chest	2-back	1.0	2025_Aug_06_1948	1.9775517201051116	r	2	684.8295082002878	0.3856671997345984	sw ss	75.0	2	f	3	47.0	
186	3153		Chest	2-back	0.0	2025_Aug_06_1948	1.9943137196823955	r	2	686.8190565998666	0.8496254999190569	sw ss	75.0	2	f	3	47.0	
187	3153		Chest	2-back	0.0	2025_Aug_06_1948	1.9942117198370397	r	2	688.8255294999108	0.6325107999145985	sw ss	75.0	2	f	3	47.0	
188	3153	48.0	Chest	ScoreReport		2025_Aug_06_1948	5.015393839683384	r		690.8428098000586		sw ss		2	f	3		
189	3153	8	Chest	Post-trial Jitter		2025_Aug_06_1948	7.009850079659373	r		695.898101599887		sw ss		2	f	3		
190	3153	20	Chest	PainBinary		2025_Aug_06_1948	5.005951240193099	r		702.9191765002906	1.638784300070256	sw ss		2	f	3		1.0
191	3153	21	Chest	IntensityRating		2025_Aug_06_1948	4.999367339536548	r		707.9383836998604	2.2573631000705063	sw ss		2	f	3		20.833333333333336
192	3153	23	Chest	DistractBinary		2025_Aug_06_1948	5.005888639949262	r		712.9510440002196	1.5553841996006668	sw ss		2	f	3		1.0
193	3153	9	Chest	Post-Q-Jitter		2025_Aug_06_1948	7.000189220067114	r		717.9562818999402		sw ss		2	f	3		
194	3153	26	Chest	ComfortRating		2025_Aug_06_1948	6.68602343974635	r		724.9768594000489	6.671563900075853	sw ss		2	f	3		-9.0
195	3153	24	Chest	ValenceRating		2025_Aug_06_1948	1.9857316398993134	r		731.6824960000813	1.9564983998425305	sw ss		2	f	3		29.666666666666668
196	3153	26	Chest	IntensityRating		2025_Aug_06_1948	1.9945955397561193	r		733.6844712002203	1.9732845998369157	sw ss		2	f	3		51.25000000000001
197	3153	27	Chest	AvoidanceRating		2025_Aug_06_1948	8.409673039335757	r		735.6935121999122	8.393690400291234	sw ss		2	f	3		36.0
198	3153	28	Chest	RelaxationRating		2025_Aug_06_1948	3.048863939475268	r		744.1171075999737	3.0266221999190748	sw ss		2	f	3		48.416666666666664
199	3153	29	Chest	AttentionRating		2025_Aug_06_1948	4.949241439811885	r		747.1795522999018	4.932454099878669	sw ss		2	f	3		37.833333333333336
200	3153	30	Chest	BoredomRating		2025_Aug_06_1948	4.002130039501935	r		752.1423424002714	3.9795588003471494	sw ss		2	f	3		50.583333333333336
201	3153	31	Chest	AlertnessRating		2025_Aug_06_1948	4.2844772399403155	r		756.1561051001772	4.263846899848431	sw ss		2	f	3		11.000000000000014
202	3153	32	Chest	PosThxRating		2025_Aug_06_1948	2.992717139888555	r		760.455248999875	2.9764506998471916	sw ss		2	f	3		0.0
203	3153	33	Chest	NegThxRating		2025_Aug_06_1948	0.9687857399694622	r		763.465208500158	0.9533147001639009	sw ss		2	f	3		0.0
204	3153	34	Chest	SelfRating		2025_Aug_06_1948	2.0435147397220135	r		764.4493443998508	2.0234458995983005	sw ss		2	f	3		-20.833333333333343
205	3153	35	Chest	OtherRating		2025_Aug_06_1948	2.3437553397379816	r		766.5062191998586	2.324332700110972	sw ss		2	f	3		-26.666666666666657
206	3153	32	Chest	ImageryRating		2025_Aug_06_1948	1.85845433967188	r		768.8639318998903	1.8394758999347687	sw ss		2	f	3		-31.16666666666667
207	3153	37	Chest	PresentRating		2025_Aug_06_1948	2.368190639652312	r		770.7407700000331	2.3409162000752985	sw ss		2	f	3		37.5
