	SID	biopac_channel	body_site	condition	correct	date	duration	handedness	mouseclick	onset	rt	scanner	score	session	sex	skin_site	temperature	value
0	2905	51	Chest	Expectancy		2024_Apr_19_1331	5.010291536687873	r		3.6040974999777973	3.400320800021291	SS TS		3	m	2		24.567901234567902
1	2905	44	Chest	0-back Instruction		2024_Apr_19_1331	4.9985840999288484	r		9.007857999997213		SS TS		3	m	2		
2	2905	7	Chest	Pre-Trial Jitter		2024_Apr_19_1331	5.005401539965533	r		14.012979099992663		SS TS		3	m	2		
3	2905	44.0	Chest	pretrialfixation		2024_Apr_19_1331	1.015972840017639	r		19.349311899975874		SS TS		3	m	2		
4	2905		Chest	0-back	1.0	2024_Apr_19_1331	1.9914646398974583	r	0.0	20.36171500000637	1.0802153000840917	SS TS	12.5	3	m	2	48.0	
5	2905		Chest	0-back	1.0	2024_Apr_19_1331	1.9880993400001898	r	0.0	22.371707999962382	0.3304190000053495	SS TS	25.0	3	m	2	48.0	
6	2905		Chest	0-back	1.0	2024_Apr_19_1331	1.9894643400330096	r	0.0	24.37104180001188	0.23411879991181195	SS TS	37.5	3	m	2	48.0	
7	2905		Chest	0-back	1.0	2024_Apr_19_1331	1.9888557400554419	r	0.0	26.371372899971902	0.34687200002372265	SS TS	50.0	3	m	2	48.0	
8	2905		Chest	0-back	1.0	2024_Apr_19_1331	1.9894360399339348	r	0.0	28.371114199981093	0.24688059999607503	SS TS	62.5	3	m	2	48.0	
9	2905		Chest	0-back	1.0	2024_Apr_19_1331	1.9883185400394723	r	0.0	30.37171049998142	0.3137378999963403	SS TS	75.0	3	m	2	48.0	
10	2905		Chest	0-back	1.0	2024_Apr_19_1331	1.989471540087834	r	0.0	32.37110660003964	0.8636669999687001	SS TS	87.5	3	m	2	48.0	
11	2905		Chest	0-back	1.0	2024_Apr_19_1331	1.9882786399684846	r	0.0	34.371749600046314	0.31664390000514686	SS TS	100.0	3	m	2	48.0	
12	2905	48.0	Chest	ScoreReport		2024_Apr_19_1331	5.005567039945163	r		36.379807799938135		SS TS		3	m	2		
13	2905	8	Chest	Post-Trial Jitter		2024_Apr_19_1331	4.998103059944697	r		41.44191079994198		SS TS		3	m	2		
14	2905	20	Chest	PainBinary		2024_Apr_19_1331	5.00446717988234	r		46.455453300033696	1.8026620999444276	SS TS		3	m	2		1.0
15	2905	21	Chest	IntensityRating		2024_Apr_19_1331	4.998709880048409	r		51.475071000051685	3.883690599934198	SS TS		3	m	2		24.814814814814813
16	2905	23	Chest	DistractBinary		2024_Apr_19_1331	5.006972079980187	r		56.487653400050476	2.6169957000529394	SS TS		3	m	2		-1.0
17	2905	9	Chest	Post-Q-Jitter		2024_Apr_19_1331	4.996298940037377	r		61.493046700023115		SS TS		3	m	2		
18	2905	51	Chest	Expectancy		2024_Apr_19_1331	5.004006819915958	r		66.69753070001025	3.816936800023541	SS TS		3	m	2		23.271604938271608
19	2905	44	Chest	0-back Instruction		2024_Apr_19_1331	5.018732099910267	r		72.10683159995824		SS TS		3	m	2		
20	2905	7	Chest	Pre-Trial Jitter		2024_Apr_19_1331	9.004370439914055	r		77.1308934999397		SS TS		3	m	2		
21	2905	44.0	Chest	pretrialfixation		2024_Apr_19_1331	1.0111018200404942	r		86.4191492999671		SS TS		3	m	2		
22	2905		Chest	0-back	1.0	2024_Apr_19_1331	1.99155803991016	r	0.0	87.42903809994459	0.44695469993166625	SS TS	12.5	3	m	2	48.0	
23	2905		Chest	0-back	1.0	2024_Apr_19_1331	1.9881691399496049	r	0.0	89.4390983999474	0.3302831999026239	SS TS	25.0	3	m	2	48.0	
24	2905		Chest	0-back	1.0	2024_Apr_19_1331	1.9888316399883479	r	0.0	91.43878369999584	0.28042989992536604	SS TS	37.5	3	m	2	48.0	
25	2905		Chest	0-back	1.0	2024_Apr_19_1331	1.9893144400557503	r	0.0	93.43856809998397	1.113774099969305	SS TS	50.0	3	m	2	48.0	
26	2905		Chest	0-back	1.0	2024_Apr_19_1331	1.987329339957796	r	0.0	95.43958020000719	0.3166990999598056	SS TS	62.5	3	m	2	48.0	
27	2905		Chest	0-back	1.0	2024_Apr_19_1331	1.988843240076676	r	0.0	97.43883410003036	0.3677180000813678	SS TS	75.0	3	m	2	48.0	
28	2905		Chest	0-back	1.0	2024_Apr_19_1331	1.9888103399425745	r	0.0	99.43888310005423	0.2636528000002727	SS TS	87.5	3	m	2	48.0	
29	2905		Chest	0-back	1.0	2024_Apr_19_1331	1.989098539808765	r	0.0	101.43876329995692	0.38416989997494966	SS TS	100.0	3	m	2	48.0	
30	2905	48.0	Chest	ScoreReport		2024_Apr_19_1331	5.004941340070218	r		103.44754590000957		SS TS		3	m	2		
31	2905	8	Chest	Post-Trial Jitter		2024_Apr_19_1331	6.9997224600519985	r		108.5085270999698		SS TS		3	m	2		
32	2905	20	Chest	PainBinary		2024_Apr_19_1331	5.0061108799418435	r		115.52209510002285	1.7337097000563517	SS TS		3	m	2		1.0
33	2905	21	Chest	IntensityRating		2024_Apr_19_1331	5.013424079865217	r		120.54349920002278	3.3668993999017403	SS TS		3	m	2		24.382716049382715
34	2905	23	Chest	DistractBinary		2024_Apr_19_1331	5.007072479929775	r		125.57171030004974	1.5669745999621227	SS TS		3	m	2		-1.0
35	2905	9	Chest	Post-Q-Jitter		2024_Apr_19_1331	6.9967664398718625	r		130.57692240003962		SS TS		3	m	2		
36	2905	43	Chest	2-back Instruction		2024_Apr_19_1331	4.993599979905412	r		137.59526189998724		SS TS		3	m	2		
37	2905	7	Chest	Pre-trial Jitter		2024_Apr_19_1331	7.004395039984956	r		142.5982825999381		SS TS		3	m	2		
38	2905	44.0	Chest	pretrialfixation		2024_Apr_19_1331	1.0089275398058817	r		149.8626337000169		SS TS		3	m	2		
39	2905		Chest	2-back	1.0	2024_Apr_19_1331	1.991536539979279	r		150.87976769998204		SS TS	12.5	3	m	2	32.0	
40	2905		Chest	2-back	1.0	2024_Apr_19_1331	1.9876380399800837	r		152.89007660001516		SS TS	25.0	3	m	2	32.0	
41	2905		Chest	2-back	1.0	2024_Apr_19_1331	1.988692139973864	r	0	154.8895598000381	0.5302915000356734	SS TS	37.5	3	m	2	32.0	
42	2905		Chest	2-back	1.0	2024_Apr_19_1331	1.9881919398903847	r	2	156.88983710005414	0.44703779998235404	SS TS	50.0	3	m	2	32.0	
43	2905		Chest	2-back	1.0	2024_Apr_19_1331	1.988133340026252	r	0	158.88988979998976	0.5636292999843135	SS TS	62.5	3	m	2	32.0	
44	2905		Chest	2-back	1.0	2024_Apr_19_1331	1.9880958399735391	r	2	160.8899302999489	0.4303353999275714	SS TS	75.0	3	m	2	32.0	
45	2905		Chest	2-back	1.0	2024_Apr_19_1331	1.988155739963986	r	2	162.889916599961	0.4171786999795586	SS TS	87.5	3	m	2	32.0	
46	2905		Chest	2-back	1.0	2024_Apr_19_1331	1.9882042398676276	r	2	164.88993770000525	0.4303594999946654	SS TS	100.0	3	m	2	32.0	
47	2905	48.0	Chest	ScoreReport		2024_Apr_19_1331	5.00184454000555	r		166.8998046000488		SS TS		3	m	2		
48	2905	8	Chest	Post-trial Jitter		2024_Apr_19_1331	4.996611559996381	r		171.96078750002198		SS TS		3	m	2		
49	2905	43	Chest	2-back Instruction		2024_Apr_19_1331	5.008073879987933	r		176.9801222999813		SS TS		3	m	2		
50	2905	7	Chest	Pre-trial Jitter		2024_Apr_19_1331	9.002015139907598	r		181.99990489997435		SS TS		3	m	2		
51	2905	44.0	Chest	pretrialfixation		2024_Apr_19_1331	1.0147464799229056	r		191.26849000004586		SS TS		3	m	2		
52	2905		Chest	2-back	1.0	2024_Apr_19_1331	1.9919194398680702	r		192.28003649995662		SS TS	12.5	3	m	2	32.0	
53	2905		Chest	2-back	1.0	2024_Apr_19_1331	1.987238339963369	r		194.29073460004292		SS TS	25.0	3	m	2	32.0	
54	2905		Chest	2-back	0.0	2024_Apr_19_1331	1.988504139939323	r	2	196.29013989993837	0.4634115999797359	SS TS	25.0	3	m	2	32.0	
55	2905		Chest	2-back	1.0	2024_Apr_19_1331	1.9878566400147974	r	2	198.29047919996083	0.59691570000723	SS TS	37.5	3	m	2	32.0	
56	2905		Chest	2-back	1.0	2024_Apr_19_1331	1.9877479400020093	r	0	200.29055759997573	0.36752850003540516	SS TS	50.0	3	m	2	32.0	
57	2905		Chest	2-back	1.0	2024_Apr_19_1331	1.9879333400167525	r	2	202.29049549996853	0.5302928999299183	SS TS	62.5	3	m	2	32.0	
58	2905		Chest	2-back	1.0	2024_Apr_19_1331	1.9877864399459213	r	2	204.29058060003445	0.763733199913986	SS TS	75.0	3	m	2	32.0	
59	2905		Chest	2-back	1.0	2024_Apr_19_1331	1.9880141399335116	r	2	206.29049409995787	0.6137167999986559	SS TS	87.5	3	m	2	32.0	
60	2905	48.0	Chest	ScoreReport		2024_Apr_19_1331	5.012057279935107	r		208.30349690001458		SS TS		3	m	2		
61	2905	8	Chest	Post-trial Jitter		2024_Apr_19_1331	7.001070260070264	r		213.3590347999707		SS TS		3	m	2		
62	2905	51	Chest	Expectancy		2024_Apr_19_1331	5.016566960024647	r		220.56796929996926	3.783678699983284	SS TS		3	m	2		23.51851851851852
63	2905	45	Chest	2-back Instruction		2024_Apr_19_1331	5.003990999888629	r		225.9742578000296		SS TS		3	m	2		
64	2905	7	Chest	Pre-trial Jitter		2024_Apr_19_1331	7.002747940015979	r		230.98341270000674		SS TS		3	m	2		
65	2905	44.0	Chest	pretrialfixation		2024_Apr_19_1331	1.0106337999459356	r		238.3044016000349		SS TS		3	m	2		
66	2905		Chest	2-back	1.0	2024_Apr_19_1331	1.9926675399765372	r		239.31352800002787		SS TS	12.5	3	m	2	48.0	
67	2905		Chest	2-back	1.0	2024_Apr_19_1331	1.9868984400527552	r		241.32476420002058		SS TS	25.0	3	m	2	48.0	
68	2905		Chest	2-back	1.0	2024_Apr_19_1331	1.988019139971584	r	0	243.32423140003812	0.48035040008835495	SS TS	37.5	3	m	2	48.0	
69	2905		Chest	2-back	1.0	2024_Apr_19_1331	1.9873764399671927	r	2	245.32456840004306	0.48047990002669394	SS TS	50.0	3	m	2	48.0	
70	2905		Chest	2-back	1.0	2024_Apr_19_1331	1.9880615399451926	r	2	247.32424119999632	0.4304992000106722	SS TS	62.5	3	m	2	48.0	
71	2905		Chest	2-back	1.0	2024_Apr_19_1331	1.9874886398902163	r	2	249.324561299989	0.4138348000124097	SS TS	75.0	3	m	2	48.0	
72	2905		Chest	2-back	1.0	2024_Apr_19_1331	1.9875689400359988	r	0	251.32455060002394	0.41383530001621693	SS TS	87.5	3	m	2	48.0	
73	2905		Chest	2-back	1.0	2024_Apr_19_1331	1.9870248399674892	r	0	253.32482970005367	0.49715650000143796	SS TS	100.0	3	m	2	48.0	
74	2905	48.0	Chest	ScoreReport		2024_Apr_19_1331	5.001976439962164	r		255.3340510999551		SS TS		3	m	2		
75	2905	8	Chest	Post-trial Jitter		2024_Apr_19_1331	8.99994536000304	r		260.3934768999461		SS TS		3	m	2		
76	2905	20	Chest	PainBinary		2024_Apr_19_1331	5.0030741799855605	r		269.40867030003574	2.083634900045581	SS TS		3	m	2		1.0
77	2905	21	Chest	IntensityRating		2024_Apr_19_1331	5.013000680017285	r		274.4287663999712	3.9024505000561476	SS TS		3	m	2		21.85185185185185
78	2905	23	Chest	DistractBinary		2024_Apr_19_1331	5.003721379907802	r		279.4584626000142	1.5503399000735953	SS TS		3	m	2		-1.0
79	2905	9	Chest	Post-Q-Jitter		2024_Apr_19_1331	8.99522604001686	r		284.4627916000318		SS TS		3	m	2		
80	2905	51	Chest	Expectancy		2024_Apr_19_1331	5.004241419839673	r		294.1664571999572	3.4003183000022545	SS TS		3	m	2		23.024691358024693
81	2905	45	Chest	2-back Instruction		2024_Apr_19_1331	5.002952899900265	r		299.5756030000048		SS TS		3	m	2		
82	2905	7	Chest	Pre-trial Jitter		2024_Apr_19_1331	5.002119140001014	r		304.58454339997843		SS TS		3	m	2		
83	2905	44.0	Chest	pretrialfixation		2024_Apr_19_1331	1.0058579199248925	r		309.8826214999426		SS TS		3	m	2		
84	2905		Chest	2-back	1.0	2024_Apr_19_1331	1.991154939867556	r		310.8984383000061		SS TS	12.5	3	m	2	48.0	
85	2905		Chest	2-back	1.0	2024_Apr_19_1331	1.9876062399707735	r		312.90857139998116		SS TS	25.0	3	m	2	48.0	
86	2905		Chest	2-back	1.0	2024_Apr_19_1331	1.988344440003857	r	2	314.90819730004296	0.5638821999309584	SS TS	37.5	3	m	2	48.0	
87	2905		Chest	2-back	1.0	2024_Apr_19_1331	1.9881232399493456	r	0	316.9083651000401	0.48049109999556094	SS TS	50.0	3	m	2	48.0	
88	2905		Chest	2-back	1.0	2024_Apr_19_1331	1.9879646400222555	r	2	318.9084561000345	0.38033569999970496	SS TS	62.5	3	m	2	48.0	
89	2905		Chest	2-back	1.0	2024_Apr_19_1331	1.9879347400274128	r	2	320.9084996000165	0.44714350008871406	SS TS	75.0	3	m	2	48.0	
90	2905		Chest	2-back	1.0	2024_Apr_19_1331	1.9880757399369031	r	2	322.9084432000527	0.38039079995360225	SS TS	87.5	3	m	2	48.0	
91	2905		Chest	2-back	1.0	2024_Apr_19_1331	1.9879212400410324	r	0	324.908545400016	0.3335868999129161	SS TS	100.0	3	m	2	48.0	
92	2905	48.0	Chest	ScoreReport		2024_Apr_19_1331	5.001610139966942	r		326.91839240002446		SS TS		3	m	2		
93	2905	8	Chest	Post-trial Jitter		2024_Apr_19_1331	5.001905460143462	r		331.9766191999661		SS TS		3	m	2		
94	2905	20	Chest	PainBinary		2024_Apr_19_1331	5.004389179870486	r		336.99211670004297	1.3670268999412656	SS TS		3	m	2		1.0
95	2905	21	Chest	IntensityRating		2024_Apr_19_1331	5.012950879870914	r		342.0129040000029	3.366950200055726	SS TS		3	m	2		17.40740740740741
96	2905	23	Chest	DistractBinary		2024_Apr_19_1331	5.004989779903553	r		347.04192390001845	1.4003925999859348	SS TS		3	m	2		-1.0
97	2905	9	Chest	Post-Q-Jitter		2024_Apr_19_1331	4.993973640026525	r		352.0474732000148		SS TS		3	m	2		
98	2905	42	Chest	0-back Instruction		2024_Apr_19_1331	5.007079879986122	r		357.0659841999877		SS TS		3	m	2		
99	2905	7	Chest	Pre-Trial Jitter		2024_Apr_19_1331	9.00373923999723	r		362.0843976000324		SS TS		3	m	2		
100	2905	44.0	Chest	pretrialfixation		2024_Apr_19_1331	1.0074888399103656	r		371.34917539998423		SS TS		3	m	2		
101	2905		Chest	0-back	1.0	2024_Apr_19_1331	1.9905856399564072	r	0.0	372.3660950999474	0.4635589000536129	SS TS	12.5	3	m	2	32.0	
102	2905		Chest	0-back	1.0	2024_Apr_19_1331	1.9875682399142534	r	0.0	374.37595739995595	0.31381550000514835	SS TS	25.0	3	m	2	32.0	
103	2905		Chest	0-back	1.0	2024_Apr_19_1331	1.9891922400565818	r	0.0	376.3751728000352	0.31386939994990826	SS TS	37.5	3	m	2	32.0	
104	2905		Chest	0-back	1.0	2024_Apr_19_1331	1.9888563399435952	r	0.0	378.37535610003397	0.29708329995628446	SS TS	50.0	3	m	2	32.0	
105	2905		Chest	0-back	1.0	2024_Apr_19_1331	1.989338839892298	r	0.0	380.3751305999467	0.32989689998794347	SS TS	62.5	3	m	2	32.0	
106	2905		Chest	0-back	1.0	2024_Apr_19_1331	1.9885466400301084	r	0.0	382.37555300001986	0.3804695000872016	SS TS	75.0	3	m	2	32.0	
107	2905		Chest	0-back	1.0	2024_Apr_19_1331	1.9888930398738012	r	0.0	384.3753891000524	0.33047439996153116	SS TS	87.5	3	m	2	32.0	
108	2905		Chest	0-back	1.0	2024_Apr_19_1331	1.9884449399542063	r	0.0	386.3756257999921	0.4803168000653386	SS TS	100.0	3	m	2	32.0	
109	2905	48.0	Chest	ScoreReport		2024_Apr_19_1331	5.005649640108459	r		388.3837293999968		SS TS		3	m	2		
110	2905	8	Chest	Post-Trial Jitter		2024_Apr_19_1331	7.000129860010929	r		393.4448808999732		SS TS		3	m	2		
111	2905	42	Chest	0-back Instruction		2024_Apr_19_1331	4.9943183799041435	r		400.46453799994197		SS TS		3	m	2		
112	2905	7	Chest	Pre-Trial Jitter		2024_Apr_19_1331	7.002293040044606	r		405.4689594999654		SS TS		3	m	2		
113	2905	44.0	Chest	pretrialfixation		2024_Apr_19_1331	1.015687279868871	r		412.73720840003807		SS TS		3	m	2		
114	2905		Chest	0-back	1.0	2024_Apr_19_1331	1.9892399399541318	r	0.0	413.75054889998864	0.5634732999606058	SS TS	12.5	3	m	2	32.0	
115	2905		Chest	0-back	1.0	2024_Apr_19_1331	1.9881690399488434	r	0.0	415.7594405999407	0.38046090002171695	SS TS	25.0	3	m	2	32.0	
116	2905		Chest	0-back	1.0	2024_Apr_19_1331	1.9891043399693444	r	0.0	417.7589978999458	0.40059889992699027	SS TS	37.5	3	m	2	32.0	
117	2905		Chest	0-back	1.0	2024_Apr_19_1331	1.9890553400618955	r	0.0	419.75904859998263	0.4302045999793336	SS TS	50.0	3	m	2	32.0	
118	2905		Chest	0-back	1.0	2024_Apr_19_1331	1.989209339953959	r	0.0	421.7590000999626	0.33013859996572137	SS TS	62.5	3	m	2	32.0	
119	2905		Chest	0-back	1.0	2024_Apr_19_1331	1.989185140002519	r	0.0	423.75903750001453	0.4304336999775842	SS TS	75.0	3	m	2	32.0	
120	2905		Chest	0-back	1.0	2024_Apr_19_1331	1.9893394398968667	r	0.0	425.75896610005293	0.5471839999081567	SS TS	87.5	3	m	2	32.0	
121	2905		Chest	0-back	1.0	2024_Apr_19_1331	1.9890348399057984	r	0.0	427.7591887000017	0.4472007000586018	SS TS	100.0	3	m	2	32.0	
122	2905	48.0	Chest	ScoreReport		2024_Apr_19_1331	5.00414064002689	r		429.7682917000493		SS TS		3	m	2		
123	2905	8	Chest	Post-Trial Jitter		2024_Apr_19_1331	4.997983359964564	r		434.82973899994977		SS TS		3	m	2		
124	2905	51	Chest	Expectancy		2024_Apr_19_1331	5.004035360063426	r		440.05170419998467	3.800306700053625	SS TS		3	m	2		25.679012345679013
125	2905	45	Chest	2-back Instruction		2024_Apr_19_1331	5.019512899918482	r		445.46063049999066		SS TS		3	m	2		
126	2905	7	Chest	Pre-trial Jitter		2024_Apr_19_1331	9.00119194004219	r		450.48667080001906		SS TS		3	m	2		
127	2905	44.0	Chest	pretrialfixation		2024_Apr_19_1331	1.0052347598830238	r		459.8012706999434		SS TS		3	m	2		
128	2905		Chest	2-back	1.0	2024_Apr_19_1331	1.9910918398527429	r		460.8168203999521		SS TS	12.5	3	m	2	48.0	
129	2905		Chest	2-back	1.0	2024_Apr_19_1331	1.9867836399935186	r		462.8273348000366		SS TS	25.0	3	m	2	48.0	
130	2905		Chest	2-back	1.0	2024_Apr_19_1331	1.9883498400449753	r	2	464.8265687000239	0.5138161999639124	SS TS	37.5	3	m	2	48.0	
131	2905		Chest	2-back	1.0	2024_Apr_19_1331	1.9877194400178269	r	2	466.82693710003514	0.4304845000151545	SS TS	50.0	3	m	2	48.0	
132	2905		Chest	2-back	1.0	2024_Apr_19_1331	1.9878530399873853	r	0	468.8268794999458	0.44705449999310076	SS TS	62.5	3	m	2	48.0	
133	2905		Chest	2-back	1.0	2024_Apr_19_1331	1.9874689399730414	r	0	470.82708319998346	0.4138487000018358	SS TS	75.0	3	m	2	48.0	
134	2905		Chest	2-back	1.0	2024_Apr_19_1331	1.9877945400075987	r	2	472.82694639998954	0.44722560001537204	SS TS	87.5	3	m	2	48.0	
135	2905		Chest	2-back	1.0	2024_Apr_19_1331	1.9874311399180442	r	2	474.82715589995496	0.3970322000095621	SS TS	100.0	3	m	2	48.0	
136	2905	48.0	Chest	ScoreReport		2024_Apr_19_1331	5.002162639982998	r		476.836475100019		SS TS		3	m	2		
137	2905	8	Chest	Post-trial Jitter		2024_Apr_19_1331	8.997748359921388	r		481.8970642000204		SS TS		3	m	2		
138	2905	20	Chest	PainBinary		2024_Apr_19_1331	5.002606179914437	r		490.91141689999495	1.1669998000143096	SS TS		3	m	2		1.0
139	2905	21	Chest	IntensityRating		2024_Apr_19_1331	5.013191479840316	r		495.9311884000199	3.7669078999897465	SS TS		3	m	2		18.88888888888889
140	2905	23	Chest	DistractBinary		2024_Apr_19_1331	5.004133779904805	r		500.9607745000394	2.383671100018546	SS TS		3	m	2		-1.0
141	2905	9	Chest	Post-Q-Jitter		2024_Apr_19_1331	8.994122139876708	r		505.9658695999533		SS TS		3	m	2		
142	2905	51	Chest	Expectancy		2024_Apr_19_1331	5.004241219954565	r		515.8355849999934	3.5336152999661863	SS TS		3	m	2		23.333333333333332
143	2905	45	Chest	2-back Instruction		2024_Apr_19_1331	5.001130299875513	r		521.2456760000205		SS TS		3	m	2		
144	2905	7	Chest	Pre-trial Jitter		2024_Apr_19_1331	5.002453239867464	r		526.2535568999592		SS TS		3	m	2		
145	2905	44.0	Chest	pretrialfixation		2024_Apr_19_1331	1.0138411200605333	r		531.5394711999688		SS TS		3	m	2		
146	2905		Chest	2-back	1.0	2024_Apr_19_1331	1.9912670399062335	r		532.550872300053		SS TS	12.5	3	m	2	48.0	
147	2905		Chest	2-back	1.0	2024_Apr_19_1331	1.9875863400520757	r		534.5610807000194		SS TS	25.0	3	m	2	48.0	
148	2905		Chest	2-back	1.0	2024_Apr_19_1331	1.9883188399253413	r	2	536.5607308000326	0.5637912999372929	SS TS	37.5	3	m	2	48.0	
149	2905		Chest	2-back	1.0	2024_Apr_19_1331	1.9878643399570137	r	2	538.5609835999785	0.43407920002937317	SS TS	50.0	3	m	2	48.0	
150	2905		Chest	2-back	1.0	2024_Apr_19_1331	1.9874506400665268	r	0	540.5612121999729	0.41695360001176596	SS TS	62.5	3	m	2	48.0	
151	2905		Chest	2-back	1.0	2024_Apr_19_1331	1.988040639902465	r	2	542.5609347999562	0.4803637000732124	SS TS	75.0	3	m	2	48.0	
152	2905		Chest	2-back	1.0	2024_Apr_19_1331	1.9880744400434196	r	2	544.560944100027	0.46312970004510134	SS TS	87.5	3	m	2	48.0	
153	2905		Chest	2-back	0.0	2024_Apr_19_1331	1.9880518399877474	r	2	546.5609832999762	0.49711789994034916	SS TS	87.5	3	m	2	48.0	
154	2905	48.0	Chest	ScoreReport		2024_Apr_19_1331	5.011720480048098	r		548.5741856000386		SS TS		3	m	2		
155	2905	8	Chest	Post-trial Jitter		2024_Apr_19_1331	4.998102160054259	r		553.6310358999763		SS TS		3	m	2		
156	2905	20	Chest	PainBinary		2024_Apr_19_1331	5.003197979880497	r		558.6452280000085	1.4197565999347717	SS TS		3	m	2		1.0
157	2905	21	Chest	IntensityRating		2024_Apr_19_1331	5.0102494799066335	r		563.6667580000358	2.600205299910158	SS TS		3	m	2		16.296296296296298
158	2905	23	Chest	DistractBinary		2024_Apr_19_1331	5.0053674798691645	r		568.6942644000519	1.7169553000712767	SS TS		3	m	2		-1.0
159	2905	9	Chest	Post-Q-Jitter		2024_Apr_19_1331	4.994546739850193	r		573.6997255999595		SS TS		3	m	2		
160	2905	51	Chest	Expectancy		2024_Apr_19_1331	5.005888639832847	r		579.4438552999636	2.936473899986595	SS TS		3	m	2		23.703703703703706
161	2905	44	Chest	0-back Instruction		2024_Apr_19_1331	5.013139999937266	r		584.8487361000152		SS TS		3	m	2		
162	2905	7	Chest	Pre-Trial Jitter		2024_Apr_19_1331	9.002833339967765	r		589.8707775999792		SS TS		3	m	2		
163	2905	44.0	Chest	pretrialfixation		2024_Apr_19_1331	1.0101942599285394	r		599.1753759999992		SS TS		3	m	2		
164	2905		Chest	0-back	1.0	2024_Apr_19_1331	1.991381439846009	r	0.0	600.1849113999633	0.5799974000547081	SS TS	12.5	3	m	2	48.0	
165	2905		Chest	0-back	1.0	2024_Apr_19_1331	1.9881432399852201	r	0.0	602.1948953999672	0.3471189000410959	SS TS	25.0	3	m	2	48.0	
166	2905		Chest	0-back	1.0	2024_Apr_19_1331	1.9889007399324328	r	0.0	604.1945329000009	0.23421310004778206	SS TS	37.5	3	m	2	48.0	
167	2905		Chest	0-back	1.0	2024_Apr_19_1331	1.988385839969851	r	0.0	606.1948146000504	0.3138357000425458	SS TS	50.0	3	m	2	48.0	
168	2905		Chest	0-back	1.0	2024_Apr_19_1331	1.9890052400296554	r	0.0	608.1945162999909	0.3137245000107214	SS TS	62.5	3	m	2	48.0	
169	2905		Chest	0-back	1.0	2024_Apr_19_1331	1.9893896399298683	r	0.0	610.1943621999817	0.31380390003323555	SS TS	75.0	3	m	2	48.0	
170	2905		Chest	0-back	1.0	2024_Apr_19_1331	1.9881223399424925	r	0.0	612.1950136000523	0.33053939999081194	SS TS	87.5	3	m	2	48.0	
171	2905		Chest	0-back	1.0	2024_Apr_19_1331	1.9890219399239868	r	0.0	614.1945764999837	0.2801250999327749	SS TS	100.0	3	m	2	48.0	
172	2905	48.0	Chest	ScoreReport		2024_Apr_19_1331	5.004981640027836	r		616.2033063999843		SS TS		3	m	2		
173	2905	8	Chest	Post-Trial Jitter		2024_Apr_19_1331	4.999500959995203	r		621.2644341000123		SS TS		3	m	2		
174	2905	20	Chest	PainBinary		2024_Apr_19_1331	5.003035379922949	r		626.2794315000065	1.367005700012669	SS TS		3	m	2		1.0
175	2905	21	Chest	IntensityRating		2024_Apr_19_1331	5.011991780018434	r		631.300005499972	2.283623200026341	SS TS		3	m	2		22.40740740740741
176	2905	23	Chest	DistractBinary		2024_Apr_19_1331	5.003377679968253	r		636.3293338000076	1.6170063000172377	SS TS		3	m	2		-1.0
177	2905	9	Chest	Post-Q-Jitter		2024_Apr_19_1331	4.994090439984575	r		641.3340375999687		SS TS		3	m	2		
178	2905	51	Chest	Expectancy		2024_Apr_19_1331	5.012120859930292	r		647.2081060999772	3.683705599978566	SS TS		3	m	2		23.827160493827158
179	2905	44	Chest	0-back Instruction		2024_Apr_19_1331	4.998787199961953	r		652.6150120999664		SS TS		3	m	2		
180	2905	7	Chest	Pre-Trial Jitter		2024_Apr_19_1331	9.001050240010954	r		657.6224290999817		SS TS		3	m	2		
181	2905	44.0	Chest	pretrialfixation		2024_Apr_19_1331	1.0028331599896774	r		666.9381610000273		SS TS		3	m	2		
182	2905		Chest	0-back	1.0	2024_Apr_19_1331	1.9901207400253043	r	0.0	667.9529760000296	0.7634705000091344	SS TS	12.5	3	m	2	48.0	
183	2905		Chest	0-back	1.0	2024_Apr_19_1331	1.9881731398636475	r	0.0	669.9623060999438	0.44693149998784065	SS TS	25.0	3	m	2	48.0	
184	2905		Chest	0-back	1.0	2024_Apr_19_1331	1.9889917399268597	r	0.0	671.9619324000087	0.2971432999474928	SS TS	37.5	3	m	2	48.0	
185	2905		Chest	0-back	1.0	2024_Apr_19_1331	1.989534439984709	r	0.0	673.9616699999897	0.34671489999163896	SS TS	50.0	3	m	2	48.0	
186	2905		Chest	0-back	1.0	2024_Apr_19_1331	1.9891896399203688	r	0.0	675.9618643999565	0.4176073999842629	SS TS	62.5	3	m	2	48.0	
187	2905		Chest	0-back	1.0	2024_Apr_19_1331	1.9890788400080055	r	0.0	677.9619472000049	0.3798630000092089	SS TS	75.0	3	m	2	48.0	
188	2905		Chest	0-back	1.0	2024_Apr_19_1331	1.9886972398962826	r	0.0	679.9621451999992	0.2637227999512106	SS TS	87.5	3	m	2	48.0	
189	2905		Chest	0-back	1.0	2024_Apr_19_1331	1.9893219399964437	r	0.0	681.9618702000007	0.49716320005245507	SS TS	100.0	3	m	2	48.0	
190	2905	48.0	Chest	ScoreReport		2024_Apr_19_1331	5.005172439967282	r		683.970660299994		SS TS		3	m	2		
191	2905	8	Chest	Post-Trial Jitter		2024_Apr_19_1331	5.001646860036999	r		689.0307910999982		SS TS		3	m	2		
192	2905	20	Chest	PainBinary		2024_Apr_19_1331	5.0044944799738005	r		694.0461041999515	1.9170013000257313	SS TS		3	m	2		1.0
193	2905	21	Chest	IntensityRating		2024_Apr_19_1331	5.013000580016524	r		699.0669244000455	2.2502643999177963	SS TS		3	m	2		25.123456790123456
194	2905	23	Chest	DistractBinary		2024_Apr_19_1331	5.003707379917614	r		704.0966123000253	1.4695224999450147	SS TS		3	m	2		-1.0
195	2905	9	Chest	Post-Q-Jitter		2024_Apr_19_1331	4.99471023993101	r		709.1011576999445		SS TS		3	m	2		
196	2905	26	Chest	ComfortRating		2024_Apr_19_1331	3.6946393799735233	r		714.1179830000037	3.6669825999997556	SS TS		3	m	2		12.839506172839506
197	2905	24	Chest	ValenceRating		2024_Apr_19_1331	2.7916392799234018	r		717.8361965999939	2.766924800002016	SS TS		3	m	2		61.48148148148148
198	2905	26	Chest	IntensityRating		2024_Apr_19_1331	2.230055279796943	r		720.6503379000351	2.200252200011164	SS TS		3	m	2		66.66666666666666
199	2905	27	Chest	AvoidanceRating		2024_Apr_19_1331	3.344631079933606	r		722.9014433999546	3.317021199967712	SS TS		3	m	2		44.5679012345679
200	2905	28	Chest	RelaxationRating		2024_Apr_19_1331	4.500101379933767	r		726.2654073999729	4.483705100021325	SS TS		3	m	2		64.75308641975309
201	2905	29	Chest	AttentionRating		2024_Apr_19_1331	4.143002180033363	r		730.7856598000508	4.116940899984911	SS TS		3	m	2		89.07407407407408
202	2905	30	Chest	BoredomRating		2024_Apr_19_1331	3.6007110798964277	r		734.9485257000197	3.583718500100076	SS TS		3	m	2		16.666666666666664
203	2905	31	Chest	AlertnessRating		2024_Apr_19_1331	2.848210179945454	r		738.5664687999524	2.820696000009775	SS TS		3	m	2		80.98765432098764
204	2905	32	Chest	PosThxRating		2024_Apr_19_1331	4.71329717990011	r		741.4339529999997	4.701162800076418	SS TS		3	m	2		36.049382716049394
205	2905	33	Chest	NegThxRating		2024_Apr_19_1331	2.3126322800526395	r		746.1676529999822	2.283570000086911	SS TS		3	m	2		44.69135802469137
206	2905	34	Chest	SelfRating		2024_Apr_19_1331	2.6324837799184024	r		748.4994344000006	2.6171359999570996	SS TS		3	m	2		41.358024691358
207	2905	35	Chest	OtherRating		2024_Apr_19_1331	2.248170879902318	r		751.1499428000534	2.2336180000565946	SS TS		3	m	2		-100.0
208	2905	32	Chest	ImageryRating		2024_Apr_19_1331	2.2441891798516735	r		753.4186291999649	2.2169029999058694	SS TS		3	m	2		21.35802469135804
209	2905	37	Chest	PresentRating		2024_Apr_19_1331	53.53956747998018	r		755.6879357999424	53.517554500023834	SS TS		3	m	2		99.5061728395062
