RestT1,TaskT1,square,location,corrAns,counterbalancer.thisRepN,counterbalancer.thisTrialN,counterbalancer.thisN,counterbalancer.thisIndex,RestT1Loop.thisRepN,RestT1Loop.thisTrialN,RestT1Loop.thisN,RestT1Loop.thisIndex,TaskT1Loop.thisRepN,TaskT1Loop.thisTrialN,TaskT1Loop.thisN,TaskT1Loop.thisIndex,trials_2.thisRepN,trials_2.thisTrialN,trials_2.thisN,trials_2.thisIndex,NbackInstructions.started,NbackInstructions.stopped,NbackStart.keys,NbackStart.rt,NbackStart.started,NbackStart.stopped,fixation_2.started,fixation_2.stopped,response_2.x,response_2.y,response_2.leftButton,grid_lines_2.started,grid_lines_2.stopped,target_square_2.started,target_square_2.stopped,fixation_3.started,fixation_3.stopped,response_2.click,response_2.corr,response_2.started,response_2.stopped,fixation_1.started,fixation_1.stopped,subject number,gender,session,handedness,scanner,date,expName,psychopyVersion,frameRate,
0,1,,,,0,0,0,0,,,,,0,0,0,0,,,,,27.457067199982703,None,space,87.56548500002827,27.457067199982703,None,,,,,,,,,,,,,,,,,,1002,m,6,r,ARB,2022_Jan_27_2013,WASABI Nback,2020.2.10,60.0159402572943,
0,1,5,"[0, 0]",None,0,0,0,0,,,,,0,0,0,0,0,0,0,0,,,,,,,None,None,None,None,[],None,None,None,None,None,None,[],[],None,None,,,1002,m,6,r,ARB,2022_Jan_27_2013,WASABI Nback,2020.2.10,60.0159402572943,
0,1,2,"[0, 0.2]",None,0,0,0,0,,,,,0,0,0,0,0,1,1,1,,,,,,,,,None,None,[],None,None,None,None,None,None,[],[],None,None,,,1002,m,6,r,ARB,2022_Jan_27_2013,WASABI Nback,2020.2.10,60.0159402572943,
0,1,6,"[0.2, 0]",None,0,0,0,0,,,,,0,0,0,0,0,2,2,2,,,,,,,,,None,None,[],None,None,None,None,None,None,[],[],None,None,,,1002,m,6,r,ARB,2022_Jan_27_2013,WASABI Nback,2020.2.10,60.0159402572943,
0,1,9,"[0.2, -0.2]",None,0,0,0,0,,,,,0,0,0,0,0,3,3,3,,,,,,,,,None,None,[],None,None,None,None,None,None,[],[],None,None,,,1002,m,6,r,ARB,2022_Jan_27_2013,WASABI Nback,2020.2.10,60.0159402572943,
0,1,3,"[0.2, 0.2]",None,0,0,0,0,,,,,0,0,0,0,0,4,4,4,,,,,,,,,None,None,[],None,None,None,None,None,None,[],[],None,None,,,1002,m,6,r,ARB,2022_Jan_27_2013,WASABI Nback,2020.2.10,60.0159402572943,
0,1,9,"[0.2, -0.2]",1,0,0,0,0,,,,,0,0,0,0,0,5,5,5,,,,,,,,,None,None,[],None,None,None,None,None,None,[],[],None,None,,,1002,m,6,r,ARB,2022_Jan_27_2013,WASABI Nback,2020.2.10,60.0159402572943,
0,1,7,"[-0.2, -0.2]",None,0,0,0,0,,,,,0,0,0,0,0,6,6,6,,,,,,,,,None,None,[],None,None,None,None,None,None,[],[],None,None,,,1002,m,6,r,ARB,2022_Jan_27_2013,WASABI Nback,2020.2.10,60.0159402572943,
0,1,1,"[-0.2, 0.2]",None,0,0,0,0,,,,,0,0,0,0,0,7,7,7,,,,,,,,,None,None,[],None,None,None,None,None,None,[],[],None,None,,,1002,m,6,r,ARB,2022_Jan_27_2013,WASABI Nback,2020.2.10,60.0159402572943,
0,1,5,"[0, 0]",None,0,0,0,0,,,,,0,0,0,0,0,8,8,8,,,,,,,,,None,None,[],None,None,None,None,None,None,[],[],None,None,,,1002,m,6,r,ARB,2022_Jan_27_2013,WASABI Nback,2020.2.10,60.0159402572943,
0,1,7,"[-0.2, -0.2]",None,0,0,0,0,,,,,0,0,0,0,0,9,9,9,,,,,,,,,None,None,[],None,None,None,None,None,None,[],[],None,None,,,1002,m,6,r,ARB,2022_Jan_27_2013,WASABI Nback,2020.2.10,60.0159402572943,
0,1,5,"[0, 0]",1,0,0,0,0,,,,,0,0,0,0,0,10,10,10,,,,,,,,,None,None,[],None,None,None,None,None,None,[],[],None,None,,,1002,m,6,r,ARB,2022_Jan_27_2013,WASABI Nback,2020.2.10,60.0159402572943,
0,1,6,"[0.2, 0]",None,0,0,0,0,,,,,0,0,0,0,0,11,11,11,,,,,,,,,None,None,[],None,None,None,None,None,None,[],[],None,None,,,1002,m,6,r,ARB,2022_Jan_27_2013,WASABI Nback,2020.2.10,60.0159402572943,
0,1,3,"[0.2, 0.2]",None,0,0,0,0,,,,,0,0,0,0,0,12,12,12,,,,,,,,,None,None,[],None,None,None,None,None,None,[],[],None,None,,,1002,m,6,r,ARB,2022_Jan_27_2013,WASABI Nback,2020.2.10,60.0159402572943,
0,1,6,"[0.2, 0]",1,0,0,0,0,,,,,0,0,0,0,0,13,13,13,,,,,,,,,None,None,[],None,None,None,None,None,None,[],[],None,None,,,1002,m,6,r,ARB,2022_Jan_27_2013,WASABI Nback,2020.2.10,60.0159402572943,
0,1,8,"[0, -0.2]",None,0,0,0,0,,,,,0,0,0,0,0,14,14,14,,,,,,,,,None,None,[],None,None,None,None,None,None,[],[],None,None,,,1002,m,6,r,ARB,2022_Jan_27_2013,WASABI Nback,2020.2.10,60.0159402572943,
0,1,9,"[0.2, -0.2]",None,0,0,0,0,,,,,0,0,0,0,0,15,15,15,,,,,,,,,None,None,[],None,None,None,None,None,None,[],[],None,None,,,1002,m,6,r,ARB,2022_Jan_27_2013,WASABI Nback,2020.2.10,60.0159402572943,
0,1,9,"[0.2, -0.2]",None,0,0,0,0,,,,,0,0,0,0,0,16,16,16,,,,,,,,,None,None,[],None,None,None,None,None,None,[],[],None,None,,,1002,m,6,r,ARB,2022_Jan_27_2013,WASABI Nback,2020.2.10,60.0159402572943,
0,1,1,"[-0.2, 0.2]",None,0,0,0,0,,,,,0,0,0,0,0,17,17,17,,,,,,,,,None,None,[],None,None,None,None,None,None,[],[],None,None,,,1002,m,6,r,ARB,2022_Jan_27_2013,WASABI Nback,2020.2.10,60.0159402572943,
0,1,3,"[0.2, 0.2]",None,0,0,0,0,,,,,0,0,0,0,0,18,18,18,,,,,,,,,None,None,[],None,None,None,None,None,None,[],[],None,None,,,1002,m,6,r,ARB,2022_Jan_27_2013,WASABI Nback,2020.2.10,60.0159402572943,
0,1,5,"[0, 0]",None,0,0,0,0,,,,,0,0,0,0,0,19,19,19,,,,,,,,,None,None,0,154.92109530000016,None,154.92109530000016,155.9210960000055,155.90443390002474,None,0,1,154.92109530000016,None,,,1002,m,6,r,ARB,2022_Jan_27_2013,WASABI Nback,2020.2.10,60.0159402572943,
0,1,3,"[0.2, 0.2]",1,0,0,0,0,,,,,0,0,0,0,0,20,20,20,,,,,,,,,None,None,0,156.0711381000001,None,156.0711381000001,157.07112690003123,157.05445709999185,158.05445809999947,0,0,156.0711381000001,None,,,1002,m,6,r,ARB,2022_Jan_27_2013,WASABI Nback,2020.2.10,60.0159402572943,
0,1,4,"[-0.2, 0]",None,0,0,0,0,,,,,0,0,0,0,0,21,21,21,,,,,,,,,None,None,0,158.0711252000183,None,158.0711252000183,159.07115420000628,159.054467100068,160.05446900008246,0,1,158.0711252000183,None,,,1002,m,6,r,ARB,2022_Jan_27_2013,WASABI Nback,2020.2.10,60.0159402572943,
0,1,7,"[-0.2, -0.2]",None,0,0,0,0,,,,,0,0,0,0,0,22,22,22,,,,,,,,,None,None,0,160.0711512999842,None,160.0711512999842,161.07115480001085,161.05450129997917,162.054489800008,0,1,160.0711512999842,None,,,1002,m,6,r,ARB,2022_Jan_27_2013,WASABI Nback,2020.2.10,60.0159402572943,
0,1,4,"[-0.2, 0]",1,0,0,0,0,,,,,0,0,0,0,0,23,23,23,,,,,,,,,None,None,0,162.07117230002768,None,162.07117230002768,163.0711844000034,163.05450480000582,164.0545147000812,0,1,162.07117230002768,None,,,1002,m,6,r,ARB,2022_Jan_27_2013,WASABI Nback,2020.2.10,60.0159402572943,
0,1,4,"[-0.2, 0]",None,0,0,0,0,,,,,0,0,0,0,0,24,24,24,,,,,,,,,None,None,0,164.07118410000112,None,164.07118410000112,165.07120060001034,165.0545314999763,166.05452370003331,0,1,164.07118410000112,None,,,1002,m,6,r,ARB,2022_Jan_27_2013,WASABI Nback,2020.2.10,60.0159402572943,
0,1,5,"[0, 0]",None,0,0,0,0,,,,,0,0,0,0,0,25,25,25,,,,,,,,,None,None,0,166.07121299998835,None,166.07121299998835,167.0711985999951,167.0545490999939,168.05453449999914,0,1,166.07121299998835,None,,,1002,m,6,r,ARB,2022_Jan_27_2013,WASABI Nback,2020.2.10,60.0159402572943,
0,1,2,"[0, 0.2]",None,0,0,0,0,,,,,0,0,0,0,0,26,26,26,,,,,,,,,None,None,0,168.07123770006,None,168.07123770006,169.07121680001728,169.0545553000411,170.05455260002054,0,1,168.07123770006,None,,,1002,m,6,r,ARB,2022_Jan_27_2013,WASABI Nback,2020.2.10,60.0159402572943,
0,1,6,"[0.2, 0]",None,0,0,0,0,,,,,0,0,0,0,0,27,27,27,,,,,,,,,None,None,0,170.0712372000562,None,170.0712372000562,171.07125580008142,171.0545574000571,172.05457200005185,0,1,170.0712372000562,None,,,1002,m,6,r,ARB,2022_Jan_27_2013,WASABI Nback,2020.2.10,60.0159402572943,
0,1,7,"[-0.2, -0.2]",None,0,0,0,0,,,,,0,0,0,0,0,28,28,28,,,,,,,,,None,None,0,172.07125729997642,None,172.07125729997642,173.0712525000563,173.05452750006225,174.05458060000092,0,1,172.07125729997642,None,,,1002,m,6,r,ARB,2022_Jan_27_2013,WASABI Nback,2020.2.10,60.0159402572943,
0,1,6,"[0.2, 0]",1,0,0,0,0,,,,,0,0,0,0,0,29,29,29,,,,,,,,,None,None,0,174.07127399998717,None,174.07127399998717,175.07126810005866,175.05461540003307,176.05462110007647,0,1,174.07127399998717,None,,,1002,m,6,r,ARB,2022_Jan_27_2013,WASABI Nback,2020.2.10,60.0159402572943,
0,1,6,"[0.2, 0]",None,0,0,0,0,,,,,0,0,0,0,0,30,30,30,,,,,,,,,None,None,0,176.07128290005494,None,176.07128290005494,177.07128080003895,177.0546077999752,178.05461800005287,0,1,176.07128290005494,None,,,1002,m,6,r,ARB,2022_Jan_27_2013,WASABI Nback,2020.2.10,60.0159402572943,
0,1,7,"[-0.2, -0.2]",None,0,0,0,0,,,,,0,0,0,0,0,31,31,31,,,,,,,,,None,None,0,178.07129730004817,None,178.07129730004817,179.07130489998963,179.05462970002554,180.05465299997013,0,1,178.07129730004817,None,,,1002,m,6,r,ARB,2022_Jan_27_2013,WASABI Nback,2020.2.10,60.0159402572943,
0,1,6,"[0.2, 0]",1,0,0,0,0,,,,,0,0,0,0,0,32,32,32,,,,,,,,,None,None,0,180.07130279997364,None,180.07130279997364,181.0713244000217,181.0546545999823,182.05466260004323,0,0,180.07130279997364,None,,,1002,m,6,r,ARB,2022_Jan_27_2013,WASABI Nback,2020.2.10,60.0159402572943,
0,1,2,"[0, 0.2]",None,0,0,0,0,,,,,0,0,0,0,0,33,33,33,,,,,,,,,None,None,0,182.07133399997838,None,182.07133399997838,183.07133710000198,183.0546653000638,184.05470490001608,0,1,182.07133399997838,None,,,1002,m,6,r,ARB,2022_Jan_27_2013,WASABI Nback,2020.2.10,60.0159402572943,
0,1,5,"[0, 0]",None,0,0,0,0,,,,,0,0,0,0,0,34,34,34,,,,,,,,,None,None,0,184.0713588000508,None,184.0713588000508,185.07136160007212,185.0546759000281,186.05470520001836,0,1,184.0713588000508,None,,,1002,m,6,r,ARB,2022_Jan_27_2013,WASABI Nback,2020.2.10,60.0159402572943,
0,1,4,"[-0.2, 0]",None,0,0,0,0,,,,,0,0,0,0,0,35,35,35,,,,,,,,,None,None,0,186.0713469000766,None,186.0713469000766,187.07137989997864,187.05471150006633,188.05470470001455,0,1,186.0713469000766,None,,,1002,m,6,r,ARB,2022_Jan_27_2013,WASABI Nback,2020.2.10,60.0159402572943,
0,1,4,"[-0.2, 0]",None,0,0,0,0,,,,,0,0,0,0,0,36,36,36,,,,,,,,,None,None,0,188.07136529998388,None,188.07136529998388,189.07140909996815,189.05476169998292,190.05473530001473,0,1,188.07136529998388,None,,,1002,m,6,r,ARB,2022_Jan_27_2013,WASABI Nback,2020.2.10,60.0159402572943,
0,1,7,"[-0.2, -0.2]",None,0,0,0,0,,,,,0,0,0,0,0,37,37,37,,,,,,,,,None,None,0,190.07138540002052,None,190.07138540002052,191.07139699999243,191.05472830007784,192.05475280003157,0,1,190.07138540002052,None,,,1002,m,6,r,ARB,2022_Jan_27_2013,WASABI Nback,2020.2.10,60.0159402572943,
0,1,4,"[-0.2, 0]",1,0,0,0,0,,,,,0,0,0,0,0,38,38,38,,,,,,,,,None,None,0,192.07139880000614,None,192.07139880000614,193.07140340004116,193.0547509000171,194.05475600005593,0,1,192.07139880000614,None,,,1002,m,6,r,ARB,2022_Jan_27_2013,WASABI Nback,2020.2.10,60.0159402572943,
0,1,3,"[0.2, 0.2]",None,0,0,0,0,,,,,0,0,0,0,0,39,39,39,,,,,,,,,None,None,0,194.07141900004353,None,194.07141900004353,195.07141590001993,195.05484940006863,196.05478030000813,0,1,194.07141900004353,None,,,1002,m,6,r,ARB,2022_Jan_27_2013,WASABI Nback,2020.2.10,60.0159402572943,
0,1,5,"[0, 0]",None,0,0,0,0,,,,,0,0,0,0,0,40,40,40,,,,,,,,,None,None,0,196.0714501000475,None,196.0714501000475,197.07143480004743,197.054710800061,198.05478540004697,0,1,196.0714501000475,None,,,1002,m,6,r,ARB,2022_Jan_27_2013,WASABI Nback,2020.2.10,60.0159402572943,
0,1,3,"[0.2, 0.2]",1,0,0,0,0,,,,,0,0,0,0,0,41,41,41,,,,,,,,,None,None,0,198.071460200008,None,198.071460200008,199.07146990008187,199.0548077999847,200.05482299998403,0,1,198.071460200008,None,,,1002,m,6,r,ARB,2022_Jan_27_2013,WASABI Nback,2020.2.10,60.0159402572943,
0,1,1,"[-0.2, 0.2]",None,0,0,0,0,,,,,0,0,0,0,0,42,42,42,,,,,,,,,None,None,0,200.07147670001723,None,200.07147670001723,201.07147319999058,201.05484620004427,202.05482379999012,0,1,200.07147670001723,None,,,1002,m,6,r,ARB,2022_Jan_27_2013,WASABI Nback,2020.2.10,60.0159402572943,
0,1,9,"[0.2, -0.2]",None,0,0,0,0,,,,,0,0,0,0,0,43,43,43,,,,,,,,,None,None,0,202.07150349998847,None,202.07150349998847,203.07149270002265,203.05482640000992,204.05487910006195,0,1,202.07150349998847,None,,,1002,m,6,r,ARB,2022_Jan_27_2013,WASABI Nback,2020.2.10,60.0159402572943,
0,1,9,"[0.2, -0.2]",None,0,0,0,0,,,,,0,0,0,0,0,44,44,44,,,,,,,,,None,None,0,204.0715052000014,None,204.0715052000014,205.07152290001977,205.0548690999858,206.05484760005493,0,1,204.0715052000014,None,,,1002,m,6,r,ARB,2022_Jan_27_2013,WASABI Nback,2020.2.10,60.0159402572943,
0,1,8,"[0, -0.2]",None,0,0,0,0,,,,,0,0,0,0,0,45,45,45,,,,,,,,,None,None,0,206.07150720001664,None,206.07150720001664,207.0715293000685,207.05485110008158,208.05487230001017,0,1,206.07150720001664,None,,,1002,m,6,r,ARB,2022_Jan_27_2013,WASABI Nback,2020.2.10,60.0159402572943,
0,1,6,"[0.2, 0]",None,0,0,0,0,,,,,0,0,0,0,0,46,46,46,,,,,,,,,None,None,0,208.0715402000351,None,208.0715402000351,209.07155900006182,209.0548977999715,210.054883099976,0,1,208.0715402000351,None,,,1002,m,6,r,ARB,2022_Jan_27_2013,WASABI Nback,2020.2.10,60.0159402572943,
0,1,3,"[0.2, 0.2]",None,0,0,0,0,,,,,0,0,0,0,0,47,47,47,,,,,,,,,None,None,0,210.0715507999994,None,210.0715507999994,211.07157220004592,211.05489460006356,212.05492600006983,0,1,210.0715507999994,None,,,1002,m,6,r,ARB,2022_Jan_27_2013,WASABI Nback,2020.2.10,60.0159402572943,
0,1,6,"[0.2, 0]",1,0,0,0,0,,,,,0,0,0,0,0,48,48,48,,,,,,,,,None,None,0,212.07157000002917,None,212.07157000002917,213.07157859997824,213.05492330004927,214.0549266000744,0,1,212.07157000002917,None,,,1002,m,6,r,ARB,2022_Jan_27_2013,WASABI Nback,2020.2.10,60.0159402572943,
0,1,5,"[0, 0]",None,0,0,0,0,,,,,0,0,0,0,0,49,49,49,,,,,,,,,None,None,0,214.07160730008036,None,214.07160730008036,215.07160420005675,215.05492300004698,216.05493350001052,0,1,214.07160730008036,None,,,1002,m,6,r,ARB,2022_Jan_27_2013,WASABI Nback,2020.2.10,60.0159402572943,
0,1,7,"[-0.2, -0.2]",None,0,0,0,0,,,,,0,0,0,0,0,50,50,50,,,,,,,,,None,None,0,216.07159230008256,None,216.07159230008256,217.07161290000658,217.05496059998404,218.05494760000147,0,1,216.07159230008256,None,,,1002,m,6,r,ARB,2022_Jan_27_2013,WASABI Nback,2020.2.10,60.0159402572943,
0,1,5,"[0, 0]",1,0,0,0,0,,,,,0,0,0,0,0,51,51,51,,,,,,,,,None,None,0,218.07161169999745,None,218.07161169999745,219.07165419997182,219.05494990001898,220.05492000002414,0,1,218.07161169999745,None,,,1002,m,6,r,ARB,2022_Jan_27_2013,WASABI Nback,2020.2.10,60.0159402572943,
0,1,1,"[-0.2, 0.2]",None,0,0,0,0,,,,,0,0,0,0,0,52,52,52,,,,,,,,,None,None,0,220.07164900004864,None,220.07164900004864,221.07165469997562,221.05501310003456,222.05499940004665,0,1,220.07164900004864,None,,,1002,m,6,r,ARB,2022_Jan_27_2013,WASABI Nback,2020.2.10,60.0159402572943,
0,1,7,"[-0.2, -0.2]",None,0,0,0,0,,,,,0,0,0,0,0,53,53,53,,,,,,,,,None,None,0,222.07165439997334,None,222.07165439997334,223.07166250003502,223.05499500001315,224.05502610001713,0,1,222.07165439997334,None,,,1002,m,6,r,ARB,2022_Jan_27_2013,WASABI Nback,2020.2.10,60.0159402572943,
0,1,9,"[0.2, -0.2]",None,0,0,0,0,,,,,0,0,0,0,0,54,54,54,,,,,,,,,None,None,0,224.0716680000769,None,224.0716680000769,225.07167440000921,225.0550214999821,226.05502500000875,0,1,224.0716680000769,None,,,1002,m,6,r,ARB,2022_Jan_27_2013,WASABI Nback,2020.2.10,60.0159402572943,
0,1,3,"[0.2, 0.2]",None,0,0,0,0,,,,,0,0,0,0,0,55,55,55,,,,,,,,,None,None,0,226.0716734000016,None,226.0716734000016,227.07169120002072,227.05501750006806,228.05506559996866,0,1,226.0716734000016,None,,,1002,m,6,r,ARB,2022_Jan_27_2013,WASABI Nback,2020.2.10,60.0159402572943,
0,1,9,"[0.2, -0.2]",1,0,0,0,0,,,,,0,0,0,0,0,56,56,56,,,,,,,,,None,None,0,228.07170710002538,None,228.07170710002538,229.07171210006345,229.0550672999816,230.05505339999218,0,0,228.07170710002538,None,,,1002,m,6,r,ARB,2022_Jan_27_2013,WASABI Nback,2020.2.10,60.0159402572943,
0,1,6,"[0.2, 0]",None,0,0,0,0,,,,,0,0,0,0,0,57,57,57,,,,,,,,,None,None,0,230.071761899977,None,230.071761899977,231.07172350003384,231.05507260002196,232.05507720005699,0,1,230.071761899977,None,,,1002,m,6,r,ARB,2022_Jan_27_2013,WASABI Nback,2020.2.10,60.0159402572943,
0,1,2,"[0, 0.2]",None,0,0,0,0,,,,,0,0,0,0,0,58,58,58,,,,,,,,,None,None,0,232.07173490000423,None,232.07173490000423,233.0717389000347,233.05507210001815,234.05507400003262,0,1,232.07173490000423,None,,,1002,m,6,r,ARB,2022_Jan_27_2013,WASABI Nback,2020.2.10,60.0159402572943,
0,1,5,"[0, 0]",None,0,0,0,0,,,,,0,0,0,0,0,59,59,59,,,,,,,,,None,None,0,234.07175010000356,None,234.07175010000356,235.07176670001354,235.05509410006925,236.0550964999711,0,1,234.07175010000356,None,,,1002,m,6,r,ARB,2022_Jan_27_2013,WASABI Nback,2020.2.10,60.0159402572943,
0,1,5,"[0, 0]",None,0,0,0,0,,,,,0,0,0,0,0,60,60,60,,,,,,,,,None,None,0,236.07176770002116,None,236.07176770002116,237.07184140000027,237.05512180004735,238.055114399991,0,1,236.07176770002116,None,,,1002,m,6,r,ARB,2022_Jan_27_2013,WASABI Nback,2020.2.10,60.0159402572943,
0,1,2,"[0, 0.2]",None,0,0,0,0,,,,,0,0,0,0,0,61,61,61,,,,,,,,,None,None,0,238.07177040004171,None,238.07177040004171,239.07178090000525,239.05511740001384,240.05513480002992,0,0,238.07177040004171,None,,,1002,m,6,r,ARB,2022_Jan_27_2013,WASABI Nback,2020.2.10,60.0159402572943,
0,1,6,"[0.2, 0]",None,0,0,0,0,,,,,0,0,0,0,0,62,62,62,,,,,,,,,None,None,0,240.0717984000221,None,240.0717984000221,241.07180130004417,241.05513890006114,242.05515500006732,0,1,240.0717984000221,None,,,1002,m,6,r,ARB,2022_Jan_27_2013,WASABI Nback,2020.2.10,60.0159402572943,
0,1,9,"[0.2, -0.2]",None,0,0,0,0,,,,,0,0,0,0,0,63,63,63,,,,,,,,,None,None,0,242.07182389998343,None,242.07182389998343,243.07182509999257,243.0551888999762,244.05520970001817,0,1,242.07182389998343,None,,,1002,m,6,r,ARB,2022_Jan_27_2013,WASABI Nback,2020.2.10,60.0159402572943,
0,1,3,"[0.2, 0.2]",None,0,0,0,0,,,,,0,0,0,0,0,64,64,64,,,,,,,,,None,None,0,244.07184820005205,None,244.07184820005205,245.07184770004824,245.05519970005844,246.05521310004406,0,1,244.07184820005205,None,,,1002,m,6,r,ARB,2022_Jan_27_2013,WASABI Nback,2020.2.10,60.0159402572943,
0,1,9,"[0.2, -0.2]",1,0,0,0,0,,,,,0,0,0,0,0,65,65,65,,,,,,,,,None,None,0,246.07185210008174,None,246.07185210008174,247.0718452000292,247.0551972000394,248.05522430001292,0,1,246.07185210008174,None,,,1002,m,6,r,ARB,2022_Jan_27_2013,WASABI Nback,2020.2.10,60.0159402572943,
0,1,7,"[-0.2, -0.2]",None,0,0,0,0,,,,,0,0,0,0,0,66,66,66,,,,,,,,,None,None,0,248.071876800037,None,248.071876800037,249.071874700021,249.05521440005396,250.0552217999939,0,1,248.071876800037,None,,,1002,m,6,r,ARB,2022_Jan_27_2013,WASABI Nback,2020.2.10,60.0159402572943,
0,1,1,"[-0.2, 0.2]",None,0,0,0,0,,,,,0,0,0,0,0,67,67,67,,,,,,,,,None,None,0,250.07187220000196,None,250.07187220000196,251.07189690007363,251.05524670006707,252.05525009997655,0,1,250.07187220000196,None,,,1002,m,6,r,ARB,2022_Jan_27_2013,WASABI Nback,2020.2.10,60.0159402572943,
0,1,5,"[0, 0]",None,0,0,0,0,,,,,0,0,0,0,0,68,68,68,,,,,,,,,None,None,0,252.0718860999914,None,252.0718860999914,253.0719147999771,253.05524570005946,254.0552712000208,0,1,252.0718860999914,None,,,1002,m,6,r,ARB,2022_Jan_27_2013,WASABI Nback,2020.2.10,60.0159402572943,
0,1,7,"[-0.2, -0.2]",None,0,0,0,0,,,,,0,0,0,0,0,69,69,69,,,,,,,,,None,None,0,254.07191910000984,None,254.07191910000984,255.0719192000106,255.0552769000642,256.0552649999736,0,1,254.07191910000984,None,,,1002,m,6,r,ARB,2022_Jan_27_2013,WASABI Nback,2020.2.10,60.0159402572943,
0,1,5,"[0, 0]",1,0,0,0,0,,,,,0,0,0,0,0,70,70,70,,,,,,,,,None,None,0,256.071930599981,None,256.071930599981,257.07195060001686,257.055270700017,258.0552864000201,0,1,256.071930599981,None,,,1002,m,6,r,ARB,2022_Jan_27_2013,WASABI Nback,2020.2.10,60.0159402572943,
0,1,6,"[0.2, 0]",None,0,0,0,0,,,,,0,0,0,0,0,71,71,71,,,,,,,,,None,None,0,258.07194060005713,None,258.07194060005713,259.0719452999765,259.05528059997596,260.05519920005463,0,1,258.07194060005713,None,,,1002,m,6,r,ARB,2022_Jan_27_2013,WASABI Nback,2020.2.10,60.0159402572943,
0,1,3,"[0.2, 0.2]",None,0,0,0,0,,,,,0,0,0,0,0,72,72,72,,,,,,,,,None,None,0,260.07197879999876,None,260.07197879999876,261.07197879999876,261.05530570005067,262.0553387000691,0,1,260.07197879999876,None,,,1002,m,6,r,ARB,2022_Jan_27_2013,WASABI Nback,2020.2.10,60.0159402572943,
0,1,6,"[0.2, 0]",1,0,0,0,0,,,,,0,0,0,0,0,73,73,73,,,,,,,,,None,None,0,262.0719807000132,None,262.0719807000132,263.0719908999745,263.0553455000045,264.05533570004627,0,1,262.0719807000132,None,,,1002,m,6,r,ARB,2022_Jan_27_2013,WASABI Nback,2020.2.10,60.0159402572943,
0,1,8,"[0, -0.2]",None,0,0,0,0,,,,,0,0,0,0,0,74,74,74,,,,,,,,,None,None,0,264.0720244999975,None,264.0720244999975,265.0720002000453,265.05534119997174,266.0553555000806,0,1,264.0720244999975,None,,,1002,m,6,r,ARB,2022_Jan_27_2013,WASABI Nback,2020.2.10,60.0159402572943,
0,1,9,"[0.2, -0.2]",None,0,0,0,0,,,,,0,0,0,0,0,75,75,75,,,,,,,,,None,None,0,266.0720255000051,None,266.0720255000051,267.0720228999853,267.05536130000837,268.0553659000434,0,1,266.0720255000051,None,,,1002,m,6,r,ARB,2022_Jan_27_2013,WASABI Nback,2020.2.10,60.0159402572943,
0,1,9,"[0.2, -0.2]",None,0,0,0,0,,,,,0,0,0,0,0,76,76,76,,,,,,,,,None,None,0,268.07203160005156,None,268.07203160005156,269.07204790005926,269.0553853000747,270.0554059999995,0,0,268.07203160005156,None,,,1002,m,6,r,ARB,2022_Jan_27_2013,WASABI Nback,2020.2.10,60.0159402572943,
0,1,1,"[-0.2, 0.2]",None,0,0,0,0,,,,,0,0,0,0,0,77,77,77,,,,,,,,,None,None,0,270.0720419000136,None,270.0720419000136,271.072043400025,271.055412500049,272.05539990006946,0,1,270.0720419000136,None,,,1002,m,6,r,ARB,2022_Jan_27_2013,WASABI Nback,2020.2.10,60.0159402572943,
0,1,3,"[0.2, 0.2]",None,0,0,0,0,,,,,0,0,0,0,0,78,78,78,,,,,,,,,None,None,0,272.0720689999871,None,272.0720689999871,273.0720586000243,273.055410400033,274.05543690000195,0,1,272.0720689999871,None,,,1002,m,6,r,ARB,2022_Jan_27_2013,WASABI Nback,2020.2.10,60.0159402572943,
0,1,5,"[0, 0]",None,0,0,0,0,,,,,0,0,0,0,0,79,79,79,,,,,,,,,None,None,0,274.07207920006476,None,274.07207920006476,275.0720951000694,275.05544750008266,276.0553672000533,0,1,274.07207920006476,None,,,1002,m,6,r,ARB,2022_Jan_27_2013,WASABI Nback,2020.2.10,60.0159402572943,
0,1,3,"[0.2, 0.2]",1,0,0,0,0,,,,,0,0,0,0,0,80,80,80,,,,,,,,,None,None,0,276.0720028000651,None,276.0720028000651,277.07211030006874,277.0554621000774,278.05547290004324,0,1,276.0720028000651,None,,,1002,m,6,r,ARB,2022_Jan_27_2013,WASABI Nback,2020.2.10,60.0159402572943,
0,1,4,"[-0.2, 0]",None,0,0,0,0,,,,,0,0,0,0,0,81,81,81,,,,,,,,,None,None,0,278.0721171000041,None,278.0721171000041,279.07210920006037,279.055462700082,280.0554801999824,0,1,278.0721171000041,None,,,1002,m,6,r,ARB,2022_Jan_27_2013,WASABI Nback,2020.2.10,60.0159402572943,
0,1,7,"[-0.2, -0.2]",None,0,0,0,0,,,,,0,0,0,0,0,82,82,82,,,,,,,,,None,None,0,280.0721358000301,None,280.0721358000301,281.0720022000605,281.0554715000326,282.055492100073,0,1,280.0721358000301,None,,,1002,m,6,r,ARB,2022_Jan_27_2013,WASABI Nback,2020.2.10,60.0159402572943,
0,1,4,"[-0.2, 0]",1,0,0,0,0,,,,,0,0,0,0,0,83,83,83,,,,,,,,,None,None,0,282.0721342000179,None,282.0721342000179,283.07215889997315,283.05549000005703,284.0554890000494,0,1,282.0721342000179,None,,,1002,m,6,r,ARB,2022_Jan_27_2013,WASABI Nback,2020.2.10,60.0159402572943,
0,1,4,"[-0.2, 0]",None,0,0,0,0,,,,,0,0,0,0,0,84,84,84,,,,,,,,,None,None,0,284.07225460000336,None,284.07225460000336,285.0721584999701,285.05549200007226,286.0555296000093,0,1,284.07225460000336,None,,,1002,m,6,r,ARB,2022_Jan_27_2013,WASABI Nback,2020.2.10,60.0159402572943,
0,1,5,"[0, 0]",None,0,0,0,0,,,,,0,0,0,0,0,85,85,85,,,,,,,,,None,None,0,286.07219540001824,None,286.07219540001824,287.07217419997323,287.0555175000336,288.0555212000618,0,1,286.07219540001824,None,,,1002,m,6,r,ARB,2022_Jan_27_2013,WASABI Nback,2020.2.10,60.0159402572943,
0,1,2,"[0, 0.2]",None,0,0,0,0,,,,,0,0,0,0,0,86,86,86,,,,,,,,,None,None,0,288.0721902999794,None,288.0721902999794,289.07221040001605,289.05553080001846,290.05556860007346,0,1,288.0721902999794,None,,,1002,m,6,r,ARB,2022_Jan_27_2013,WASABI Nback,2020.2.10,60.0159402572943,
0,1,6,"[0.2, 0]",None,0,0,0,0,,,,,0,0,0,0,0,87,87,87,,,,,,,,,None,None,0,290.0722126000328,None,290.0722126000328,291.0722481000703,291.05556290003005,292.05556580005214,0,1,290.0722126000328,None,,,1002,m,6,r,ARB,2022_Jan_27_2013,WASABI Nback,2020.2.10,60.0159402572943,
0,1,7,"[-0.2, -0.2]",None,0,0,0,0,,,,,0,0,0,0,0,88,88,88,,,,,,,,,None,None,0,292.0722473000642,None,292.0722473000642,293.0722421000246,293.0555695000803,294.05556630005594,0,1,292.0722473000642,None,,,1002,m,6,r,ARB,2022_Jan_27_2013,WASABI Nback,2020.2.10,60.0159402572943,
0,1,6,"[0.2, 0]",1,0,0,0,0,,,,,0,0,0,0,0,89,89,89,,,,,,,,,None,None,0,294.0722452000482,None,294.0722452000482,295.0722760000499,295.05559140001424,296.05559160001576,0,1,294.0722452000482,None,,,1002,m,6,r,ARB,2022_Jan_27_2013,WASABI Nback,2020.2.10,60.0159402572943,
0,1,6,"[0.2, 0]",None,0,0,0,0,,,,,0,0,0,0,0,90,90,90,,,,,,,,,None,None,0,296.0722600000445,None,296.0722600000445,297.0722760000499,297.05561829998624,298.0556212000083,0,1,296.0722600000445,None,,,1002,m,6,r,ARB,2022_Jan_27_2013,WASABI Nback,2020.2.10,60.0159402572943,
0,1,7,"[-0.2, -0.2]",None,0,0,0,0,,,,,0,0,0,0,0,91,91,91,,,,,,,,,None,None,0,298.07226679997984,None,298.07226679997984,299.0722930000629,299.0556193999946,300.05564340006094,0,1,298.07226679997984,None,,,1002,m,6,r,ARB,2022_Jan_27_2013,WASABI Nback,2020.2.10,60.0159402572943,
0,1,6,"[0.2, 0]",1,0,0,0,0,,,,,0,0,0,0,0,92,92,92,,,,,,,,,None,None,0,300.07231540000066,None,300.07231540000066,301.0723215000471,301.05562660004944,302.05565660004504,0,1,300.07231540000066,None,,,1002,m,6,r,ARB,2022_Jan_27_2013,WASABI Nback,2020.2.10,60.0159402572943,
0,1,2,"[0, 0.2]",None,0,0,0,0,,,,,0,0,0,0,0,93,93,93,,,,,,,,,None,None,0,302.0723099000752,None,302.0723099000752,303.07231540000066,303.0556641999865,304.0556628999766,0,1,302.0723099000752,None,,,1002,m,6,r,ARB,2022_Jan_27_2013,WASABI Nback,2020.2.10,60.0159402572943,
0,1,5,"[0, 0]",None,0,0,0,0,,,,,0,0,0,0,0,94,94,94,,,,,,,,,None,None,0,304.07234600000083,None,304.07234600000083,305.0723306,305.0556688000215,306.05558879999444,0,1,304.07234600000083,None,,,1002,m,6,r,ARB,2022_Jan_27_2013,WASABI Nback,2020.2.10,60.0159402572943,
0,1,4,"[-0.2, 0]",None,0,0,0,0,,,,,0,0,0,0,0,95,95,95,,,,,,,,,None,None,0,306.0723666000413,None,306.0723666000413,307.0723726999713,307.055699700024,308.0557155000279,0,1,306.0723666000413,None,,,1002,m,6,r,ARB,2022_Jan_27_2013,WASABI Nback,2020.2.10,60.0159402572943,
0,1,4,"[-0.2, 0]",None,0,0,0,0,,,,,0,0,0,0,0,96,96,96,,,,,,,,,None,None,0,308.0723660000367,None,308.0723660000367,309.07242670003325,309.0557216000743,310.05570520006586,0,1,308.0723660000367,None,,,1002,m,6,r,ARB,2022_Jan_27_2013,WASABI Nback,2020.2.10,60.0159402572943,
0,1,7,"[-0.2, -0.2]",None,0,0,0,0,,,,,0,0,0,0,0,97,97,97,,,,,,,,,None,None,0,310.0723777000094,None,310.0723777000094,311.07237990002614,311.05571890005376,312.0557462000288,0,1,310.0723777000094,None,,,1002,m,6,r,ARB,2022_Jan_27_2013,WASABI Nback,2020.2.10,60.0159402572943,
0,1,4,"[-0.2, 0]",1,0,0,0,0,,,,,0,0,0,0,0,98,98,98,,,,,,,,,None,None,0,312.0724181999685,None,312.0724181999685,313.07237780001014,313.05573160003405,314.0557654000586,0,1,312.0724181999685,None,,,1002,m,6,r,ARB,2022_Jan_27_2013,WASABI Nback,2020.2.10,60.0159402572943,
0,1,3,"[0.2, 0.2]",None,0,0,0,0,,,,,0,0,0,0,0,99,99,99,,,,,,,,,None,None,0,314.07241690007504,None,314.07241690007504,315.07244460005313,315.055764400051,316.0557570999954,0,1,314.07241690007504,None,,,1002,m,6,r,ARB,2022_Jan_27_2013,WASABI Nback,2020.2.10,60.0159402572943,
0,1,5,"[0, 0]",None,0,0,0,0,,,,,0,0,0,0,0,100,100,100,,,,,,,,,None,None,0,316.07243240007665,None,316.07243240007665,317.0724398000166,317.0557912000222,318.05579660006333,0,1,316.07243240007665,None,,,1002,m,6,r,ARB,2022_Jan_27_2013,WASABI Nback,2020.2.10,60.0159402572943,
0,1,3,"[0.2, 0.2]",1,0,0,0,0,,,,,0,0,0,0,0,101,101,101,,,,,,,,,None,None,0,318.0724655999802,None,318.0724655999802,319.0724543000106,319.0557910000207,320.05578950000927,0,1,318.0724655999802,None,,,1002,m,6,r,ARB,2022_Jan_27_2013,WASABI Nback,2020.2.10,60.0159402572943,
0,1,1,"[-0.2, 0.2]",None,0,0,0,0,,,,,0,0,0,0,0,102,102,102,,,,,,,,,None,None,0,320.07246549997944,None,320.07246549997944,321.07249370007776,321.0558004999766,322.0558264000574,0,1,320.07246549997944,None,,,1002,m,6,r,ARB,2022_Jan_27_2013,WASABI Nback,2020.2.10,60.0159402572943,
0,1,9,"[0.2, -0.2]",None,0,0,0,0,,,,,0,0,0,0,0,103,103,103,,,,,,,,,None,None,0,322.0725102999713,None,322.0725102999713,323.0724889000412,323.05591430002823,324.0558244000422,0,1,322.0725102999713,None,,,1002,m,6,r,ARB,2022_Jan_27_2013,WASABI Nback,2020.2.10,60.0159402572943,
0,1,9,"[0.2, -0.2]",None,0,0,0,0,,,,,0,0,0,0,0,104,104,104,,,,,,,,,None,None,0,324.0724921000656,None,324.0724921000656,325.0723785000155,325.0558386000339,326.05585420003626,0,1,324.0724921000656,None,,,1002,m,6,r,ARB,2022_Jan_27_2013,WASABI Nback,2020.2.10,60.0159402572943,
0,1,8,"[0, -0.2]",None,0,0,0,0,,,,,0,0,0,0,0,105,105,105,,,,,,,,,None,None,0,326.0725423999829,None,326.0725423999829,327.0725124999881,327.05584779998753,328.05587490007747,0,1,326.0725423999829,None,,,1002,m,6,r,ARB,2022_Jan_27_2013,WASABI Nback,2020.2.10,60.0159402572943,
0,1,6,"[0.2, 0]",None,0,0,0,0,,,,,0,0,0,0,0,106,106,106,,,,,,,,,None,None,0,328.0725238000741,None,328.0725238000741,329.0725355000468,329.05589459999464,330.0558678000234,0,1,328.0725238000741,None,,,1002,m,6,r,ARB,2022_Jan_27_2013,WASABI Nback,2020.2.10,60.0159402572943,
0,1,3,"[0.2, 0.2]",None,0,0,0,0,,,,,0,0,0,0,0,107,107,107,,,,,,,,,None,None,0,330.0725301000057,None,330.0725301000057,331.0725368000567,331.0558821000159,332.0559051000746,0,1,330.0725301000057,None,,,1002,m,6,r,ARB,2022_Jan_27_2013,WASABI Nback,2020.2.10,60.0159402572943,
0,1,6,"[0.2, 0]",1,0,0,0,0,,,,,0,0,0,0,0,108,108,108,,,,,,,,,None,None,0,332.07256750005763,None,332.07256750005763,333.0725528000621,333.05589429999236,334.0559218999697,0,0,332.07256750005763,None,,,1002,m,6,r,ARB,2022_Jan_27_2013,WASABI Nback,2020.2.10,60.0159402572943,
0,1,5,"[0, 0]",None,0,0,0,0,,,,,0,0,0,0,0,109,109,109,,,,,,,,,None,None,0,334.07257469999604,None,334.07257469999604,335.0725937000243,335.0559420000063,336.0559118000092,0,1,334.07257469999604,None,,,1002,m,6,r,ARB,2022_Jan_27_2013,WASABI Nback,2020.2.10,60.0159402572943,
0,1,7,"[-0.2, -0.2]",None,0,0,0,0,,,,,0,0,0,0,0,110,110,110,,,,,,,,,None,None,0,336.0725849000737,None,336.0725849000737,337.07258809998166,337.05594089999795,338.0559442000231,0,1,336.0725849000737,None,,,1002,m,6,r,ARB,2022_Jan_27_2013,WASABI Nback,2020.2.10,60.0159402572943,
0,1,5,"[0, 0]",1,0,0,0,0,,,,,0,0,0,0,0,111,111,111,,,,,,,,,None,None,0,338.07261989999097,None,338.07261989999097,339.0726217000047,339.0559612000361,340.05597200000193,0,1,338.07261989999097,None,,,1002,m,6,r,ARB,2022_Jan_27_2013,WASABI Nback,2020.2.10,60.0159402572943,
0,1,1,"[-0.2, 0.2]",None,0,0,0,0,,,,,0,0,0,0,0,112,112,112,,,,,,,,,None,None,0,340.07262640004046,None,340.07262640004046,341.0726284000557,341.0559909000294,342.0559811000712,0,1,340.07262640004046,None,,,1002,m,6,r,ARB,2022_Jan_27_2013,WASABI Nback,2020.2.10,60.0159402572943,
0,1,7,"[-0.2, -0.2]",None,0,0,0,0,,,,,0,0,0,0,0,113,113,113,,,,,,,,,None,None,0,342.0726367000025,None,342.0726367000025,343.0726474999683,343.0559844999807,344.0560028000036,0,1,342.0726367000025,None,,,1002,m,6,r,ARB,2022_Jan_27_2013,WASABI Nback,2020.2.10,60.0159402572943,
0,1,9,"[0.2, -0.2]",None,0,0,0,0,,,,,0,0,0,0,0,114,114,114,,,,,,,,,None,None,0,344.0726708000293,None,344.0726708000293,345.0726586000528,345.0560181000037,346.0560007999884,0,1,344.0726708000293,None,,,1002,m,6,r,ARB,2022_Jan_27_2013,WASABI Nback,2020.2.10,60.0159402572943,
0,1,3,"[0.2, 0.2]",None,0,0,0,0,,,,,0,0,0,0,0,115,115,115,,,,,,,,,None,None,0,346.07267460005824,None,346.07267460005824,347.0726950999815,347.05602860008366,348.05602080002427,0,1,346.07267460005824,None,,,1002,m,6,r,ARB,2022_Jan_27_2013,WASABI Nback,2020.2.10,60.0159402572943,
0,1,9,"[0.2, -0.2]",1,0,0,0,0,,,,,0,0,0,0,0,116,116,116,,,,,,,,,None,None,0,348.07268570002634,None,348.07268570002634,349.072709399974,349.05604409996886,350.05605810007546,0,1,348.07268570002634,None,,,1002,m,6,r,ARB,2022_Jan_27_2013,WASABI Nback,2020.2.10,60.0159402572943,
0,1,6,"[0.2, 0]",None,0,0,0,0,,,,,0,0,0,0,0,117,117,117,,,,,,,,,None,None,0,350.0727179000387,None,350.0727179000387,351.07271540001966,351.0560446999734,352.05606820003595,0,1,350.0727179000387,None,,,1002,m,6,r,ARB,2022_Jan_27_2013,WASABI Nback,2020.2.10,60.0159402572943,
0,1,2,"[0, 0.2]",None,0,0,0,0,,,,,0,0,0,0,0,118,118,118,,,,,,,,,None,None,0,352.07272629998624,None,352.07272629998624,353.0727416999871,353.0560965000186,354.05608660005964,0,1,352.07272629998624,None,,,1002,m,6,r,ARB,2022_Jan_27_2013,WASABI Nback,2020.2.10,60.0159402572943,
0,1,5,"[0, 0]",None,0,0,0,0,,,,,0,0,0,0,0,119,119,119,,,,,,,,,None,None,0,354.07274049997795,None,354.07274049997795,355.0727368000662,355.0559917000355,356.0560872000642,0,1,354.07274049997795,None,,,1002,m,6,r,ARB,2022_Jan_27_2013,WASABI Nback,2020.2.10,60.0159402572943,
1,0,,,,0,1,1,1,0,0,0,0,,,,,,,,,,,,,,,,,,,,,,,,,,,,,,446.1068487999728,None,1002,m,6,r,ARB,2022_Jan_27_2013,WASABI Nback,2020.2.10,60.0159402572943,
