square,location,corrAns,trials_2.thisRepN,trials_2.thisTrialN,trials_2.thisN,trials_2.thisIndex,fixation_1.started,fixation_1.stopped,response_2.x,response_2.y,response_2.leftButton,grid_lines_2.started,grid_lines_2.stopped,target_square_2.started,target_square_2.stopped,fixation_3.started,fixation_3.stopped,response_2.click,response_2.corr,response_2.started,response_2.stopped,ScoreReportText.started,ScoreReportText.stopped,ScoreReportResponse.keys,ScoreReportResponse.started,ScoreReportResponse.stopped,subject number,gender,distractMap first- or second-half (1 or 2),session,handedness,scanner,bodysite1 temp,bodysite2 temp,date,psychopyVersion,expName,frameRate,body_site_order,
6,"[0.2, 0]",None,0,0,0,0,176.72805269999662,None,None,None,"[0, 0, 0]",177.76140329998452,None,177.76140329998452,178.76140950003173,178.74472389998846,None,"[0, 0, 0]",1,177.76140329998452,None,,,,,,9,F,1,12,R,MS MH,49,49,2022_Dec_11_1400,2020.2.10,distractmap1,60.00607260490249,"['Left Face', 'Abdomen', 'Left Face', 'Abdomen']",
7,"[-0.2, -0.2]",None,0,1,1,1,,,None,None,"[0, 0, 0]",179.74475050001638,181.74480310000945,179.74475050001638,180.74475240003085,180.72797350003384,181.72808710002573,"[0, 0, 0]",0,179.74475050001638,181.74480310000945,,,,,,9,F,1,12,R,MS MH,49,49,2022_Dec_11_1400,2020.2.10,distractmap1,60.00607260490249,"['Left Face', 'Abdomen', 'Left Face', 'Abdomen']",
6,"[0.2, 0]",1.0,0,2,2,2,,,None,None,"[0, 0, 0]",181.7614220000105,183.76146240002709,181.7614220000105,182.76142629998503,182.7448013999965,183.74476540001342,"[0, 0, 0]",0,181.7614220000105,183.76146240002709,,,,,,9,F,1,12,R,MS MH,49,49,2022_Dec_11_1400,2020.2.10,distractmap1,60.00607260490249,"['Left Face', 'Abdomen', 'Left Face', 'Abdomen']",
2,"[0, 0.2]",0.0,0,3,3,3,,,None,None,"[0, 0, 0]",183.7781202000333,185.7781339000212,183.7781202000333,184.77813170000445,184.76147050003055,185.76152410003124,"[0, 0, 0]",0,183.7781202000333,185.7781339000212,,,,,,9,F,1,12,R,MS MH,49,49,2022_Dec_11_1400,2020.2.10,distractmap1,60.00607260490249,"['Left Face', 'Abdomen', 'Left Face', 'Abdomen']",
5,"[0, 0]",0.0,0,4,4,4,,,None,None,"[0, 0, 0]",185.7948017999879,187.7948405999923,185.7948017999879,186.79482870001812,186.77814439998474,187.77814680000301,"[0, 0, 0]",0,185.7948017999879,187.7948405999923,,,,,,9,F,1,12,R,MS MH,49,49,2022_Dec_11_1400,2020.2.10,distractmap1,60.00607260490249,"['Left Face', 'Abdomen', 'Left Face', 'Abdomen']",
4,"[-0.2, 0]",0.0,0,5,5,5,,,None,None,"[0, 0, 0]",187.81147960003,189.81149039999582,187.81147960003,188.81148909998592,188.79482830001507,189.79485519998707,"[0, 0, 0]",0,187.81147960003,189.81149039999582,,,,,,9,F,1,12,R,MS MH,49,49,2022_Dec_11_1400,2020.2.10,distractmap1,60.00607260490249,"['Left Face', 'Abdomen', 'Left Face', 'Abdomen']",
4,"[-0.2, 0]",0.0,0,6,6,6,,,None,None,"[0, 0, 0]",189.82817240001168,191.8281892000232,189.82817240001168,190.82816680002725,190.81152009998914,191.8115046999883,"[0, 0, 0]",0,189.82817240001168,191.8281892000232,,,,,,9,F,1,12,R,MS MH,49,49,2022_Dec_11_1400,2020.2.10,distractmap1,60.00607260490249,"['Left Face', 'Abdomen', 'Left Face', 'Abdomen']",
7,"[-0.2, -0.2]",0.0,0,7,7,7,,,None,None,"[0, 0, 0]",191.8447429999942,193.84486419998575,191.8447429999942,192.84487430000445,192.82819120003842,193.82819680002285,"[0, 0, 0]",0,191.8447429999942,193.84486419998575,,,,,,9,F,1,12,R,MS MH,49,49,2022_Dec_11_1400,2020.2.10,distractmap1,60.00607260490249,"['Left Face', 'Abdomen', 'Left Face', 'Abdomen']",
4,"[-0.2, 0]",1.0,0,8,8,8,,,None,None,"[0, 0, 0]",193.86152820003917,195.86152620002395,193.86152820003917,194.8615408000187,194.84487020003144,195.8448945999844,"[0, 0, 0]",0,193.86152820003917,195.86152620002395,,,,,,9,F,1,12,R,MS MH,49,49,2022_Dec_11_1400,2020.2.10,distractmap1,60.00607260490249,"['Left Face', 'Abdomen', 'Left Face', 'Abdomen']",
3,"[0.2, 0.2]",0.0,0,9,9,9,,,None,None,"[0, 0, 0]",195.8782279000152,197.87822800001595,195.8782279000152,196.87821320001967,196.8615446999902,197.8615821999847,"[0, 0, 0]",0,195.8782279000152,197.87822800001595,,,,,,9,F,1,12,R,MS MH,49,49,2022_Dec_11_1400,2020.2.10,distractmap1,60.00607260490249,"['Left Face', 'Abdomen', 'Left Face', 'Abdomen']",
5,"[0, 0]",0.0,0,10,10,10,,,None,None,"[0, 0, 0]",197.89490190002834,199.89491239999188,197.89490190002834,198.89493240002776,198.87824400002137,199.87828910001554,"[0, 0, 0]",0,197.89490190002834,199.89491239999188,,,,,,9,F,1,12,R,MS MH,49,49,2022_Dec_11_1400,2020.2.10,distractmap1,60.00607260490249,"['Left Face', 'Abdomen', 'Left Face', 'Abdomen']",
3,"[0.2, 0.2]",1.0,0,11,11,11,,,None,None,"[0, 0, 0]",199.91156179999234,201.91157669998938,199.91156179999234,200.91158920002636,200.8949117999873,201.8949082000181,"[0, 0, 0]",0,199.91156179999234,201.91157669998938,,,,,,9,F,1,12,R,MS MH,49,49,2022_Dec_11_1400,2020.2.10,distractmap1,60.00607260490249,"['Left Face', 'Abdomen', 'Left Face', 'Abdomen']",
1,"[-0.2, 0.2]",0.0,0,12,12,12,,,None,None,"[0, 0, 0]",201.9282844000263,203.9283002000302,201.9282844000263,202.92828190000728,202.91161409998313,203.91162930004066,"[0, 0, 0]",0,201.9282844000263,203.9283002000302,,,,,,9,F,1,12,R,MS MH,49,49,2022_Dec_11_1400,2020.2.10,distractmap1,60.00607260490249,"['Left Face', 'Abdomen', 'Left Face', 'Abdomen']",
9,"[0.2, -0.2]",0.0,0,13,13,13,,,None,None,"[0, 0, 0]",203.94495979999192,205.94496739999158,203.94495979999192,204.94497320003575,204.92829370003892,205.9283072000253,"[0, 0, 0]",0,203.94495979999192,205.94496739999158,,,,,,9,F,1,12,R,MS MH,49,49,2022_Dec_11_1400,2020.2.10,distractmap1,60.00607260490249,"['Left Face', 'Abdomen', 'Left Face', 'Abdomen']",
9,"[0.2, -0.2]",0.0,0,14,14,14,,,None,None,"[0, 0, 0]",205.96164789999602,207.96163570001954,205.96164789999602,206.961652100028,206.94498760002898,207.94498610001756,"[0, 0, 0]",0,205.96164789999602,207.96163570001954,,,,,,9,F,1,12,R,MS MH,49,49,2022_Dec_11_1400,2020.2.10,distractmap1,60.00607260490249,"['Left Face', 'Abdomen', 'Left Face', 'Abdomen']",
8,"[0, -0.2]",0.0,0,15,15,15,,,None,None,"[0, 0, 0]",207.97834440000588,209.97833930002525,207.97834440000588,208.9783441000036,208.96165300003486,209.96165140002267,"[0, 0, 0]",0,207.97834440000588,209.97833930002525,,,,,,9,F,1,12,R,MS MH,49,49,2022_Dec_11_1400,2020.2.10,distractmap1,60.00607260490249,"['Left Face', 'Abdomen', 'Left Face', 'Abdomen']",
6,"[0.2, 0]",0.0,0,16,16,16,,,None,None,"[0, 0, 0]",209.99501740001142,211.9950048000319,209.99501740001142,210.99502740002936,210.97835440002382,211.97836930002086,"[0, 0, 0]",0,209.99501740001142,211.9950048000319,,,,,,9,F,1,12,R,MS MH,49,49,2022_Dec_11_1400,2020.2.10,distractmap1,60.00607260490249,"['Left Face', 'Abdomen', 'Left Face', 'Abdomen']",
3,"[0.2, 0.2]",0.0,0,17,17,17,,,None,None,"[0, 0, 0]",212.01169010001468,214.0117040000041,212.01169010001468,213.01166120002745,212.99505490000593,213.9950560000143,"[0, 0, 0]",0,212.01169010001468,214.0117040000041,,,,,,9,F,1,12,R,MS MH,49,49,2022_Dec_11_1400,2020.2.10,distractmap1,60.00607260490249,"['Left Face', 'Abdomen', 'Left Face', 'Abdomen']",
6,"[0.2, 0]",1.0,0,18,18,18,,,None,None,"[0, 0, 0]",214.02839689998655,216.0284558000276,214.02839689998655,215.02839870000025,215.01167859998532,216.01175489998423,"[0, 0, 0]",0,214.02839689998655,216.0284558000276,,,,,,9,F,1,12,R,MS MH,49,49,2022_Dec_11_1400,2020.2.10,distractmap1,60.00607260490249,"['Left Face', 'Abdomen', 'Left Face', 'Abdomen']",
5,"[0, 0]",0.0,0,19,19,19,,,None,None,"[0, 0, 0]",216.04509770002915,218.04508750000969,216.04509770002915,217.04506899998523,217.0284162000171,218.02841680002166,"[0, 0, 0]",0,216.04509770002915,218.04508750000969,,,,,,9,F,1,12,R,MS MH,49,49,2022_Dec_11_1400,2020.2.10,distractmap1,60.00607260490249,"['Left Face', 'Abdomen', 'Left Face', 'Abdomen']",
7,"[-0.2, -0.2]",0.0,0,20,20,20,,,None,None,"[0, 0, 0]",218.061731600028,220.0617549000308,218.061731600028,219.06176320003578,219.04510630003642,220.04507210000884,"[0, 0, 0]",0,218.061731600028,220.0617549000308,,,,,,9,F,1,12,R,MS MH,49,49,2022_Dec_11_1400,2020.2.10,distractmap1,60.00607260490249,"['Left Face', 'Abdomen', 'Left Face', 'Abdomen']",
5,"[0, 0]",1.0,0,21,21,21,,,None,None,"[0, 0, 0]",220.07835910003632,222.07844860001933,220.07835910003632,221.07846220000647,221.06179890001658,222.06177159998333,"[0, 0, 0]",0,220.07835910003632,222.07844860001933,,,,,,9,F,1,12,R,MS MH,49,49,2022_Dec_11_1400,2020.2.10,distractmap1,60.00607260490249,"['Left Face', 'Abdomen', 'Left Face', 'Abdomen']",
1,"[-0.2, 0.2]",0.0,0,22,22,22,,,None,None,"[0, 0, 0]",222.0951210000203,224.09512600000016,222.0951210000203,223.09512320003705,223.07846769999014,224.07847780000884,"[0, 0, 0]",0,222.0951210000203,224.09512600000016,,,,,,9,F,1,12,R,MS MH,49,49,2022_Dec_11_1400,2020.2.10,distractmap1,60.00607260490249,"['Left Face', 'Abdomen', 'Left Face', 'Abdomen']",
7,"[-0.2, -0.2]",0.0,0,23,23,23,,,None,None,"[0, 0, 0]",224.11176709999563,226.111818400037,224.11176709999563,225.11182380001992,225.09515030001057,226.0951403999934,"[0, 0, 0]",0,224.11176709999563,226.111818400037,,,,,,9,F,1,12,R,MS MH,49,49,2022_Dec_11_1400,2020.2.10,distractmap1,60.00607260490249,"['Left Face', 'Abdomen', 'Left Face', 'Abdomen']",
9,"[0.2, -0.2]",0.0,0,24,24,24,,,None,None,"[0, 0, 0]",226.1284977000323,228.1284113000147,226.1284977000323,227.12851030001184,227.1118518000003,228.1118496999843,"[0, 0, 0]",0,226.1284977000323,228.1284113000147,,,,,,9,F,1,12,R,MS MH,49,49,2022_Dec_11_1400,2020.2.10,distractmap1,60.00607260490249,"['Left Face', 'Abdomen', 'Left Face', 'Abdomen']",
3,"[0.2, 0.2]",0.0,0,25,25,25,,,None,None,"[0, 0, 0]",228.14519290003227,230.1451892000041,228.14519290003227,229.14518390002195,229.1285302999895,230.12854450003942,"[0, 0, 0]",0,228.14519290003227,230.1451892000041,,,,,,9,F,1,12,R,MS MH,49,49,2022_Dec_11_1400,2020.2.10,distractmap1,60.00607260490249,"['Left Face', 'Abdomen', 'Left Face', 'Abdomen']",
9,"[0.2, -0.2]",1.0,0,26,26,26,,,None,None,"[0, 0, 0]",230.16185730003053,232.16188410000177,230.16185730003053,231.16185520001454,231.14520800003083,232.14520070003346,"[0, 0, 0]",0,230.16185730003053,232.16188410000177,,,,,,9,F,1,12,R,MS MH,49,49,2022_Dec_11_1400,2020.2.10,distractmap1,60.00607260490249,"['Left Face', 'Abdomen', 'Left Face', 'Abdomen']",
6,"[0.2, 0]",0.0,0,27,27,27,,,None,None,"[0, 0, 0]",232.17854440002702,234.17855409998447,232.17854440002702,233.17854440002702,233.1618829999934,234.16190100001404,"[0, 0, 0]",0,232.17854440002702,234.17855409998447,,,,,,9,F,1,12,R,MS MH,49,49,2022_Dec_11_1400,2020.2.10,distractmap1,60.00607260490249,"['Left Face', 'Abdomen', 'Left Face', 'Abdomen']",
2,"[0, 0.2]",0.0,0,28,28,28,,,None,None,"[0, 0, 0]",234.1952302000136,236.19523070001742,234.1952302000136,235.19524490000913,235.17859470000258,236.17856790003134,"[0, 0, 0]",0,234.1952302000136,236.19523070001742,,,,,,9,F,1,12,R,MS MH,49,49,2022_Dec_11_1400,2020.2.10,distractmap1,60.00607260490249,"['Left Face', 'Abdomen', 'Left Face', 'Abdomen']",
5,"[0, 0]",0.0,0,29,29,29,,,None,None,"[0, 0, 0]",236.21189520001644,238.21193140000105,236.21189520001644,237.21181140001863,237.19513880001614,238.19524999998976,"[0, 0, 0]",0,236.21189520001644,238.21193140000105,,,,,,9,F,1,12,R,MS MH,49,49,2022_Dec_11_1400,2020.2.10,distractmap1,60.00607260490249,"['Left Face', 'Abdomen', 'Left Face', 'Abdomen']",
,,,,,,,,,,,,,,,,,,,,,,238.2452697000117,None,space,238.2452697000117,None,9,F,1,12,R,MS MH,49,49,2022_Dec_11_1400,2020.2.10,distractmap1,60.00607260490249,"['Left Face', 'Abdomen', 'Left Face', 'Abdomen']",
6,"[0.2, 0]",None,0,0,0,0,357.3129926000256,None,None,None,"[0, 0, 0]",358.32966580003267,None,358.32966580003267,359.3296687999973,359.31300650001504,360.313008600031,"[0, 0, 0]",1,358.32966580003267,None,,,,,,9,F,1,12,R,MS MH,49,49,2022_Dec_11_1400,2020.2.10,distractmap1,60.00607260490249,"['Left Face', 'Abdomen', 'Left Face', 'Abdomen']",
7,"[-0.2, -0.2]",None,0,1,1,1,,,None,None,"[0, 0, 0]",360.3296918999986,362.32969590002904,360.3296918999986,361.3296749999863,361.31302300002426,362.3130176999839,"[0, 0, 0]",1,360.3296918999986,362.32969590002904,,,,,,9,F,1,12,R,MS MH,49,49,2022_Dec_11_1400,2020.2.10,distractmap1,60.00607260490249,"['Left Face', 'Abdomen', 'Left Face', 'Abdomen']",
6,"[0.2, 0]",1.0,0,2,2,2,,,None,None,"[0, 0, 0]",362.34638599999016,364.34639540000353,362.34638599999016,363.3463680000277,363.32969789998606,364.3297333000228,"[0, 0, 0]",1,362.34638599999016,364.34639540000353,,,,,,9,F,1,12,R,MS MH,49,49,2022_Dec_11_1400,2020.2.10,distractmap1,60.00607260490249,"['Left Face', 'Abdomen', 'Left Face', 'Abdomen']",
2,"[0, 0.2]",0.0,0,3,3,3,,,None,None,"[0, 0, 0]",364.36312930000713,366.36303820001194,364.36312930000713,365.36304389999714,365.34641599998577,366.3464297000319,"[0, 0, 0]",0,364.36312930000713,366.36303820001194,,,,,,9,F,1,12,R,MS MH,49,49,2022_Dec_11_1400,2020.2.10,distractmap1,60.00607260490249,"['Left Face', 'Abdomen', 'Left Face', 'Abdomen']",
5,"[0, 0]",0.0,0,4,4,4,,,None,None,"[0, 0, 0]",366.3797449999838,368.37976819998585,366.3797449999838,367.3797540999949,367.36306920001516,368.3630870000343,"[0, 0, 0]",0,366.3797449999838,368.37976819998585,,,,,,9,F,1,12,R,MS MH,49,49,2022_Dec_11_1400,2020.2.10,distractmap1,60.00607260490249,"['Left Face', 'Abdomen', 'Left Face', 'Abdomen']",
4,"[-0.2, 0]",0.0,0,5,5,5,,,None,None,"[0, 0, 0]",368.3964269999997,370.3964638999896,368.3964269999997,369.3964500000002,369.3797601000406,370.3797670000349,"[0, 0, 0]",0,368.3964269999997,370.3964638999896,,,,,,9,F,1,12,R,MS MH,49,49,2022_Dec_11_1400,2020.2.10,distractmap1,60.00607260490249,"['Left Face', 'Abdomen', 'Left Face', 'Abdomen']",
4,"[-0.2, 0]",0.0,0,6,6,6,,,None,None,"[0, 0, 0]",370.4131024000235,372.4131083000102,370.4131024000235,371.4130956000299,371.39645140001085,372.3963885999983,"[0, 0, 0]",0,370.4131024000235,372.4131083000102,,,,,,9,F,1,12,R,MS MH,49,49,2022_Dec_11_1400,2020.2.10,distractmap1,60.00607260490249,"['Left Face', 'Abdomen', 'Left Face', 'Abdomen']",
7,"[-0.2, -0.2]",0.0,0,7,7,7,,,None,None,"[0, 0, 0]",372.42978390003555,374.4298221000354,372.42978390003555,373.4297983000288,373.41313120000996,374.4131223000004,"[0, 0, 0]",0,372.42978390003555,374.4298221000354,,,,,,9,F,1,12,R,MS MH,49,49,2022_Dec_11_1400,2020.2.10,distractmap1,60.00607260490249,"['Left Face', 'Abdomen', 'Left Face', 'Abdomen']",
4,"[-0.2, 0]",1.0,0,8,8,8,,,None,None,"[0, 0, 0]",374.44649190001655,376.44651849998627,374.44649190001655,375.4464881999884,375.4298460999853,376.4298269000137,"[0, 0, 0]",0,374.44649190001655,376.44651849998627,,,,,,9,F,1,12,R,MS MH,49,49,2022_Dec_11_1400,2020.2.10,distractmap1,60.00607260490249,"['Left Face', 'Abdomen', 'Left Face', 'Abdomen']",
3,"[0.2, 0.2]",0.0,0,9,9,9,,,None,None,"[0, 0, 0]",376.4631526999874,378.4631912999903,376.4631526999874,377.46318030002294,377.4465174000361,378.4465326000354,"[0, 0, 0]",0,376.4631526999874,378.4631912999903,,,,,,9,F,1,12,R,MS MH,49,49,2022_Dec_11_1400,2020.2.10,distractmap1,60.00607260490249,"['Left Face', 'Abdomen', 'Left Face', 'Abdomen']",
5,"[0, 0]",0.0,0,10,10,10,,,None,None,"[0, 0, 0]",378.4798352000071,380.47987280000234,378.4798352000071,379.47994240000844,379.463195600023,380.46319710003445,"[0, 0, 0]",0,378.4798352000071,380.47987280000234,,,,,,9,F,1,12,R,MS MH,49,49,2022_Dec_11_1400,2020.2.10,distractmap1,60.00607260490249,"['Left Face', 'Abdomen', 'Left Face', 'Abdomen']",
3,"[0.2, 0.2]",1.0,0,11,11,11,,,None,None,"[0, 0, 0]",380.49655099998927,382.49657670001034,380.49655099998927,381.49655859998893,381.4798792999936,382.4799050000147,"[0, 0, 0]",0,380.49655099998927,382.49657670001034,,,,,,9,F,1,12,R,MS MH,49,49,2022_Dec_11_1400,2020.2.10,distractmap1,60.00607260490249,"['Left Face', 'Abdomen', 'Left Face', 'Abdomen']",
1,"[-0.2, 0.2]",0.0,0,12,12,12,,,None,None,"[0, 0, 0]",382.5132338000112,384.5132294000359,382.5132338000112,383.5132440000307,383.49656870000763,384.49658650002675,"[0, 0, 0]",0,382.5132338000112,384.5132294000359,,,,,,9,F,1,12,R,MS MH,49,49,2022_Dec_11_1400,2020.2.10,distractmap1,60.00607260490249,"['Left Face', 'Abdomen', 'Left Face', 'Abdomen']",
9,"[0.2, -0.2]",0.0,0,13,13,13,,,None,None,"[0, 0, 0]",384.5299085000297,386.52992100000847,384.5299085000297,385.52991620003013,385.5132494000136,386.51326869998593,"[0, 0, 0]",1,384.5299085000297,386.52992100000847,,,,,,9,F,1,12,R,MS MH,49,49,2022_Dec_11_1400,2020.2.10,distractmap1,60.00607260490249,"['Left Face', 'Abdomen', 'Left Face', 'Abdomen']",
9,"[0.2, -0.2]",0.0,0,14,14,14,,,None,None,"[0, 0, 0]",386.546560399991,388.5466036000289,386.546560399991,387.5466179000214,387.5299608000205,388.52994849998504,"[0, 0, 0]",1,386.546560399991,388.5466036000289,,,,,,9,F,1,12,R,MS MH,49,49,2022_Dec_11_1400,2020.2.10,distractmap1,60.00607260490249,"['Left Face', 'Abdomen', 'Left Face', 'Abdomen']",
8,"[0, -0.2]",0.0,0,15,15,15,,,None,None,"[0, 0, 0]",388.56326650001574,390.56332190003013,388.56326650001574,389.56330300000263,389.5466116000316,390.5466310000047,"[0, 0, 0]",1,388.56326650001574,390.56332190003013,,,,,,9,F,1,12,R,MS MH,49,49,2022_Dec_11_1400,2020.2.10,distractmap1,60.00607260490249,"['Left Face', 'Abdomen', 'Left Face', 'Abdomen']",
6,"[0.2, 0]",0.0,0,16,16,16,,,None,None,"[0, 0, 0]",390.5799422999844,392.5799684000085,390.5799422999844,391.57996030000504,391.5633024999988,392.5633082999848,"[0, 0, 0]",1,390.5799422999844,392.5799684000085,,,,,,9,F,1,12,R,MS MH,49,49,2022_Dec_11_1400,2020.2.10,distractmap1,60.00607260490249,"['Left Face', 'Abdomen', 'Left Face', 'Abdomen']",
3,"[0.2, 0.2]",0.0,0,17,17,17,,,None,None,"[0, 0, 0]",392.5966603999841,394.5966751000378,392.5966603999841,393.59651850000955,393.57997920003254,394.5800185999833,"[0, 0, 0]",1,392.5966603999841,394.5966751000378,,,,,,9,F,1,12,R,MS MH,49,49,2022_Dec_11_1400,2020.2.10,distractmap1,60.00607260490249,"['Left Face', 'Abdomen', 'Left Face', 'Abdomen']",
6,"[0.2, 0]",1.0,0,18,18,18,,,None,None,"[0, 0, 0]",394.6133296000189,396.61333680001553,394.6133296000189,395.6133320000372,395.5966618999955,396.5966798000154,"[0, 0, 0]",0,394.6133296000189,396.61333680001553,,,,,,9,F,1,12,R,MS MH,49,49,2022_Dec_11_1400,2020.2.10,distractmap1,60.00607260490249,"['Left Face', 'Abdomen', 'Left Face', 'Abdomen']",
5,"[0, 0]",0.0,0,19,19,19,,,None,None,"[0, 0, 0]",396.6300250000204,398.6300390000106,396.6300250000204,397.6300250000204,397.6133519000141,398.6133834000211,"[0, 0, 0]",0,396.6300250000204,398.6300390000106,,,,,,9,F,1,12,R,MS MH,49,49,2022_Dec_11_1400,2020.2.10,distractmap1,60.00607260490249,"['Left Face', 'Abdomen', 'Left Face', 'Abdomen']",
7,"[-0.2, -0.2]",0.0,0,20,20,20,,,None,None,"[0, 0, 0]",398.64669950003736,400.64672280004015,398.64669950003736,399.64669510000385,399.63003800000297,400.6300496000331,"[0, 0, 0]",1,398.64669950003736,400.64672280004015,,,,,,9,F,1,12,R,MS MH,49,49,2022_Dec_11_1400,2020.2.10,distractmap1,60.00607260490249,"['Left Face', 'Abdomen', 'Left Face', 'Abdomen']",
5,"[0, 0]",1.0,0,21,21,21,,,None,None,"[0, 0, 0]",400.6633937000297,402.663416800031,400.6633937000297,401.66340600000694,401.64671430003364,402.6467236999888,"[0, 0, 0]",0,400.6633937000297,402.663416800031,,,,,,9,F,1,12,R,MS MH,49,49,2022_Dec_11_1400,2020.2.10,distractmap1,60.00607260490249,"['Left Face', 'Abdomen', 'Left Face', 'Abdomen']",
1,"[-0.2, 0.2]",0.0,0,22,22,22,,,None,None,"[0, 0, 0]",402.6800599999842,404.6800851000007,402.6800599999842,403.6800818000338,403.6634224000154,404.66343499999493,"[0, 0, 0]",1,402.6800599999842,404.6800851000007,,,,,,9,F,1,12,R,MS MH,49,49,2022_Dec_11_1400,2020.2.10,distractmap1,60.00607260490249,"['Left Face', 'Abdomen', 'Left Face', 'Abdomen']",
7,"[-0.2, -0.2]",0.0,0,23,23,23,,,None,None,"[0, 0, 0]",404.6967397000408,406.6967899000156,404.6967397000408,405.6967463000328,405.6800913999905,406.6801145999925,"[0, 0, 0]",1,404.6967397000408,406.6967899000156,,,,,,9,F,1,12,R,MS MH,49,49,2022_Dec_11_1400,2020.2.10,distractmap1,60.00607260490249,"['Left Face', 'Abdomen', 'Left Face', 'Abdomen']",
9,"[0.2, -0.2]",0.0,0,24,24,24,,,None,None,"[0, 0, 0]",406.7134643000318,408.7134664999903,406.7134643000318,407.7134592999937,407.69677889999,408.6967808000045,"[0, 0, 0]",1,406.7134643000318,408.7134664999903,,,,,,9,F,1,12,R,MS MH,49,49,2022_Dec_11_1400,2020.2.10,distractmap1,60.00607260490249,"['Left Face', 'Abdomen', 'Left Face', 'Abdomen']",
3,"[0.2, 0.2]",0.0,0,25,25,25,,,None,None,"[0, 0, 0]",408.73011180001777,410.7301398999989,408.73011180001777,409.7301353000221,409.7134692000109,410.71352460002527,"[0, 0, 0]",1,408.73011180001777,410.7301398999989,,,,,,9,F,1,12,R,MS MH,49,49,2022_Dec_11_1400,2020.2.10,distractmap1,60.00607260490249,"['Left Face', 'Abdomen', 'Left Face', 'Abdomen']",
9,"[0.2, -0.2]",1.0,0,26,26,26,,,None,None,"[0, 0, 0]",410.7468746000086,412.74685090000276,410.7468746000086,411.74681159999454,411.7301422000164,412.7301498000161,"[0, 0, 0]",0,410.7468746000086,412.74685090000276,,,,,,9,F,1,12,R,MS MH,49,49,2022_Dec_11_1400,2020.2.10,distractmap1,60.00607260490249,"['Left Face', 'Abdomen', 'Left Face', 'Abdomen']",
6,"[0.2, 0]",0.0,0,27,27,27,,,None,None,"[0, 0, 0]",412.76354080002056,414.7635306000011,412.76354080002056,413.76350380002987,413.74682500003837,414.74682400003076,"[0, 0, 0]",1,412.76354080002056,414.7635306000011,,,,,,9,F,1,12,R,MS MH,49,49,2022_Dec_11_1400,2020.2.10,distractmap1,60.00607260490249,"['Left Face', 'Abdomen', 'Left Face', 'Abdomen']",
2,"[0, 0.2]",0.0,0,28,28,28,,,None,None,"[0, 0, 0]",414.7801758000278,416.78018649999285,414.7801758000278,415.78019040002255,415.7635166000109,416.76352510001743,"[0, 0, 0]",1,414.7801758000278,416.78018649999285,,,,,,9,F,1,12,R,MS MH,49,49,2022_Dec_11_1400,2020.2.10,distractmap1,60.00607260490249,"['Left Face', 'Abdomen', 'Left Face', 'Abdomen']",
5,"[0, 0]",0.0,0,29,29,29,,,None,None,"[0, 0, 0]",416.796872899984,418.79687100002775,416.796872899984,417.79687820002437,417.78021830000216,418.7802184000029,"[0, 0, 0]",1,416.796872899984,418.79687100002775,,,,,,9,F,1,12,R,MS MH,49,49,2022_Dec_11_1400,2020.2.10,distractmap1,60.00607260490249,"['Left Face', 'Abdomen', 'Left Face', 'Abdomen']",
,,,,,,,,,,,,,,,,,,,,,,418.81354380003177,None,space,418.81354380003177,None,9,F,1,12,R,MS MH,49,49,2022_Dec_11_1400,2020.2.10,distractmap1,60.00607260490249,"['Left Face', 'Abdomen', 'Left Face', 'Abdomen']",
6,"[0.2, 0]",None,0,0,0,0,446.3971499000327,None,None,None,"[0, 0, 0]",447.41383309999947,None,447.41383309999947,448.4138407999999,448.397143899987,449.3971648000297,"[0, 0, 0]",1,447.41383309999947,None,,,,,,9,F,1,12,R,MS MH,49,49,2022_Dec_11_1400,2020.2.10,distractmap1,60.00607260490249,"['Left Face', 'Abdomen', 'Left Face', 'Abdomen']",
7,"[-0.2, -0.2]",None,0,1,1,1,,,None,None,"[0, 0, 0]",449.41383600002155,451.41383159998804,449.41383600002155,450.4138326999964,450.3971627000137,451.39717140002176,"[0, 0, 0]",0,449.41383600002155,451.41383159998804,,,,,,9,F,1,12,R,MS MH,49,49,2022_Dec_11_1400,2020.2.10,distractmap1,60.00607260490249,"['Left Face', 'Abdomen', 'Left Face', 'Abdomen']",
6,"[0.2, 0]",1.0,0,2,2,2,,,None,None,"[0, 0, 0]",451.43050110002514,453.4305413000402,451.43050110002514,452.43053960002726,452.41386760002933,453.4138729000115,"[0, 0, 0]",0,451.43050110002514,453.4305413000402,,,,,,9,F,1,12,R,MS MH,49,49,2022_Dec_11_1400,2020.2.10,distractmap1,60.00607260490249,"['Left Face', 'Abdomen', 'Left Face', 'Abdomen']",
2,"[0, 0.2]",0.0,0,3,3,3,,,None,None,"[0, 0, 0]",453.44719099998474,455.447199599992,453.44719099998474,454.44724740000675,454.4306119999965,455.4305550000281,"[0, 0, 0]",1,453.44719099998474,455.447199599992,,,,,,9,F,1,12,R,MS MH,49,49,2022_Dec_11_1400,2020.2.10,distractmap1,60.00607260490249,"['Left Face', 'Abdomen', 'Left Face', 'Abdomen']",
5,"[0, 0]",0.0,0,4,4,4,,,None,None,"[0, 0, 0]",455.4638916000258,457.4639116000035,455.4638916000258,456.46389980003005,456.4472177000134,457.44720520003466,"[0, 0, 0]",1,455.4638916000258,457.4639116000035,,,,,,9,F,1,12,R,MS MH,49,49,2022_Dec_11_1400,2020.2.10,distractmap1,60.00607260490249,"['Left Face', 'Abdomen', 'Left Face', 'Abdomen']",
4,"[-0.2, 0]",0.0,0,5,5,5,,,None,None,"[0, 0, 0]",457.4805404000217,459.48058299999684,457.4805404000217,458.4805811000406,458.4639085000381,459.4639099999913,"[0, 0, 0]",1,457.4805404000217,459.48058299999684,,,,,,9,F,1,12,R,MS MH,49,49,2022_Dec_11_1400,2020.2.10,distractmap1,60.00607260490249,"['Left Face', 'Abdomen', 'Left Face', 'Abdomen']",
4,"[-0.2, 0]",0.0,0,6,6,6,,,None,None,"[0, 0, 0]",459.4972766999854,461.4972718000063,459.4972766999854,460.4972471999936,460.48057910002535,461.48059980000835,"[0, 0, 0]",1,459.4972766999854,461.4972718000063,,,,,,9,F,1,12,R,MS MH,49,49,2022_Dec_11_1400,2020.2.10,distractmap1,60.00607260490249,"['Left Face', 'Abdomen', 'Left Face', 'Abdomen']",
7,"[-0.2, -0.2]",0.0,0,7,7,7,,,None,None,"[0, 0, 0]",461.51394129998516,463.51395890000276,461.51394129998516,462.513938100019,462.49727110000094,463.4972778999945,"[0, 0, 0]",1,461.51394129998516,463.51395890000276,,,,,,9,F,1,12,R,MS MH,49,49,2022_Dec_11_1400,2020.2.10,distractmap1,60.00607260490249,"['Left Face', 'Abdomen', 'Left Face', 'Abdomen']",
4,"[-0.2, 0]",1.0,0,8,8,8,,,None,None,"[0, 0, 0]",463.5306070999941,465.5306455999962,463.5306070999941,464.5306225999957,464.51397650002036,465.5139542000252,"[0, 0, 0]",0,463.5306070999941,465.5306455999962,,,,,,9,F,1,12,R,MS MH,49,49,2022_Dec_11_1400,2020.2.10,distractmap1,60.00607260490249,"['Left Face', 'Abdomen', 'Left Face', 'Abdomen']",
3,"[0.2, 0.2]",0.0,0,9,9,9,,,None,None,"[0, 0, 0]",465.54730770003516,467.54733540001325,465.54730770003516,466.54730670002755,466.53063819999807,467.530668899999,"[0, 0, 0]",0,465.54730770003516,467.54733540001325,,,,,,9,F,1,12,R,MS MH,49,49,2022_Dec_11_1400,2020.2.10,distractmap1,60.00607260490249,"['Left Face', 'Abdomen', 'Left Face', 'Abdomen']",
5,"[0, 0]",0.0,0,10,10,10,,,None,None,"[0, 0, 0]",467.56400150002446,469.5640004000161,467.56400150002446,468.5640294000041,468.5473473999882,469.54736720002256,"[0, 0, 0]",1,467.56400150002446,469.5640004000161,,,,,,9,F,1,12,R,MS MH,49,49,2022_Dec_11_1400,2020.2.10,distractmap1,60.00607260490249,"['Left Face', 'Abdomen', 'Left Face', 'Abdomen']",
3,"[0.2, 0.2]",1.0,0,11,11,11,,,None,None,"[0, 0, 0]",469.5806665000273,471.5807040000218,469.5806665000273,470.59736379998503,470.58100629999535,471.5807040000218,"[0, 0, 0]",1,469.5806665000273,471.5807040000218,,,,,,9,F,1,12,R,MS MH,49,49,2022_Dec_11_1400,2020.2.10,distractmap1,60.00607260490249,"['Left Face', 'Abdomen', 'Left Face', 'Abdomen']",
1,"[-0.2, 0.2]",0.0,0,12,12,12,,,None,None,"[0, 0, 0]",471.5973302000202,473.59736300003715,471.5973302000202,472.59742579999147,472.5807428000262,473.5807050000294,"[0, 0, 0]",1,471.5973302000202,473.59736300003715,,,,,,9,F,1,12,R,MS MH,49,49,2022_Dec_11_1400,2020.2.10,distractmap1,60.00607260490249,"['Left Face', 'Abdomen', 'Left Face', 'Abdomen']",
9,"[0.2, -0.2]",0.0,0,13,13,13,,,None,None,"[0, 0, 0]",473.6140127000399,475.6140455999994,473.6140127000399,474.6140284999856,474.59739970002556,475.59726030001184,"[0, 0, 0]",1,473.6140127000399,475.6140455999994,,,,,,9,F,1,12,R,MS MH,49,49,2022_Dec_11_1400,2020.2.10,distractmap1,60.00607260490249,"['Left Face', 'Abdomen', 'Left Face', 'Abdomen']",
9,"[0.2, -0.2]",0.0,0,14,14,14,,,None,None,"[0, 0, 0]",475.6307355000172,477.63073330000043,475.6307355000172,476.6307349000126,476.6140732000349,477.6140685999999,"[0, 0, 0]",1,475.6307355000172,477.63073330000043,,,,,,9,F,1,12,R,MS MH,49,49,2022_Dec_11_1400,2020.2.10,distractmap1,60.00607260490249,"['Left Face', 'Abdomen', 'Left Face', 'Abdomen']",
8,"[0, -0.2]",0.0,0,15,15,15,,,None,None,"[0, 0, 0]",477.64742210000986,479.6474438000005,477.64742210000986,478.64743150002323,478.6307566000032,479.6307680000318,"[0, 0, 0]",1,477.64742210000986,479.6474438000005,,,,,,9,F,1,12,R,MS MH,49,49,2022_Dec_11_1400,2020.2.10,distractmap1,60.00607260490249,"['Left Face', 'Abdomen', 'Left Face', 'Abdomen']",
6,"[0.2, 0]",0.0,0,16,16,16,,,None,None,"[0, 0, 0]",479.66409570001997,481.66411980002886,479.66409570001997,480.6641037000227,480.6474634000333,481.6474554000306,"[0, 0, 0]",1,479.66409570001997,481.66411980002886,,,,,,9,F,1,12,R,MS MH,49,49,2022_Dec_11_1400,2020.2.10,distractmap1,60.00607260490249,"['Left Face', 'Abdomen', 'Left Face', 'Abdomen']",
3,"[0.2, 0.2]",0.0,0,17,17,17,,,None,None,"[0, 0, 0]",481.68078080000123,483.68082010000944,481.68078080000123,482.68077219999395,482.6640984999831,483.66416280000703,"[0, 0, 0]",1,481.68078080000123,483.68082010000944,,,,,,9,F,1,12,R,MS MH,49,49,2022_Dec_11_1400,2020.2.10,distractmap1,60.00607260490249,"['Left Face', 'Abdomen', 'Left Face', 'Abdomen']",
6,"[0.2, 0]",1.0,0,18,18,18,,,None,None,"[0, 0, 0]",483.6974663999863,485.6974939000211,483.6974663999863,484.6975115000387,484.680818199995,485.68080690002535,"[0, 0, 0]",0,483.6974663999863,485.6974939000211,,,,,,9,F,1,12,R,MS MH,49,49,2022_Dec_11_1400,2020.2.10,distractmap1,60.00607260490249,"['Left Face', 'Abdomen', 'Left Face', 'Abdomen']",
5,"[0, 0]",0.0,0,19,19,19,,,None,None,"[0, 0, 0]",485.7141657000175,487.7141799000092,485.7141657000175,486.71417560003465,486.69752270000754,487.69754389999434,"[0, 0, 0]",1,485.7141657000175,487.7141799000092,,,,,,9,F,1,12,R,MS MH,49,49,2022_Dec_11_1400,2020.2.10,distractmap1,60.00607260490249,"['Left Face', 'Abdomen', 'Left Face', 'Abdomen']",
7,"[-0.2, -0.2]",0.0,0,20,20,20,,,None,None,"[0, 0, 0]",487.73084020003444,489.7308537000208,487.73084020003444,488.73085490002995,488.71417270001257,489.7141648000106,"[0, 0, 0]",1,487.73084020003444,489.7308537000208,,,,,,9,F,1,12,R,MS MH,49,49,2022_Dec_11_1400,2020.2.10,distractmap1,60.00607260490249,"['Left Face', 'Abdomen', 'Left Face', 'Abdomen']",
5,"[0, 0]",1.0,0,21,21,21,,,None,None,"[0, 0, 0]",489.74754720000783,491.74754070001654,489.74754720000783,490.7475731000304,490.7309239000315,491.730856899987,"[0, 0, 0]",0,489.74754720000783,491.74754070001654,,,,,,9,F,1,12,R,MS MH,49,49,2022_Dec_11_1400,2020.2.10,distractmap1,60.00607260490249,"['Left Face', 'Abdomen', 'Left Face', 'Abdomen']",
1,"[-0.2, 0.2]",0.0,0,22,22,22,,,None,None,"[0, 0, 0]",491.764216999989,493.76422050001565,491.764216999989,492.76422900002217,492.747540100012,493.74755470000673,"[0, 0, 0]",1,491.764216999989,493.76422050001565,,,,,,9,F,1,12,R,MS MH,49,49,2022_Dec_11_1400,2020.2.10,distractmap1,60.00607260490249,"['Left Face', 'Abdomen', 'Left Face', 'Abdomen']",
7,"[-0.2, -0.2]",0.0,0,23,23,23,,,None,None,"[0, 0, 0]",493.7809377000085,495.78090680000605,493.7809377000085,494.78096060000826,494.76423159998376,495.764281700016,"[0, 0, 0]",1,493.7809377000085,495.78090680000605,,,,,,9,F,1,12,R,MS MH,49,49,2022_Dec_11_1400,2020.2.10,distractmap1,60.00607260490249,"['Left Face', 'Abdomen', 'Left Face', 'Abdomen']",
9,"[0.2, -0.2]",0.0,0,24,24,24,,,None,None,"[0, 0, 0]",495.7975757000386,497.7975943000056,495.7975757000386,496.7975868000067,496.7809428999899,497.7809377000085,"[0, 0, 0]",0,495.7975757000386,497.7975943000056,,,,,,9,F,1,12,R,MS MH,49,49,2022_Dec_11_1400,2020.2.10,distractmap1,60.00607260490249,"['Left Face', 'Abdomen', 'Left Face', 'Abdomen']",
3,"[0.2, 0.2]",0.0,0,25,25,25,,,None,None,"[0, 0, 0]",497.8142761000199,499.81427209998947,497.8142761000199,498.8142598000122,498.7976118000224,499.79764589999104,"[0, 0, 0]",1,497.8142761000199,499.81427209998947,,,,,,9,F,1,12,R,MS MH,49,49,2022_Dec_11_1400,2020.2.10,distractmap1,60.00607260490249,"['Left Face', 'Abdomen', 'Left Face', 'Abdomen']",
9,"[0.2, -0.2]",1.0,0,26,26,26,,,None,None,"[0, 0, 0]",499.8309412000235,501.83099849999417,499.8309412000235,500.8309825999895,500.81407500000205,501.8143022999866,"[0, 0, 0]",0,499.8309412000235,501.83099849999417,,,,,,9,F,1,12,R,MS MH,49,49,2022_Dec_11_1400,2020.2.10,distractmap1,60.00607260490249,"['Left Face', 'Abdomen', 'Left Face', 'Abdomen']",
6,"[0.2, 0]",0.0,0,27,27,27,,,None,None,"[0, 0, 0]",501.8476238999865,503.84765870001866,501.8476238999865,502.8476351000136,502.83099360001506,503.830993200012,"[0, 0, 0]",1,501.8476238999865,503.84765870001866,,,,,,9,F,1,12,R,MS MH,49,49,2022_Dec_11_1400,2020.2.10,distractmap1,60.00607260490249,"['Left Face', 'Abdomen', 'Left Face', 'Abdomen']",
2,"[0, 0.2]",0.0,0,28,28,28,,,None,None,"[0, 0, 0]",503.8643187999842,505.86426330002723,503.8643187999842,504.86433730000863,504.8476588000194,505.847694600001,"[0, 0, 0]",1,503.8643187999842,505.86426330002723,,,,,,9,F,1,12,R,MS MH,49,49,2022_Dec_11_1400,2020.2.10,distractmap1,60.00607260490249,"['Left Face', 'Abdomen', 'Left Face', 'Abdomen']",
5,"[0, 0]",0.0,0,29,29,29,,,None,None,"[0, 0, 0]",505.8810068999883,507.881014899991,505.8810068999883,506.88106550002703,506.8643579999916,507.864363700035,"[0, 0, 0]",1,505.8810068999883,507.881014899991,,,,,,9,F,1,12,R,MS MH,49,49,2022_Dec_11_1400,2020.2.10,distractmap1,60.00607260490249,"['Left Face', 'Abdomen', 'Left Face', 'Abdomen']",
,,,,,,,,,,,,,,,,,,,,,,507.91437600000063,None,space,507.91437600000063,None,9,F,1,12,R,MS MH,49,49,2022_Dec_11_1400,2020.2.10,distractmap1,60.00607260490249,"['Left Face', 'Abdomen', 'Left Face', 'Abdomen']",
