square,location,corrAns,trials_2.thisRepN,trials_2.thisTrialN,trials_2.thisN,trials_2.thisIndex,fixation_1.started,fixation_1.stopped,response_2.x,response_2.y,response_2.leftButton,grid_lines_2.started,grid_lines_2.stopped,target_square_2.started,target_square_2.stopped,fixation_3.started,fixation_3.stopped,response_2.click,response_2.corr,response_2.started,response_2.stopped,ScoreReportText.started,ScoreReportText.stopped,ScoreReportResponse.keys,ScoreReportResponse.started,ScoreReportResponse.stopped,BodySiteInstructionText.started,BodySiteImg.started,BodySiteImg.stopped,BodySiteInstructionRead.keys,BodySiteInstructionRead.rt,BodySiteInstructionRead.started,BodySiteInstructionRead.stopped,fixation_rest.started,fixation_rest.stopped,IntensityRating.response,IntensityRating.rt,IntensityRating.started,IntensityRating.stopped,subject number,gender,distractMap first- or second-half (1 or 2),session,handedness,scanner,bodysite1 temp,bodysite2 temp,date,psychopyVersion,expName,frameRate,body_site_order,
6,"[0.2, 0]",None,0,0,0,0,41.577752300014254,None,None,None,"[0, 0, 0]",42.61112359998515,None,42.61112359998515,43.611125499999616,43.594446400005836,None,"[0, 0, 0]",1,42.61112359998515,None,,,,,,,,,,,,,,,,,,,9,F,1,12,R,MS MH,49,49,2022_Dec_11_1413,2020.2.10,distractmap1,60.00452434065863,"['Left Face', 'Abdomen', 'Left Face', 'Abdomen']",
7,"[-0.2, -0.2]",None,0,1,1,1,,,None,None,"[0, 0, 0]",44.594319799973164,46.59450830001151,44.594319799973164,45.594461800006684,45.57779250002932,46.57780680002179,"[0, 0, 0]",0,44.594319799973164,46.59450830001151,,,,,,,,,,,,,,,,,,,9,F,1,12,R,MS MH,49,49,2022_Dec_11_1413,2020.2.10,distractmap1,60.00452434065863,"['Left Face', 'Abdomen', 'Left Face', 'Abdomen']",
6,"[0.2, 0]",1.0,0,2,2,2,,,None,None,"[0, 0, 0]",46.611154499987606,48.61114930000622,46.611154499987606,47.61116500000935,47.594553800008725,48.5945161000127,"[0, 0, 0]",1,46.611154499987606,48.61114930000622,,,,,,,,,,,,,,,,,,,9,F,1,12,R,MS MH,49,49,2022_Dec_11_1413,2020.2.10,distractmap1,60.00452434065863,"['Left Face', 'Abdomen', 'Left Face', 'Abdomen']",
2,"[0, 0.2]",0.0,0,3,3,3,,,None,None,"[0, 0, 0]",48.62783379998291,50.62787829997251,48.62783379998291,49.627838300017174,49.61117170000216,50.61117849999573,"[0, 0, 0]",1,48.62783379998291,50.62787829997251,,,,,,,,,,,,,,,,,,,9,F,1,12,R,MS MH,49,49,2022_Dec_11_1413,2020.2.10,distractmap1,60.00452434065863,"['Left Face', 'Abdomen', 'Left Face', 'Abdomen']",
5,"[0, 0]",0.0,0,4,4,4,,,None,None,"[0, 0, 0]",50.64454589999514,52.64455289999023,50.64454589999514,51.644542400026694,51.62785430002259,52.62787979998393,"[0, 0, 0]",0,50.64454589999514,52.64455289999023,,,,,,,,,,,,,,,,,,,9,F,1,12,R,MS MH,49,49,2022_Dec_11_1413,2020.2.10,distractmap1,60.00452434065863,"['Left Face', 'Abdomen', 'Left Face', 'Abdomen']",
4,"[-0.2, 0]",0.0,0,5,5,5,,,None,None,"[0, 0, 0]",52.661112000001594,54.66122539999196,52.661112000001594,53.66120229999069,53.644560699991416,54.64456569997128,"[0, 0, 0]",0,52.661112000001594,54.66122539999196,,,,,,,,,,,,,,,,,,,9,F,1,12,R,MS MH,49,49,2022_Dec_11_1413,2020.2.10,distractmap1,60.00452434065863,"['Left Face', 'Abdomen', 'Left Face', 'Abdomen']",
4,"[-0.2, 0]",0.0,0,6,6,6,,,None,None,"[0, 0, 0]",54.67788269999437,56.67791089997627,54.67788269999437,55.69459809997352,55.67829960002564,56.67791089997627,"[0, 0, 0]",1,54.67788269999437,56.67791089997627,,,,,,,,,,,,,,,,,,,9,F,1,12,R,MS MH,49,49,2022_Dec_11_1413,2020.2.10,distractmap1,60.00452434065863,"['Left Face', 'Abdomen', 'Left Face', 'Abdomen']",
7,"[-0.2, -0.2]",0.0,0,7,7,7,,,None,None,"[0, 0, 0]",56.69456289999653,58.694640500005335,56.69456289999653,57.69458619999932,57.67789880000055,58.67780280002626,"[0, 0, 0]",0,56.69456289999653,58.694640500005335,,,,,,,,,,,,,,,,,,,9,F,1,12,R,MS MH,49,49,2022_Dec_11_1413,2020.2.10,distractmap1,60.00452434065863,"['Left Face', 'Abdomen', 'Left Face', 'Abdomen']",
4,"[-0.2, 0]",1.0,0,8,8,8,,,None,None,"[0, 0, 0]",58.711238500021864,60.71126509999158,58.711238500021864,59.71126249997178,59.69461309997132,60.69460390001768,"[0, 0, 0]",0,58.711238500021864,60.71126509999158,,,,,,,,,,,,,,,,,,,9,F,1,12,R,MS MH,49,49,2022_Dec_11_1413,2020.2.10,distractmap1,60.00452434065863,"['Left Face', 'Abdomen', 'Left Face', 'Abdomen']",
3,"[0.2, 0.2]",0.0,0,9,9,9,,,None,None,"[0, 0, 0]",60.72794680000516,62.727962200006004,60.72794680000516,61.72795450000558,61.7112842000206,62.71128480002517,"[0, 0, 0]",0,60.72794680000516,62.727962200006004,,,,,,,,,,,,,,,,,,,9,F,1,12,R,MS MH,49,49,2022_Dec_11_1413,2020.2.10,distractmap1,60.00452434065863,"['Left Face', 'Abdomen', 'Left Face', 'Abdomen']",
5,"[0, 0]",0.0,0,10,10,10,,,None,None,"[0, 0, 0]",62.74461599998176,64.74456530000316,62.74461599998176,63.7446321999887,63.72798359999433,64.72797369997716,"[0, 0, 0]",0,62.74461599998176,64.74456530000316,,,,,,,,,,,,,,,,,,,9,F,1,12,R,MS MH,49,49,2022_Dec_11_1413,2020.2.10,distractmap1,60.00452434065863,"['Left Face', 'Abdomen', 'Left Face', 'Abdomen']",
3,"[0.2, 0.2]",1.0,0,11,11,11,,,None,None,"[0, 0, 0]",64.76130539999576,66.76130989997182,64.76130539999576,65.76133449998451,65.74469179997686,66.74466660001781,"[0, 0, 0]",1,64.76130539999576,66.76130989997182,,,,,,,,,,,,,,,,,,,9,F,1,12,R,MS MH,49,49,2022_Dec_11_1413,2020.2.10,distractmap1,60.00452434065863,"['Left Face', 'Abdomen', 'Left Face', 'Abdomen']",
1,"[-0.2, 0.2]",0.0,0,12,12,12,,,None,None,"[0, 0, 0]",66.77800280001247,68.77800829999615,66.77800280001247,67.77800210000714,67.7613352999906,68.7613515999983,"[0, 0, 0]",1,66.77800280001247,68.77800829999615,,,,,,,,,,,,,,,,,,,9,F,1,12,R,MS MH,49,49,2022_Dec_11_1413,2020.2.10,distractmap1,60.00452434065863,"['Left Face', 'Abdomen', 'Left Face', 'Abdomen']",
9,"[0.2, -0.2]",0.0,0,13,13,13,,,None,None,"[0, 0, 0]",68.79466820001835,70.79468240001006,68.79466820001835,69.79468380002072,69.77801250002813,70.77803839999251,"[0, 0, 0]",0,68.79466820001835,70.79468240001006,,,,,,,,,,,,,,,,,,,9,F,1,12,R,MS MH,49,49,2022_Dec_11_1413,2020.2.10,distractmap1,60.00452434065863,"['Left Face', 'Abdomen', 'Left Face', 'Abdomen']",
9,"[0.2, -0.2]",0.0,0,14,14,14,,,None,None,"[0, 0, 0]",70.81135029997677,72.81137329997728,70.81135029997677,71.81137150002178,71.79471019998891,72.79470600001514,"[0, 0, 0]",1,70.81135029997677,72.81137329997728,,,,,,,,,,,,,,,,,,,9,F,1,12,R,MS MH,49,49,2022_Dec_11_1413,2020.2.10,distractmap1,60.00452434065863,"['Left Face', 'Abdomen', 'Left Face', 'Abdomen']",
8,"[0, -0.2]",0.0,0,15,15,15,,,None,None,"[0, 0, 0]",72.82806229998823,74.8280760999769,72.82806229998823,73.82806879997952,73.81138169998303,74.81140459998278,"[0, 0, 0]",0,72.82806229998823,74.8280760999769,,,,,,,,,,,,,,,,,,,9,F,1,12,R,MS MH,49,49,2022_Dec_11_1413,2020.2.10,distractmap1,60.00452434065863,"['Left Face', 'Abdomen', 'Left Face', 'Abdomen']",
6,"[0.2, 0]",0.0,0,16,16,16,,,None,None,"[0, 0, 0]",74.84473040001467,76.84474989998853,74.84473040001467,75.84473130002152,75.82807759998832,76.82802489999449,"[0, 0, 0]",1,74.84473040001467,76.84474989998853,,,,,,,,,,,,,,,,,,,9,F,1,12,R,MS MH,49,49,2022_Dec_11_1413,2020.2.10,distractmap1,60.00452434065863,"['Left Face', 'Abdomen', 'Left Face', 'Abdomen']",
3,"[0.2, 0.2]",0.0,0,17,17,17,,,None,None,"[0, 0, 0]",76.86140749999322,78.86143519997131,76.86140749999322,77.8614504999714,77.84478510002373,78.84477059997153,"[0, 0, 0]",0,76.86140749999322,78.86143519997131,,,,,,,,,,,,,,,,,,,9,F,1,12,R,MS MH,49,49,2022_Dec_11_1413,2020.2.10,distractmap1,60.00452434065863,"['Left Face', 'Abdomen', 'Left Face', 'Abdomen']",
6,"[0.2, 0]",1.0,0,18,18,18,,,None,None,"[0, 0, 0]",78.87802170001669,80.87812810001196,78.87802170001669,79.87811769999098,79.86146530002588,80.86147130001336,"[0, 0, 0]",0,78.87802170001669,80.87812810001196,,,,,,,,,,,,,,,,,,,9,F,1,12,R,MS MH,49,49,2022_Dec_11_1413,2020.2.10,distractmap1,60.00452434065863,"['Left Face', 'Abdomen', 'Left Face', 'Abdomen']",
5,"[0, 0]",0.0,0,19,19,19,,,None,None,"[0, 0, 0]",80.89479789999314,82.89477979997173,80.89479789999314,81.89480660000117,81.87810349999927,82.87813770002685,"[0, 0, 0]",0,80.89479789999314,82.89477979997173,,,,,,,,,,,,,,,,,,,9,F,1,12,R,MS MH,49,49,2022_Dec_11_1413,2020.2.10,distractmap1,60.00452434065863,"['Left Face', 'Abdomen', 'Left Face', 'Abdomen']",
7,"[-0.2, -0.2]",0.0,0,20,20,20,,,None,None,"[0, 0, 0]",82.91146729997126,84.9114992999821,82.91146729997126,83.9114834999782,83.89483150001615,84.89481969998451,"[0, 0, 0]",1,82.91146729997126,84.9114992999821,,,,,,,,,,,,,,,,,,,9,F,1,12,R,MS MH,49,49,2022_Dec_11_1413,2020.2.10,distractmap1,60.00452434065863,"['Left Face', 'Abdomen', 'Left Face', 'Abdomen']",
5,"[0, 0]",1.0,0,21,21,21,,,None,None,"[0, 0, 0]",84.92817919998197,86.92820540000685,84.92817919998197,85.9448318000068,85.92854370002169,86.92820540000685,"[0, 0, 0]",0,84.92817919998197,86.92820540000685,,,,,,,,,,,,,,,,,,,9,F,1,12,R,MS MH,49,49,2022_Dec_11_1413,2020.2.10,distractmap1,60.00452434065863,"['Left Face', 'Abdomen', 'Left Face', 'Abdomen']",
1,"[-0.2, 0.2]",0.0,0,22,22,22,,,None,None,"[0, 0, 0]",86.94484840001678,88.94490429997677,86.94484840001678,87.94486759998836,87.92818290001014,88.92827719997149,"[0, 0, 0]",0,86.94484840001678,88.94490429997677,,,,,,,,,,,,,,,,,,,9,F,1,12,R,MS MH,49,49,2022_Dec_11_1413,2020.2.10,distractmap1,60.00452434065863,"['Left Face', 'Abdomen', 'Left Face', 'Abdomen']",
7,"[-0.2, -0.2]",0.0,0,23,23,23,,,None,None,"[0, 0, 0]",88.96160149999196,90.96143540000776,88.96160149999196,89.96155060001183,89.94489230000181,90.94488480000291,"[0, 0, 0]",0,88.96160149999196,90.96143540000776,,,,,,,,,,,,,,,,,,,9,F,1,12,R,MS MH,49,49,2022_Dec_11_1413,2020.2.10,distractmap1,60.00452434065863,"['Left Face', 'Abdomen', 'Left Face', 'Abdomen']",
9,"[0.2, -0.2]",0.0,0,24,24,24,,,None,None,"[0, 0, 0]",90.97822759998962,92.97823339997558,90.97822759998962,91.99489710002672,91.97862409998197,92.97823339997558,"[0, 0, 0]",1,90.97822759998962,92.97823339997558,,,,,,,,,,,,,,,,,,,9,F,1,12,R,MS MH,49,49,2022_Dec_11_1413,2020.2.10,distractmap1,60.00452434065863,"['Left Face', 'Abdomen', 'Left Face', 'Abdomen']",
3,"[0.2, 0.2]",0.0,0,25,25,25,,,None,None,"[0, 0, 0]",92.99491010000929,94.99494200001936,92.99491010000929,93.99492349999491,93.97828400001163,94.9782868999755,"[0, 0, 0]",1,92.99491010000929,94.99494200001936,,,,,,,,,,,,,,,,,,,9,F,1,12,R,MS MH,49,49,2022_Dec_11_1413,2020.2.10,distractmap1,60.00452434065863,"['Left Face', 'Abdomen', 'Left Face', 'Abdomen']",
9,"[0.2, -0.2]",1.0,0,26,26,26,,,None,None,"[0, 0, 0]",95.01157739997143,97.01162980002118,95.01157739997143,96.01162280002609,95.99491870001657,96.99495610001031,"[0, 0, 0]",0,95.01157739997143,97.01162980002118,,,,,,,,,,,,,,,,,,,9,F,1,12,R,MS MH,49,49,2022_Dec_11_1413,2020.2.10,distractmap1,60.00452434065863,"['Left Face', 'Abdomen', 'Left Face', 'Abdomen']",
6,"[0.2, 0]",0.0,0,27,27,27,,,None,None,"[0, 0, 0]",97.02827900002012,99.02830110001378,97.02827900002012,98.02829520002706,98.0115709999809,99.01167239999631,"[0, 0, 0]",1,97.02827900002012,99.02830110001378,,,,,,,,,,,,,,,,,,,9,F,1,12,R,MS MH,49,49,2022_Dec_11_1413,2020.2.10,distractmap1,60.00452434065863,"['Left Face', 'Abdomen', 'Left Face', 'Abdomen']",
2,"[0, 0.2]",0.0,0,28,28,28,,,None,None,"[0, 0, 0]",99.04496010002913,101.04498740000417,99.04496010002913,100.04498800000874,100.0282925000065,101.02830870001344,"[0, 0, 0]",1,99.04496010002913,101.04498740000417,,,,,,,,,,,,,,,,,,,9,F,1,12,R,MS MH,49,49,2022_Dec_11_1413,2020.2.10,distractmap1,60.00452434065863,"['Left Face', 'Abdomen', 'Left Face', 'Abdomen']",
5,"[0, 0]",0.0,0,29,29,29,,,None,None,"[0, 0, 0]",101.06164039997384,103.06168199999956,101.06164039997384,102.0616567999823,102.04501250002068,103.04491420002887,"[0, 0, 0]",1,101.06164039997384,103.06168199999956,,,,,,,,,,,,,,,,,,,9,F,1,12,R,MS MH,49,49,2022_Dec_11_1413,2020.2.10,distractmap1,60.00452434065863,"['Left Face', 'Abdomen', 'Left Face', 'Abdomen']",
,,,,,,,,,,,,,,,,,,,,,,103.09500670002308,None,space,103.09500670002308,None,,,,,,,,,,,,,,9,F,1,12,R,MS MH,49,49,2022_Dec_11_1413,2020.2.10,distractmap1,60.00452434065863,"['Left Face', 'Abdomen', 'Left Face', 'Abdomen']",
6,"[0.2, 0]",None,0,0,0,0,132.4286142999772,None,None,None,"[0, 0, 0]",133.44528159999754,None,133.44528159999754,134.44529840000905,134.42862999998033,135.4286225999822,"[0, 0, 0]",1,133.44528159999754,None,,,,,,,,,,,,,,,,,,,9,F,1,12,R,MS MH,49,49,2022_Dec_11_1413,2020.2.10,distractmap1,60.00452434065863,"['Left Face', 'Abdomen', 'Left Face', 'Abdomen']",
7,"[-0.2, -0.2]",None,0,1,1,1,,,None,None,"[0, 0, 0]",135.44530399999348,137.445310399984,135.44530399999348,136.44531540002208,136.42869819997577,137.42865110002458,"[0, 0, 0]",1,135.44530399999348,137.445310399984,,,,,,,,,,,,,,,,,,,9,F,1,12,R,MS MH,49,49,2022_Dec_11_1413,2020.2.10,distractmap1,60.00452434065863,"['Left Face', 'Abdomen', 'Left Face', 'Abdomen']",
6,"[0.2, 0]",1.0,0,2,2,2,,,None,None,"[0, 0, 0]",137.4619732000283,139.46198740002,137.4619732000283,138.4619845999987,138.44532970001455,139.44523040001513,"[0, 0, 0]",1,137.4619732000283,139.46198740002,,,,,,,,,,,,,,,,,,,9,F,1,12,R,MS MH,49,49,2022_Dec_11_1413,2020.2.10,distractmap1,60.00452434065863,"['Left Face', 'Abdomen', 'Left Face', 'Abdomen']",
2,"[0, 0.2]",0.0,0,3,3,3,,,None,None,"[0, 0, 0]",139.47866760002216,141.4786922999774,139.47866760002216,140.47869349998655,140.46201830002246,141.4620415000245,"[0, 0, 0]",1,139.47866760002216,141.4786922999774,,,,,,,,,,,,,,,,,,,9,F,1,12,R,MS MH,49,49,2022_Dec_11_1413,2020.2.10,distractmap1,60.00452434065863,"['Left Face', 'Abdomen', 'Left Face', 'Abdomen']",
5,"[0, 0]",0.0,0,4,4,4,,,None,None,"[0, 0, 0]",141.49535649997415,143.4953969999915,141.49535649997415,142.4953693000134,142.4786995999748,143.47871049999958,"[0, 0, 0]",1,141.49535649997415,143.4953969999915,,,,,,,,,,,,,,,,,,,9,F,1,12,R,MS MH,49,49,2022_Dec_11_1413,2020.2.10,distractmap1,60.00452434065863,"['Left Face', 'Abdomen', 'Left Face', 'Abdomen']",
4,"[-0.2, 0]",0.0,0,5,5,5,,,None,None,"[0, 0, 0]",143.51204559998587,145.51210779999383,143.51204559998587,144.51206099998672,144.4953798999777,145.49538909998955,"[0, 0, 0]",1,143.51204559998587,145.51210779999383,,,,,,,,,,,,,,,,,,,9,F,1,12,R,MS MH,49,49,2022_Dec_11_1413,2020.2.10,distractmap1,60.00452434065863,"['Left Face', 'Abdomen', 'Left Face', 'Abdomen']",
4,"[-0.2, 0]",0.0,0,6,6,6,,,None,None,"[0, 0, 0]",145.5287274000002,147.52874659997178,145.5287274000002,146.5287295000162,146.51206719997572,147.5120872000116,"[0, 0, 0]",1,145.5287274000002,147.52874659997178,,,,,,,,,,,,,,,,,,,9,F,1,12,R,MS MH,49,49,2022_Dec_11_1413,2020.2.10,distractmap1,60.00452434065863,"['Left Face', 'Abdomen', 'Left Face', 'Abdomen']",
7,"[-0.2, -0.2]",0.0,0,7,7,7,,,None,None,"[0, 0, 0]",147.54542839998612,149.54542340000626,147.54542839998612,148.5454061999917,148.528752800019,149.52876969997305,"[0, 0, 0]",0,147.54542839998612,149.54542340000626,,,,,,,,,,,,,,,,,,,9,F,1,12,R,MS MH,49,49,2022_Dec_11_1413,2020.2.10,distractmap1,60.00452434065863,"['Left Face', 'Abdomen', 'Left Face', 'Abdomen']",
4,"[-0.2, 0]",1.0,0,8,8,8,,,None,None,"[0, 0, 0]",149.5620158999809,151.56209969997872,149.5620158999809,150.56211559998337,150.54544379998697,151.5454599999939,"[0, 0, 0]",0,149.5620158999809,151.56209969997872,,,,,,,,,,,,,,,,,,,9,F,1,12,R,MS MH,49,49,2022_Dec_11_1413,2020.2.10,distractmap1,60.00452434065863,"['Left Face', 'Abdomen', 'Left Face', 'Abdomen']",
3,"[0.2, 0.2]",0.0,0,9,9,9,,,None,None,"[0, 0, 0]",151.57876080001006,153.57880710001336,151.57876080001006,152.57876489998307,152.56211719999555,153.56213819998084,"[0, 0, 0]",1,151.57876080001006,153.57880710001336,,,,,,,,,,,,,,,,,,,9,F,1,12,R,MS MH,49,49,2022_Dec_11_1413,2020.2.10,distractmap1,60.00452434065863,"['Left Face', 'Abdomen', 'Left Face', 'Abdomen']",
5,"[0, 0]",0.0,0,10,10,10,,,None,None,"[0, 0, 0]",153.59545949997846,155.59551439998904,153.59545949997846,154.5954919999931,154.57884769997327,155.57882320001954,"[0, 0, 0]",1,153.59545949997846,155.59551439998904,,,,,,,,,,,,,,,,,,,9,F,1,12,R,MS MH,49,49,2022_Dec_11_1413,2020.2.10,distractmap1,60.00452434065863,"['Left Face', 'Abdomen', 'Left Face', 'Abdomen']",
3,"[0.2, 0.2]",1.0,0,11,11,11,,,None,None,"[0, 0, 0]",155.61214869999094,157.61216929997317,155.61214869999094,156.61219469999196,156.5955412000185,157.59550669998862,"[0, 0, 0]",1,155.61214869999094,157.61216929997317,,,,,,,,,,,,,,,,,,,9,F,1,12,R,MS MH,49,49,2022_Dec_11_1413,2020.2.10,distractmap1,60.00452434065863,"['Left Face', 'Abdomen', 'Left Face', 'Abdomen']",
1,"[-0.2, 0.2]",0.0,0,12,12,12,,,None,None,"[0, 0, 0]",157.62882340000942,159.6288773000124,157.62882340000942,158.62887810001848,158.61218860000372,159.61219090002123,"[0, 0, 0]",1,157.62882340000942,159.6288773000124,,,,,,,,,,,,,,,,,,,9,F,1,12,R,MS MH,49,49,2022_Dec_11_1413,2020.2.10,distractmap1,60.00452434065863,"['Left Face', 'Abdomen', 'Left Face', 'Abdomen']",
9,"[0.2, -0.2]",0.0,0,13,13,13,,,None,None,"[0, 0, 0]",159.64554669999052,161.64554370002588,159.64554669999052,160.6455504000187,160.62888929998735,161.62888109998312,"[0, 0, 0]",1,159.64554669999052,161.64554370002588,,,,,,,,,,,,,,,,,,,9,F,1,12,R,MS MH,49,49,2022_Dec_11_1413,2020.2.10,distractmap1,60.00452434065863,"['Left Face', 'Abdomen', 'Left Face', 'Abdomen']",
9,"[0.2, -0.2]",0.0,0,14,14,14,,,None,None,"[0, 0, 0]",161.66222830000333,163.66221189999487,161.66222830000333,162.66222469997592,162.6455786000006,163.64557539997622,"[0, 0, 0]",1,161.66222830000333,163.66221189999487,,,,,,,,,,,,,,,,,,,9,F,1,12,R,MS MH,49,49,2022_Dec_11_1413,2020.2.10,distractmap1,60.00452434065863,"['Left Face', 'Abdomen', 'Left Face', 'Abdomen']",
8,"[0, -0.2]",0.0,0,15,15,15,,,None,None,"[0, 0, 0]",163.6787729000207,165.67892079998273,163.6787729000207,164.67890060000354,164.66223219997482,165.66225950000808,"[0, 0, 0]",0,163.6787729000207,165.67892079998273,,,,,,,,,,,,,,,,,,,9,F,1,12,R,MS MH,49,49,2022_Dec_11_1413,2020.2.10,distractmap1,60.00452434065863,"['Left Face', 'Abdomen', 'Left Face', 'Abdomen']",
6,"[0.2, 0]",0.0,0,16,16,16,,,None,None,"[0, 0, 0]",165.6955939999898,167.6956019999925,165.6955939999898,166.69580909999786,166.67892259999644,167.67897930002073,"[0, 0, 0]",1,165.6955939999898,167.6956019999925,,,,,,,,,,,,,,,,,,,9,F,1,12,R,MS MH,49,49,2022_Dec_11_1413,2020.2.10,distractmap1,60.00452434065863,"['Left Face', 'Abdomen', 'Left Face', 'Abdomen']",
3,"[0.2, 0.2]",0.0,0,17,17,17,,,None,None,"[0, 0, 0]",167.7122780000209,169.71228630002588,167.7122780000209,168.7123478000285,168.69561410002643,169.69562860002043,"[0, 0, 0]",1,167.7122780000209,169.71228630002588,,,,,,,,,,,,,,,,,,,9,F,1,12,R,MS MH,49,49,2022_Dec_11_1413,2020.2.10,distractmap1,60.00452434065863,"['Left Face', 'Abdomen', 'Left Face', 'Abdomen']",
6,"[0.2, 0]",1.0,0,18,18,18,,,None,None,"[0, 0, 0]",169.72895680001238,171.72898000001442,169.72895680001238,170.72896849998506,170.71229599998333,171.71231610001996,"[0, 0, 0]",0,169.72895680001238,171.72898000001442,,,,,,,,,,,,,,,,,,,9,F,1,12,R,MS MH,49,49,2022_Dec_11_1413,2020.2.10,distractmap1,60.00452434065863,"['Left Face', 'Abdomen', 'Left Face', 'Abdomen']",
5,"[0, 0]",0.0,0,19,19,19,,,None,None,"[0, 0, 0]",171.74564959999407,173.7456784999813,171.74564959999407,172.7456971000065,172.7289750999771,173.7289948000107,"[0, 0, 0]",1,171.74564959999407,173.7456784999813,,,,,,,,,,,,,,,,,,,9,F,1,12,R,MS MH,49,49,2022_Dec_11_1413,2020.2.10,distractmap1,60.00452434065863,"['Left Face', 'Abdomen', 'Left Face', 'Abdomen']",
7,"[-0.2, -0.2]",0.0,0,20,20,20,,,None,None,"[0, 0, 0]",173.76229220000096,175.76234439999098,173.76229220000096,174.7623357999837,174.74567380000371,175.74566930002766,"[0, 0, 0]",1,173.76229220000096,175.76234439999098,,,,,,,,,,,,,,,,,,,9,F,1,12,R,MS MH,49,49,2022_Dec_11_1413,2020.2.10,distractmap1,60.00452434065863,"['Left Face', 'Abdomen', 'Left Face', 'Abdomen']",
5,"[0, 0]",1.0,0,21,21,21,,,None,None,"[0, 0, 0]",175.77902010001708,177.77901699999347,175.77902010001708,176.77905509999255,176.76234170002863,177.76236210000934,"[0, 0, 0]",1,175.77902010001708,177.77901699999347,,,,,,,,,,,,,,,,,,,9,F,1,12,R,MS MH,49,49,2022_Dec_11_1413,2020.2.10,distractmap1,60.00452434065863,"['Left Face', 'Abdomen', 'Left Face', 'Abdomen']",
1,"[-0.2, 0.2]",0.0,0,22,22,22,,,None,None,"[0, 0, 0]",177.79556990001583,179.7957096999744,177.79556990001583,178.7957029999816,178.77902539999923,179.77902720001293,"[0, 0, 0]",1,177.79556990001583,179.7957096999744,,,,,,,,,,,,,,,,,,,9,F,1,12,R,MS MH,49,49,2022_Dec_11_1413,2020.2.10,distractmap1,60.00452434065863,"['Left Face', 'Abdomen', 'Left Face', 'Abdomen']",
7,"[-0.2, -0.2]",0.0,0,23,23,23,,,None,None,"[0, 0, 0]",179.8123582000262,181.81238120002672,179.8123582000262,180.8123695999966,180.79572980001103,181.795727299992,"[0, 0, 0]",1,179.8123582000262,181.81238120002672,,,,,,,,,,,,,,,,,,,9,F,1,12,R,MS MH,49,49,2022_Dec_11_1413,2020.2.10,distractmap1,60.00452434065863,"['Left Face', 'Abdomen', 'Left Face', 'Abdomen']",
9,"[0.2, -0.2]",0.0,0,24,24,24,,,None,None,"[0, 0, 0]",181.82906620000722,183.82908210001187,181.82906620000722,182.82909459999064,182.81240549997892,183.81241950002732,"[0, 0, 0]",1,181.82906620000722,183.82908210001187,,,,,,,,,,,,,,,,,,,9,F,1,12,R,MS MH,49,49,2022_Dec_11_1413,2020.2.10,distractmap1,60.00452434065863,"['Left Face', 'Abdomen', 'Left Face', 'Abdomen']",
3,"[0.2, 0.2]",0.0,0,25,25,25,,,None,None,"[0, 0, 0]",183.84574640000938,185.84576260001631,183.84574640000938,184.84576840000227,184.82909439998912,185.82911809999496,"[0, 0, 0]",1,183.84574640000938,185.84576260001631,,,,,,,,,,,,,,,,,,,9,F,1,12,R,MS MH,49,49,2022_Dec_11_1413,2020.2.10,distractmap1,60.00452434065863,"['Left Face', 'Abdomen', 'Left Face', 'Abdomen']",
9,"[0.2, -0.2]",1.0,0,26,26,26,,,None,None,"[0, 0, 0]",185.86244980001356,187.86244639998768,185.86244980001356,186.8624505000189,186.84577489999356,187.84575500001665,"[0, 0, 0]",0,185.86244980001356,187.86244639998768,,,,,,,,,,,,,,,,,,,9,F,1,12,R,MS MH,49,49,2022_Dec_11_1413,2020.2.10,distractmap1,60.00452434065863,"['Left Face', 'Abdomen', 'Left Face', 'Abdomen']",
6,"[0.2, 0]",0.0,0,27,27,27,,,None,None,"[0, 0, 0]",187.87915090000024,189.87915470002918,187.87915090000024,188.87913170002867,188.8624898000271,189.8624968000222,"[0, 0, 0]",1,187.87915090000024,189.87915470002918,,,,,,,,,,,,,,,,,,,9,F,1,12,R,MS MH,49,49,2022_Dec_11_1413,2020.2.10,distractmap1,60.00452434065863,"['Left Face', 'Abdomen', 'Left Face', 'Abdomen']",
2,"[0, 0.2]",0.0,0,28,28,28,,,None,None,"[0, 0, 0]",189.89567990001524,191.89582640002482,189.89567990001524,190.89581910002744,190.87919690000126,191.87916820001556,"[0, 0, 0]",1,189.89567990001524,191.89582640002482,,,,,,,,,,,,,,,,,,,9,F,1,12,R,MS MH,49,49,2022_Dec_11_1413,2020.2.10,distractmap1,60.00452434065863,"['Left Face', 'Abdomen', 'Left Face', 'Abdomen']",
5,"[0, 0]",0.0,0,29,29,29,,,None,None,"[0, 0, 0]",191.91249529999914,193.91251499997452,191.91249529999914,192.91250919998856,192.89586669998243,193.89584549999563,"[0, 0, 0]",1,191.91249529999914,193.91251499997452,,,,,,,,,,,,,,,,,,,9,F,1,12,R,MS MH,49,49,2022_Dec_11_1413,2020.2.10,distractmap1,60.00452434065863,"['Left Face', 'Abdomen', 'Left Face', 'Abdomen']",
,,,,,,,,,,,,,,,,,,,,,,193.9458601999795,None,space,193.9458601999795,None,,,,,,,,,,,,,,9,F,1,12,R,MS MH,49,49,2022_Dec_11_1413,2020.2.10,distractmap1,60.00452434065863,"['Left Face', 'Abdomen', 'Left Face', 'Abdomen']",
3,"[0.2, 0.2]",None,0,0,0,0,488.748987799976,None,None,None,"[0, 0, 0]",491.31532150000567,None,491.31532150000567,492.31530369998654,492.2986434000195,493.29869790002704,"[0, 0, 0]",1,491.31532150000567,None,,,,,,240.67992299998878,240.67992299998878,None,space,125.82088489999296,240.67992299998878,None,456.19829209998716,None,,,,,9,F,1,12,R,MS MH,49,49,2022_Dec_11_1413,2020.2.10,distractmap1,60.00452434065863,"['Left Face', 'Abdomen', 'Left Face', 'Abdomen']",
3,"[0.2, 0.2]",None,0,1,1,1,,,None,None,"[0, 0, 0]",493.31532880000304,495.3153455000138,493.31532880000304,494.31534329999704,494.2986769999843,495.2986713999999,"[0, 0, 0]",1,493.31532880000304,495.3153455000138,,,,,,,,,,,,,,,,,,,9,F,1,12,R,MS MH,49,49,2022_Dec_11_1413,2020.2.10,distractmap1,60.00452434065863,"['Left Face', 'Abdomen', 'Left Face', 'Abdomen']",
5,"[0, 0]",0.0,0,2,2,2,,,None,None,"[0, 0, 0]",495.3319980999804,497.3320339000202,495.3319980999804,496.3320148999919,496.3153437000001,497.31538310000906,"[0, 0, 0]",1,495.3319980999804,497.3320339000202,,,,,,,,,,,,,,,,,,,9,F,1,12,R,MS MH,49,49,2022_Dec_11_1413,2020.2.10,distractmap1,60.00452434065863,"['Left Face', 'Abdomen', 'Left Face', 'Abdomen']",
1,"[-0.2, 0.2]",0.0,0,3,3,3,,,None,None,"[0, 0, 0]",497.3486869999906,499.34869459999027,497.3486869999906,498.3487054000143,498.3320381999947,499.3320368999848,"[0, 0, 0]",1,497.3486869999906,499.34869459999027,,,,,,,,,,,,,,,,,,,9,F,1,12,R,MS MH,49,49,2022_Dec_11_1413,2020.2.10,distractmap1,60.00452434065863,"['Left Face', 'Abdomen', 'Left Face', 'Abdomen']",
5,"[0, 0]",1.0,0,4,4,4,,,None,None,"[0, 0, 0]",499.3989992000279,None,499.3989992000279,500.39871759997914,500.38207990000956,None,"[0, 0, 0]",0,499.3989992000279,None,,,,,,,,,,,,,,,,,,,9,F,1,12,R,MS MH,49,49,2022_Dec_11_1413,2020.2.10,distractmap1,60.00452434065863,"['Left Face', 'Abdomen', 'Left Face', 'Abdomen']",
8,"[0, -0.2]",0.0,0,5,5,5,,,None,None,"[0, 0, 0]",501.3819866999984,503.38208790001227,501.3819866999984,502.38206410000566,502.3654155000113,503.36540220002644,"[0, 0, 0]",1,501.3819866999984,503.38208790001227,,,,,,,,,,,,,,,,,,,9,F,1,12,R,MS MH,49,49,2022_Dec_11_1413,2020.2.10,distractmap1,60.00452434065863,"['Left Face', 'Abdomen', 'Left Face', 'Abdomen']",
5,"[0, 0]",1.0,0,6,6,6,,,None,None,"[0, 0, 0]",503.39874209999107,505.3987318999716,503.39874209999107,504.3987631999771,504.38208349997876,505.3820956000127,"[0, 0, 0]",1,503.39874209999107,505.3987318999716,,,,,,,,,,,,,,,,,,,9,F,1,12,R,MS MH,49,49,2022_Dec_11_1413,2020.2.10,distractmap1,60.00452434065863,"['Left Face', 'Abdomen', 'Left Face', 'Abdomen']",
7,"[-0.2, -0.2]",0.0,0,7,7,7,,,None,None,"[0, 0, 0]",505.41540410002926,507.41545919998316,505.41540410002926,506.41545219998807,506.39876000001095,507.39878380001755,"[0, 0, 0]",1,505.41540410002926,507.41545919998316,,,,,,,,,,,,,,,,,,,9,F,1,12,R,MS MH,49,49,2022_Dec_11_1413,2020.2.10,distractmap1,60.00452434065863,"['Left Face', 'Abdomen', 'Left Face', 'Abdomen']",
5,"[0, 0]",1.0,0,8,8,8,,,None,None,"[0, 0, 0]",507.43211779999547,509.43213959998684,507.43211779999547,508.43212740001036,508.4154790000175,509.41548119997606,"[0, 0, 0]",0,507.43211779999547,509.43213959998684,,,,,,,,,,,,,,,,,,,9,F,1,12,R,MS MH,49,49,2022_Dec_11_1413,2020.2.10,distractmap1,60.00452434065863,"['Left Face', 'Abdomen', 'Left Face', 'Abdomen']",
7,"[-0.2, -0.2]",1.0,0,9,9,9,,,None,None,"[0, 0, 0]",509.4488107999787,511.4488127999939,509.4488107999787,510.4488079000148,510.4321576000075,511.43217350001214,"[0, 0, 0]",1,509.4488107999787,511.4488127999939,,,,,,,,,,,,,,,,,,,9,F,1,12,R,MS MH,49,49,2022_Dec_11_1413,2020.2.10,distractmap1,60.00452434065863,"['Left Face', 'Abdomen', 'Left Face', 'Abdomen']",
,,,,,,,,,,,,,,,,,,,,,,511.49882839998463,None,,,,,,,,,,,,,,,,,9,F,1,12,R,MS MH,49,49,2022_Dec_11_1413,2020.2.10,distractmap1,60.00452434065863,"['Left Face', 'Abdomen', 'Left Face', 'Abdomen']",
,,,,,,,,,,,,,,,,,,,,,,,,,,,,,,,,,,,,51.17283950617284,500.4796028099954,,,9,F,1,12,R,MS MH,49,49,2022_Dec_11_1413,2020.2.10,distractmap1,60.00452434065863,"['Left Face', 'Abdomen', 'Left Face', 'Abdomen']",
6,"[0.2, 0]",None,0,0,0,0,529.5323972000042,None,None,None,"[0, 0, 0]",531.5656834000256,None,531.5656834000256,532.565678599989,532.5490208999836,533.5490345999715,"[0, 0, 0]",1,531.5656834000256,None,,,,,,,,,,,,,,,,,0.01274379005189985,5.008373190066777,9,F,1,12,R,MS MH,49,49,2022_Dec_11_1413,2020.2.10,distractmap1,60.00452434065863,"['Left Face', 'Abdomen', 'Left Face', 'Abdomen']",
1,"[-0.2, 0.2]",None,0,1,1,1,,,None,None,"[0, 0, 0]",533.5656869999948,535.5657253999962,533.5656869999948,534.565707599977,534.5490414000233,535.549059699988,"[0, 0, 0]",1,533.5656869999948,535.5657253999962,,,,,,,,,,,,,,,,,,,9,F,1,12,R,MS MH,49,49,2022_Dec_11_1413,2020.2.10,distractmap1,60.00452434065863,"['Left Face', 'Abdomen', 'Left Face', 'Abdomen']",
6,"[0.2, 0]",1.0,0,2,2,2,,,None,None,"[0, 0, 0]",535.5823797999765,537.5823937000241,535.5823797999765,536.58238789998,536.5657291000243,537.5657397999894,"[0, 0, 0]",1,535.5823797999765,537.5823937000241,,,,,,,,,,,,,,,,,,,9,F,1,12,R,MS MH,49,49,2022_Dec_11_1413,2020.2.10,distractmap1,60.00452434065863,"['Left Face', 'Abdomen', 'Left Face', 'Abdomen']",
4,"[-0.2, 0]",0.0,0,3,3,3,,,None,None,"[0, 0, 0]",537.5990774999955,539.5990939000039,537.5990774999955,538.5990706000011,538.5824099999736,539.5824743999983,"[0, 0, 0]",1,537.5990774999955,539.5990939000039,,,,,,,,,,,,,,,,,,,9,F,1,12,R,MS MH,49,49,2022_Dec_11_1413,2020.2.10,distractmap1,60.00452434065863,"['Left Face', 'Abdomen', 'Left Face', 'Abdomen']",
1,"[-0.2, 0.2]",0.0,0,4,4,4,,,None,None,"[0, 0, 0]",539.6827076000045,None,539.6827076000045,540.6824455999886,540.6657484999741,None,"[0, 0, 0]",1,539.6827076000045,None,,,,,,,,,,,,,,,,,,,9,F,1,12,R,MS MH,49,49,2022_Dec_11_1413,2020.2.10,distractmap1,60.00452434065863,"['Left Face', 'Abdomen', 'Left Face', 'Abdomen']",
8,"[0, -0.2]",0.0,0,5,5,5,,,None,None,"[0, 0, 0]",541.6324387000059,543.6324645000277,541.6324387000059,542.6324474000139,542.6157220000168,543.6157897000085,"[0, 0, 0]",1,541.6324387000059,543.6324645000277,,,,,,,,,,,,,,,,,,,9,F,1,12,R,MS MH,49,49,2022_Dec_11_1413,2020.2.10,distractmap1,60.00452434065863,"['Left Face', 'Abdomen', 'Left Face', 'Abdomen']",
1,"[-0.2, 0.2]",1.0,0,6,6,6,,,None,None,"[0, 0, 0]",543.6490865999949,545.6491597000277,543.6490865999949,544.6491369000287,544.6324799000286,545.6324967999826,"[0, 0, 0]",1,543.6490865999949,545.6491597000277,,,,,,,,,,,,,,,,,,,9,F,1,12,R,MS MH,49,49,2022_Dec_11_1413,2020.2.10,distractmap1,60.00452434065863,"['Left Face', 'Abdomen', 'Left Face', 'Abdomen']",
8,"[0, -0.2]",1.0,0,7,7,7,,,None,None,"[0, 0, 0]",545.6658090000274,547.6657882999862,545.6658090000274,546.6658221000107,546.6491568000056,547.6491319999914,"[0, 0, 0]",0,545.6658090000274,547.6657882999862,,,,,,,,,,,,,,,,,,,9,F,1,12,R,MS MH,49,49,2022_Dec_11_1413,2020.2.10,distractmap1,60.00452434065863,"['Left Face', 'Abdomen', 'Left Face', 'Abdomen']",
1,"[-0.2, 0.2]",1.0,0,8,8,8,,,None,None,"[0, 0, 0]",547.6825257000164,549.6825144999893,547.6825257000164,548.6825127999764,548.6656926000142,549.6658668000018,"[0, 0, 0]",1,547.6825257000164,549.6825144999893,,,,,,,,,,,,,,,,,,,9,F,1,12,R,MS MH,49,49,2022_Dec_11_1413,2020.2.10,distractmap1,60.00452434065863,"['Left Face', 'Abdomen', 'Left Face', 'Abdomen']",
6,"[0.2, 0]",0.0,0,9,9,9,,,None,None,"[0, 0, 0]",549.6991921999725,551.6991973000113,549.6991921999725,550.6992017999873,550.6825394000043,551.6825413000188,"[0, 0, 0]",1,549.6991921999725,551.6991973000113,,,,,,,,,,,,,,,,,,,9,F,1,12,R,MS MH,49,49,2022_Dec_11_1413,2020.2.10,distractmap1,60.00452434065863,"['Left Face', 'Abdomen', 'Left Face', 'Abdomen']",
,,,,,,,,,,,,,,,,,,,,,,551.7325468999916,None,,,,,,,,,,,,,,,,,9,F,1,12,R,MS MH,49,49,2022_Dec_11_1413,2020.2.10,distractmap1,60.00452434065863,"['Left Face', 'Abdomen', 'Left Face', 'Abdomen']",
,,,,,,,,,,,,,,,,,,,,,,,,,,,,,,,,,,,,50.802469135802475,541.2301587100374,,,9,F,1,12,R,MS MH,49,49,2022_Dec_11_1413,2020.2.10,distractmap1,60.00452434065863,"['Left Face', 'Abdomen', 'Left Face', 'Abdomen']",
7,"[-0.2, -0.2]",None,0,0,0,0,568.9996606999775,None,None,None,"[0, 0, 0]",571.7994156000204,None,571.7994156000204,572.799301800027,572.7827320999932,573.7826658000122,"[0, 0, 0]",1,571.7994156000204,None,,,,,,,,,,,,,,,,,0.012544389988761395,5.008258290006779,9,F,1,12,R,MS MH,49,49,2022_Dec_11_1413,2020.2.10,distractmap1,60.00452434065863,"['Left Face', 'Abdomen', 'Left Face', 'Abdomen']",
7,"[-0.2, -0.2]",None,0,1,1,1,,,None,None,"[0, 0, 0]",573.7993927000207,575.7993916000123,573.7993927000207,574.799409899977,574.7827520000283,575.7827537999838,"[0, 0, 0]",1,573.7993927000207,575.7993916000123,,,,,,,,,,,,,,,,,,,9,F,1,12,R,MS MH,49,49,2022_Dec_11_1413,2020.2.10,distractmap1,60.00452434065863,"['Left Face', 'Abdomen', 'Left Face', 'Abdomen']",
7,"[-0.2, -0.2]",1.0,0,2,2,2,,,None,None,"[0, 0, 0]",575.8160595999798,577.8160973999766,575.8160595999798,576.8160983999842,576.7994506999967,577.799445600016,"[0, 0, 0]",1,575.8160595999798,577.8160973999766,,,,,,,,,,,,,,,,,,,9,F,1,12,R,MS MH,49,49,2022_Dec_11_1413,2020.2.10,distractmap1,60.00452434065863,"['Left Face', 'Abdomen', 'Left Face', 'Abdomen']",
5,"[0, 0]",0.0,0,3,3,3,,,None,None,"[0, 0, 0]",577.8327809000039,579.8327985000215,577.8327809000039,578.8328029999975,578.8161214999855,579.8161175000132,"[0, 0, 0]",1,577.8327809000039,579.8327985000215,,,,,,,,,,,,,,,,,,,9,F,1,12,R,MS MH,49,49,2022_Dec_11_1413,2020.2.10,distractmap1,60.00452434065863,"['Left Face', 'Abdomen', 'Left Face', 'Abdomen']",
1,"[-0.2, 0.2]",0.0,0,4,4,4,,,None,None,"[0, 0, 0]",579.8830892000115,None,579.8830892000115,580.8827955999877,580.8661337000085,None,"[0, 0, 0]",1,579.8830892000115,None,,,,,,,,,,,,,,,,,,,9,F,1,12,R,MS MH,49,49,2022_Dec_11_1413,2020.2.10,distractmap1,60.00452434065863,"['Left Face', 'Abdomen', 'Left Face', 'Abdomen']",
6,"[0.2, 0]",0.0,0,5,5,5,,,None,None,"[0, 0, 0]",581.8661527999793,583.8661775999935,581.8661527999793,582.8661341000115,582.8495097000268,583.8495284999954,"[0, 0, 0]",1,581.8661527999793,583.8661775999935,,,,,,,,,,,,,,,,,,,9,F,1,12,R,MS MH,49,49,2022_Dec_11_1413,2020.2.10,distractmap1,60.00452434065863,"['Left Face', 'Abdomen', 'Left Face', 'Abdomen']",
1,"[-0.2, 0.2]",1.0,0,6,6,6,,,None,None,"[0, 0, 0]",583.8828363000066,585.8828396999743,583.8828363000066,584.8828543000272,584.8661649000132,585.8661780999973,"[0, 0, 0]",1,583.8828363000066,585.8828396999743,,,,,,,,,,,,,,,,,,,9,F,1,12,R,MS MH,49,49,2022_Dec_11_1413,2020.2.10,distractmap1,60.00452434065863,"['Left Face', 'Abdomen', 'Left Face', 'Abdomen']",
7,"[-0.2, -0.2]",0.0,0,7,7,7,,,None,None,"[0, 0, 0]",585.8995235000039,587.8995404000161,585.8995235000039,586.8995466000051,586.8828673000098,587.8828719999874,"[0, 0, 0]",1,585.8995235000039,587.8995404000161,,,,,,,,,,,,,,,,,,,9,F,1,12,R,MS MH,49,49,2022_Dec_11_1413,2020.2.10,distractmap1,60.00452434065863,"['Left Face', 'Abdomen', 'Left Face', 'Abdomen']",
6,"[0.2, 0]",0.0,0,8,8,8,,,None,None,"[0, 0, 0]",587.9162138000247,589.9162163999863,587.9162138000247,588.9162087999866,588.8995568000246,589.899564900028,"[0, 0, 0]",0,587.9162138000247,589.9162163999863,,,,,,,,,,,,,,,,,,,9,F,1,12,R,MS MH,49,49,2022_Dec_11_1413,2020.2.10,distractmap1,60.00452434065863,"['Left Face', 'Abdomen', 'Left Face', 'Abdomen']",
7,"[-0.2, -0.2]",1.0,0,9,9,9,,,None,None,"[0, 0, 0]",589.932882299996,591.9329065000056,589.932882299996,590.932882699999,590.9162496000063,591.9162430000142,"[0, 0, 0]",1,589.932882299996,591.9329065000056,,,,,,,,,,,,,,,,,,,9,F,1,12,R,MS MH,49,49,2022_Dec_11_1413,2020.2.10,distractmap1,60.00452434065863,"['Left Face', 'Abdomen', 'Left Face', 'Abdomen']",
,,,,,,,,,,,,,,,,,,,,,,591.9495771999937,None,,,,,,,,,,,,,,,,,9,F,1,12,R,MS MH,49,49,2022_Dec_11_1413,2020.2.10,distractmap1,60.00452434065863,"['Left Face', 'Abdomen', 'Left Face', 'Abdomen']",
,,,,,,,,,,,,,,,,,,,,,,,,,,,,,,,,,,,,25.123456790123456,579.4473745099967,,,9,F,1,12,R,MS MH,49,49,2022_Dec_11_1413,2020.2.10,distractmap1,60.00452434065863,"['Left Face', 'Abdomen', 'Left Face', 'Abdomen']",
,,,,,,,626.9665785999969,None,,,,,,,,,,,,,,,,,,,,,,,,,,606.9663754000212,None,37.098765432098766,615.6104121099343,0.012373690027743578,5.0079705900279805,9,F,1,12,R,MS MH,49,49,2022_Dec_11_1413,2020.2.10,distractmap1,60.00452434065863,"['Left Face', 'Abdomen', 'Left Face', 'Abdomen']",
,,,,,,,661.9835347000044,None,,,,,,,,,,,,,,,,,,,,,,,,,,641.9833762000198,None,37.160493827160494,645.0459353099577,0.01636349008185789,5.015753490035422,9,F,1,12,R,MS MH,49,49,2022_Dec_11_1413,2020.2.10,distractmap1,60.00452434065863,"['Left Face', 'Abdomen', 'Left Face', 'Abdomen']",
,,,,,,,697.0006008999771,None,,,,,,,,,,,,,,,,,,,,,,,,,,677.0003809999907,None,38.88888888888889,681.3296471099602,0.014413290075026453,5.011865690059494,9,F,1,12,R,MS MH,49,49,2022_Dec_11_1413,2020.2.10,distractmap1,60.00452434065863,"['Left Face', 'Abdomen', 'Left Face', 'Abdomen']",
4,"[-0.2, 0]",None,0,0,0,0,710.0340233999887,None,None,None,"[0, 0, 0]",717.0507589000044,None,717.0507589000044,718.0507760000182,718.0340958000161,719.034136799979,"[0, 0, 0]",1,717.0507589000044,None,,,,,,,,,,,,,,,,,0.014418290054891258,5.01174449006794,9,F,1,12,R,MS MH,49,49,2022_Dec_11_1413,2020.2.10,distractmap1,60.00452434065863,"['Left Face', 'Abdomen', 'Left Face', 'Abdomen']",
5,"[0, 0]",None,0,1,1,1,,,None,None,"[0, 0, 0]",719.0507966000005,721.0507795999874,719.0507966000005,720.0508387999726,720.0341569000157,721.0341321000014,"[0, 0, 0]",1,719.0507966000005,721.0507795999874,,,,,,,,,,,,,,,,,,,9,F,1,12,R,MS MH,49,49,2022_Dec_11_1413,2020.2.10,distractmap1,60.00452434065863,"['Left Face', 'Abdomen', 'Left Face', 'Abdomen']",
6,"[0.2, 0]",0.0,0,2,2,2,,,None,None,"[0, 0, 0]",721.067476199998,723.0675145999994,721.067476199998,722.0674642000231,722.0508005999727,723.0508708999841,"[0, 0, 0]",1,721.067476199998,723.0675145999994,,,,,,,,,,,,,,,,,,,9,F,1,12,R,MS MH,49,49,2022_Dec_11_1413,2020.2.10,distractmap1,60.00452434065863,"['Left Face', 'Abdomen', 'Left Face', 'Abdomen']",
1,"[-0.2, 0.2]",0.0,0,3,3,3,,,None,None,"[0, 0, 0]",723.0841855999897,725.0841743000201,723.0841855999897,724.0841658000136,724.0674971999833,725.0675038999761,"[0, 0, 0]",1,723.0841855999897,725.0841743000201,,,,,,,,,,,,,,,,,,,9,F,1,12,R,MS MH,49,49,2022_Dec_11_1413,2020.2.10,distractmap1,60.00452434065863,"['Left Face', 'Abdomen', 'Left Face', 'Abdomen']",
6,"[0.2, 0]",1.0,0,4,4,4,,,None,None,"[0, 0, 0]",725.1008172999718,727.1008547000238,725.1008172999718,726.1008077000151,726.0841859999928,727.084194199997,"[0, 0, 0]",1,725.1008172999718,727.1008547000238,,,,,,,,,,,,,,,,,,,9,F,1,12,R,MS MH,49,49,2022_Dec_11_1413,2020.2.10,distractmap1,60.00452434065863,"['Left Face', 'Abdomen', 'Left Face', 'Abdomen']",
1,"[-0.2, 0.2]",1.0,0,5,5,5,,,None,None,"[0, 0, 0]",727.1175230999943,729.1175453999895,727.1175230999943,728.1175417000195,728.100860800012,729.1008637999767,"[0, 0, 0]",0,727.1175230999943,729.1175453999895,,,,,,,,,,,,,,,,,,,9,F,1,12,R,MS MH,49,49,2022_Dec_11_1413,2020.2.10,distractmap1,60.00452434065863,"['Left Face', 'Abdomen', 'Left Face', 'Abdomen']",
2,"[0, 0.2]",0.0,0,6,6,6,,,None,None,"[0, 0, 0]",729.1341939999838,731.1341796999914,729.1341939999838,730.1342098999885,730.1169880999951,731.1176189000253,"[0, 0, 0]",1,729.1341939999838,731.1341796999914,,,,,,,,,,,,,,,,,,,9,F,1,12,R,MS MH,49,49,2022_Dec_11_1413,2020.2.10,distractmap1,60.00452434065863,"['Left Face', 'Abdomen', 'Left Face', 'Abdomen']",
3,"[0.2, 0.2]",0.0,0,7,7,7,,,None,None,"[0, 0, 0]",731.150859299989,733.1509028000291,731.150859299989,732.1508997000055,732.1342172999866,733.1342408999917,"[0, 0, 0]",1,731.150859299989,733.1509028000291,,,,,,,,,,,,,,,,,,,9,F,1,12,R,MS MH,49,49,2022_Dec_11_1413,2020.2.10,distractmap1,60.00452434065863,"['Left Face', 'Abdomen', 'Left Face', 'Abdomen']",
6,"[0.2, 0]",0.0,0,8,8,8,,,None,None,"[0, 0, 0]",733.1675812000176,735.167617900006,733.1675812000176,734.1675758999772,734.1509313000133,735.1509258999722,"[0, 0, 0]",1,733.1675812000176,735.167617900006,,,,,,,,,,,,,,,,,,,9,F,1,12,R,MS MH,49,49,2022_Dec_11_1413,2020.2.10,distractmap1,60.00452434065863,"['Left Face', 'Abdomen', 'Left Face', 'Abdomen']",
3,"[0.2, 0.2]",1.0,0,9,9,9,,,None,None,"[0, 0, 0]",735.1842677000095,737.1842614000197,735.1842677000095,736.1847022000002,736.1676102000056,737.1676040000166,"[0, 0, 0]",1,735.1842677000095,737.1842614000197,,,,,,,,,,,,,,,,,,,9,F,1,12,R,MS MH,49,49,2022_Dec_11_1413,2020.2.10,distractmap1,60.00452434065863,"['Left Face', 'Abdomen', 'Left Face', 'Abdomen']",
,,,,,,,,,,,,,,,,,,,,,,737.2009321000078,None,,,,,,,,,,,,,,,,,9,F,1,12,R,MS MH,49,49,2022_Dec_11_1413,2020.2.10,distractmap1,60.00452434065863,"['Left Face', 'Abdomen', 'Left Face', 'Abdomen']",
2,"[0, 0.2]",None,0,0,0,0,747.2343598000007,None,None,None,"[0, 0, 0]",752.2510894999723,None,752.2510894999723,753.2510983999819,753.2344307000167,754.234481499996,"[0, 0, 0]",1,752.2510894999723,None,,,,,,,,,,,,,,,,,,,9,F,1,12,R,MS MH,49,49,2022_Dec_11_1413,2020.2.10,distractmap1,60.00452434065863,"['Left Face', 'Abdomen', 'Left Face', 'Abdomen']",
5,"[0, 0]",None,0,1,1,1,,,None,None,"[0, 0, 0]",754.2511440999806,756.2511354999733,754.2511440999806,755.2511065999861,755.2344436999992,756.2344545000233,"[0, 0, 0]",1,754.2511440999806,756.2511354999733,,,,,,,,,,,,,,,,,,,9,F,1,12,R,MS MH,49,49,2022_Dec_11_1413,2020.2.10,distractmap1,60.00452434065863,"['Left Face', 'Abdomen', 'Left Face', 'Abdomen']",
6,"[0.2, 0]",0.0,0,2,2,2,,,None,None,"[0, 0, 0]",756.2677910000202,758.2677914000233,756.2677910000202,757.267794799991,757.2511401000083,758.2511402000091,"[0, 0, 0]",1,756.2677910000202,758.2677914000233,,,,,,,,,,,,,,,,,,,9,F,1,12,R,MS MH,49,49,2022_Dec_11_1413,2020.2.10,distractmap1,60.00452434065863,"['Left Face', 'Abdomen', 'Left Face', 'Abdomen']",
1,"[-0.2, 0.2]",0.0,0,3,3,3,,,None,None,"[0, 0, 0]",758.2844670999912,760.2844855000149,758.2844670999912,759.2845073000062,759.2677993000252,760.2678323999862,"[0, 0, 0]",1,758.2844670999912,760.2844855000149,,,,,,,,,,,,,,,,,,,9,F,1,12,R,MS MH,49,49,2022_Dec_11_1413,2020.2.10,distractmap1,60.00452434065863,"['Left Face', 'Abdomen', 'Left Face', 'Abdomen']",
6,"[0.2, 0]",1.0,0,4,4,4,,,None,None,"[0, 0, 0]",760.3011466999887,762.3011723000091,760.3011466999887,761.3011851999909,761.2845237000147,762.2845179000287,"[0, 0, 0]",1,760.3011466999887,762.3011723000091,,,,,,,,,,,,,,,,,,,9,F,1,12,R,MS MH,49,49,2022_Dec_11_1413,2020.2.10,distractmap1,60.00452434065863,"['Left Face', 'Abdomen', 'Left Face', 'Abdomen']",
6,"[0.2, 0]",0.0,0,5,5,5,,,None,None,"[0, 0, 0]",762.3178617000231,764.3178699000273,762.3178617000231,763.3178559999797,763.3011805000133,764.3012021000031,"[0, 0, 0]",0,762.3178617000231,764.3178699000273,,,,,,,,,,,,,,,,,,,9,F,1,12,R,MS MH,49,49,2022_Dec_11_1413,2020.2.10,distractmap1,60.00452434065863,"['Left Face', 'Abdomen', 'Left Face', 'Abdomen']",
9,"[0.2, -0.2]",0.0,0,6,6,6,,,None,None,"[0, 0, 0]",764.3345350999734,766.33455889998,764.3345350999734,765.3345665999805,765.3178823000053,766.3178527000127,"[0, 0, 0]",1,764.3345350999734,766.33455889998,,,,,,,,,,,,,,,,,,,9,F,1,12,R,MS MH,49,49,2022_Dec_11_1413,2020.2.10,distractmap1,60.00452434065863,"['Left Face', 'Abdomen', 'Left Face', 'Abdomen']",
6,"[0.2, 0]",1.0,0,7,7,7,,,None,None,"[0, 0, 0]",766.3512252999935,768.3512109000003,766.3512252999935,767.3512186000007,767.3345900999848,768.3345829999889,"[0, 0, 0]",1,766.3512252999935,768.3512109000003,,,,,,,,,,,,,,,,,,,9,F,1,12,R,MS MH,49,49,2022_Dec_11_1413,2020.2.10,distractmap1,60.00452434065863,"['Left Face', 'Abdomen', 'Left Face', 'Abdomen']",
3,"[0.2, 0.2]",0.0,0,8,8,8,,,None,None,"[0, 0, 0]",768.3678940000245,770.3679006000166,768.3678940000245,769.3679077000124,769.3512139000231,770.3512265000027,"[0, 0, 0]",1,768.3678940000245,770.3679006000166,,,,,,,,,,,,,,,,,,,9,F,1,12,R,MS MH,49,49,2022_Dec_11_1413,2020.2.10,distractmap1,60.00452434065863,"['Left Face', 'Abdomen', 'Left Face', 'Abdomen']",
9,"[0.2, -0.2]",0.0,0,9,9,9,,,None,None,"[0, 0, 0]",770.3845933999983,772.3846146999858,770.3845933999983,771.3845066999784,771.3679302000091,772.367935199989,"[0, 0, 0]",0,770.3845933999983,772.3846146999858,,,,,,,,,,,,,,,,,,,9,F,1,12,R,MS MH,49,49,2022_Dec_11_1413,2020.2.10,distractmap1,60.00452434065863,"['Left Face', 'Abdomen', 'Left Face', 'Abdomen']",
,,,,,,,,,,,,,,,,,,,,,,772.4179460000014,None,,,,,,,,,,,,,,,,,9,F,1,12,R,MS MH,49,49,2022_Dec_11_1413,2020.2.10,distractmap1,60.00452434065863,"['Left Face', 'Abdomen', 'Left Face', 'Abdomen']",
3,"[0.2, 0.2]",None,0,0,0,0,780.4513572999858,None,None,None,"[0, 0, 0]",787.468091399991,None,787.468091399991,788.4680820999783,788.4514277999988,789.4514371000114,"[0, 0, 0]",1,787.468091399991,None,,,,,,,,,,,,,,,,,,,9,F,1,12,R,MS MH,49,49,2022_Dec_11_1413,2020.2.10,distractmap1,60.00452434065863,"['Left Face', 'Abdomen', 'Left Face', 'Abdomen']",
9,"[0.2, -0.2]",None,0,1,1,1,,,None,None,"[0, 0, 0]",789.4680945000146,791.4681622000062,789.4680945000146,790.4681560000172,790.4514222000143,791.4514922000235,"[0, 0, 0]",1,789.4680945000146,791.4681622000062,,,,,,,,,,,,,,,,,,,9,F,1,12,R,MS MH,49,49,2022_Dec_11_1413,2020.2.10,distractmap1,60.00452434065863,"['Left Face', 'Abdomen', 'Left Face', 'Abdomen']",
3,"[0.2, 0.2]",1.0,0,2,2,2,,,None,None,"[0, 0, 0]",791.4848424000083,793.4848243999877,791.4848424000083,792.4847666000132,792.4681275999756,793.4681440999848,"[0, 0, 0]",1,791.4848424000083,793.4848243999877,,,,,,,,,,,,,,,,,,,9,F,1,12,R,MS MH,49,49,2022_Dec_11_1413,2020.2.10,distractmap1,60.00452434065863,"['Left Face', 'Abdomen', 'Left Face', 'Abdomen']",
7,"[-0.2, -0.2]",0.0,0,3,3,3,,,None,None,"[0, 0, 0]",793.5014852000168,795.501499200007,793.5014852000168,794.5015046999906,794.484802299994,795.4848427000106,"[0, 0, 0]",1,793.5014852000168,795.501499200007,,,,,,,,,,,,,,,,,,,9,F,1,12,R,MS MH,49,49,2022_Dec_11_1413,2020.2.10,distractmap1,60.00452434065863,"['Left Face', 'Abdomen', 'Left Face', 'Abdomen']",
8,"[0, -0.2]",0.0,0,4,4,4,,,None,None,"[0, 0, 0]",795.5181468999945,797.5181753999786,795.5181468999945,796.5181676999782,796.5014088000171,797.5015129999956,"[0, 0, 0]",1,795.5181468999945,797.5181753999786,,,,,,,,,,,,,,,,,,,9,F,1,12,R,MS MH,49,49,2022_Dec_11_1413,2020.2.10,distractmap1,60.00452434065863,"['Left Face', 'Abdomen', 'Left Face', 'Abdomen']",
4,"[-0.2, 0]",0.0,0,5,5,5,,,None,None,"[0, 0, 0]",797.534834399994,799.5348538000253,797.534834399994,798.5348538000253,798.518199299986,799.5181830999791,"[0, 0, 0]",1,797.534834399994,799.5348538000253,,,,,,,,,,,,,,,,,,,9,F,1,12,R,MS MH,49,49,2022_Dec_11_1413,2020.2.10,distractmap1,60.00452434065863,"['Left Face', 'Abdomen', 'Left Face', 'Abdomen']",
4,"[-0.2, 0]",0.0,0,6,6,6,,,None,None,"[0, 0, 0]",799.5515319000115,801.5514689999982,799.5515319000115,800.551524200011,800.5348709999816,801.5348754000152,"[0, 0, 0]",1,799.5515319000115,801.5514689999982,,,,,,,,,,,,,,,,,,,9,F,1,12,R,MS MH,49,49,2022_Dec_11_1413,2020.2.10,distractmap1,60.00452434065863,"['Left Face', 'Abdomen', 'Left Face', 'Abdomen']",
1,"[-0.2, 0.2]",0.0,0,7,7,7,,,None,None,"[0, 0, 0]",801.5682162999874,803.5682247999939,801.5682162999874,802.568236400024,802.5516296999995,803.5515634000185,"[0, 0, 0]",1,801.5682162999874,803.5682247999939,,,,,,,,,,,,,,,,,,,9,F,1,12,R,MS MH,49,49,2022_Dec_11_1413,2020.2.10,distractmap1,60.00452434065863,"['Left Face', 'Abdomen', 'Left Face', 'Abdomen']",
4,"[-0.2, 0]",1.0,0,8,8,8,,,None,None,"[0, 0, 0]",803.5848979000002,805.5849232000182,803.5848979000002,804.5848378000082,804.5682522000279,805.5682481999975,"[0, 0, 0]",1,803.5848979000002,805.5849232000182,,,,,,,,,,,,,,,,,,,9,F,1,12,R,MS MH,49,49,2022_Dec_11_1413,2020.2.10,distractmap1,60.00452434065863,"['Left Face', 'Abdomen', 'Left Face', 'Abdomen']",
8,"[0, -0.2]",0.0,0,9,9,9,,,None,None,"[0, 0, 0]",805.6016104000155,807.6015943000093,805.6016104000155,806.6015891000279,806.5849257999798,807.5849386000191,"[0, 0, 0]",1,805.6016104000155,807.6015943000093,,,,,,,,,,,,,,,,,,,9,F,1,12,R,MS MH,49,49,2022_Dec_11_1413,2020.2.10,distractmap1,60.00452434065863,"['Left Face', 'Abdomen', 'Left Face', 'Abdomen']",
,,,,,,,,,,,,,,,,,,,,,,807.6516174999997,None,,,,,,,,,,,,,,,,,9,F,1,12,R,MS MH,49,49,2022_Dec_11_1413,2020.2.10,distractmap1,60.00452434065863,"['Left Face', 'Abdomen', 'Left Face', 'Abdomen']",
,,,,,,,837.6685635999893,None,,,,,,,,,,,,,,,,,,,,,,,,,,817.6683569999877,None,37.901234567901234,823.9311018100125,,,9,F,1,12,R,MS MH,49,49,2022_Dec_11_1413,2020.2.10,distractmap1,60.00452434065863,"['Left Face', 'Abdomen', 'Left Face', 'Abdomen']",
,,,,,,,872.6855662000016,None,,,,,,,,,,,,,,,,,,,,,,,,,,852.6853648999822,None,41.79012345679013,856.5648237100104,0.014252290013246238,5.01157209003577,9,F,1,12,R,MS MH,49,49,2022_Dec_11_1413,2020.2.10,distractmap1,60.00452434065863,"['Left Face', 'Abdomen', 'Left Face', 'Abdomen']",
,,,,,,,907.702558799996,None,,,,,,,,,,,,,,,,,,,,,,,,,,887.7023621000117,None,40.30864197530864,893.0985272100079,0.014202389982528985,5.011462790018413,9,F,1,12,R,MS MH,49,49,2022_Dec_11_1413,2020.2.10,distractmap1,60.00452434065863,"['Left Face', 'Abdomen', 'Left Face', 'Abdomen']",
2,"[0, 0.2]",None,0,0,0,0,923.0030832000193,None,None,None,"[0, 0, 0]",927.7694103000103,None,927.7694103000103,928.7694220999838,928.7527281999937,929.7527593999985,"[0, 0, 0]",1,927.7694103000103,None,,,,,,,,,,,,,,,,,0.014163590036332607,5.011331390007399,9,F,1,12,R,MS MH,49,49,2022_Dec_11_1413,2020.2.10,distractmap1,60.00452434065863,"['Left Face', 'Abdomen', 'Left Face', 'Abdomen']",
5,"[0, 0]",None,0,1,1,1,,,None,None,"[0, 0, 0]",929.7694116000202,931.7694498000201,929.7694116000202,930.7694369999808,930.7527765000123,931.7527711999719,"[0, 0, 0]",1,929.7694116000202,931.7694498000201,,,,,,,,,,,,,,,,,,,9,F,1,12,R,MS MH,49,49,2022_Dec_11_1413,2020.2.10,distractmap1,60.00452434065863,"['Left Face', 'Abdomen', 'Left Face', 'Abdomen']",
3,"[0.2, 0.2]",0.0,0,2,2,2,,,None,None,"[0, 0, 0]",931.7861004999722,933.7861232000287,931.7861004999722,932.7861613000277,932.769480100018,933.7694815999712,"[0, 0, 0]",1,931.7861004999722,933.7861232000287,,,,,,,,,,,,,,,,,,,9,F,1,12,R,MS MH,49,49,2022_Dec_11_1413,2020.2.10,distractmap1,60.00452434065863,"['Left Face', 'Abdomen', 'Left Face', 'Abdomen']",
5,"[0, 0]",1.0,0,3,3,3,,,None,None,"[0, 0, 0]",933.8027885999763,935.8028141999966,933.8027885999763,934.8028126999852,934.7861227000249,935.7861385999713,"[0, 0, 0]",1,933.8027885999763,935.8028141999966,,,,,,,,,,,,,,,,,,,9,F,1,12,R,MS MH,49,49,2022_Dec_11_1413,2020.2.10,distractmap1,60.00452434065863,"['Left Face', 'Abdomen', 'Left Face', 'Abdomen']",
2,"[0, 0.2]",0.0,0,4,4,4,,,None,None,"[0, 0, 0]",935.8856957000098,None,935.8856957000098,936.8864804999903,936.8695125000086,None,"[0, 0, 0]",1,935.8856957000098,None,,,,,,,,,,,,,,,,,,,9,F,1,12,R,MS MH,49,49,2022_Dec_11_1413,2020.2.10,distractmap1,60.00452434065863,"['Left Face', 'Abdomen', 'Left Face', 'Abdomen']",
8,"[0, -0.2]",0.0,0,5,5,5,,,None,None,"[0, 0, 0]",937.8361735999933,939.8361865999759,937.8361735999933,938.8362257999834,938.8195591000258,939.8195386999869,"[0, 0, 0]",1,937.8361735999933,939.8361865999759,,,,,,,,,,,,,,,,,,,9,F,1,12,R,MS MH,49,49,2022_Dec_11_1413,2020.2.10,distractmap1,60.00452434065863,"['Left Face', 'Abdomen', 'Left Face', 'Abdomen']",
4,"[-0.2, 0]",0.0,0,6,6,6,,,None,None,"[0, 0, 0]",939.8529043999733,941.8529125999776,939.8529043999733,940.852864400018,940.8362284000032,941.8362555999774,"[0, 0, 0]",1,939.8529043999733,941.8529125999776,,,,,,,,,,,,,,,,,,,9,F,1,12,R,MS MH,49,49,2022_Dec_11_1413,2020.2.10,distractmap1,60.00452434065863,"['Left Face', 'Abdomen', 'Left Face', 'Abdomen']",
8,"[0, -0.2]",1.0,0,7,7,7,,,None,None,"[0, 0, 0]",941.8695871999953,943.8695735000074,941.8695871999953,942.8696121000103,942.8531619000132,943.8529200999765,"[0, 0, 0]",1,941.8695871999953,943.8695735000074,,,,,,,,,,,,,,,,,,,9,F,1,12,R,MS MH,49,49,2022_Dec_11_1413,2020.2.10,distractmap1,60.00452434065863,"['Left Face', 'Abdomen', 'Left Face', 'Abdomen']",
7,"[-0.2, -0.2]",0.0,0,8,8,8,,,None,None,"[0, 0, 0]",943.8862251000246,945.8862503999844,943.8862251000246,944.8862630000222,944.8695729000028,945.8696088999859,"[0, 0, 0]",1,943.8862251000246,945.8862503999844,,,,,,,,,,,,,,,,,,,9,F,1,12,R,MS MH,49,49,2022_Dec_11_1413,2020.2.10,distractmap1,60.00452434065863,"['Left Face', 'Abdomen', 'Left Face', 'Abdomen']",
8,"[0, -0.2]",1.0,0,9,9,9,,,None,None,"[0, 0, 0]",945.9029205000261,947.9029535999871,945.9029205000261,946.9030076999916,946.8863034999813,947.886278800026,"[0, 0, 0]",1,945.9029205000261,947.9029535999871,,,,,,,,,,,,,,,,,,,9,F,1,12,R,MS MH,49,49,2022_Dec_11_1413,2020.2.10,distractmap1,60.00452434065863,"['Left Face', 'Abdomen', 'Left Face', 'Abdomen']",
,,,,,,,,,,,,,,,,,,,,,,947.9361902999808,None,,,,,,,,,,,,,,,,,9,F,1,12,R,MS MH,49,49,2022_Dec_11_1413,2020.2.10,distractmap1,60.00452434065863,"['Left Face', 'Abdomen', 'Left Face', 'Abdomen']",
,,,,,,,,,,,,,,,,,,,,,,,,,,,,,,,,,,,,25.061728395061728,935.4342443099595,,,9,F,1,12,R,MS MH,49,49,2022_Dec_11_1413,2020.2.10,distractmap1,60.00452434065863,"['Left Face', 'Abdomen', 'Left Face', 'Abdomen']",
2,"[0, 0.2]",None,0,0,0,0,963.2199197000009,None,None,None,"[0, 0, 0]",968.0031452000258,None,968.0031452000258,969.0031329999911,968.9864760999917,969.9864833999891,"[0, 0, 0]",1,968.0031452000258,None,,,,,,,,,,,,,,,,,0.012152990035247058,5.007472790020984,9,F,1,12,R,MS MH,49,49,2022_Dec_11_1413,2020.2.10,distractmap1,60.00452434065863,"['Left Face', 'Abdomen', 'Left Face', 'Abdomen']",
2,"[0, 0.2]",None,0,1,1,1,,,None,None,"[0, 0, 0]",970.0031342000002,972.0031595000182,970.0031342000002,971.00315579999,970.98649510002,971.9865078000003,"[0, 0, 0]",1,970.0031342000002,972.0031595000182,,,,,,,,,,,,,,,,,,,9,F,1,12,R,MS MH,49,49,2022_Dec_11_1413,2020.2.10,distractmap1,60.00452434065863,"['Left Face', 'Abdomen', 'Left Face', 'Abdomen']",
2,"[0, 0.2]",1.0,0,2,2,2,,,None,None,"[0, 0, 0]",972.0198162000161,974.0198478000239,972.0198162000161,973.019836499996,973.0031809000066,974.0031806000043,"[0, 0, 0]",1,972.0198162000161,974.0198478000239,,,,,,,,,,,,,,,,,,,9,F,1,12,R,MS MH,49,49,2022_Dec_11_1413,2020.2.10,distractmap1,60.00452434065863,"['Left Face', 'Abdomen', 'Left Face', 'Abdomen']",
8,"[0, -0.2]",0.0,0,3,3,3,,,None,None,"[0, 0, 0]",974.0365144999814,976.036551200028,974.0365144999814,975.0365279000252,975.0198483000277,976.0198570999783,"[0, 0, 0]",1,974.0365144999814,976.036551200028,,,,,,,,,,,,,,,,,,,9,F,1,12,R,MS MH,49,49,2022_Dec_11_1413,2020.2.10,distractmap1,60.00452434065863,"['Left Face', 'Abdomen', 'Left Face', 'Abdomen']",
2,"[0, 0.2]",1.0,0,4,4,4,,,None,None,"[0, 0, 0]",976.1036017999868,None,976.1036017999868,977.1032124999911,977.0864441000158,None,"[0, 0, 0]",1,976.1036017999868,None,,,,,,,,,,,,,,,,,,,9,F,1,12,R,MS MH,49,49,2022_Dec_11_1413,2020.2.10,distractmap1,60.00452434065863,"['Left Face', 'Abdomen', 'Left Face', 'Abdomen']",
5,"[0, 0]",0.0,0,5,5,5,,,None,None,"[0, 0, 0]",978.0698898999835,980.0698792000185,978.0698898999835,979.0698962999741,979.0532276000013,980.0532342999941,"[0, 0, 0]",1,978.0698898999835,980.0698792000185,,,,,,,,,,,,,,,,,,,9,F,1,12,R,MS MH,49,49,2022_Dec_11_1413,2020.2.10,distractmap1,60.00452434065863,"['Left Face', 'Abdomen', 'Left Face', 'Abdomen']",
1,"[-0.2, 0.2]",0.0,0,6,6,6,,,None,None,"[0, 0, 0]",980.0864835000248,982.086606100027,980.0864835000248,981.0866568000056,981.0699194999761,982.0699398000143,"[0, 0, 0]",1,980.0864835000248,982.086606100027,,,,,,,,,,,,,,,,,,,9,F,1,12,R,MS MH,49,49,2022_Dec_11_1413,2020.2.10,distractmap1,60.00452434065863,"['Left Face', 'Abdomen', 'Left Face', 'Abdomen']",
1,"[-0.2, 0.2]",0.0,0,7,7,7,,,None,None,"[0, 0, 0]",982.1032916000113,984.1033052999992,982.1032916000113,983.1032571999822,983.0866063000285,984.0866129000206,"[0, 0, 0]",1,982.1032916000113,984.1033052999992,,,,,,,,,,,,,,,,,,,9,F,1,12,R,MS MH,49,49,2022_Dec_11_1413,2020.2.10,distractmap1,60.00452434065863,"['Left Face', 'Abdomen', 'Left Face', 'Abdomen']",
6,"[0.2, 0]",0.0,0,8,8,8,,,None,None,"[0, 0, 0]",984.1199509999715,986.1199509000289,984.1199509999715,985.1199376999866,985.1033017999725,986.103313700005,"[0, 0, 0]",1,984.1199509999715,986.1199509000289,,,,,,,,,,,,,,,,,,,9,F,1,12,R,MS MH,49,49,2022_Dec_11_1413,2020.2.10,distractmap1,60.00452434065863,"['Left Face', 'Abdomen', 'Left Face', 'Abdomen']",
1,"[-0.2, 0.2]",1.0,0,9,9,9,,,None,None,"[0, 0, 0]",986.1366449000197,988.1366504000034,986.1366449000197,987.1366561999894,987.119941300014,988.1200493000215,"[0, 0, 0]",1,986.1366449000197,988.1366504000034,,,,,,,,,,,,,,,,,,,9,F,1,12,R,MS MH,49,49,2022_Dec_11_1413,2020.2.10,distractmap1,60.00452434065863,"['Left Face', 'Abdomen', 'Left Face', 'Abdomen']",
,,,,,,,,,,,,,,,,,,,,,,988.1699497000081,None,,,,,,,,,,,,,,,,,9,F,1,12,R,MS MH,49,49,2022_Dec_11_1413,2020.2.10,distractmap1,60.00452434065863,"['Left Face', 'Abdomen', 'Left Face', 'Abdomen']",
,,,,,,,,,,,,,,,,,,,,,,,,,,,,,,,,,,,,17.716049382716047,973.6673267100123,,,9,F,1,12,R,MS MH,49,49,2022_Dec_11_1413,2020.2.10,distractmap1,60.00452434065863,"['Left Face', 'Abdomen', 'Left Face', 'Abdomen']",
3,"[0.2, 0.2]",None,0,0,0,0,1001.4365019000252,None,None,None,"[0, 0, 0]",1008.2368825000012,None,1008.2368825000012,1009.2368469000212,1009.220160100027,1010.2202516000252,"[0, 0, 0]",1,1008.2368825000012,None,,,,,,,,,,,,,,,,,0.012782489997334778,5.008749290020205,9,F,1,12,R,MS MH,49,49,2022_Dec_11_1413,2020.2.10,distractmap1,60.00452434065863,"['Left Face', 'Abdomen', 'Left Face', 'Abdomen']",
3,"[0.2, 0.2]",None,0,1,1,1,,,None,None,"[0, 0, 0]",1010.2368555000285,1012.2368936000275,1010.2368555000285,1011.2369301000144,1011.2202423000126,1012.2201912999735,"[0, 0, 0]",1,1010.2368555000285,1012.2368936000275,,,,,,,,,,,,,,,,,,,9,F,1,12,R,MS MH,49,49,2022_Dec_11_1413,2020.2.10,distractmap1,60.00452434065863,"['Left Face', 'Abdomen', 'Left Face', 'Abdomen']",
5,"[0, 0]",0.0,0,2,2,2,,,None,None,"[0, 0, 0]",1012.2535438999766,1014.2534983999794,1012.2535438999766,1013.2536407000152,1013.2368719999795,1014.2368980000028,"[0, 0, 0]",1,1012.2535438999766,1014.2534983999794,,,,,,,,,,,,,,,,,,,9,F,1,12,R,MS MH,49,49,2022_Dec_11_1413,2020.2.10,distractmap1,60.00452434065863,"['Left Face', 'Abdomen', 'Left Face', 'Abdomen']",
1,"[-0.2, 0.2]",0.0,0,3,3,3,,,None,None,"[0, 0, 0]",1014.2702241999796,1016.2702391999774,1014.2702241999796,1015.2701225000201,1015.2535759999882,1016.253611800028,"[0, 0, 0]",1,1014.2702241999796,1016.2702391999774,,,,,,,,,,,,,,,,,,,9,F,1,12,R,MS MH,49,49,2022_Dec_11_1413,2020.2.10,distractmap1,60.00452434065863,"['Left Face', 'Abdomen', 'Left Face', 'Abdomen']",
5,"[0, 0]",1.0,0,4,4,4,,,None,None,"[0, 0, 0]",1016.3537798000034,None,1016.3537798000034,1017.3535915000248,1017.320246200019,None,"[0, 0, 0]",1,1016.3537798000034,None,,,,,,,,,,,,,,,,,,,9,F,1,12,R,MS MH,49,49,2022_Dec_11_1413,2020.2.10,distractmap1,60.00452434065863,"['Left Face', 'Abdomen', 'Left Face', 'Abdomen']",
8,"[0, -0.2]",0.0,0,5,5,5,,,None,None,"[0, 0, 0]",1018.3036076999852,1020.3036167999962,1018.3036076999852,1019.3036071999813,1019.2869467000128,1020.2869511999888,"[0, 0, 0]",1,1018.3036076999852,1020.3036167999962,,,,,,,,,,,,,,,,,,,9,F,1,12,R,MS MH,49,49,2022_Dec_11_1413,2020.2.10,distractmap1,60.00452434065863,"['Left Face', 'Abdomen', 'Left Face', 'Abdomen']",
5,"[0, 0]",1.0,0,6,6,6,,,None,None,"[0, 0, 0]",1020.3202857999713,1022.3203333999845,1020.3202857999713,1021.3202848000219,1021.3035884000128,1022.3036174000008,"[0, 0, 0]",0,1020.3202857999713,1022.3203333999845,,,,,,,,,,,,,,,,,,,9,F,1,12,R,MS MH,49,49,2022_Dec_11_1413,2020.2.10,distractmap1,60.00452434065863,"['Left Face', 'Abdomen', 'Left Face', 'Abdomen']",
7,"[-0.2, -0.2]",0.0,0,7,7,7,,,None,None,"[0, 0, 0]",1022.3369733999716,1024.3369907999877,1022.3369733999716,1023.3369945000159,1023.3202893999987,1024.3203158000251,"[0, 0, 0]",1,1022.3369733999716,1024.3369907999877,,,,,,,,,,,,,,,,,,,9,F,1,12,R,MS MH,49,49,2022_Dec_11_1413,2020.2.10,distractmap1,60.00452434065863,"['Left Face', 'Abdomen', 'Left Face', 'Abdomen']",
5,"[0, 0]",1.0,0,8,8,8,,,None,None,"[0, 0, 0]",1024.3536318999832,1026.3536684000283,1024.3536318999832,1025.3536632999894,1025.3369792000158,1026.3369970999775,"[0, 0, 0]",1,1024.3536318999832,1026.3536684000283,,,,,,,,,,,,,,,,,,,9,F,1,12,R,MS MH,49,49,2022_Dec_11_1413,2020.2.10,distractmap1,60.00452434065863,"['Left Face', 'Abdomen', 'Left Face', 'Abdomen']",
7,"[-0.2, -0.2]",1.0,0,9,9,9,,,None,None,"[0, 0, 0]",1026.370336699998,1028.3703596999985,1026.370336699998,1027.370393900026,1027.3536749000195,1028.3536738000112,"[0, 0, 0]",0,1026.370336699998,1028.3703596999985,,,,,,,,,,,,,,,,,,,9,F,1,12,R,MS MH,49,49,2022_Dec_11_1413,2020.2.10,distractmap1,60.00452434065863,"['Left Face', 'Abdomen', 'Left Face', 'Abdomen']",
,,,,,,,,,,,,,,,,,,,,,,1028.4037183999899,None,,,,,,,,,,,,,,,,,9,F,1,12,R,MS MH,49,49,2022_Dec_11_1413,2020.2.10,distractmap1,60.00452434065863,"['Left Face', 'Abdomen', 'Left Face', 'Abdomen']",
,,,,,,,,,,,,,,,,,,,,,,,,,,,,,,,,,,,,27.34567901234568,1013.9015869100112,,,9,F,1,12,R,MS MH,49,49,2022_Dec_11_1413,2020.2.10,distractmap1,60.00452434065863,"['Left Face', 'Abdomen', 'Left Face', 'Abdomen']",
,,,,,,,1224.0888861999847,None,,,,,,,,,,,,,,,,,,,1079.7211109999917,1079.7211109999917,None,space,101.34060509997653,1079.7211109999917,None,1204.08873399999,None,61.358024691358025,1209.0173771100235,0.01224728999659419,5.007697290042415,9,F,1,12,R,MS MH,49,49,2022_Dec_11_1413,2020.2.10,distractmap1,60.00452434065863,"['Left Face', 'Abdomen', 'Left Face', 'Abdomen']",
,,,,,,,1259.1058986000135,None,,,,,,,,,,,,,,,,,,,,,,,,,,1239.1056925000157,None,60.0,1245.7514043099945,0.014978490013163537,5.013000889972318,9,F,1,12,R,MS MH,49,49,2022_Dec_11_1413,2020.2.10,distractmap1,60.00452434065863,"['Left Face', 'Abdomen', 'Left Face', 'Abdomen']",
,,,,,,,1294.12287620001,None,,,,,,,,,,,,,,,,,,,,,,,,,,1274.1226872000261,None,70.55555555555556,1279.2333447100245,0.014596990018617362,5.012152990035247,9,F,1,12,R,MS MH,49,49,2022_Dec_11_1413,2020.2.10,distractmap1,60.00452434065863,"['Left Face', 'Abdomen', 'Left Face', 'Abdomen']",
6,"[0.2, 0]",None,0,0,0,0,1309.1563488999964,None,None,None,"[0, 0, 0]",1314.1730646999786,None,1314.1730646999786,1315.1730752000003,1315.156478399993,1316.156303900003,"[0, 0, 0]",1,1314.1730646999786,None,,,,,,,,,,,,,,,,,0.01634569000452757,5.015635490010027,9,F,1,12,R,MS MH,49,49,2022_Dec_11_1413,2020.2.10,distractmap1,60.00452434065863,"['Left Face', 'Abdomen', 'Left Face', 'Abdomen']",
1,"[-0.2, 0.2]",None,0,1,1,1,,,None,None,"[0, 0, 0]",1316.173095999984,1318.1731008000206,1316.173095999984,1317.1730916000088,1317.15642449999,1318.1564362000208,"[0, 0, 0]",1,1316.173095999984,1318.1731008000206,,,,,,,,,,,,,,,,,,,9,F,1,12,R,MS MH,49,49,2022_Dec_11_1413,2020.2.10,distractmap1,60.00452434065863,"['Left Face', 'Abdomen', 'Left Face', 'Abdomen']",
6,"[0.2, 0]",1.0,0,2,2,2,,,None,None,"[0, 0, 0]",1318.1897436999716,1320.1897970000282,1318.1897436999716,1319.1897369999788,1319.173123400018,1320.1731425999897,"[0, 0, 0]",1,1318.1897436999716,1320.1897970000282,,,,,,,,,,,,,,,,,,,9,F,1,12,R,MS MH,49,49,2022_Dec_11_1413,2020.2.10,distractmap1,60.00452434065863,"['Left Face', 'Abdomen', 'Left Face', 'Abdomen']",
4,"[-0.2, 0]",0.0,0,3,3,3,,,None,None,"[0, 0, 0]",1320.2064762000227,1322.2064749000128,1320.2064762000227,1321.206396099995,1321.189787900017,1322.1898185000173,"[0, 0, 0]",1,1320.2064762000227,1322.2064749000128,,,,,,,,,,,,,,,,,,,9,F,1,12,R,MS MH,49,49,2022_Dec_11_1413,2020.2.10,distractmap1,60.00452434065863,"['Left Face', 'Abdomen', 'Left Face', 'Abdomen']",
1,"[-0.2, 0.2]",0.0,0,4,4,4,,,None,None,"[0, 0, 0]",1322.2231413000263,1324.2231658999808,1322.2231413000263,1323.2231513999868,1323.2065295000211,1324.2064948999905,"[0, 0, 0]",0,1322.2231413000263,1324.2231658999808,,,,,,,,,,,,,,,,,,,9,F,1,12,R,MS MH,49,49,2022_Dec_11_1413,2020.2.10,distractmap1,60.00452434065863,"['Left Face', 'Abdomen', 'Left Face', 'Abdomen']",
8,"[0, -0.2]",0.0,0,5,5,5,,,None,None,"[0, 0, 0]",1324.2398293999722,1326.2398653000128,1324.2398293999722,1325.2398237999878,1325.223184100003,1326.2231847000076,"[0, 0, 0]",1,1324.2398293999722,1326.2398653000128,,,,,,,,,,,,,,,,,,,9,F,1,12,R,MS MH,49,49,2022_Dec_11_1413,2020.2.10,distractmap1,60.00452434065863,"['Left Face', 'Abdomen', 'Left Face', 'Abdomen']",
1,"[-0.2, 0.2]",1.0,0,6,6,6,,,None,None,"[0, 0, 0]",1326.256513100001,1328.2565256999806,1326.256513100001,1327.256526799989,1327.2398396999924,1328.2398848999874,"[0, 0, 0]",0,1326.256513100001,1328.2565256999806,,,,,,,,,,,,,,,,,,,9,F,1,12,R,MS MH,49,49,2022_Dec_11_1413,2020.2.10,distractmap1,60.00452434065863,"['Left Face', 'Abdomen', 'Left Face', 'Abdomen']",
8,"[0, -0.2]",1.0,0,7,7,7,,,None,None,"[0, 0, 0]",1328.273208300001,1330.273218300019,1328.273208300001,1329.2732207999798,1329.2565387000213,1330.256554200023,"[0, 0, 0]",1,1328.273208300001,1330.273218300019,,,,,,,,,,,,,,,,,,,9,F,1,12,R,MS MH,49,49,2022_Dec_11_1413,2020.2.10,distractmap1,60.00452434065863,"['Left Face', 'Abdomen', 'Left Face', 'Abdomen']",
1,"[-0.2, 0.2]",1.0,0,8,8,8,,,None,None,"[0, 0, 0]",1330.2898731000023,1332.289906800026,1330.2898731000023,1331.289898500021,1331.2732484000153,1332.2732383999974,"[0, 0, 0]",1,1330.2898731000023,1332.289906800026,,,,,,,,,,,,,,,,,,,9,F,1,12,R,MS MH,49,49,2022_Dec_11_1413,2020.2.10,distractmap1,60.00452434065863,"['Left Face', 'Abdomen', 'Left Face', 'Abdomen']",
6,"[0.2, 0]",0.0,0,9,9,9,,,None,None,"[0, 0, 0]",1332.3065711000236,1334.3065988000017,1332.3065711000236,1333.3065821999917,1333.2898064000183,1334.2899550999864,"[0, 0, 0]",1,1332.3065711000236,1334.3065988000017,,,,,,,,,,,,,,,,,,,9,F,1,12,R,MS MH,49,49,2022_Dec_11_1413,2020.2.10,distractmap1,60.00452434065863,"['Left Face', 'Abdomen', 'Left Face', 'Abdomen']",
,,,,,,,,,,,,,,,,,,,,,,1334.3232553999987,None,,,,,,,,,,,,,,,,,9,F,1,12,R,MS MH,49,49,2022_Dec_11_1413,2020.2.10,distractmap1,60.00452434065863,"['Left Face', 'Abdomen', 'Left Face', 'Abdomen']",
7,"[-0.2, -0.2]",None,0,0,0,0,1342.3566630000132,None,None,None,"[0, 0, 0]",1349.3734297999763,None,1349.3734297999763,1350.3734063999727,1350.3567274999805,1351.3567648999742,"[0, 0, 0]",1,1349.3734297999763,None,,,,,,,,,,,,,,,,,,,9,F,1,12,R,MS MH,49,49,2022_Dec_11_1413,2020.2.10,distractmap1,60.00452434065863,"['Left Face', 'Abdomen', 'Left Face', 'Abdomen']",
7,"[-0.2, -0.2]",None,0,1,1,1,,,None,None,"[0, 0, 0]",1351.3734175999998,1353.3734406000003,1351.3734175999998,1352.373427500017,1352.3567593999906,1353.3567562000244,"[0, 0, 0]",1,1351.3734175999998,1353.3734406000003,,,,,,,,,,,,,,,,,,,9,F,1,12,R,MS MH,49,49,2022_Dec_11_1413,2020.2.10,distractmap1,60.00452434065863,"['Left Face', 'Abdomen', 'Left Face', 'Abdomen']",
7,"[-0.2, -0.2]",1.0,0,2,2,2,,,None,None,"[0, 0, 0]",1353.390110599983,1355.3901286000037,1353.390110599983,1354.3901255999808,1354.3734566000057,1355.3734744000249,"[0, 0, 0]",1,1353.390110599983,1355.3901286000037,,,,,,,,,,,,,,,,,,,9,F,1,12,R,MS MH,49,49,2022_Dec_11_1413,2020.2.10,distractmap1,60.00452434065863,"['Left Face', 'Abdomen', 'Left Face', 'Abdomen']",
5,"[0, 0]",0.0,0,3,3,3,,,None,None,"[0, 0, 0]",1355.4067854000023,1357.4068181000184,1355.4067854000023,1356.4067911999882,1356.3901935999747,1357.39016000001,"[0, 0, 0]",1,1355.4067854000023,1357.4068181000184,,,,,,,,,,,,,,,,,,,9,F,1,12,R,MS MH,49,49,2022_Dec_11_1413,2020.2.10,distractmap1,60.00452434065863,"['Left Face', 'Abdomen', 'Left Face', 'Abdomen']",
1,"[-0.2, 0.2]",0.0,0,4,4,4,,,None,None,"[0, 0, 0]",1357.4234709999873,1359.4235057000187,1357.4234709999873,1358.423489400011,1358.4068225999945,1359.4068747999845,"[0, 0, 0]",1,1357.4234709999873,1359.4235057000187,,,,,,,,,,,,,,,,,,,9,F,1,12,R,MS MH,49,49,2022_Dec_11_1413,2020.2.10,distractmap1,60.00452434065863,"['Left Face', 'Abdomen', 'Left Face', 'Abdomen']",
6,"[0.2, 0]",0.0,0,5,5,5,,,None,None,"[0, 0, 0]",1359.4401590999914,1361.4401962999837,1359.4401590999914,1360.440176700009,1360.4235196000081,1361.4235156999785,"[0, 0, 0]",1,1359.4401590999914,1361.4401962999837,,,,,,,,,,,,,,,,,,,9,F,1,12,R,MS MH,49,49,2022_Dec_11_1413,2020.2.10,distractmap1,60.00452434065863,"['Left Face', 'Abdomen', 'Left Face', 'Abdomen']",
1,"[-0.2, 0.2]",1.0,0,6,6,6,,,None,None,"[0, 0, 0]",1361.456880200014,1363.4568845999893,1361.456880200014,1362.4568775999942,1362.4402038999833,1363.4401968999882,"[0, 0, 0]",1,1361.456880200014,1363.4568845999893,,,,,,,,,,,,,,,,,,,9,F,1,12,R,MS MH,49,49,2022_Dec_11_1413,2020.2.10,distractmap1,60.00452434065863,"['Left Face', 'Abdomen', 'Left Face', 'Abdomen']",
7,"[-0.2, -0.2]",0.0,0,7,7,7,,,None,None,"[0, 0, 0]",1363.4735402999795,1365.4734180999803,1363.4735402999795,1364.4736248999834,1364.4568708000006,1365.456863200001,"[0, 0, 0]",1,1363.4735402999795,1365.4734180999803,,,,,,,,,,,,,,,,,,,9,F,1,12,R,MS MH,49,49,2022_Dec_11_1413,2020.2.10,distractmap1,60.00452434065863,"['Left Face', 'Abdomen', 'Left Face', 'Abdomen']",
6,"[0.2, 0]",0.0,0,8,8,8,,,None,None,"[0, 0, 0]",1365.4902126999805,1367.4902455999982,1365.4902126999805,1366.4902514999849,1366.4735933999764,1367.4735658999998,"[0, 0, 0]",0,1365.4902126999805,1367.4902455999982,,,,,,,,,,,,,,,,,,,9,F,1,12,R,MS MH,49,49,2022_Dec_11_1413,2020.2.10,distractmap1,60.00452434065863,"['Left Face', 'Abdomen', 'Left Face', 'Abdomen']",
7,"[-0.2, -0.2]",1.0,0,9,9,9,,,None,None,"[0, 0, 0]",1367.506928000017,1369.506915099977,1367.506928000017,1368.506921800028,1368.4902629000135,1369.4902694000048,"[0, 0, 0]",1,1367.506928000017,1369.506915099977,,,,,,,,,,,,,,,,,,,9,F,1,12,R,MS MH,49,49,2022_Dec_11_1413,2020.2.10,distractmap1,60.00452434065863,"['Left Face', 'Abdomen', 'Left Face', 'Abdomen']",
,,,,,,,,,,,,,,,,,,,,,,1369.5403200000292,None,,,,,,,,,,,,,,,,,9,F,1,12,R,MS MH,49,49,2022_Dec_11_1413,2020.2.10,distractmap1,60.00452434065863,"['Left Face', 'Abdomen', 'Left Face', 'Abdomen']",
4,"[-0.2, 0]",None,0,0,0,0,1377.573668500001,None,None,None,"[0, 0, 0]",1384.5904061999754,None,1384.5904061999754,1385.5904028000077,1385.5737372000003,1386.5737214999972,"[0, 0, 0]",1,1384.5904061999754,None,,,,,,,,,,,,,,,,,,,9,F,1,12,R,MS MH,49,49,2022_Dec_11_1413,2020.2.10,distractmap1,60.00452434065863,"['Left Face', 'Abdomen', 'Left Face', 'Abdomen']",
5,"[0, 0]",None,0,1,1,1,,,None,None,"[0, 0, 0]",1386.5903233999852,1388.5904353000224,1386.5903233999852,1387.5904250000021,1387.5737602000008,1388.573767199996,"[0, 0, 0]",1,1386.5903233999852,1388.5904353000224,,,,,,,,,,,,,,,,,,,9,F,1,12,R,MS MH,49,49,2022_Dec_11_1413,2020.2.10,distractmap1,60.00452434065863,"['Left Face', 'Abdomen', 'Left Face', 'Abdomen']",
6,"[0.2, 0]",0.0,0,2,2,2,,,None,None,"[0, 0, 0]",1388.6071271999972,1390.6071299000178,1388.6071271999972,1389.60714919999,1389.5906339000212,1390.590494700009,"[0, 0, 0]",1,1388.6071271999972,1390.6071299000178,,,,,,,,,,,,,,,,,,,9,F,1,12,R,MS MH,49,49,2022_Dec_11_1413,2020.2.10,distractmap1,60.00452434065863,"['Left Face', 'Abdomen', 'Left Face', 'Abdomen']",
1,"[-0.2, 0.2]",0.0,0,3,3,3,,,None,None,"[0, 0, 0]",1390.6237752999878,1392.6238098000176,1390.6237752999878,1391.6238091000123,1391.6070761000155,1392.6071486999863,"[0, 0, 0]",1,1390.6237752999878,1392.6238098000176,,,,,,,,,,,,,,,,,,,9,F,1,12,R,MS MH,49,49,2022_Dec_11_1413,2020.2.10,distractmap1,60.00452434065863,"['Left Face', 'Abdomen', 'Left Face', 'Abdomen']",
6,"[0.2, 0]",1.0,0,4,4,4,,,None,None,"[0, 0, 0]",1392.640508499986,1394.6404933999875,1392.640508499986,1393.6405392999877,1393.6237922,1394.623821999994,"[0, 0, 0]",1,1392.640508499986,1394.6404933999875,,,,,,,,,,,,,,,,,,,9,F,1,12,R,MS MH,49,49,2022_Dec_11_1413,2020.2.10,distractmap1,60.00452434065863,"['Left Face', 'Abdomen', 'Left Face', 'Abdomen']",
1,"[-0.2, 0.2]",1.0,0,5,5,5,,,None,None,"[0, 0, 0]",1394.6571635000291,1396.6572237000219,1394.6571635000291,1395.6572076000157,1395.640882799984,1396.6405145999743,"[0, 0, 0]",1,1394.6571635000291,1396.6572237000219,,,,,,,,,,,,,,,,,,,9,F,1,12,R,MS MH,49,49,2022_Dec_11_1413,2020.2.10,distractmap1,60.00452434065863,"['Left Face', 'Abdomen', 'Left Face', 'Abdomen']",
2,"[0, 0.2]",0.0,0,6,6,6,,,None,None,"[0, 0, 0]",1396.673877299996,1398.6738827999798,1396.673877299996,1397.6738580000238,1397.6571881999844,1398.6572105999803,"[0, 0, 0]",1,1396.673877299996,1398.6738827999798,,,,,,,,,,,,,,,,,,,9,F,1,12,R,MS MH,49,49,2022_Dec_11_1413,2020.2.10,distractmap1,60.00452434065863,"['Left Face', 'Abdomen', 'Left Face', 'Abdomen']",
3,"[0.2, 0.2]",0.0,0,7,7,7,,,None,None,"[0, 0, 0]",1398.6905490999925,1400.6906099999906,1398.6905490999925,1399.6905386999715,1399.6738781000022,1400.673883099982,"[0, 0, 0]",1,1398.6905490999925,1400.6906099999906,,,,,,,,,,,,,,,,,,,9,F,1,12,R,MS MH,49,49,2022_Dec_11_1413,2020.2.10,distractmap1,60.00452434065863,"['Left Face', 'Abdomen', 'Left Face', 'Abdomen']",
6,"[0.2, 0]",0.0,0,8,8,8,,,None,None,"[0, 0, 0]",1400.7072148000007,1402.7072360999882,1400.7072148000007,1401.7072166000144,1401.6905609000241,1402.6905963000027,"[0, 0, 0]",0,1400.7072148000007,1402.7072360999882,,,,,,,,,,,,,,,,,,,9,F,1,12,R,MS MH,49,49,2022_Dec_11_1413,2020.2.10,distractmap1,60.00452434065863,"['Left Face', 'Abdomen', 'Left Face', 'Abdomen']",
3,"[0.2, 0.2]",1.0,0,9,9,9,,,None,None,"[0, 0, 0]",1402.723897900025,1404.7239345000125,1402.723897900025,1403.7239086999907,1403.7072443999932,1404.707271100022,"[0, 0, 0]",1,1402.723897900025,1404.7239345000125,,,,,,,,,,,,,,,,,,,9,F,1,12,R,MS MH,49,49,2022_Dec_11_1413,2020.2.10,distractmap1,60.00452434065863,"['Left Face', 'Abdomen', 'Left Face', 'Abdomen']",
,,,,,,,,,,,,,,,,,,,,,,1404.740588799992,None,,,,,,,,,,,,,,,,,9,F,1,12,R,MS MH,49,49,2022_Dec_11_1413,2020.2.10,distractmap1,60.00452434065863,"['Left Face', 'Abdomen', 'Left Face', 'Abdomen']",
2,"[0, 0.2]",None,0,0,0,0,1415.841204700002,None,None,None,"[0, 0, 0]",1419.8074021000066,None,1419.8074021000066,1420.807416399999,1420.790747000021,None,"[0, 0, 0]",1,1419.8074021000066,None,,,,,,,,,,,,,,,,,,,9,F,1,12,R,MS MH,49,49,2022_Dec_11_1413,2020.2.10,distractmap1,60.00452434065863,"['Left Face', 'Abdomen', 'Left Face', 'Abdomen']",
5,"[0, 0]",None,0,1,1,1,,,None,None,"[0, 0, 0]",1421.7907571999822,1423.7907574999845,1421.7907571999822,1422.7907640999765,1422.774072100001,1423.7741266000085,"[0, 0, 0]",1,1421.7907571999822,1423.7907574999845,,,,,,,,,,,,,,,,,,,9,F,1,12,R,MS MH,49,49,2022_Dec_11_1413,2020.2.10,distractmap1,60.00452434065863,"['Left Face', 'Abdomen', 'Left Face', 'Abdomen']",
6,"[0.2, 0]",0.0,0,2,2,2,,,None,None,"[0, 0, 0]",1423.8074424000224,1425.8074779000017,1423.8074424000224,1424.8074628000031,1424.7907657999895,1425.7907965999912,"[0, 0, 0]",1,1423.8074424000224,1425.8074779000017,,,,,,,,,,,,,,,,,,,9,F,1,12,R,MS MH,49,49,2022_Dec_11_1413,2020.2.10,distractmap1,60.00452434065863,"['Left Face', 'Abdomen', 'Left Face', 'Abdomen']",
1,"[-0.2, 0.2]",0.0,0,3,3,3,,,None,None,"[0, 0, 0]",1425.824117799988,1427.8241423,1425.824117799988,1426.8241442000144,1426.807465800026,1427.8074711000081,"[0, 0, 0]",1,1425.824117799988,1427.8241423,,,,,,,,,,,,,,,,,,,9,F,1,12,R,MS MH,49,49,2022_Dec_11_1413,2020.2.10,distractmap1,60.00452434065863,"['Left Face', 'Abdomen', 'Left Face', 'Abdomen']",
6,"[0.2, 0]",1.0,0,4,4,4,,,None,None,"[0, 0, 0]",1427.8911678000004,None,1427.8911678000004,1428.8909408000181,1428.8741629000288,None,"[0, 0, 0]",1,1427.8911678000004,None,,,,,,,,,,,,,,,,,,,9,F,1,12,R,MS MH,49,49,2022_Dec_11_1413,2020.2.10,distractmap1,60.00452434065863,"['Left Face', 'Abdomen', 'Left Face', 'Abdomen']",
6,"[0.2, 0]",0.0,0,5,5,5,,,None,None,"[0, 0, 0]",1429.8575442000292,1431.8575495000114,1429.8575442000292,1430.857513200026,1430.8408330000238,1431.8408188999747,"[0, 0, 0]",1,1429.8575442000292,1431.8575495000114,,,,,,,,,,,,,,,,,,,9,F,1,12,R,MS MH,49,49,2022_Dec_11_1413,2020.2.10,distractmap1,60.00452434065863,"['Left Face', 'Abdomen', 'Left Face', 'Abdomen']",
9,"[0.2, -0.2]",0.0,0,6,6,6,,,None,None,"[0, 0, 0]",1431.8741635999759,1433.8741929000244,1431.8741635999759,1432.8742072000168,1432.8575441000285,1433.857571600005,"[0, 0, 0]",1,1431.8741635999759,1433.8741929000244,,,,,,,,,,,,,,,,,,,9,F,1,12,R,MS MH,49,49,2022_Dec_11_1413,2020.2.10,distractmap1,60.00452434065863,"['Left Face', 'Abdomen', 'Left Face', 'Abdomen']",
6,"[0.2, 0]",1.0,0,7,7,7,,,None,None,"[0, 0, 0]",1433.890847600007,1435.8908754999866,1433.890847600007,1434.890877800004,1434.8742131000035,1435.874234899995,"[0, 0, 0]",1,1433.890847600007,1435.8908754999866,,,,,,,,,,,,,,,,,,,9,F,1,12,R,MS MH,49,49,2022_Dec_11_1413,2020.2.10,distractmap1,60.00452434065863,"['Left Face', 'Abdomen', 'Left Face', 'Abdomen']",
3,"[0.2, 0.2]",0.0,0,8,8,8,,,None,None,"[0, 0, 0]",1435.9075540999766,1437.9076503000106,1435.9075540999766,1436.9075732000056,1436.890872900025,1437.8909410000197,"[0, 0, 0]",1,1435.9075540999766,1437.9076503000106,,,,,,,,,,,,,,,,,,,9,F,1,12,R,MS MH,49,49,2022_Dec_11_1413,2020.2.10,distractmap1,60.00452434065863,"['Left Face', 'Abdomen', 'Left Face', 'Abdomen']",
9,"[0.2, -0.2]",0.0,0,9,9,9,,,None,None,"[0, 0, 0]",1437.924204799987,1439.924269500014,1437.924204799987,1438.9242944999714,1438.90764759999,1439.9076022999943,"[0, 0, 0]",0,1437.924204799987,1439.924269500014,,,,,,,,,,,,,,,,,,,9,F,1,12,R,MS MH,49,49,2022_Dec_11_1413,2020.2.10,distractmap1,60.00452434065863,"['Left Face', 'Abdomen', 'Left Face', 'Abdomen']",
,,,,,,,,,,,,,,,,,,,,,,1439.9409157999908,None,,,,,,,,,,,,,,,,,9,F,1,12,R,MS MH,49,49,2022_Dec_11_1413,2020.2.10,distractmap1,60.00452434065863,"['Left Face', 'Abdomen', 'Left Face', 'Abdomen']",
,,,,,,,,,,,,,,,,,,,,,,,,,,,,,,,,,,,,37.28395061728395,1427.4381380100385,,,9,F,1,12,R,MS MH,49,49,2022_Dec_11_1413,2020.2.10,distractmap1,60.00452434065863,"['Left Face', 'Abdomen', 'Left Face', 'Abdomen']",
3,"[0.2, 0.2]",None,0,0,0,0,1455.2246868999791,None,None,None,"[0, 0, 0]",1460.007819999999,None,1460.007819999999,1461.0077973000007,1460.9911219999776,1461.9911427000188,"[0, 0, 0]",1,1460.007819999999,None,,,,,,,,,,,,,,,,,0.012811989989131689,5.008690089976881,9,F,1,12,R,MS MH,49,49,2022_Dec_11_1413,2020.2.10,distractmap1,60.00452434065863,"['Left Face', 'Abdomen', 'Left Face', 'Abdomen']",
9,"[0.2, -0.2]",None,0,1,1,1,,,None,None,"[0, 0, 0]",1462.0078010999714,1464.0078115999931,1462.0078010999714,1463.0078109999886,1462.991129699978,1463.9911303999834,"[0, 0, 0]",1,1462.0078010999714,1464.0078115999931,,,,,,,,,,,,,,,,,,,9,F,1,12,R,MS MH,49,49,2022_Dec_11_1413,2020.2.10,distractmap1,60.00452434065863,"['Left Face', 'Abdomen', 'Left Face', 'Abdomen']",
3,"[0.2, 0.2]",1.0,0,2,2,2,,,None,None,"[0, 0, 0]",1464.024472500023,1466.024606699997,1464.024472500023,1465.0245003000018,1465.0078775000293,1466.0078530000173,"[0, 0, 0]",1,1464.024472500023,1466.024606699997,,,,,,,,,,,,,,,,,,,9,F,1,12,R,MS MH,49,49,2022_Dec_11_1413,2020.2.10,distractmap1,60.00452434065863,"['Left Face', 'Abdomen', 'Left Face', 'Abdomen']",
7,"[-0.2, -0.2]",0.0,0,3,3,3,,,None,None,"[0, 0, 0]",1466.0411574000027,1468.0411796999979,1466.0411574000027,1467.041223999986,1467.0245780000114,1468.02454459999,"[0, 0, 0]",1,1466.0411574000027,1468.0411796999979,,,,,,,,,,,,,,,,,,,9,F,1,12,R,MS MH,49,49,2022_Dec_11_1413,2020.2.10,distractmap1,60.00452434065863,"['Left Face', 'Abdomen', 'Left Face', 'Abdomen']",
8,"[0, -0.2]",0.0,0,4,4,4,,,None,None,"[0, 0, 0]",1468.1251004000078,None,1468.1251004000078,1469.12453500001,1469.1078655999736,None,"[0, 0, 0]",1,1468.1251004000078,None,,,,,,,,,,,,,,,,,,,9,F,1,12,R,MS MH,49,49,2022_Dec_11_1413,2020.2.10,distractmap1,60.00452434065863,"['Left Face', 'Abdomen', 'Left Face', 'Abdomen']",
4,"[-0.2, 0]",0.0,0,5,5,5,,,None,None,"[0, 0, 0]",1470.0745430000243,1472.0745639000088,1470.0745430000243,1471.0745790000074,1471.057887199975,1472.0579125999939,"[0, 0, 0]",1,1470.0745430000243,1472.0745639000088,,,,,,,,,,,,,,,,,,,9,F,1,12,R,MS MH,49,49,2022_Dec_11_1413,2020.2.10,distractmap1,60.00452434065863,"['Left Face', 'Abdomen', 'Left Face', 'Abdomen']",
4,"[-0.2, 0]",0.0,0,6,6,6,,,None,None,"[0, 0, 0]",1472.091250700003,1474.0912491999916,1472.091250700003,1473.0912506000022,1473.07462259999,1474.0745724000153,"[0, 0, 0]",1,1472.091250700003,1474.0912491999916,,,,,,,,,,,,,,,,,,,9,F,1,12,R,MS MH,49,49,2022_Dec_11_1413,2020.2.10,distractmap1,60.00452434065863,"['Left Face', 'Abdomen', 'Left Face', 'Abdomen']",
1,"[-0.2, 0.2]",0.0,0,7,7,7,,,None,None,"[0, 0, 0]",1474.1079347999766,1476.1079494999722,1474.1079347999766,1475.1079391000094,1475.0912457000231,1476.091237500019,"[0, 0, 0]",1,1474.1079347999766,1476.1079494999722,,,,,,,,,,,,,,,,,,,9,F,1,12,R,MS MH,49,49,2022_Dec_11_1413,2020.2.10,distractmap1,60.00452434065863,"['Left Face', 'Abdomen', 'Left Face', 'Abdomen']",
4,"[-0.2, 0]",1.0,0,8,8,8,,,None,None,"[0, 0, 0]",1476.1245908000274,1478.1246180000016,1476.1245908000274,1477.124642300012,1477.107959999994,1478.1079543000087,"[0, 0, 0]",1,1476.1245908000274,1478.1246180000016,,,,,,,,,,,,,,,,,,,9,F,1,12,R,MS MH,49,49,2022_Dec_11_1413,2020.2.10,distractmap1,60.00452434065863,"['Left Face', 'Abdomen', 'Left Face', 'Abdomen']",
8,"[0, -0.2]",0.0,0,9,9,9,,,None,None,"[0, 0, 0]",1478.141282800003,1480.1413267999887,1478.141282800003,1479.1412987000076,1479.124640199996,1480.124641500006,"[0, 0, 0]",1,1478.141282800003,1480.1413267999887,,,,,,,,,,,,,,,,,,,9,F,1,12,R,MS MH,49,49,2022_Dec_11_1413,2020.2.10,distractmap1,60.00452434065863,"['Left Face', 'Abdomen', 'Left Face', 'Abdomen']",
,,,,,,,,,,,,,,,,,,,,,,1480.174653999973,None,,,,,,,,,,,,,,,,,9,F,1,12,R,MS MH,49,49,2022_Dec_11_1413,2020.2.10,distractmap1,60.00452434065863,"['Left Face', 'Abdomen', 'Left Face', 'Abdomen']",
,,,,,,,,,,,,,,,,,,,,,,,,,,,,,,,,,,,,36.91358024691358,1468.0057551099453,,,9,F,1,12,R,MS MH,49,49,2022_Dec_11_1413,2020.2.10,distractmap1,60.00452434065863,"['Left Face', 'Abdomen', 'Left Face', 'Abdomen']",
2,"[0, 0.2]",None,0,0,0,0,1497.4583175000153,None,None,None,"[0, 0, 0]",1500.2415236000088,None,1500.2415236000088,1501.2415366999921,1501.224762399972,1502.2248701999779,"[0, 0, 0]",1,1500.2415236000088,None,,,,,,,,,,,,,,,,,0.012437990051694214,5.007904990052339,9,F,1,12,R,MS MH,49,49,2022_Dec_11_1413,2020.2.10,distractmap1,60.00452434065863,"['Left Face', 'Abdomen', 'Left Face', 'Abdomen']",
5,"[0, 0]",None,0,1,1,1,,,None,None,"[0, 0, 0]",1502.2415100000217,1504.2415426999796,1502.2415100000217,1503.2416213999968,1503.2248923999723,1504.2248678000178,"[0, 0, 0]",1,1502.2415100000217,1504.2415426999796,,,,,,,,,,,,,,,,,,,9,F,1,12,R,MS MH,49,49,2022_Dec_11_1413,2020.2.10,distractmap1,60.00452434065863,"['Left Face', 'Abdomen', 'Left Face', 'Abdomen']",
3,"[0.2, 0.2]",0.0,0,2,2,2,,,None,None,"[0, 0, 0]",1504.258190100023,1506.258232399996,1504.258190100023,1505.2582273000153,1505.241545500001,1506.2415597999934,"[0, 0, 0]",1,1504.258190100023,1506.258232399996,,,,,,,,,,,,,,,,,,,9,F,1,12,R,MS MH,49,49,2022_Dec_11_1413,2020.2.10,distractmap1,60.00452434065863,"['Left Face', 'Abdomen', 'Left Face', 'Abdomen']",
5,"[0, 0]",1.0,0,3,3,3,,,None,None,"[0, 0, 0]",1506.2748811999918,1508.2749429999967,1506.2748811999918,1507.2749162000255,1507.2582370999735,1508.258276699984,"[0, 0, 0]",1,1506.2748811999918,1508.2749429999967,,,,,,,,,,,,,,,,,,,9,F,1,12,R,MS MH,49,49,2022_Dec_11_1413,2020.2.10,distractmap1,60.00452434065863,"['Left Face', 'Abdomen', 'Left Face', 'Abdomen']",
2,"[0, 0.2]",0.0,0,4,4,4,,,None,None,"[0, 0, 0]",1508.3415062000277,None,1508.3415062000277,1509.341620400024,1509.341620400024,None,"[0, 0, 0]",1,1508.3415062000277,None,,,,,,,,,,,,,,,,,,,9,F,1,12,R,MS MH,49,49,2022_Dec_11_1413,2020.2.10,distractmap1,60.00452434065863,"['Left Face', 'Abdomen', 'Left Face', 'Abdomen']",
8,"[0, -0.2]",0.0,0,5,5,5,,,None,None,"[0, 0, 0]",1510.3082734000054,1512.3082845999743,1510.3082734000054,1511.3082841000287,1511.2916398000089,1512.291653799999,"[0, 0, 0]",1,1510.3082734000054,1512.3082845999743,,,,,,,,,,,,,,,,,,,9,F,1,12,R,MS MH,49,49,2022_Dec_11_1413,2020.2.10,distractmap1,60.00452434065863,"['Left Face', 'Abdomen', 'Left Face', 'Abdomen']",
4,"[-0.2, 0]",0.0,0,6,6,6,,,None,None,"[0, 0, 0]",1512.3249488999718,1514.3249497999786,1512.3249488999718,1513.3249562000274,1513.3081873999909,1514.3082944999915,"[0, 0, 0]",1,1512.3249488999718,1514.3249497999786,,,,,,,,,,,,,,,,,,,9,F,1,12,R,MS MH,49,49,2022_Dec_11_1413,2020.2.10,distractmap1,60.00452434065863,"['Left Face', 'Abdomen', 'Left Face', 'Abdomen']",
8,"[0, -0.2]",1.0,0,7,7,7,,,None,None,"[0, 0, 0]",1514.3416368999751,1516.3416122000199,1514.3416368999751,1515.3416599999764,1515.3249812999857,1516.324964599975,"[0, 0, 0]",1,1514.3416368999751,1516.3416122000199,,,,,,,,,,,,,,,,,,,9,F,1,12,R,MS MH,49,49,2022_Dec_11_1413,2020.2.10,distractmap1,60.00452434065863,"['Left Face', 'Abdomen', 'Left Face', 'Abdomen']",
7,"[-0.2, -0.2]",0.0,0,8,8,8,,,None,None,"[0, 0, 0]",1516.3583083000267,1518.358344200009,1516.3583083000267,1517.35833670001,1517.3416519999737,1518.3416706999997,"[0, 0, 0]",1,1516.3583083000267,1518.358344200009,,,,,,,,,,,,,,,,,,,9,F,1,12,R,MS MH,49,49,2022_Dec_11_1413,2020.2.10,distractmap1,60.00452434065863,"['Left Face', 'Abdomen', 'Left Face', 'Abdomen']",
8,"[0, -0.2]",1.0,0,9,9,9,,,None,None,"[0, 0, 0]",1518.3750071999966,1520.375029399991,1518.3750071999966,1519.375011999975,1519.3583575999946,1520.3583448000136,"[0, 0, 0]",0,1518.3750071999966,1520.375029399991,,,,,,,,,,,,,,,,,,,9,F,1,12,R,MS MH,49,49,2022_Dec_11_1413,2020.2.10,distractmap1,60.00452434065863,"['Left Face', 'Abdomen', 'Left Face', 'Abdomen']",
,,,,,,,,,,,,,,,,,,,,,,1520.4083883999847,None,,,,,,,,,,,,,,,,,9,F,1,12,R,MS MH,49,49,2022_Dec_11_1413,2020.2.10,distractmap1,60.00452434065863,"['Left Face', 'Abdomen', 'Left Face', 'Abdomen']",
,,,,,,,,,,,,,,,,,,,,,,,,,,,,,,,,,,,,22.962962962962962,1505.039593609923,,,9,F,1,12,R,MS MH,49,49,2022_Dec_11_1413,2020.2.10,distractmap1,60.00452434065863,"['Left Face', 'Abdomen', 'Left Face', 'Abdomen']",
2,"[0, 0.2]",None,0,0,0,0,1625.692920600006,None,None,None,"[0, 0, 0]",1630.4761115000001,None,1630.4761115000001,1631.4760950999917,1631.4594017000054,1632.4594350000261,"[0, 0, 0]",1,1630.4761115000001,None,,,,,,,,,,,,,1595.4090790000046,None,,,0.012234690075274557,5.007478690065909,9,F,1,12,R,MS MH,49,49,2022_Dec_11_1413,2020.2.10,distractmap1,60.00452434065863,"['Left Face', 'Abdomen', 'Left Face', 'Abdomen']",
2,"[0, 0.2]",None,0,1,1,1,,,None,None,"[0, 0, 0]",1632.4760823000106,1634.476101999986,1632.4760823000106,1633.476104500005,1633.459440400009,1634.4594271000242,"[0, 0, 0]",1,1632.4760823000106,1634.476101999986,,,,,,,,,,,,,,,,,,,9,F,1,12,R,MS MH,49,49,2022_Dec_11_1413,2020.2.10,distractmap1,60.00452434065863,"['Left Face', 'Abdomen', 'Left Face', 'Abdomen']",
2,"[0, 0.2]",1.0,0,2,2,2,,,None,None,"[0, 0, 0]",1634.4927529999986,1636.4928386000101,1634.4927529999986,1635.4927748999908,1635.4760924000293,1636.4761673000176,"[0, 0, 0]",1,1634.4927529999986,1636.4928386000101,,,,,,,,,,,,,,,,,,,9,F,1,12,R,MS MH,49,49,2022_Dec_11_1413,2020.2.10,distractmap1,60.00452434065863,"['Left Face', 'Abdomen', 'Left Face', 'Abdomen']",
8,"[0, -0.2]",0.0,0,3,3,3,,,None,None,"[0, 0, 0]",1636.509454599989,1638.5094847999862,1636.509454599989,1637.509483599977,1637.492812499986,1638.4928064999986,"[0, 0, 0]",1,1636.509454599989,1638.5094847999862,,,,,,,,,,,,,,,,,,,9,F,1,12,R,MS MH,49,49,2022_Dec_11_1413,2020.2.10,distractmap1,60.00452434065863,"['Left Face', 'Abdomen', 'Left Face', 'Abdomen']",
2,"[0, 0.2]",1.0,0,4,4,4,,,None,None,"[0, 0, 0]",1638.576388699992,None,1638.576388699992,1639.5761762000038,1639.5595069000265,None,"[0, 0, 0]",1,1638.576388699992,None,,,,,,,,,,,,,,,,,,,9,F,1,12,R,MS MH,49,49,2022_Dec_11_1413,2020.2.10,distractmap1,60.00452434065863,"['Left Face', 'Abdomen', 'Left Face', 'Abdomen']",
5,"[0, 0]",0.0,0,5,5,5,,,None,None,"[0, 0, 0]",1640.5427965000272,1642.5428842999972,1640.5427965000272,1641.542832200008,1641.5261763000162,1642.5261875999859,"[0, 0, 0]",1,1640.5427965000272,1642.5428842999972,,,,,,,,,,,,,,,,,,,9,F,1,12,R,MS MH,49,49,2022_Dec_11_1413,2020.2.10,distractmap1,60.00452434065863,"['Left Face', 'Abdomen', 'Left Face', 'Abdomen']",
1,"[-0.2, 0.2]",0.0,0,6,6,6,,,None,None,"[0, 0, 0]",1642.5595319999848,1644.559600299981,1642.5595319999848,1643.5595389999798,1643.5428521999856,1644.5429206999834,"[0, 0, 0]",1,1642.5595319999848,1644.559600299981,,,,,,,,,,,,,,,,,,,9,F,1,12,R,MS MH,49,49,2022_Dec_11_1413,2020.2.10,distractmap1,60.00452434065863,"['Left Face', 'Abdomen', 'Left Face', 'Abdomen']",
1,"[-0.2, 0.2]",0.0,0,7,7,7,,,None,None,"[0, 0, 0]",1644.5762473000214,1646.5762106999755,1644.5762473000214,1645.576227099984,1645.5595758000272,1646.559573800012,"[0, 0, 0]",1,1644.5762473000214,1646.5762106999755,,,,,,,,,,,,,,,,,,,9,F,1,12,R,MS MH,49,49,2022_Dec_11_1413,2020.2.10,distractmap1,60.00452434065863,"['Left Face', 'Abdomen', 'Left Face', 'Abdomen']",
6,"[0.2, 0]",0.0,0,8,8,8,,,None,None,"[0, 0, 0]",1646.59290410002,1648.5929211999755,1646.59290410002,1647.592901099997,1647.5762163000181,1648.576292600017,"[0, 0, 0]",1,1646.59290410002,1648.5929211999755,,,,,,,,,,,,,,,,,,,9,F,1,12,R,MS MH,49,49,2022_Dec_11_1413,2020.2.10,distractmap1,60.00452434065863,"['Left Face', 'Abdomen', 'Left Face', 'Abdomen']",
1,"[-0.2, 0.2]",1.0,0,9,9,9,,,None,None,"[0, 0, 0]",1648.609589700005,1650.6096243999782,1648.609589700005,1649.6095862999791,1649.5929355000262,1650.5929148999858,"[0, 0, 0]",1,1648.609589700005,1650.6096243999782,,,,,,,,,,,,,,,,,,,9,F,1,12,R,MS MH,49,49,2022_Dec_11_1413,2020.2.10,distractmap1,60.00452434065863,"['Left Face', 'Abdomen', 'Left Face', 'Abdomen']",
,,,,,,,,,,,,,,,,,,,,,,1650.642925799999,None,,,,,,,,,,,,,,,,,9,F,1,12,R,MS MH,49,49,2022_Dec_11_1413,2020.2.10,distractmap1,60.00452434065863,"['Left Face', 'Abdomen', 'Left Face', 'Abdomen']",
,,,,,,,,,,,,,,,,,,,,,,,,,,,,,,,,,,,,19.876543209876544,1638.7904711100273,,,9,F,1,12,R,MS MH,49,49,2022_Dec_11_1413,2020.2.10,distractmap1,60.00452434065863,"['Left Face', 'Abdomen', 'Left Face', 'Abdomen']",
3,"[0.2, 0.2]",None,0,0,0,0,1668.7111880999873,None,None,None,"[0, 0, 0]",1670.7097904999973,None,1670.7097904999973,1671.7097568999743,1671.6931272000074,1672.6931330999942,"[0, 0, 0]",1,1670.7097904999973,None,,,,,,,,,,,,,,,,,0.01262818998657167,5.008282990020234,9,F,1,12,R,MS MH,49,49,2022_Dec_11_1413,2020.2.10,distractmap1,60.00452434065863,"['Left Face', 'Abdomen', 'Left Face', 'Abdomen']",
3,"[0.2, 0.2]",None,0,1,1,1,,,None,None,"[0, 0, 0]",1672.709798900003,1674.709832100023,1672.709798900003,1673.7098240000196,1673.6931317999843,1674.693162999989,"[0, 0, 0]",1,1672.709798900003,1674.709832100023,,,,,,,,,,,,,,,,,,,9,F,1,12,R,MS MH,49,49,2022_Dec_11_1413,2020.2.10,distractmap1,60.00452434065863,"['Left Face', 'Abdomen', 'Left Face', 'Abdomen']",
5,"[0, 0]",0.0,0,2,2,2,,,None,None,"[0, 0, 0]",1674.7264961000183,1676.726519800024,1674.7264961000183,1675.7265162999975,1675.709829600004,1676.7098397000227,"[0, 0, 0]",1,1674.7264961000183,1676.726519800024,,,,,,,,,,,,,,,,,,,9,F,1,12,R,MS MH,49,49,2022_Dec_11_1413,2020.2.10,distractmap1,60.00452434065863,"['Left Face', 'Abdomen', 'Left Face', 'Abdomen']",
1,"[-0.2, 0.2]",0.0,0,3,3,3,,,None,None,"[0, 0, 0]",1676.7430820000009,1678.7432022999856,1676.7430820000009,1677.7431953999912,1677.7265311999945,1678.7265332000097,"[0, 0, 0]",1,1676.7430820000009,1678.7432022999856,,,,,,,,,,,,,,,,,,,9,F,1,12,R,MS MH,49,49,2022_Dec_11_1413,2020.2.10,distractmap1,60.00452434065863,"['Left Face', 'Abdomen', 'Left Face', 'Abdomen']",
5,"[0, 0]",1.0,0,4,4,4,,,None,None,"[0, 0, 0]",1678.8098698999966,None,1678.8098698999966,1679.8098647000152,1679.8098647000152,None,"[0, 0, 0]",1,1678.8098698999966,None,,,,,,,,,,,,,,,,,,,9,F,1,12,R,MS MH,49,49,2022_Dec_11_1413,2020.2.10,distractmap1,60.00452434065863,"['Left Face', 'Abdomen', 'Left Face', 'Abdomen']",
8,"[0, -0.2]",0.0,0,5,5,5,,,None,None,"[0, 0, 0]",1680.7765540999826,1682.7765864999965,1680.7765540999826,1681.7765525000286,1681.7599065999966,1682.7598997000023,"[0, 0, 0]",1,1680.7765540999826,1682.7765864999965,,,,,,,,,,,,,,,,,,,9,F,1,12,R,MS MH,49,49,2022_Dec_11_1413,2020.2.10,distractmap1,60.00452434065863,"['Left Face', 'Abdomen', 'Left Face', 'Abdomen']",
5,"[0, 0]",1.0,0,6,6,6,,,None,None,"[0, 0, 0]",1682.793234599987,1684.7932460000156,1682.793234599987,1683.7932368000038,1683.7765887000132,1684.7765980000258,"[0, 0, 0]",0,1682.793234599987,1684.7932460000156,,,,,,,,,,,,,,,,,,,9,F,1,12,R,MS MH,49,49,2022_Dec_11_1413,2020.2.10,distractmap1,60.00452434065863,"['Left Face', 'Abdomen', 'Left Face', 'Abdomen']",
7,"[-0.2, -0.2]",0.0,0,7,7,7,,,None,None,"[0, 0, 0]",1684.8099275000277,1686.8099312999984,1684.8099275000277,1685.8099582999712,1685.793264499982,1686.7933105999837,"[0, 0, 0]",1,1684.8099275000277,1686.8099312999984,,,,,,,,,,,,,,,,,,,9,F,1,12,R,MS MH,49,49,2022_Dec_11_1413,2020.2.10,distractmap1,60.00452434065863,"['Left Face', 'Abdomen', 'Left Face', 'Abdomen']",
5,"[0, 0]",1.0,0,8,8,8,,,None,None,"[0, 0, 0]",1686.8266013999819,1688.826621300017,1686.8266013999819,1687.8266299000243,1687.8099453999894,1688.8099814999732,"[0, 0, 0]",1,1686.8266013999819,1688.826621300017,,,,,,,,,,,,,,,,,,,9,F,1,12,R,MS MH,49,49,2022_Dec_11_1413,2020.2.10,distractmap1,60.00452434065863,"['Left Face', 'Abdomen', 'Left Face', 'Abdomen']",
7,"[-0.2, -0.2]",1.0,0,9,9,9,,,None,None,"[0, 0, 0]",1688.8432962999796,1690.8433018000214,1688.8432962999796,1689.8433084000135,1689.8266382000293,1690.8266596000176,"[0, 0, 0]",1,1688.8432962999796,1690.8433018000214,,,,,,,,,,,,,,,,,,,9,F,1,12,R,MS MH,49,49,2022_Dec_11_1413,2020.2.10,distractmap1,60.00452434065863,"['Left Face', 'Abdomen', 'Left Face', 'Abdomen']",
,,,,,,,,,,,,,,,,,,,,,,1690.8766986000119,None,,,,,,,,,,,,,,,,,9,F,1,12,R,MS MH,49,49,2022_Dec_11_1413,2020.2.10,distractmap1,60.00452434065863,"['Left Face', 'Abdomen', 'Left Face', 'Abdomen']",
,,,,,,,,,,,,,,,,,,,,,,,,,,,,,,,,,,,,23.45679012345679,1676.374465610017,,,9,F,1,12,R,MS MH,49,49,2022_Dec_11_1413,2020.2.10,distractmap1,60.00452434065863,"['Left Face', 'Abdomen', 'Left Face', 'Abdomen']",
6,"[0.2, 0]",None,0,0,0,0,1704.9937195000239,None,None,None,"[0, 0, 0]",1710.9435328000109,None,1710.9435328000109,1711.943514099985,1711.9268455000129,None,"[0, 0, 0]",1,1710.9435328000109,None,,,,,,,,,,,,,,,,,0.012312490027397871,5.007830290007405,9,F,1,12,R,MS MH,49,49,2022_Dec_11_1413,2020.2.10,distractmap1,60.00452434065863,"['Left Face', 'Abdomen', 'Left Face', 'Abdomen']",
1,"[-0.2, 0.2]",None,0,1,1,1,,,None,None,"[0, 0, 0]",1712.9268846000195,1714.9268664999981,1712.9268846000195,1713.9268998000189,1713.9102569000097,1714.9102063999744,"[0, 0, 0]",1,1712.9268846000195,1714.9268664999981,,,,,,,,,,,,,,,,,,,9,F,1,12,R,MS MH,49,49,2022_Dec_11_1413,2020.2.10,distractmap1,60.00452434065863,"['Left Face', 'Abdomen', 'Left Face', 'Abdomen']",
6,"[0.2, 0]",1.0,0,2,2,2,,,None,None,"[0, 0, 0]",1714.943535999977,1716.943570500007,1714.943535999977,1715.943569199997,1715.9268767000176,1716.9268835000112,"[0, 0, 0]",1,1714.943535999977,1716.943570500007,,,,,,,,,,,,,,,,,,,9,F,1,12,R,MS MH,49,49,2022_Dec_11_1413,2020.2.10,distractmap1,60.00452434065863,"['Left Face', 'Abdomen', 'Left Face', 'Abdomen']",
4,"[-0.2, 0]",0.0,0,3,3,3,,,None,None,"[0, 0, 0]",1716.9602298000245,1718.9602552999859,1716.9602298000245,1717.9602294000215,1717.9435865000123,1718.9435822999803,"[0, 0, 0]",1,1716.9602298000245,1718.9602552999859,,,,,,,,,,,,,,,,,,,9,F,1,12,R,MS MH,49,49,2022_Dec_11_1413,2020.2.10,distractmap1,60.00452434065863,"['Left Face', 'Abdomen', 'Left Face', 'Abdomen']",
1,"[-0.2, 0.2]",0.0,0,4,4,4,,,None,None,"[0, 0, 0]",1719.0272240000195,None,1719.0272240000195,1720.0268882000237,1720.0102539000218,None,"[0, 0, 0]",0,1719.0272240000195,None,,,,,,,,,,,,,,,,,,,9,F,1,12,R,MS MH,49,49,2022_Dec_11_1413,2020.2.10,distractmap1,60.00452434065863,"['Left Face', 'Abdomen', 'Left Face', 'Abdomen']",
8,"[0, -0.2]",0.0,0,5,5,5,,,None,None,"[0, 0, 0]",1720.9936045000213,1722.993610800011,1720.9936045000213,1721.9936115000164,1721.9769417999778,1722.9769628000213,"[0, 0, 0]",1,1720.9936045000213,1722.993610800011,,,,,,,,,,,,,,,,,,,9,F,1,12,R,MS MH,49,49,2022_Dec_11_1413,2020.2.10,distractmap1,60.00452434065863,"['Left Face', 'Abdomen', 'Left Face', 'Abdomen']",
1,"[-0.2, 0.2]",1.0,0,6,6,6,,,None,None,"[0, 0, 0]",1723.010268300015,1725.0103114999947,1723.010268300015,1724.0102948999847,1723.9936461999896,1724.9936193000176,"[0, 0, 0]",0,1723.010268300015,1725.0103114999947,,,,,,,,,,,,,,,,,,,9,F,1,12,R,MS MH,49,49,2022_Dec_11_1413,2020.2.10,distractmap1,60.00452434065863,"['Left Face', 'Abdomen', 'Left Face', 'Abdomen']",
8,"[0, -0.2]",1.0,0,7,7,7,,,None,None,"[0, 0, 0]",1725.0269593999838,1727.0269773000036,1725.0269593999838,1726.0269767999998,1726.0103138000122,1727.0103063000133,"[0, 0, 0]",1,1725.0269593999838,1727.0269773000036,,,,,,,,,,,,,,,,,,,9,F,1,12,R,MS MH,49,49,2022_Dec_11_1413,2020.2.10,distractmap1,60.00452434065863,"['Left Face', 'Abdomen', 'Left Face', 'Abdomen']",
1,"[-0.2, 0.2]",1.0,0,8,8,8,,,None,None,"[0, 0, 0]",1727.0436294000247,1729.0436628999887,1727.0436294000247,1728.0437231999822,1728.0270041999756,1729.0269988999935,"[0, 0, 0]",0,1727.0436294000247,1729.0436628999887,,,,,,,,,,,,,,,,,,,9,F,1,12,R,MS MH,49,49,2022_Dec_11_1413,2020.2.10,distractmap1,60.00452434065863,"['Left Face', 'Abdomen', 'Left Face', 'Abdomen']",
6,"[0.2, 0]",0.0,0,9,9,9,,,None,None,"[0, 0, 0]",1729.0603432999924,1731.060399000009,1729.0603432999924,1730.0603328999714,1730.0436754000257,1731.0436875000014,"[0, 0, 0]",1,1729.0603432999924,1731.060399000009,,,,,,,,,,,,,,,,,,,9,F,1,12,R,MS MH,49,49,2022_Dec_11_1413,2020.2.10,distractmap1,60.00452434065863,"['Left Face', 'Abdomen', 'Left Face', 'Abdomen']",
,,,,,,,,,,,,,,,,,,,,,,1731.0936907000141,None,,,,,,,,,,,,,,,,,9,F,1,12,R,MS MH,49,49,2022_Dec_11_1413,2020.2.10,distractmap1,60.00452434065863,"['Left Face', 'Abdomen', 'Left Face', 'Abdomen']",
,,,,,,,,,,,,,,,,,,,,,,,,,,,,,,,,,,,,29.259259259259256,1718.5751725099399,,,9,F,1,12,R,MS MH,49,49,2022_Dec_11_1413,2020.2.10,distractmap1,60.00452434065863,"['Left Face', 'Abdomen', 'Left Face', 'Abdomen']",
,,,,,,,1766.110697600001,None,,,,,,,,,,,,,,,,,,,,,,,,,,1746.11049609998,None,65.06172839506172,1753.2044893100392,0.012018790061119944,5.007044390018564,9,F,1,12,R,MS MH,49,49,2022_Dec_11_1413,2020.2.10,distractmap1,60.00452434065863,"['Left Face', 'Abdomen', 'Left Face', 'Abdomen']",
,,,,,,,1801.1276921000099,None,,,,,,,,,,,,,,,,,,,,,,,,,,1781.1275409000227,None,65.4320987654321,1785.9901299099438,0.016352289996575564,5.01565318997018,9,F,1,12,R,MS MH,49,49,2022_Dec_11_1413,2020.2.10,distractmap1,60.00452434065863,"['Left Face', 'Abdomen', 'Left Face', 'Abdomen']",
,,,,,,,1836.1446860000142,None,,,,,,,,,,,,,,,,,,,,,,,,,,1816.14449039998,None,65.30864197530865,1820.9571186100366,0.014358690066728741,5.011718990048394,9,F,1,12,R,MS MH,49,49,2022_Dec_11_1413,2020.2.10,distractmap1,60.00452434065863,"['Left Face', 'Abdomen', 'Left Face', 'Abdomen']",
7,"[-0.2, -0.2]",None,0,0,0,0,2041.1462385000195,None,None,None,"[0, 0, 0]",2047.6633748000022,None,2047.6633748000022,2048.663283700007,2048.6466442000237,2049.646723199985,"[0, 0, 0]",1,2047.6633748000022,None,,,,,,1910.5620794999995,1910.5620794999995,None,space,105.86829850001959,1910.5620794999995,None,,,,,0.014371389988809824,5.011679989984259,9,F,1,12,R,MS MH,49,49,2022_Dec_11_1413,2020.2.10,distractmap1,60.00452434065863,"['Left Face', 'Abdomen', 'Left Face', 'Abdomen']",
7,"[-0.2, -0.2]",None,0,1,1,1,,,None,None,"[0, 0, 0]",2049.663390300004,2051.6633999000187,2049.663390300004,2050.6634027999826,2050.6467254000017,2051.646710400004,"[0, 0, 0]",1,2049.663390300004,2051.6633999000187,,,,,,,,,,,,,,,,,,,9,F,1,12,R,MS MH,49,49,2022_Dec_11_1413,2020.2.10,distractmap1,60.00452434065863,"['Left Face', 'Abdomen', 'Left Face', 'Abdomen']",
7,"[-0.2, -0.2]",1.0,0,2,2,2,,,None,None,"[0, 0, 0]",2051.68007100001,2053.6800746999797,2051.68007100001,2052.6800791000132,2052.663408100023,2053.6634389000246,"[0, 0, 0]",1,2051.68007100001,2053.6800746999797,,,,,,,,,,,,,,,,,,,9,F,1,12,R,MS MH,49,49,2022_Dec_11_1413,2020.2.10,distractmap1,60.00452434065863,"['Left Face', 'Abdomen', 'Left Face', 'Abdomen']",
5,"[0, 0]",0.0,0,3,3,3,,,None,None,"[0, 0, 0]",2053.6967410999932,2055.6967536999728,2053.6967410999932,2054.696764399996,2054.6800971999764,2055.680094100011,"[0, 0, 0]",1,2053.6967410999932,2055.6967536999728,,,,,,,,,,,,,,,,,,,9,F,1,12,R,MS MH,49,49,2022_Dec_11_1413,2020.2.10,distractmap1,60.00452434065863,"['Left Face', 'Abdomen', 'Left Face', 'Abdomen']",
1,"[-0.2, 0.2]",0.0,0,4,4,4,,,None,None,"[0, 0, 0]",2055.746925799991,None,2055.746925799991,2056.7467888999963,2056.713452600001,2057.713486600027,"[0, 0, 0]",1,2055.746925799991,None,,,,,,,,,,,,,,,,,,,9,F,1,12,R,MS MH,49,49,2022_Dec_11_1413,2020.2.10,distractmap1,60.00452434065863,"['Left Face', 'Abdomen', 'Left Face', 'Abdomen']",
