	onset	duration	rt	response	correct	bodySite	temperature	condition	pretrial-jitter
0	7.765839500003494	19.9998938900535				Abdomen	32.0	Rest-NoStim	5.0
1	27.766017300018575	7.016439390019514				Abdomen		PostTrialFixation	
2	37.76756750000641	20.013657490024343				Abdomen	32.0	Rest-NoStim	3.0
3	57.76761030004127	7.013817990024108				Abdomen		PostTrialFixation	
4	67.76763780001784	20.014089989999775				Abdomen	32.0	Rest-NoStim	3.0
5	87.76867820002371	5.012258990027476				Abdomen		PostTrialFixation	
6	97.78334160003578	19.99996808997821				Abdomen	49.0	Rest-Stim	5.0
7	117.78354730003048	7.01644259004388				Abdomen		PostTrialFixation	
8	124.78616070002317	5.011427189980168		71.11111111111111		Abdomen	49.0	Rest-Stim Rating	7.0
9	132.80042139999568	19.999777189979795				Abdomen	49.0	Rest-Stim	3.0
10	152.8005487000337	5.016426390036941				Abdomen		PostTrialFixation	
11	157.80316810001386	5.011342589976266		86.41975308641975		Abdomen	49.0	Rest-Stim Rating	5.0
12	167.8173506000312	19.99992808996467				Abdomen	49.0	Rest-Stim	5.0
13	187.817557100032	5.016394889971707				Abdomen		PostTrialFixation	
14	192.82017970003653	5.011368990002666		65.98765432098766		Abdomen	49.0	Rest-Stim Rating	5.0
15	197.83122490003007	202.85137980000582				Abdomen	32.0	2back Instructions	
16	207.88143649999984	1.989108190056868			1.0	Abdomen	49.0	2back-stim	
17	209.89037229999667	2.00457719003316			1.0	Abdomen	49.0	2back-stim	5.0
18	211.90584289998515	2.0070183900534175	0.0	2.0	1.0	Abdomen	49.0	2back-stim	
19	213.9224116000114	2.0071606900310144	0.0	2.0	1.0	Abdomen	49.0	2back-stim	
20	215.98727179999696	1.960806360002607	0.5999779999838211	0.0	1.0	Abdomen	49.0	2back-stim	
21	217.95580530003645	2.007173989957664	0.9858900999533944	0.0	1.0	Abdomen	49.0	2back-stim	
22	219.97267560003093	2.0068536899634637	0.0	2.0	1.0	Abdomen	49.0	2back-stim	
23	221.98920469998848	2.007027790066786	0.0	2.0	1.0	Abdomen	49.0	2back-stim	
24	224.00586909998674	2.0071302900323644	0.0	2.0	1.0	Abdomen	49.0	2back-stim	
25	226.02227130002575	2.0077007900108583	0.9670034000300802	0.0	1.0	Abdomen	49.0	2back-stim	
26	235.0552885000361	5.008646289992612		18.51851851851852		Abdomen	49.0	2back-stim Rating	7.0
27	240.06500980001874	245.08512780000456				Abdomen	32.0	2back Instructions	
28	248.11423870001454	1.9908331900369376			1.0	Abdomen	49.0	2back-stim	
29	250.12372820003657	2.0052481899620034			1.0	Abdomen	49.0	2back-stim	3.0
30	252.13947970001027	2.007085490040481	0.0	2.0	1.0	Abdomen	49.0	2back-stim	
31	254.15596579998964	2.007608190062456	0.0	2.0	1.0	Abdomen	49.0	2back-stim	
32	256.2008167000022	1.9678486800403334	0.5691537000238895	0.0	1.0	Abdomen	49.0	2back-stim	
33	258.18966540001566	2.0068452900159173	1.033653599966783	0.0	0.0	Abdomen	49.0	2back-stim	
34	260.2061795000336	2.00721498997882	0.0	2.0	1.0	Abdomen	49.0	2back-stim	
35	262.22289650002494	2.0071377900312655	0.467012400040403	0.0	1.0	Abdomen	49.0	2back-stim	
36	264.2395236000302	2.007236890029162	0.0	2.0	1.0	Abdomen	49.0	2back-stim	
37	266.2561955000274	2.0072622899897397	0.4837262000073679	0.0	0.0	Abdomen	49.0	2back-stim	
38	271.28932189999614	5.007858489989303		30.617283950617285		Abdomen	49.0	2back-stim Rating	3.0
39	276.29855040000984	281.318788100034				Abdomen	32.0	2back Instructions	
40	288.34783750004135	1.991082290012855			1.0	Abdomen	49.0	2back-stim	
41	290.35761469998397	2.0049355900264345			1.0	Abdomen	49.0	2back-stim	7.0
42	292.373081800004	2.007377890055068	0.5670139999710955	0.0	1.0	Abdomen	49.0	2back-stim	
43	294.3900550000253	2.006789890001528	0.0	2.0	1.0	Abdomen	49.0	2back-stim	
44	296.46267909999005	1.9448843599529937	0.0	2.0	1.0	Abdomen	49.0	2back-stim	
45	298.4231171000283	2.0074835900450125	0.0	2.0	1.0	Abdomen	49.0	2back-stim	
46	300.43999859999167	2.0070041900034994	0.0	2.0	1.0	Abdomen	49.0	2back-stim	
47	302.456559800019	2.0072228900389746	0.0	2.0	1.0	Abdomen	49.0	2back-stim	
48	304.4732100000256	2.007300590048544	0.4503374000196345	0.0	1.0	Abdomen	49.0	2back-stim	
49	306.49000729998806	2.007076690031681	0.0	2.0	1.0	Abdomen	49.0	2back-stim	
50	313.5233938000165	5.007201390049886		28.827160493827158		Abdomen	49.0	2back-stim Rating	5.0
51	318.532591300027	323.5525309999939				Abdomen	49.0	2back Instructions	
52	328.5666748000076	1.9875107900588773			1.0	Abdomen	32.0	2back-nostim	
53	330.57440750004025	2.005490289942827			1.0	Abdomen	32.0	2back-nostim	5.0
54	332.5902217000257	2.0070993899716996	0.0	2.0	1.0	Abdomen	32.0	2back-nostim	
55	334.6069148000097	2.0071655900101177	0.5336501999991015	0.0	1.0	Abdomen	32.0	2back-nostim	
56	336.6235319999978	2.007241990067996	0.0	2.0	1.0	Abdomen	32.0	2back-nostim	
57	338.6403643999947	2.006977690034546	0.0	2.0	1.0	Abdomen	32.0	2back-nostim	
58	340.65699759998824	2.007076890033204	0.0	2.0	1.0	Abdomen	32.0	2back-nostim	
59	342.67361530003836	2.007229489972815	0.7530979000148363	0.0	1.0	Abdomen	32.0	2back-nostim	
60	344.6902919000131	2.0072602900327183	0.0	2.0	1.0	Abdomen	32.0	2back-nostim	
61	346.70692369999597	2.00738079007715	0.8336709000286646	0.0	1.0	Abdomen	32.0	2back-nostim	
62	351.75085760001093	356.76905970001826				Abdomen	49.0	2back Instructions	
63	363.78256940003484	1.9896987900137901			1.0	Abdomen	32.0	2back-nostim	
64	365.7915941000101	2.0050338900182396			1.0	Abdomen	32.0	2back-nostim	7.0
65	367.80717739998363	2.0072613899828866	0.5170326000079513	0.0	1.0	Abdomen	32.0	2back-nostim	
66	369.82393379998393	2.007097689958755	0.0	2.0	1.0	Abdomen	32.0	2back-nostim	
67	371.8406530999928	2.007048890052829	0.4503243000363	0.0	1.0	Abdomen	32.0	2back-nostim	
68	373.8573616000358	2.0071169899892993	0.0	2.0	1.0	Abdomen	32.0	2back-nostim	
69	375.8737589000375	2.007589789980557	0.0	2.0	1.0	Abdomen	32.0	2back-nostim	
70	377.89053740003146	2.007401490060147	0.0	2.0	1.0	Abdomen	32.0	2back-nostim	
71	379.90732639998896	2.0072201900184155	0.0	2.0	1.0	Abdomen	32.0	2back-nostim	
72	381.92411960003665	2.0069768899702467	0.5671923999907449	0.0	1.0	Abdomen	32.0	2back-nostim	
73	390.9676335999975	395.98613680002745				Abdomen	49.0	2back Instructions	
74	399.0007690000348	1.987342289998196			1.0	Abdomen	32.0	2back-nostim	
75	401.00914460001513	2.004003790032584			1.0	Abdomen	32.0	2back-nostim	3.0
76	403.0238838000223	2.007849889982026	0.0	2.0	1.0	Abdomen	32.0	2back-nostim	
77	405.0412331999978	2.006542690040078	0.0	2.0	1.0	Abdomen	32.0	2back-nostim	
78	407.0575681999908	2.0072884900146164	0.5503139999927953	0.0	1.0	Abdomen	32.0	2back-nostim	
79	409.07439770002384	2.007003689999692	0.0	2.0	1.0	Abdomen	32.0	2back-nostim	
80	411.0909545000177	2.0071493900031783	0.0	2.0	0.0	Abdomen	32.0	2back-nostim	
81	413.10758810001425	2.0073022900614887	0.0	2.0	1.0	Abdomen	32.0	2back-nostim	
82	415.1242438000045	2.007339790055994	0.7505139000131749	0.0	1.0	Abdomen	32.0	2back-nostim	
83	417.1411324000219	2.006939090031665	0.0	2.0	0.0	Abdomen	32.0	2back-nostim	
84	429.18649470002856	19.999929289973807				Abdomen	49.0	Rest-Stim	3.0
85	449.18667500000447	7.016445090062916				Abdomen		PostTrialFixation	
86	456.1897680000402	5.01045579003403		59.93827160493828		Abdomen	49.0	Rest-Stim Rating	7.0
87	464.20353080000496	19.999917890061624				Abdomen	49.0	Rest-Stim	3.0
88	484.2037049999926	6.9997962900670245				Abdomen		PostTrialFixation	
89	491.2041760000284	5.015560090017971		63.76543209876543		Abdomen	49.0	Rest-Stim Rating	7.0
90	499.2204882000224	19.999946589989122				Abdomen	49.0	Rest-Stim	3.0
91	519.2207032000297	7.016431990021374				Abdomen		PostTrialFixation	
92	526.2234715000377	5.011096089961939		60.67901234567902		Abdomen	49.0	Rest-Stim Rating	7.0
93	531.2346165000345	536.2545726000099				Abdomen	32.0	2back Instructions	
94	539.2839451000327	1.9903132899780758			1.0	Abdomen	49.0	2back-stim	
95	541.2932694000192	2.005155790015124			1.0	Abdomen	49.0	2back-stim	3.0
96	543.3090488000307	2.006923290027771	0.48363219999009743	0.0	1.0	Abdomen	49.0	2back-stim	
97	545.325542800012	2.007277589989826	0.0	2.0	1.0	Abdomen	49.0	2back-stim	
98	547.3806232000352	1.9638394700014032	0.5841602000291459	0.0	0.0	Abdomen	49.0	2back-stim	
99	549.3590707000112	2.0069806899991818	0.0	2.0	1.0	Abdomen	49.0	2back-stim	
100	551.3757880000048	2.0068876900477335	0.600333700014744	0.0	1.0	Abdomen	49.0	2back-stim	
101	553.392709799984	2.0063970900373533	0.8503308999934234	0.0	1.0	Abdomen	49.0	2back-stim	
102	555.4091988999862	2.006797390000429	0.7836944999871776	0.0	1.0	Abdomen	49.0	2back-stim	
103	557.425809300039	2.0069325899821706	0.0	2.0	1.0	Abdomen	49.0	2back-stim	
104	562.4595985999913	5.006174789974466		30.864197530864196		Abdomen	49.0	2back-stim Rating	3.0
105	567.4684837000095	572.4882307000225				Abdomen	32.0	2back Instructions	
106	579.5180868000025	1.9894928900175728			1.0	Abdomen	49.0	2back-stim	
107	581.5277387000388	2.0035883900127374			1.0	Abdomen	49.0	2back-stim	7.0
108	583.5428647000226	2.006658790051006	0.5337209000135772	0.0	1.0	Abdomen	49.0	2back-stim	
109	585.5592294000089	2.0072918900405057	0.0	2.0	1.0	Abdomen	49.0	2back-stim	
110	587.6128543000086	1.9667623700224794	0.0	2.0	1.0	Abdomen	49.0	2back-stim	
111	589.5929043000215	2.0066912900074385	0.0	2.0	1.0	Abdomen	49.0	2back-stim	
112	591.6093131999951	2.0072636900586076	0.7194810999790207	0.0	1.0	Abdomen	49.0	2back-stim	
113	593.6256995000294	2.0077714899671264	0.0	2.0	1.0	Abdomen	49.0	2back-stim	
114	595.6426223000162	2.007404590025544	0.766998799983412	0.0	0.0	Abdomen	49.0	2back-stim	
115	597.6605686999974	2.0048827899736352	0.6003748999792151	0.0	1.0	Abdomen	49.0	2back-stim	
116	606.6763728000224	5.00695758999791		30.308641975308642		Abdomen	49.0	2back-stim Rating	7.0
117	611.6854291000054	616.7053337999969				Abdomen	32.0	2back Instructions	
118	619.7349289000267	1.9898348900023848			1.0	Abdomen	49.0	2back-stim	
119	621.7441084000166	2.004869089985732			1.0	Abdomen	49.0	2back-stim	3.0
120	623.7598345000297	2.006943290005438	0.0	2.0	1.0	Abdomen	49.0	2back-stim	
121	625.7763291000156	2.0072694899863563	0.0	2.0	1.0	Abdomen	49.0	2back-stim	
122	627.8493248000159	1.9445910599897616	0.733111200039275	0.0	1.0	Abdomen	49.0	2back-stim	
123	629.8099241000018	2.00680299004307	0.8336891999933869	0.0	1.0	Abdomen	49.0	2back-stim	
124	631.8264769000234	2.007064890000038	0.0	2.0	1.0	Abdomen	49.0	2back-stim	
125	633.8429762999876	2.0074109900160693	0.0	2.0	1.0	Abdomen	49.0	2back-stim	
126	635.8597932999837	2.007133189938031	0.0	2.0	1.0	Abdomen	49.0	2back-stim	
127	637.8765304000117	2.0070261899963953	0.9504458999726921	0.0	1.0	Abdomen	49.0	2back-stim	
128	642.9096755000064	5.0075998899992555		30.06172839506173		Abdomen	49.0	2back-stim Rating	3.0
