	SID	date	sex	session	handedness	scanner	onset	duration	repetition	rating	body_site	keys	temperature	conditionrt	mouseclick	biopac_channel	condition	rt	value
0	2627	2023_Mar_12_1246	M	01	R	MH MS	2.774989000055939	5.017516510561109								19	Instructions		
1	2627	2023_Mar_12_1246	M	01	R	MH MS	8.688178299926221	2.0000397004187107								6	Cue		
2	2627	2023_Mar_12_1246	M	01	R	MH MS	10.69108340004459	5.994616300333291								7	Pre-Jitter		
3	2627	2023_Mar_12_1246	M	01	R	MH MS	16.73508570017293	15.006828099489212			Left Face		48.0			11	Heat-Stimulation		
4	2627	2023_Mar_12_1246	M	01	R	MH MS	31.819126800168306	5.005637400317937								8	Mid-Jitter		
5	2627	2023_Mar_12_1246	M	01	R	MH MS	36.84286919981241	5.00826370017603								20	PainBinary	1.433370599988848	-1.0
6	2627	2023_Mar_12_1246	M	01	R	MH MS	51.86578569980338	5.008352505043149								9	Post-Q-Jitter		
7	2627	2023_Mar_12_1246	M	01	R	MH MS	58.400310799945146	2.0097715007141232								6	Cue		
8	2627	2023_Mar_12_1246	M	01	R	MH MS	60.407599799800664	5.9959615003317595								7	Pre-Jitter		
9	2627	2023_Mar_12_1246	M	01	R	MH MS	66.45034490013495	15.010550600010902			Left Face		48.5			11	Heat-Stimulation		
10	2627	2023_Mar_12_1246	M	01	R	MH MS	81.5345242000185	5.008998900651932								8	Mid-Jitter		
11	2627	2023_Mar_12_1246	M	01	R	MH MS	86.55939640011638	5.0095114996656775								20	PainBinary	1.5687922998331487	1.0
12	2627	2023_Mar_12_1246	M	01	R	MH MS	91.59325700020418	5.0087020001374185								21	IntensityRating		41.111111111111114
13	2627	2023_Mar_12_1246	M	01	R	MH MS	96.62274779984728	4.9996728003025055								22	ToleranceRating	1.4503295999020338	-1.0
14	2627	2023_Mar_12_1246	M	01	R	MH MS	101.62865989981219	5.004618700128049								9	Post-Q-Jitter		
15	2627	2023_Mar_12_1246	M	01	R	MH MS	107.32048630015925	2.004089499823749								6	Cue		
16	2627	2023_Mar_12_1246	M	01	R	MH MS	109.32488379999995	3.995633900165558								7	Pre-Jitter		
17	2627	2023_Mar_12_1246	M	01	R	MH MS	113.36045690020546	15.00800480041653			Left Face		48.0			11	Heat-Stimulation		
18	2627	2023_Mar_12_1246	M	01	R	MH MS	128.45125399995595	5.009942200500518								8	Mid-Jitter		
19	2627	2023_Mar_12_1246	M	01	R	MH MS	133.47827209997922	5.006047199945897								20	PainBinary	3.6500729001127183	1.0
20	2627	2023_Mar_12_1246	M	01	R	MH MS	138.50948840007186	5.010379599407315								21	IntensityRating	4.833406100049615	34.75308641975308
21	2627	2023_Mar_12_1246	M	01	R	MH MS	143.5405409000814	4.998379800003022								22	ToleranceRating	3.6837655999697745	1.0
22	2627	2023_Mar_12_1246	M	01	R	MH MS	148.54505289997905	5.006111200433224								9	Post-Q-Jitter		
23	2627	2023_Mar_12_1246	M	01	R	MH MS	155.07361540012062	1.99846320040524								6	Cue		
24	2627	2023_Mar_12_1246	M	01	R	MH MS	157.0754416999407	3.995523900259286								7	Pre-Jitter		
25	2627	2023_Mar_12_1246	M	01	R	MH MS	161.123282100074	15.000019100029022			Left Face		48.0			11	Heat-Stimulation		
26	2627	2023_Mar_12_1246	M	01	R	MH MS	176.2026676000096	7.00811030017212								8	Mid-Jitter		
27	2627	2023_Mar_12_1246	M	01	R	MH MS	183.23109839996323	5.001416699960828								20	PainBinary	2.8500912999734282	1.0
28	2627	2023_Mar_12_1246	M	01	R	MH MS	188.26005699997768	5.010409899521619								21	IntensityRating		35.123456790123456
29	2627	2023_Mar_12_1246	M	01	R	MH MS	193.29093339992687	4.998612499795854								22	ToleranceRating	2.652160400059074	-1.0
30	2627	2023_Mar_12_1246	M	01	R	MH MS	198.29659639997408	7.00403490010649								9	Post-Q-Jitter		
31	2627	2023_Mar_12_1246	M	01	R	MH MS	205.99364269990474	2.009756200015545								6	Cue		
32	2627	2023_Mar_12_1246	M	01	R	MH MS	208.0084382002242	5.9972161003388464								7	Pre-Jitter		
33	2627	2023_Mar_12_1246	M	01	R	MH MS	214.093163699843	14.994607700034976			Left Face		47.5			11	Heat-Stimulation		
34	2627	2023_Mar_12_1246	M	01	R	MH MS	229.16789950011298	5.012006500270218								8	Mid-Jitter		
35	2627	2023_Mar_12_1246	M	01	R	MH MS	234.19457319984213	5.008827199693769								20	PainBinary	3.1833493001759052	1.0
36	2627	2023_Mar_12_1246	M	01	R	MH MS	239.22722620004788	5.010306199546903								21	IntensityRating	4.900071400217712	29.876543209876544
37	2627	2023_Mar_12_1246	M	01	R	MH MS	244.25715149985626	5.000538399908692								22	ToleranceRating	4.117047999985516	1.0
38	2627	2023_Mar_12_1246	M	01	R	MH MS	249.26303109992296	5.005526500288397								9	Post-Q-Jitter		
39	2627	2023_Mar_12_1246	M	01	R	MH MS	254.9347323998809	2.0119559005834162								6	Cue		
40	2627	2023_Mar_12_1246	M	01	R	MH MS	256.94265699991956	5.99648159975186								7	Pre-Jitter		
41	2627	2023_Mar_12_1246	M	01	R	MH MS	262.98020910006016	15.00485790008679			Left Face		47.5			11	Heat-Stimulation		
42	2627	2023_Mar_12_1246	M	01	R	MH MS	278.0676560001448	7.013490899931639								8	Mid-Jitter		
43	2627	2023_Mar_12_1246	M	01	R	MH MS	285.0948463999666	5.009267499670386								20	PainBinary	2.8000762998126447	1.0
44	2627	2023_Mar_12_1246	M	01	R	MH MS	290.1279723998159	5.009892399888486								21	IntensityRating		32.34567901234568
45	2627	2023_Mar_12_1246	M	01	R	MH MS	295.15869039995596	4.998452799860388								22	ToleranceRating	2.0523705002851784	-1.0
46	2627	2023_Mar_12_1246	M	01	R	MH MS	300.1637635999359	7.005063800606877								9	Post-Q-Jitter		
47	2627	2023_Mar_12_1246	M	01	R	MH MS	307.8331778999418	2.016134900506586								6	Cue		
48	2627	2023_Mar_12_1246	M	01	R	MH MS	309.8434887002222	5.995881600305438								7	Pre-Jitter		
49	2627	2023_Mar_12_1246	M	01	R	MH MS	315.87825459986925	15.009823100175709			Left Face		47.0			11	Heat-Stimulation		
50	2627	2023_Mar_12_1246	M	01	R	MH MS	330.97243290022016	7.005022100172937								8	Mid-Jitter		
51	2627	2023_Mar_12_1246	M	01	R	MH MS	337.9953660001047	5.009442499373108								20	PainBinary		1.0
52	2627	2023_Mar_12_1246	M	01	R	MH MS	343.02799690002576	5.010862200055271								21	IntensityRating		24.19753086419753
53	2627	2023_Mar_12_1246	M	01	R	MH MS	348.05843660002574	4.999954499769956								22	ToleranceRating	4.466960299760103	-1.0
54	2627	2023_Mar_12_1246	M	01	R	MH MS	353.0636872998439	7.006315500009805								9	Post-Q-Jitter		
55	2627	2023_Mar_12_1246	M	01	R	MH MS	360.1027970002033	9.478370799683034								26	ComfortRating	9.450384200084955	36.296296296296305
56	2627	2023_Mar_12_1246	M	01	R	MH MS	369.5993002001196	6.60219920007512								24	ValenceRating	6.583567200228572	66.23456790123457
57	2627	2023_Mar_12_1246	M	01	R	MH MS	376.2260122001171	3.9155223998241127								26	IntensityRating	3.9004421001300216	76.29629629629629
58	2627	2023_Mar_12_1246	M	01	R	MH MS	380.16087769996375	5.445918200071901								27	AvoidanceRating	5.416746699716896	66.9135802469136
59	2627	2023_Mar_12_1246	M	01	R	MH MS	385.62399580003694	6.703124399762601								28	RelaxationRating	6.683690899983048	66.35802469135803
60	2627	2023_Mar_12_1246	M	01	R	MH MS	392.343922900036	10.86345240008086								29	AttentionRating	10.83350450033322	50.617283950617285
61	2627	2023_Mar_12_1246	M	01	R	MH MS	403.22458760021254	6.0189604996703565								30	BoredomRating	6.000406300183386	37.098765432098766
62	2627	2023_Mar_12_1246	M	01	R	MH MS	409.2606426002458	9.496995099820197								31	AlertnessRating	9.483863099943846	9.999999999999986
63	2627	2023_Mar_12_1246	M	01	R	MH MS	418.77815129980445	10.728873699903488								32	PosThxRating	10.700160999782383	0.0
64	2627	2023_Mar_12_1246	M	01	R	MH MS	429.5291241998784	2.7271527997218072								33	NegThxRating	2.700147499796003	0.0
65	2627	2023_Mar_12_1246	M	01	R	MH MS	432.2770897001028	5.714616300072521								34	SelfRating	5.701229199767113	26.049382716049394
66	2627	2023_Mar_12_1246	M	01	R	MH MS	438.00964260008186	8.282910100184381								35	OtherRating	8.26720830006525	-25.30864197530866
67	2627	2023_Mar_12_1246	M	01	R	MH MS	446.31065349979326	5.59770209947601								32	ImageryRating	5.583818099927157	41.234567901234584
68	2627	2023_Mar_12_1246	M	01	R	MH MS	451.92926539992914	14.87736149923876								37	PresentRating	14.850118299946189	16.913580246913583
