RestT1,TaskT1,square,location,corrAns,counterbalancer.thisRepN,counterbalancer.thisTrialN,counterbalancer.thisN,counterbalancer.thisIndex,RestT1Loop.thisRepN,RestT1Loop.thisTrialN,RestT1Loop.thisN,RestT1Loop.thisIndex,TaskT1Loop.thisRepN,TaskT1Loop.thisTrialN,TaskT1Loop.thisN,TaskT1Loop.thisIndex,trials_2.thisRepN,trials_2.thisTrialN,trials_2.thisN,trials_2.thisIndex,fixation_1.started,fixation_1.stopped,NbackInstructions.started,NbackInstructions.stopped,NbackStart.keys,NbackStart.rt,NbackStart.started,NbackStart.stopped,fixation_2.started,fixation_2.stopped,response_2.x,response_2.y,response_2.leftButton,grid_lines_2.started,grid_lines_2.stopped,target_square_2.started,target_square_2.stopped,fixation_3.started,fixation_3.stopped,response_2.click,response_2.corr,response_2.started,response_2.stopped,subject number,gender,session,handedness,scanner,date,expName,psychopyVersion,frameRate,
1,0,,,,0,0,0,0,0,0,0,0,,,,,,,,,70.89199129999906,None,,,,,,,,,,,,,,,,,,,,,,3,f,23,l,KB,2021_Dec_15_1652,WASABI Nback,2020.2.10,59.99599226513765,
0,1,,,,0,1,1,1,,,,,0,0,0,0,,,,,,,345.3776235999976,None,space,33.2595289000019,345.3776235999976,None,,,,,,,,,,,,,,,,3,f,23,l,KB,2021_Dec_15_1652,WASABI Nback,2020.2.10,59.99599226513765,
0,1,5,"[0, 0]",None,0,1,1,1,,,,,0,0,0,0,0,0,0,0,,,,,,,,,None,None,None,None,0,381.427930299993,None,381.427930299993,None,None,None,0,1,381.427930299993,None,3,f,23,l,KB,2021_Dec_15_1652,WASABI Nback,2020.2.10,59.99599226513765,
0,1,2,"[0, 0.2]",None,0,1,1,1,,,,,0,0,0,0,0,1,1,1,,,,,,,,,,,None,None,0,381.6779249999963,None,381.6779249999963,382.67793510000047,382.6612463999918,383.66126259999874,0,1,381.6779249999963,None,3,f,23,l,KB,2021_Dec_15_1652,WASABI Nback,2020.2.10,59.99599226513765,
0,1,6,"[0.2, 0]",None,0,1,1,1,,,,,0,0,0,0,0,2,2,2,,,,,,,,,,,None,None,0,383.6779289999977,None,383.6779289999977,384.6779492999922,384.66126789999544,385.6612721999991,0,1,383.6779289999977,None,3,f,23,l,KB,2021_Dec_15_1652,WASABI Nback,2020.2.10,59.99599226513765,
0,1,9,"[0.2, -0.2]",None,0,1,1,1,,,,,0,0,0,0,0,3,3,3,,,,,,,,,,,None,None,0,385.67795230000047,None,385.67795230000047,386.6779610999947,386.6612771999935,387.661291299999,0,1,385.67795230000047,None,3,f,23,l,KB,2021_Dec_15_1652,WASABI Nback,2020.2.10,59.99599226513765,
0,1,3,"[0.2, 0.2]",None,0,1,1,1,,,,,0,0,0,0,0,4,4,4,,,,,,,,,,,None,None,0,387.67797150000115,None,387.67797150000115,388.6779775000032,388.66129089999595,389.66130720000365,0,1,387.67797150000115,None,3,f,23,l,KB,2021_Dec_15_1652,WASABI Nback,2020.2.10,59.99599226513765,
0,1,9,"[0.2, -0.2]",1,0,1,1,1,,,,,0,0,0,0,0,5,5,5,,,,,,,,,,,None,None,0,389.6779907000018,None,389.6779907000018,390.67800129999523,390.66131969999697,391.6613217999984,0,1,389.6779907000018,None,3,f,23,l,KB,2021_Dec_15_1652,WASABI Nback,2020.2.10,59.99599226513765,
0,1,7,"[-0.2, -0.2]",None,0,1,1,1,,,,,0,0,0,0,0,6,6,6,,,,,,,,,,,None,None,0,391.6780022000021,None,391.6780022000021,392.67801789999066,392.66132889999426,393.6613471000019,0,1,391.6780022000021,None,3,f,23,l,KB,2021_Dec_15_1652,WASABI Nback,2020.2.10,59.99599226513765,
0,1,1,"[-0.2, 0.2]",None,0,1,1,1,,,,,0,0,0,0,0,7,7,7,,,,,,,,,,,None,None,0,393.67803840000124,None,393.67803840000124,394.6780246999988,394.66136050000205,395.66135320000467,0,1,393.67803840000124,None,3,f,23,l,KB,2021_Dec_15_1652,WASABI Nback,2020.2.10,59.99599226513765,
0,1,5,"[0, 0]",None,0,1,1,1,,,,,0,0,0,0,0,8,8,8,,,,,,,,,,,None,None,0,395.678021899992,None,395.678021899992,396.67804849999084,396.6613723999908,397.6613814000011,0,1,395.678021899992,None,3,f,23,l,KB,2021_Dec_15_1652,WASABI Nback,2020.2.10,59.99599226513765,
0,1,7,"[-0.2, -0.2]",None,0,1,1,1,,,,,0,0,0,0,0,9,9,9,,,,,,,,,,,None,None,0,397.67804899999464,None,397.67804899999464,398.67805289999524,398.6613895000046,399.6614045000024,0,1,397.67804899999464,None,3,f,23,l,KB,2021_Dec_15_1652,WASABI Nback,2020.2.10,59.99599226513765,
0,1,5,"[0, 0]",1,0,1,1,1,,,,,0,0,0,0,0,10,10,10,,,,,,,,,,,None,None,0,399.67807520000497,None,399.67807520000497,400.67807369999355,400.6613970000035,401.6614016999956,0,1,399.67807520000497,None,3,f,23,l,KB,2021_Dec_15_1652,WASABI Nback,2020.2.10,59.99599226513765,
0,1,6,"[0.2, 0]",None,0,1,1,1,,,,,0,0,0,0,0,11,11,11,,,,,,,,,,,None,None,0,401.67806089999794,None,401.67806089999794,402.6781038999907,402.6614086000045,403.6614211999986,0,1,401.67806089999794,None,3,f,23,l,KB,2021_Dec_15_1652,WASABI Nback,2020.2.10,59.99599226513765,
0,1,3,"[0.2, 0.2]",None,0,1,1,1,,,,,0,0,0,0,0,12,12,12,,,,,,,,,,,None,None,0,403.67809839999245,None,403.67809839999245,404.6781117999926,404.66143150000426,405.661437799994,0,1,403.67809839999245,None,3,f,23,l,KB,2021_Dec_15_1652,WASABI Nback,2020.2.10,59.99599226513765,
0,1,6,"[0.2, 0]",1,0,1,1,1,,,,,0,0,0,0,0,13,13,13,,,,,,,,,,,None,None,0,405.67812609999964,None,405.67812609999964,406.67812509999203,406.6614528999926,407.6614616000006,0,1,405.67812609999964,None,3,f,23,l,KB,2021_Dec_15_1652,WASABI Nback,2020.2.10,59.99599226513765,
0,1,8,"[0, -0.2]",None,0,1,1,1,,,,,0,0,0,0,0,14,14,14,,,,,,,,,,,None,None,0,407.67814350000117,None,407.67814350000117,408.6781384999922,408.66146439999284,409.66147099999944,0,1,407.67814350000117,None,3,f,23,l,KB,2021_Dec_15_1652,WASABI Nback,2020.2.10,59.99599226513765,
0,1,9,"[0.2, -0.2]",None,0,1,1,1,,,,,0,0,0,0,0,15,15,15,,,,,,,,,,,None,None,0,409.678158499999,None,409.678158499999,410.6781690999924,410.661486099998,411.66141079999215,0,1,409.678158499999,None,3,f,23,l,KB,2021_Dec_15_1652,WASABI Nback,2020.2.10,59.99599226513765,
0,1,9,"[0.2, -0.2]",None,0,1,1,1,,,,,0,0,0,0,0,16,16,16,,,,,,,,,,,None,None,0,411.6781686000031,None,411.6781686000031,412.6782130999927,412.66150339999876,413.66150679999555,0,1,411.6781686000031,None,3,f,23,l,KB,2021_Dec_15_1652,WASABI Nback,2020.2.10,59.99599226513765,
0,1,1,"[-0.2, 0.2]",None,0,1,1,1,,,,,0,0,0,0,0,17,17,17,,,,,,,,,,,None,None,0,413.67818049999187,None,413.67818049999187,414.6781823999918,414.66152140000486,415.66152759999386,0,1,413.67818049999187,None,3,f,23,l,KB,2021_Dec_15_1652,WASABI Nback,2020.2.10,59.99599226513765,
0,1,3,"[0.2, 0.2]",None,0,1,1,1,,,,,0,0,0,0,0,18,18,18,,,,,,,,,,,None,None,0,415.67820219999703,None,415.67820219999703,416.6781955000042,416.6615327000036,417.6615499000036,0,1,415.67820219999703,None,3,f,23,l,KB,2021_Dec_15_1652,WASABI Nback,2020.2.10,59.99599226513765,
0,1,5,"[0, 0]",None,0,1,1,1,,,,,0,0,0,0,0,19,19,19,,,,,,,,,,,None,None,0,417.67820239999855,None,417.67820239999855,418.6782310999988,418.6615515000012,419.66155750000325,0,1,417.67820239999855,None,3,f,23,l,KB,2021_Dec_15_1652,WASABI Nback,2020.2.10,59.99599226513765,
0,1,3,"[0.2, 0.2]",1,0,1,1,1,,,,,0,0,0,0,0,20,20,20,,,,,,,,,,,None,None,0,419.67823049999424,None,419.67823049999424,420.6782263999921,420.6615740999987,421.661572099998,0,1,419.67823049999424,None,3,f,23,l,KB,2021_Dec_15_1652,WASABI Nback,2020.2.10,59.99599226513765,
0,1,4,"[-0.2, 0]",None,0,1,1,1,,,,,0,0,0,0,0,21,21,21,,,,,,,,,,,None,None,0,421.6782547000039,None,421.6782547000039,422.6782516999956,422.66159580000385,423.6615940000047,0,1,421.6782547000039,None,3,f,23,l,KB,2021_Dec_15_1652,WASABI Nback,2020.2.10,59.99599226513765,
0,1,7,"[-0.2, -0.2]",None,0,1,1,1,,,,,0,0,0,0,0,22,22,22,,,,,,,,,,,None,None,0,423.67827370000305,None,423.67827370000305,424.6782854000048,424.66160300000047,425.6616045999981,0,1,423.67827370000305,None,3,f,23,l,KB,2021_Dec_15_1652,WASABI Nback,2020.2.10,59.99599226513765,
0,1,4,"[-0.2, 0]",1,0,1,1,1,,,,,0,0,0,0,0,23,23,23,,,,,,,,,,,None,None,0,425.6782780999929,None,425.6782780999929,426.67829369999527,426.6616229999927,427.6616275999986,0,0,425.6782780999929,None,3,f,23,l,KB,2021_Dec_15_1652,WASABI Nback,2020.2.10,59.99599226513765,
0,1,4,"[-0.2, 0]",None,0,1,1,1,,,,,0,0,0,0,0,24,24,24,,,,,,,,,,,None,None,0,427.6782911999908,None,427.6782911999908,428.67831099999603,428.66163329999836,429.66165660000115,0,1,427.6782911999908,None,3,f,23,l,KB,2021_Dec_15_1652,WASABI Nback,2020.2.10,59.99599226513765,
0,1,5,"[0, 0]",None,0,1,1,1,,,,,0,0,0,0,0,25,25,25,,,,,,,,,,,None,None,0,429.6783171999996,None,429.6783171999996,430.6783285999991,430.66164969999227,431.66166359999625,0,1,429.6783171999996,None,3,f,23,l,KB,2021_Dec_15_1652,WASABI Nback,2020.2.10,59.99599226513765,
0,1,2,"[0, 0.2]",None,0,1,1,1,,,,,0,0,0,0,0,26,26,26,,,,,,,,,,,None,None,0,431.67834420000145,None,431.67834420000145,432.6783479000005,432.6616850999999,433.66167689999565,0,1,431.67834420000145,None,3,f,23,l,KB,2021_Dec_15_1652,WASABI Nback,2020.2.10,59.99599226513765,
0,1,6,"[0.2, 0]",None,0,1,1,1,,,,,0,0,0,0,0,27,27,27,,,,,,,,,,,None,None,0,433.67834289999155,None,433.67834289999155,434.6783527999942,434.66169239999726,435.6616967000009,0,1,433.67834289999155,None,3,f,23,l,KB,2021_Dec_15_1652,WASABI Nback,2020.2.10,59.99599226513765,
0,1,7,"[-0.2, -0.2]",None,0,1,1,1,,,,,0,0,0,0,0,28,28,28,,,,,,,,,,,None,None,0,435.67836839999654,None,435.67836839999654,436.67837140000483,436.6617012999923,437.66170989999955,0,1,435.67836839999654,None,3,f,23,l,KB,2021_Dec_15_1652,WASABI Nback,2020.2.10,59.99599226513765,
0,1,6,"[0.2, 0]",1,0,1,1,1,,,,,0,0,0,0,0,29,29,29,,,,,,,,,,,None,None,0,437.6783798999968,None,437.6783798999968,438.6783915999986,438.6617255000019,439.66172829999414,0,1,437.6783798999968,None,3,f,23,l,KB,2021_Dec_15_1652,WASABI Nback,2020.2.10,59.99599226513765,
0,1,6,"[0.2, 0]",None,0,1,1,1,,,,,0,0,0,0,0,30,30,30,,,,,,,,,,,None,None,0,439.6783950999961,None,439.6783950999961,440.67840140000044,440.6617511999939,441.6617651999986,0,1,439.6783950999961,None,3,f,23,l,KB,2021_Dec_15_1652,WASABI Nback,2020.2.10,59.99599226513765,
0,1,7,"[-0.2, -0.2]",None,0,1,1,1,,,,,0,0,0,0,0,31,31,31,,,,,,,,,,,None,None,0,441.67842630000087,None,441.67842630000087,442.6784187000012,442.66175620000286,443.66176489999634,0,1,441.67842630000087,None,3,f,23,l,KB,2021_Dec_15_1652,WASABI Nback,2020.2.10,59.99599226513765,
0,1,6,"[0.2, 0]",1,0,1,1,1,,,,,0,0,0,0,0,32,32,32,,,,,,,,,,,None,None,0,443.67843479999283,None,443.67843479999283,444.67845249999664,444.6617683999939,445.661781399991,0,1,443.67843479999283,None,3,f,23,l,KB,2021_Dec_15_1652,WASABI Nback,2020.2.10,59.99599226513765,
0,1,2,"[0, 0.2]",None,0,1,1,1,,,,,0,0,0,0,0,33,33,33,,,,,,,,,,,None,None,0,445.6784442999924,None,445.6784442999924,446.6784684000013,446.66180370000075,447.6617983000033,0,1,445.6784442999924,None,3,f,23,l,KB,2021_Dec_15_1652,WASABI Nback,2020.2.10,59.99599226513765,
0,1,5,"[0, 0]",None,0,1,1,1,,,,,0,0,0,0,0,34,34,34,,,,,,,,,,,None,None,0,447.67847070000425,None,447.67847070000425,448.6784730999934,448.66180459999305,449.6617721999937,0,1,447.67847070000425,None,3,f,23,l,KB,2021_Dec_15_1652,WASABI Nback,2020.2.10,59.99599226513765,
0,1,4,"[-0.2, 0]",None,0,1,1,1,,,,,0,0,0,0,0,35,35,35,,,,,,,,,,,None,None,0,449.6784894000011,None,449.6784894000011,450.67848859999503,450.6618210000015,451.6618286000012,0,1,449.6784894000011,None,3,f,23,l,KB,2021_Dec_15_1652,WASABI Nback,2020.2.10,59.99599226513765,
0,1,4,"[-0.2, 0]",None,0,1,1,1,,,,,0,0,0,0,0,36,36,36,,,,,,,,,,,None,None,0,451.67849489999935,None,451.67849489999935,452.6785039999959,452.6618393999961,453.66184649999195,0,1,451.67849489999935,None,3,f,23,l,KB,2021_Dec_15_1652,WASABI Nback,2020.2.10,59.99599226513765,
0,1,7,"[-0.2, -0.2]",None,0,1,1,1,,,,,0,0,0,0,0,37,37,37,,,,,,,,,,,None,None,0,453.6785161000007,None,453.6785161000007,454.67852249999123,454.66186059999745,455.66188189999957,0,1,453.6785161000007,None,3,f,23,l,KB,2021_Dec_15_1652,WASABI Nback,2020.2.10,59.99599226513765,
0,1,4,"[-0.2, 0]",1,0,1,1,1,,,,,0,0,0,0,0,38,38,38,,,,,,,,,,,None,None,0,455.6785388999997,None,455.6785388999997,456.6785363999952,456.6618790999928,457.6618848999933,0,0,455.6785388999997,None,3,f,23,l,KB,2021_Dec_15_1652,WASABI Nback,2020.2.10,59.99599226513765,
0,1,3,"[0.2, 0.2]",None,0,1,1,1,,,,,0,0,0,0,0,39,39,39,,,,,,,,,,,None,None,0,457.67856679999386,None,457.67856679999386,458.67856810000376,458.66188830000465,459.66191049999907,0,1,457.67856679999386,None,3,f,23,l,KB,2021_Dec_15_1652,WASABI Nback,2020.2.10,59.99599226513765,
0,1,5,"[0, 0]",None,0,1,1,1,,,,,0,0,0,0,0,40,40,40,,,,,,,,,,,None,None,0,459.67856369999936,None,459.67856369999936,460.6785947000026,460.6619204000017,461.6619170000049,0,1,459.67856369999936,None,3,f,23,l,KB,2021_Dec_15_1652,WASABI Nback,2020.2.10,59.99599226513765,
0,1,3,"[0.2, 0.2]",1,0,1,1,1,,,,,0,0,0,0,0,41,41,41,,,,,,,,,,,None,None,0,461.67858479999995,None,461.67858479999995,462.6786021000007,462.66193190000195,463.66194109999924,0,1,461.67858479999995,None,3,f,23,l,KB,2021_Dec_15_1652,WASABI Nback,2020.2.10,59.99599226513765,
0,1,1,"[-0.2, 0.2]",None,0,1,1,1,,,,,0,0,0,0,0,42,42,42,,,,,,,,,,,None,None,0,463.678619600003,None,463.678619600003,464.67860759999894,464.66194180000457,465.6619536999933,0,1,463.678619600003,None,3,f,23,l,KB,2021_Dec_15_1652,WASABI Nback,2020.2.10,59.99599226513765,
0,1,9,"[0.2, -0.2]",None,0,1,1,1,,,,,0,0,0,0,0,43,43,43,,,,,,,,,,,None,None,0,465.6786381999991,None,465.6786381999991,466.6786385000014,466.6619869999995,467.6619780000037,0,1,465.6786381999991,None,3,f,23,l,KB,2021_Dec_15_1652,WASABI Nback,2020.2.10,59.99599226513765,
0,1,9,"[0.2, -0.2]",None,0,1,1,1,,,,,0,0,0,0,0,44,44,44,,,,,,,,,,,None,None,0,467.67863229999784,None,467.67863229999784,468.67864319999353,468.66199989999586,469.6619656999974,0,1,467.67863229999784,None,3,f,23,l,KB,2021_Dec_15_1652,WASABI Nback,2020.2.10,59.99599226513765,
0,1,8,"[0, -0.2]",None,0,1,1,1,,,,,0,0,0,0,0,45,45,45,,,,,,,,,,,None,None,0,469.6786640999926,None,469.6786640999926,470.67866279999726,470.66202409999096,471.66198629999417,0,1,469.6786640999926,None,3,f,23,l,KB,2021_Dec_15_1652,WASABI Nback,2020.2.10,59.99599226513765,
0,1,6,"[0.2, 0]",None,0,1,1,1,,,,,0,0,0,0,0,46,46,46,,,,,,,,,,,None,None,0,471.6786871999939,None,471.6786871999939,472.6786848999909,472.6620122000022,473.66201879999426,0,1,471.6786871999939,None,3,f,23,l,KB,2021_Dec_15_1652,WASABI Nback,2020.2.10,59.99599226513765,
0,1,3,"[0.2, 0.2]",None,0,1,1,1,,,,,0,0,0,0,0,47,47,47,,,,,,,,,,,None,None,0,473.6786871999939,None,473.6786871999939,474.6787004999933,474.6620324999967,475.6620641999907,0,1,473.6786871999939,None,3,f,23,l,KB,2021_Dec_15_1652,WASABI Nback,2020.2.10,59.99599226513765,
0,1,6,"[0.2, 0]",1,0,1,1,1,,,,,0,0,0,0,0,48,48,48,,,,,,,,,,,None,None,0,475.67870089999633,None,475.67870089999633,476.67871330000344,476.6620669999975,477.66205369999807,0,1,475.67870089999633,None,3,f,23,l,KB,2021_Dec_15_1652,WASABI Nback,2020.2.10,59.99599226513765,
0,1,5,"[0, 0]",None,0,1,1,1,,,,,0,0,0,0,0,49,49,49,,,,,,,,,,,None,None,0,477.67872850000276,None,477.67872850000276,478.6787214999931,478.66207599999325,479.66209149999486,0,1,477.67872850000276,None,3,f,23,l,KB,2021_Dec_15_1652,WASABI Nback,2020.2.10,59.99599226513765,
0,1,7,"[-0.2, -0.2]",None,0,1,1,1,,,,,0,0,0,0,0,50,50,50,,,,,,,,,,,None,None,0,479.67874079999456,None,479.67874079999456,480.67874279999523,480.6620841999975,481.6620888000034,0,1,479.67874079999456,None,3,f,23,l,KB,2021_Dec_15_1652,WASABI Nback,2020.2.10,59.99599226513765,
0,1,5,"[0, 0]",1,0,1,1,1,,,,,0,0,0,0,0,51,51,51,,,,,,,,,,,None,None,0,481.6787522999948,None,481.6787522999948,482.6787497000041,482.6621218999935,483.66211679999833,0,1,481.6787522999948,None,3,f,23,l,KB,2021_Dec_15_1652,WASABI Nback,2020.2.10,59.99599226513765,
0,1,1,"[-0.2, 0.2]",None,0,1,1,1,,,,,0,0,0,0,0,52,52,52,,,,,,,,,,,None,None,0,483.67876919999253,None,483.67876919999253,484.67879370000446,484.66211309999926,485.66213860000425,0,1,483.67876919999253,None,3,f,23,l,KB,2021_Dec_15_1652,WASABI Nback,2020.2.10,59.99599226513765,
0,1,7,"[-0.2, -0.2]",None,0,1,1,1,,,,,0,0,0,0,0,53,53,53,,,,,,,,,,,None,None,0,485.67880579999473,None,485.67880579999473,486.6788066000008,486.66214610000316,487.6621407999919,0,1,485.67880579999473,None,3,f,23,l,KB,2021_Dec_15_1652,WASABI Nback,2020.2.10,59.99599226513765,
0,1,9,"[0.2, -0.2]",None,0,1,1,1,,,,,0,0,0,0,0,54,54,54,,,,,,,,,,,None,None,0,487.67881789999956,None,487.67881789999956,488.6788235999993,488.66215499999817,489.6621807999909,0,1,487.67881789999956,None,3,f,23,l,KB,2021_Dec_15_1652,WASABI Nback,2020.2.10,59.99599226513765,
0,1,3,"[0.2, 0.2]",None,0,1,1,1,,,,,0,0,0,0,0,55,55,55,,,,,,,,,,,None,None,0,489.67881929999567,None,489.67881929999567,490.6788307999959,490.6621876999998,491.66219329999876,0,1,489.67881929999567,None,3,f,23,l,KB,2021_Dec_15_1652,WASABI Nback,2020.2.10,59.99599226513765,
0,1,9,"[0.2, -0.2]",1,0,1,1,1,,,,,0,0,0,0,0,56,56,56,,,,,,,,,,,None,None,0,491.67885450000176,None,491.67885450000176,492.67886289999296,492.66218949999893,493.66220160000375,0,1,491.67885450000176,None,3,f,23,l,KB,2021_Dec_15_1652,WASABI Nback,2020.2.10,59.99599226513765,
0,1,6,"[0.2, 0]",None,0,1,1,1,,,,,0,0,0,0,0,57,57,57,,,,,,,,,,,None,None,0,493.6788691999973,None,493.6788691999973,494.6788721000048,494.6622170999908,495.66221729999234,0,1,493.6788691999973,None,3,f,23,l,KB,2021_Dec_15_1652,WASABI Nback,2020.2.10,59.99599226513765,
0,1,2,"[0, 0.2]",None,0,1,1,1,,,,,0,0,0,0,0,58,58,58,,,,,,,,,,,None,None,0,495.67886899999576,None,495.67886899999576,496.6788710999972,496.6622237999982,497.662241500002,0,1,495.67886899999576,None,3,f,23,l,KB,2021_Dec_15_1652,WASABI Nback,2020.2.10,59.99599226513765,
0,1,5,"[0, 0]",None,0,1,1,1,,,,,0,0,0,0,0,59,59,59,,,,,,,,,,,None,None,0,497.67890319999424,None,497.67890319999424,498.6788985000021,498.6622436000034,499.6622594999935,0,1,497.67890319999424,None,3,f,23,l,KB,2021_Dec_15_1652,WASABI Nback,2020.2.10,59.99599226513765,
0,1,5,"[0, 0]",None,0,1,1,1,,,,,0,0,0,0,0,60,60,60,,,,,,,,,,,None,None,0,499.6789218000049,None,499.6789218000049,500.67891309999686,500.66227179999987,501.6622556999937,0,1,499.6789218000049,None,3,f,23,l,KB,2021_Dec_15_1652,WASABI Nback,2020.2.10,59.99599226513765,
0,1,2,"[0, 0.2]",None,0,1,1,1,,,,,0,0,0,0,0,61,61,61,,,,,,,,,,,None,None,0,501.67885909999313,None,501.67885909999313,502.67893149999145,502.66223669999454,503.66227329999674,0,1,501.67885909999313,None,3,f,23,l,KB,2021_Dec_15_1652,WASABI Nback,2020.2.10,59.99599226513765,
0,1,6,"[0.2, 0]",None,0,1,1,1,,,,,0,0,0,0,0,62,62,62,,,,,,,,,,,None,None,0,503.67892589999246,None,503.67892589999246,504.67894679999154,504.66227990000334,505.6622917999921,0,0,503.67892589999246,None,3,f,23,l,KB,2021_Dec_15_1652,WASABI Nback,2020.2.10,59.99599226513765,
0,1,9,"[0.2, -0.2]",None,0,1,1,1,,,,,0,0,0,0,0,63,63,63,,,,,,,,,,,None,None,0,505.6789706999989,None,505.6789706999989,506.6789652000007,506.6622983999987,507.66231770000013,0,1,505.6789706999989,None,3,f,23,l,KB,2021_Dec_15_1652,WASABI Nback,2020.2.10,59.99599226513765,
0,1,3,"[0.2, 0.2]",None,0,1,1,1,,,,,0,0,0,0,0,64,64,64,,,,,,,,,,,None,None,0,507.6789742999972,None,507.6789742999972,508.67899719999696,508.66231790000165,509.66231879999395,0,1,507.6789742999972,None,3,f,23,l,KB,2021_Dec_15_1652,WASABI Nback,2020.2.10,59.99599226513765,
0,1,9,"[0.2, -0.2]",1,0,1,1,1,,,,,0,0,0,0,0,65,65,65,,,,,,,,,,,None,None,0,509.67902049999975,None,509.67902049999975,510.6790209000028,510.66236980000394,511.66234239999903,0,1,509.67902049999975,None,3,f,23,l,KB,2021_Dec_15_1652,WASABI Nback,2020.2.10,59.99599226513765,
0,1,7,"[-0.2, -0.2]",None,0,1,1,1,,,,,0,0,0,0,0,66,66,66,,,,,,,,,,,None,None,0,511.6790447999956,None,511.6790447999956,512.6790245000011,512.6623462999996,513.6623638000019,0,1,511.6790447999956,None,3,f,23,l,KB,2021_Dec_15_1652,WASABI Nback,2020.2.10,59.99599226513765,
0,1,1,"[-0.2, 0.2]",None,0,1,1,1,,,,,0,0,0,0,0,67,67,67,,,,,,,,,,,None,None,0,513.6790479000047,None,513.6790479000047,514.6790430999972,514.6623686999956,515.6623816999927,0,1,513.6790479000047,None,3,f,23,l,KB,2021_Dec_15_1652,WASABI Nback,2020.2.10,59.99599226513765,
0,1,5,"[0, 0]",None,0,1,1,1,,,,,0,0,0,0,0,68,68,68,,,,,,,,,,,None,None,0,515.6790486999962,None,515.6790486999962,516.6790507999976,516.6623900999984,517.6623942000006,0,1,515.6790486999962,None,3,f,23,l,KB,2021_Dec_15_1652,WASABI Nback,2020.2.10,59.99599226513765,
0,1,7,"[-0.2, -0.2]",None,0,1,1,1,,,,,0,0,0,0,0,69,69,69,,,,,,,,,,,None,None,0,517.679078599991,None,517.679078599991,518.679092099992,518.6624008999934,519.6624204999971,0,1,517.679078599991,None,3,f,23,l,KB,2021_Dec_15_1652,WASABI Nback,2020.2.10,59.99599226513765,
0,1,5,"[0, 0]",1,0,1,1,1,,,,,0,0,0,0,0,70,70,70,,,,,,,,,,,None,None,0,519.6791004999977,None,519.6791004999977,520.6791030000022,520.6624180999934,521.6624497000012,0,1,519.6791004999977,None,3,f,23,l,KB,2021_Dec_15_1652,WASABI Nback,2020.2.10,59.99599226513765,
0,1,6,"[0.2, 0]",None,0,1,1,1,,,,,0,0,0,0,0,71,71,71,,,,,,,,,,,None,None,0,521.6791009000008,None,521.6791009000008,522.6791076999943,522.6624426999915,523.6624528999964,0,1,521.6791009000008,None,3,f,23,l,KB,2021_Dec_15_1652,WASABI Nback,2020.2.10,59.99599226513765,
0,1,3,"[0.2, 0.2]",None,0,1,1,1,,,,,0,0,0,0,0,72,72,72,,,,,,,,,,,None,None,0,523.6791217999998,None,523.6791217999998,524.6791416999913,524.6624543999933,525.6624703999987,0,1,523.6791217999998,None,3,f,23,l,KB,2021_Dec_15_1652,WASABI Nback,2020.2.10,59.99599226513765,
0,1,6,"[0.2, 0]",1,0,1,1,1,,,,,0,0,0,0,0,73,73,73,,,,,,,,,,,None,None,0,525.6790233999927,None,525.6790233999927,526.6791488000017,526.6624728000024,527.662479199993,0,1,525.6790233999927,None,3,f,23,l,KB,2021_Dec_15_1652,WASABI Nback,2020.2.10,59.99599226513765,
0,1,8,"[0, -0.2]",None,0,1,1,1,,,,,0,0,0,0,0,74,74,74,,,,,,,,,,,None,None,0,527.6791553999938,None,527.6791553999938,528.679172499993,528.6624960999907,529.6624957000022,0,1,527.6791553999938,None,3,f,23,l,KB,2021_Dec_15_1652,WASABI Nback,2020.2.10,59.99599226513765,
0,1,9,"[0.2, -0.2]",None,0,1,1,1,,,,,0,0,0,0,0,75,75,75,,,,,,,,,,,None,None,0,529.6791693999985,None,529.6791693999985,530.6791788999981,530.6625052000018,531.6625140999968,0,1,529.6791693999985,None,3,f,23,l,KB,2021_Dec_15_1652,WASABI Nback,2020.2.10,59.99599226513765,
0,1,9,"[0.2, -0.2]",None,0,1,1,1,,,,,0,0,0,0,0,76,76,76,,,,,,,,,,,None,None,0,531.6792070999945,None,531.6792070999945,532.6791966000019,532.6625233999948,533.6625411999994,0,1,531.6792070999945,None,3,f,23,l,KB,2021_Dec_15_1652,WASABI Nback,2020.2.10,59.99599226513765,
0,1,1,"[-0.2, 0.2]",None,0,1,1,1,,,,,0,0,0,0,0,77,77,77,,,,,,,,,,,None,None,0,533.6792142000049,None,533.6792142000049,534.6792259999929,534.6625443999947,535.6625472000014,0,1,533.6792142000049,None,3,f,23,l,KB,2021_Dec_15_1652,WASABI Nback,2020.2.10,59.99599226513765,
0,1,3,"[0.2, 0.2]",None,0,1,1,1,,,,,0,0,0,0,0,78,78,78,,,,,,,,,,,None,None,0,535.6792338999949,None,535.6792338999949,536.6792352000048,536.6625641999999,537.6625725999911,0,1,535.6792338999949,None,3,f,23,l,KB,2021_Dec_15_1652,WASABI Nback,2020.2.10,59.99599226513765,
0,1,5,"[0, 0]",None,0,1,1,1,,,,,0,0,0,0,0,79,79,79,,,,,,,,,,,None,None,0,537.679255199997,None,537.679255199997,538.6792531999963,538.6625751999964,539.6626086000033,0,1,537.679255199997,None,3,f,23,l,KB,2021_Dec_15_1652,WASABI Nback,2020.2.10,59.99599226513765,
0,1,3,"[0.2, 0.2]",1,0,1,1,1,,,,,0,0,0,0,0,80,80,80,,,,,,,,,,,None,None,0,539.6792669999995,None,539.6792669999995,540.6792775999929,540.6625910000002,541.6626012999914,0,0,539.6792669999995,None,3,f,23,l,KB,2021_Dec_15_1652,WASABI Nback,2020.2.10,59.99599226513765,
0,1,4,"[-0.2, 0]",None,0,1,1,1,,,,,0,0,0,0,0,81,81,81,,,,,,,,,,,None,None,0,541.6792752000038,None,541.6792752000038,542.6792964999913,542.6626080999995,543.6626214999997,0,1,541.6792752000038,None,3,f,23,l,KB,2021_Dec_15_1652,WASABI Nback,2020.2.10,59.99599226513765,
0,1,7,"[-0.2, -0.2]",None,0,1,1,1,,,,,0,0,0,0,0,82,82,82,,,,,,,,,,,None,None,0,543.6792943000037,None,543.6792943000037,544.6793006999942,544.6626258000033,545.6626519999991,0,1,543.6792943000037,None,3,f,23,l,KB,2021_Dec_15_1652,WASABI Nback,2020.2.10,59.99599226513765,
0,1,4,"[-0.2, 0]",1,0,1,1,1,,,,,0,0,0,0,0,83,83,83,,,,,,,,,,,None,None,0,545.6793047999963,None,545.6793047999963,546.6793078999908,546.662640399998,547.6626519999991,0,0,545.6793047999963,None,3,f,23,l,KB,2021_Dec_15_1652,WASABI Nback,2020.2.10,59.99599226513765,
0,1,4,"[-0.2, 0]",None,0,1,1,1,,,,,0,0,0,0,0,84,84,84,,,,,,,,,,,None,None,0,547.6793172000034,None,547.6793172000034,548.6793472999998,548.6626663999923,549.6626760999934,0,1,547.6793172000034,None,3,f,23,l,KB,2021_Dec_15_1652,WASABI Nback,2020.2.10,59.99599226513765,
0,1,5,"[0, 0]",None,0,1,1,1,,,,,0,0,0,0,0,85,85,85,,,,,,,,,,,None,None,0,549.6793334999966,None,549.6793334999966,550.679338300004,550.6626754000026,551.6627086999943,0,1,549.6793334999966,None,3,f,23,l,KB,2021_Dec_15_1652,WASABI Nback,2020.2.10,59.99599226513765,
0,1,2,"[0, 0.2]",None,0,1,1,1,,,,,0,0,0,0,0,86,86,86,,,,,,,,,,,None,None,0,551.6793635999929,None,551.6793635999929,552.6793656999944,552.6626964000025,553.6627100000042,0,1,551.6793635999929,None,3,f,23,l,KB,2021_Dec_15_1652,WASABI Nback,2020.2.10,59.99599226513765,
0,1,6,"[0.2, 0]",None,0,1,1,1,,,,,0,0,0,0,0,87,87,87,,,,,,,,,,,None,None,0,553.6793650000036,None,553.6793650000036,554.6793948999984,554.6627073999989,555.6627291000041,0,1,553.6793650000036,None,3,f,23,l,KB,2021_Dec_15_1652,WASABI Nback,2020.2.10,59.99599226513765,
0,1,7,"[-0.2, -0.2]",None,0,1,1,1,,,,,0,0,0,0,0,88,88,88,,,,,,,,,,,None,None,0,555.6793966999976,None,555.6793966999976,556.6794115999946,556.6627417999989,557.6627501000039,0,1,555.6793966999976,None,3,f,23,l,KB,2021_Dec_15_1652,WASABI Nback,2020.2.10,59.99599226513765,
0,1,6,"[0.2, 0]",1,0,1,1,1,,,,,0,0,0,0,0,89,89,89,,,,,,,,,,,None,None,0,557.6794105000008,None,557.6794105000008,558.6794291999977,558.6627463000041,559.6627530999976,0,1,557.6794105000008,None,3,f,23,l,KB,2021_Dec_15_1652,WASABI Nback,2020.2.10,59.99599226513765,
0,1,6,"[0.2, 0]",None,0,1,1,1,,,,,0,0,0,0,0,90,90,90,,,,,,,,,,,None,None,0,559.6794329999975,None,559.6794329999975,560.6794370999996,560.6627683999977,561.6627838999993,0,1,559.6794329999975,None,3,f,23,l,KB,2021_Dec_15_1652,WASABI Nback,2020.2.10,59.99599226513765,
0,1,7,"[-0.2, -0.2]",None,0,1,1,1,,,,,0,0,0,0,0,91,91,91,,,,,,,,,,,None,None,0,561.6794368999981,None,561.6794368999981,562.6794560999988,562.662783599997,563.6627842000016,0,1,561.6794368999981,None,3,f,23,l,KB,2021_Dec_15_1652,WASABI Nback,2020.2.10,59.99599226513765,
0,1,6,"[0.2, 0]",1,0,1,1,1,,,,,0,0,0,0,0,92,92,92,,,,,,,,,,,None,None,0,563.6794598999986,None,563.6794598999986,564.6794679000013,564.6627926999936,565.6628341000032,0,0,563.6794598999986,None,3,f,23,l,KB,2021_Dec_15_1652,WASABI Nback,2020.2.10,59.99599226513765,
0,1,2,"[0, 0.2]",None,0,1,1,1,,,,,0,0,0,0,0,93,93,93,,,,,,,,,,,None,None,0,565.6794856999913,None,565.6794856999913,566.6794857999921,566.6628316999995,567.6628174999933,0,1,565.6794856999913,None,3,f,23,l,KB,2021_Dec_15_1652,WASABI Nback,2020.2.10,59.99599226513765,
0,1,5,"[0, 0]",None,0,1,1,1,,,,,0,0,0,0,0,94,94,94,,,,,,,,,,,None,None,0,567.6794854000036,None,567.6794854000036,568.6795081000018,568.6628308999934,569.6628606000013,0,1,567.6794854000036,None,3,f,23,l,KB,2021_Dec_15_1652,WASABI Nback,2020.2.10,59.99599226513765,
0,1,4,"[-0.2, 0]",None,0,1,1,1,,,,,0,0,0,0,0,95,95,95,,,,,,,,,,,None,None,0,569.6795119000017,None,569.6795119000017,570.6795123999909,570.6628477999911,571.6628591999906,0,1,569.6795119000017,None,3,f,23,l,KB,2021_Dec_15_1652,WASABI Nback,2020.2.10,59.99599226513765,
0,1,4,"[-0.2, 0]",None,0,1,1,1,,,,,0,0,0,0,0,96,96,96,,,,,,,,,,,None,None,0,571.6795329000015,None,571.6795329000015,572.6795401999989,572.6628672999941,573.6628787999944,0,1,571.6795329000015,None,3,f,23,l,KB,2021_Dec_15_1652,WASABI Nback,2020.2.10,59.99599226513765,
0,1,7,"[-0.2, -0.2]",None,0,1,1,1,,,,,0,0,0,0,0,97,97,97,,,,,,,,,,,None,None,0,573.6795449999918,None,573.6795449999918,574.6795639000047,574.6628813999996,575.6628916000045,0,1,573.6795449999918,None,3,f,23,l,KB,2021_Dec_15_1652,WASABI Nback,2020.2.10,59.99599226513765,
0,1,4,"[-0.2, 0]",1,0,1,1,1,,,,,0,0,0,0,0,98,98,98,,,,,,,,,,,None,None,0,575.6795577000012,None,575.6795577000012,576.6795654000016,576.6629034999933,577.662833800001,0,0,575.6795577000012,None,3,f,23,l,KB,2021_Dec_15_1652,WASABI Nback,2020.2.10,59.99599226513765,
0,1,3,"[0.2, 0.2]",None,0,1,1,1,,,,,0,0,0,0,0,99,99,99,,,,,,,,,,,None,None,0,577.6795888999914,None,577.6795888999914,578.6795806000009,578.6629227999947,579.662937599991,0,1,577.6795888999914,None,3,f,23,l,KB,2021_Dec_15_1652,WASABI Nback,2020.2.10,59.99599226513765,
0,1,5,"[0, 0]",None,0,1,1,1,,,,,0,0,0,0,0,100,100,100,,,,,,,,,,,None,None,0,579.6796121999942,None,579.6796121999942,580.6796306000033,580.6629335000034,581.6629443999991,0,1,579.6796121999942,None,3,f,23,l,KB,2021_Dec_15_1652,WASABI Nback,2020.2.10,59.99599226513765,
0,1,3,"[0.2, 0.2]",1,0,1,1,1,,,,,0,0,0,0,0,101,101,101,,,,,,,,,,,None,None,0,581.6796105999965,None,581.6796105999965,582.6796344000031,582.6629646999936,583.6629609999945,0,1,581.6796105999965,None,3,f,23,l,KB,2021_Dec_15_1652,WASABI Nback,2020.2.10,59.99599226513765,
0,1,1,"[-0.2, 0.2]",None,0,1,1,1,,,,,0,0,0,0,0,102,102,102,,,,,,,,,,,None,None,0,583.6796262999997,None,583.6796262999997,584.6796347999916,584.6629684999934,585.662989000004,0,1,583.6796262999997,None,3,f,23,l,KB,2021_Dec_15_1652,WASABI Nback,2020.2.10,59.99599226513765,
0,1,9,"[0.2, -0.2]",None,0,1,1,1,,,,,0,0,0,0,0,103,103,103,,,,,,,,,,,None,None,0,585.6796513000008,None,585.6796513000008,586.679661599992,586.6629842999973,587.6630200999934,0,1,585.6796513000008,None,3,f,23,l,KB,2021_Dec_15_1652,WASABI Nback,2020.2.10,59.99599226513765,
0,1,9,"[0.2, -0.2]",None,0,1,1,1,,,,,0,0,0,0,0,104,104,104,,,,,,,,,,,None,None,0,587.6796778999997,None,587.6796778999997,588.679676899992,588.6630021000019,589.663009099997,0,1,587.6796778999997,None,3,f,23,l,KB,2021_Dec_15_1652,WASABI Nback,2020.2.10,59.99599226513765,
0,1,8,"[0, -0.2]",None,0,1,1,1,,,,,0,0,0,0,0,105,105,105,,,,,,,,,,,None,None,0,589.6796235999936,None,589.6796235999936,590.6797073999915,590.6630337999959,591.6630261999962,0,1,589.6796235999936,None,3,f,23,l,KB,2021_Dec_15_1652,WASABI Nback,2020.2.10,59.99599226513765,
0,1,6,"[0.2, 0]",None,0,1,1,1,,,,,0,0,0,0,0,106,106,106,,,,,,,,,,,None,None,0,591.6797128000035,None,591.6797128000035,592.6797049000015,592.6630361999996,593.6630586999963,0,1,591.6797128000035,None,3,f,23,l,KB,2021_Dec_15_1652,WASABI Nback,2020.2.10,59.99599226513765,
0,1,3,"[0.2, 0.2]",None,0,1,1,1,,,,,0,0,0,0,0,107,107,107,,,,,,,,,,,None,None,0,593.679716899991,None,593.679716899991,594.6797200000001,594.6630347000028,595.6630665999983,0,1,593.679716899991,None,3,f,23,l,KB,2021_Dec_15_1652,WASABI Nback,2020.2.10,59.99599226513765,
0,1,6,"[0.2, 0]",1,0,1,1,1,,,,,0,0,0,0,0,108,108,108,,,,,,,,,,,None,None,0,595.6797491000034,None,595.6797491000034,596.6797435999906,596.6630893999973,597.6630910999957,0,0,595.6797491000034,None,3,f,23,l,KB,2021_Dec_15_1652,WASABI Nback,2020.2.10,59.99599226513765,
0,1,5,"[0, 0]",None,0,1,1,1,,,,,0,0,0,0,0,109,109,109,,,,,,,,,,,None,None,0,597.6797625000036,None,597.6797625000036,598.6797688999941,598.6631261000002,599.6631106999994,0,1,597.6797625000036,None,3,f,23,l,KB,2021_Dec_15_1652,WASABI Nback,2020.2.10,59.99599226513765,
0,1,7,"[-0.2, -0.2]",None,0,1,1,1,,,,,0,0,0,0,0,110,110,110,,,,,,,,,,,None,None,0,599.679765199995,None,599.679765199995,600.6797894000047,600.6631057999912,601.6631286000047,0,1,599.679765199995,None,3,f,23,l,KB,2021_Dec_15_1652,WASABI Nback,2020.2.10,59.99599226513765,
0,1,5,"[0, 0]",1,0,1,1,1,,,,,0,0,0,0,0,111,111,111,,,,,,,,,,,None,None,0,601.6798003000004,None,601.6798003000004,602.6797927000007,602.6631291999947,603.6631468999985,0,0,601.6798003000004,None,3,f,23,l,KB,2021_Dec_15_1652,WASABI Nback,2020.2.10,59.99599226513765,
0,1,1,"[-0.2, 0.2]",None,0,1,1,1,,,,,0,0,0,0,0,112,112,112,,,,,,,,,,,None,None,0,603.679799199992,None,603.679799199992,604.6798181999911,604.6631436000025,605.6630393999949,0,1,603.679799199992,None,3,f,23,l,KB,2021_Dec_15_1652,WASABI Nback,2020.2.10,59.99599226513765,
0,1,7,"[-0.2, -0.2]",None,0,1,1,1,,,,,0,0,0,0,0,113,113,113,,,,,,,,,,,None,None,0,605.6798334999912,None,605.6798334999912,606.679847899999,606.6631648000039,607.6631742000027,0,1,605.6798334999912,None,3,f,23,l,KB,2021_Dec_15_1652,WASABI Nback,2020.2.10,59.99599226513765,
0,1,9,"[0.2, -0.2]",None,0,1,1,1,,,,,0,0,0,0,0,114,114,114,,,,,,,,,,,None,None,0,607.679845599996,None,607.679845599996,608.6798620000045,608.6631789999956,609.6632009000023,0,1,607.679845599996,None,3,f,23,l,KB,2021_Dec_15_1652,WASABI Nback,2020.2.10,59.99599226513765,
0,1,3,"[0.2, 0.2]",None,0,1,1,1,,,,,0,0,0,0,0,115,115,115,,,,,,,,,,,None,None,0,609.679868399995,None,609.679868399995,610.6798733000032,610.6632065000013,611.6632171999954,0,1,609.679868399995,None,3,f,23,l,KB,2021_Dec_15_1652,WASABI Nback,2020.2.10,59.99599226513765,
0,1,9,"[0.2, -0.2]",1,0,1,1,1,,,,,0,0,0,0,0,116,116,116,,,,,,,,,,,None,None,0,611.6798752000032,None,611.6798752000032,612.6798785999999,612.663221099996,613.6631760000018,0,0,611.6798752000032,None,3,f,23,l,KB,2021_Dec_15_1652,WASABI Nback,2020.2.10,59.99599226513765,
0,1,6,"[0.2, 0]",None,0,1,1,1,,,,,0,0,0,0,0,117,117,117,,,,,,,,,,,None,None,0,613.6798983000044,None,613.6798983000044,614.6799028999958,614.6632329999993,615.6632376999914,0,1,613.6798983000044,None,3,f,23,l,KB,2021_Dec_15_1652,WASABI Nback,2020.2.10,59.99599226513765,
0,1,2,"[0, 0.2]",None,0,1,1,1,,,,,0,0,0,0,0,118,118,118,,,,,,,,,,,None,None,0,615.6799229000026,None,615.6799229000026,616.6799059000041,616.6632561000006,617.6632752000005,0,1,615.6799229000026,None,3,f,23,l,KB,2021_Dec_15_1652,WASABI Nback,2020.2.10,59.99599226513765,
0,1,5,"[0, 0]",None,0,1,1,1,,,,,0,0,0,0,0,119,119,119,,,,,,,,,,,None,None,0,617.6799281999993,None,617.6799281999993,618.6799431999971,618.6632613999973,619.663347499998,0,1,617.6799281999993,None,3,f,23,l,KB,2021_Dec_15_1652,WASABI Nback,2020.2.10,59.99599226513765,
