RestT1,TaskT1,square,location,corrAns,counterbalancer.thisRepN,counterbalancer.thisTrialN,counterbalancer.thisN,counterbalancer.thisIndex,RestT1Loop.thisRepN,RestT1Loop.thisTrialN,RestT1Loop.thisN,RestT1Loop.thisIndex,TaskT1Loop.thisRepN,TaskT1Loop.thisTrialN,TaskT1Loop.thisN,TaskT1Loop.thisIndex,trials_2.thisRepN,trials_2.thisTrialN,trials_2.thisN,trials_2.thisIndex,NbackInstructions.started,NbackInstructions.stopped,NbackStart.keys,NbackStart.rt,NbackStart.started,NbackStart.stopped,fixation_2.started,fixation_2.stopped,response_2.x,response_2.y,response_2.leftButton,grid_lines_2.started,grid_lines_2.stopped,target_square_2.started,target_square_2.stopped,fixation_3.started,fixation_3.stopped,response_2.click,response_2.corr,response_2.started,response_2.stopped,fixation_1.started,fixation_1.stopped,subject number,gender,session,handedness,scanner,date,expName,psychopyVersion,frameRate,
0,1,,,,0,0,0,0,,,,,0,0,0,0,,,,,17.134030899964273,None,space,60.394348999951035,17.134030899964273,None,,,,,,,,,,,,,,,,,,8,F,9,R,CJM,2021_Oct_29_1159,WASABI Nback,2020.2.10,59.97591368515809,
0,1,5,"[0, 0]",None,0,0,0,0,,,,,0,0,0,0,0,0,0,0,,,,,,,None,None,None,None,[],None,None,None,None,None,None,[],[],None,None,,,8,F,9,R,CJM,2021_Oct_29_1159,WASABI Nback,2020.2.10,59.97591368515809,
0,1,2,"[0, 0.2]",None,0,0,0,0,,,,,0,0,0,0,0,1,1,1,,,,,,,,,None,None,[],None,None,None,None,None,None,[],[],None,None,,,8,F,9,R,CJM,2021_Oct_29_1159,WASABI Nback,2020.2.10,59.97591368515809,
0,1,6,"[0.2, 0]",None,0,0,0,0,,,,,0,0,0,0,0,2,2,2,,,,,,,,,None,None,[],None,None,None,None,None,None,[],[],None,None,,,8,F,9,R,CJM,2021_Oct_29_1159,WASABI Nback,2020.2.10,59.97591368515809,
0,1,9,"[0.2, -0.2]",None,0,0,0,0,,,,,0,0,0,0,0,3,3,3,,,,,,,,,None,None,[],None,None,None,None,None,None,[],[],None,None,,,8,F,9,R,CJM,2021_Oct_29_1159,WASABI Nback,2020.2.10,59.97591368515809,
0,1,3,"[0.2, 0.2]",None,0,0,0,0,,,,,0,0,0,0,0,4,4,4,,,,,,,,,None,None,[],None,None,None,None,None,None,[],[],None,None,,,8,F,9,R,CJM,2021_Oct_29_1159,WASABI Nback,2020.2.10,59.97591368515809,
0,1,9,"[0.2, -0.2]",1,0,0,0,0,,,,,0,0,0,0,0,5,5,5,,,,,,,,,None,None,[],None,None,None,None,None,None,[],[],None,None,,,8,F,9,R,CJM,2021_Oct_29_1159,WASABI Nback,2020.2.10,59.97591368515809,
0,1,7,"[-0.2, -0.2]",None,0,0,0,0,,,,,0,0,0,0,0,6,6,6,,,,,,,,,None,None,[],None,None,None,None,None,None,[],[],None,None,,,8,F,9,R,CJM,2021_Oct_29_1159,WASABI Nback,2020.2.10,59.97591368515809,
0,1,1,"[-0.2, 0.2]",None,0,0,0,0,,,,,0,0,0,0,0,7,7,7,,,,,,,,,None,None,[],None,None,None,None,None,None,[],[],None,None,,,8,F,9,R,CJM,2021_Oct_29_1159,WASABI Nback,2020.2.10,59.97591368515809,
0,1,5,"[0, 0]",None,0,0,0,0,,,,,0,0,0,0,0,8,8,8,,,,,,,,,None,None,[],None,None,None,None,None,None,[],[],None,None,,,8,F,9,R,CJM,2021_Oct_29_1159,WASABI Nback,2020.2.10,59.97591368515809,
0,1,7,"[-0.2, -0.2]",None,0,0,0,0,,,,,0,0,0,0,0,9,9,9,,,,,,,,,None,None,[],None,None,None,None,None,None,[],[],None,None,,,8,F,9,R,CJM,2021_Oct_29_1159,WASABI Nback,2020.2.10,59.97591368515809,
0,1,5,"[0, 0]",1,0,0,0,0,,,,,0,0,0,0,0,10,10,10,,,,,,,,,None,None,[],None,None,None,None,None,None,[],[],None,None,,,8,F,9,R,CJM,2021_Oct_29_1159,WASABI Nback,2020.2.10,59.97591368515809,
0,1,6,"[0.2, 0]",None,0,0,0,0,,,,,0,0,0,0,0,11,11,11,,,,,,,,,None,None,[],None,None,None,None,None,None,[],[],None,None,,,8,F,9,R,CJM,2021_Oct_29_1159,WASABI Nback,2020.2.10,59.97591368515809,
0,1,3,"[0.2, 0.2]",None,0,0,0,0,,,,,0,0,0,0,0,12,12,12,,,,,,,,,None,None,[],None,None,None,None,None,None,[],[],None,None,,,8,F,9,R,CJM,2021_Oct_29_1159,WASABI Nback,2020.2.10,59.97591368515809,
0,1,6,"[0.2, 0]",1,0,0,0,0,,,,,0,0,0,0,0,13,13,13,,,,,,,,,None,None,[],None,None,None,None,None,None,[],[],None,None,,,8,F,9,R,CJM,2021_Oct_29_1159,WASABI Nback,2020.2.10,59.97591368515809,
0,1,8,"[0, -0.2]",None,0,0,0,0,,,,,0,0,0,0,0,14,14,14,,,,,,,,,None,None,[],None,None,None,None,None,None,[],[],None,None,,,8,F,9,R,CJM,2021_Oct_29_1159,WASABI Nback,2020.2.10,59.97591368515809,
0,1,9,"[0.2, -0.2]",None,0,0,0,0,,,,,0,0,0,0,0,15,15,15,,,,,,,,,None,None,[],None,None,None,None,None,None,[],[],None,None,,,8,F,9,R,CJM,2021_Oct_29_1159,WASABI Nback,2020.2.10,59.97591368515809,
0,1,9,"[0.2, -0.2]",None,0,0,0,0,,,,,0,0,0,0,0,16,16,16,,,,,,,,,None,None,0,111.87660619989038,None,111.87660619989038,None,None,None,0,1,111.87660619989038,None,,,8,F,9,R,CJM,2021_Oct_29_1159,WASABI Nback,2020.2.10,59.97591368515809,
0,1,1,"[-0.2, 0.2]",None,0,0,0,0,,,,,0,0,0,0,0,17,17,17,,,,,,,,,None,None,0,112.57659780001268,None,112.57659780001268,113.57660889998078,113.5599491999019,114.5599654999096,0,1,112.57659780001268,None,,,8,F,9,R,CJM,2021_Oct_29_1159,WASABI Nback,2020.2.10,59.97591368515809,
0,1,3,"[0.2, 0.2]",None,0,0,0,0,,,,,0,0,0,0,0,18,18,18,,,,,,,,,None,None,0,114.57659549987875,None,114.57659549987875,115.57662319997326,115.55996039998718,116.55997380008921,0,1,114.57659549987875,None,,,8,F,9,R,CJM,2021_Oct_29_1159,WASABI Nback,2020.2.10,59.97591368515809,
0,1,5,"[0, 0]",None,0,0,0,0,,,,,0,0,0,0,0,19,19,19,,,,,,,,,None,None,0,116.57663120003417,None,116.57663120003417,117.57661779993214,117.55996260000393,118.55998410005122,0,1,116.57663120003417,None,,,8,F,9,R,CJM,2021_Oct_29_1159,WASABI Nback,2020.2.10,59.97591368515809,
0,1,3,"[0.2, 0.2]",1,0,0,0,0,,,,,0,0,0,0,0,20,20,20,,,,,,,,,None,None,0,118.57664790004492,None,118.57664790004492,119.57665780000389,119.55999389989302,120.55999229988083,0,1,118.57664790004492,None,,,8,F,9,R,CJM,2021_Oct_29_1159,WASABI Nback,2020.2.10,59.97591368515809,
0,1,4,"[-0.2, 0]",None,0,0,0,0,,,,,0,0,0,0,0,21,21,21,,,,,,,,,None,None,0,120.57664210000075,None,120.57664210000075,121.57665230007842,121.55999640002847,122.56000189995393,0,1,120.57664210000075,None,,,8,F,9,R,CJM,2021_Oct_29_1159,WASABI Nback,2020.2.10,59.97591368515809,
0,1,7,"[-0.2, -0.2]",None,0,0,0,0,,,,,0,0,0,0,0,22,22,22,,,,,,,,,None,None,0,122.57667870004661,None,122.57667870004661,123.5766662999522,123.56002249987796,124.56003549997695,0,1,122.57667870004661,None,,,8,F,9,R,CJM,2021_Oct_29_1159,WASABI Nback,2020.2.10,59.97591368515809,
0,1,4,"[-0.2, 0]",1,0,0,0,0,,,,,0,0,0,0,0,23,23,23,,,,,,,,,None,None,0,124.57671150006354,None,124.57671150006354,125.57670790003613,125.5600403000135,126.56004039989784,0,1,124.57671150006354,None,,,8,F,9,R,CJM,2021_Oct_29_1159,WASABI Nback,2020.2.10,59.97591368515809,
0,1,4,"[-0.2, 0]",None,0,0,0,0,,,,,0,0,0,0,0,24,24,24,,,,,,,,,None,None,0,126.57671050005592,None,126.57671050005592,127.5767077000346,127.55994629999623,128.56004499993287,0,1,126.57671050005592,None,,,8,F,9,R,CJM,2021_Oct_29_1159,WASABI Nback,2020.2.10,59.97591368515809,
0,1,5,"[0, 0]",None,0,0,0,0,,,,,0,0,0,0,0,25,25,25,,,,,,,,,None,None,0,128.57672760006972,None,128.57672760006972,129.5767107999418,129.56005169986747,130.56008169986308,0,1,128.57672760006972,None,,,8,F,9,R,CJM,2021_Oct_29_1159,WASABI Nback,2020.2.10,59.97591368515809,
0,1,2,"[0, 0.2]",None,0,0,0,0,,,,,0,0,0,0,0,26,26,26,,,,,,,,,None,None,0,130.57674059993587,None,130.57674059993587,131.57673650002107,131.56008649989963,132.56008090008982,0,1,130.57674059993587,None,,,8,F,9,R,CJM,2021_Oct_29_1159,WASABI Nback,2020.2.10,59.97591368515809,
0,1,6,"[0.2, 0]",None,0,0,0,0,,,,,0,0,0,0,0,27,27,27,,,,,,,,,None,None,0,132.57674490008503,None,132.57674490008503,133.57676550000906,133.5600888999179,134.56009389995597,0,1,132.57674490008503,None,,,8,F,9,R,CJM,2021_Oct_29_1159,WASABI Nback,2020.2.10,59.97591368515809,
0,1,7,"[-0.2, -0.2]",None,0,0,0,0,,,,,0,0,0,0,0,28,28,28,,,,,,,,,None,None,0,134.5767578999512,None,134.5767578999512,135.57675960008055,135.56012109993026,136.56005159998313,0,1,134.5767578999512,None,,,8,F,9,R,CJM,2021_Oct_29_1159,WASABI Nback,2020.2.10,59.97591368515809,
0,1,6,"[0.2, 0]",1,0,0,0,0,,,,,0,0,0,0,0,29,29,29,,,,,,,,,None,None,0,136.5767878999468,None,136.5767878999468,137.57678329991177,137.56011960003525,138.56012989999726,0,0,136.5767878999468,None,,,8,F,9,R,CJM,2021_Oct_29_1159,WASABI Nback,2020.2.10,59.97591368515809,
0,1,6,"[0.2, 0]",None,0,0,0,0,,,,,0,0,0,0,0,30,30,30,,,,,,,,,None,None,0,138.57678329991177,None,138.57678329991177,139.5767135999631,139.56021949998103,140.56016090000048,0,0,138.57678329991177,None,,,8,F,9,R,CJM,2021_Oct_29_1159,WASABI Nback,2020.2.10,59.97591368515809,
0,1,7,"[-0.2, -0.2]",None,0,0,0,0,,,,,0,0,0,0,0,31,31,31,,,,,,,,,None,None,0,140.5768200000748,None,140.5768200000748,141.57680279994383,141.5601629000157,142.56017499999143,0,1,140.5768200000748,None,,,8,F,9,R,CJM,2021_Oct_29_1159,WASABI Nback,2020.2.10,59.97591368515809,
0,1,6,"[0.2, 0]",1,0,0,0,0,,,,,0,0,0,0,0,32,32,32,,,,,,,,,None,None,0,142.57683310005814,None,142.57683310005814,143.57683819998056,143.56018329993822,144.56018949998543,0,1,142.57683310005814,None,,,8,F,9,R,CJM,2021_Oct_29_1159,WASABI Nback,2020.2.10,59.97591368515809,
0,1,2,"[0, 0.2]",None,0,0,0,0,,,,,0,0,0,0,0,33,33,33,,,,,,,,,None,None,0,144.57684620004147,None,144.57684620004147,145.5768508000765,145.56019579991698,146.56020509987138,0,0,144.57684620004147,None,,,8,F,9,R,CJM,2021_Oct_29_1159,WASABI Nback,2020.2.10,59.97591368515809,
0,1,5,"[0, 0]",None,0,0,0,0,,,,,0,0,0,0,0,34,34,34,,,,,,,,,None,None,0,146.57685189996846,None,146.57685189996846,147.57685419986956,147.56021040002815,148.56022359989583,0,1,146.57685189996846,None,,,8,F,9,R,CJM,2021_Oct_29_1159,WASABI Nback,2020.2.10,59.97591368515809,
0,1,4,"[-0.2, 0]",None,0,0,0,0,,,,,0,0,0,0,0,35,35,35,,,,,,,,,None,None,0,148.5769342998974,None,148.5769342998974,149.57687729992904,149.56022590002976,150.56023469986394,0,1,148.5769342998974,None,,,8,F,9,R,CJM,2021_Oct_29_1159,WASABI Nback,2020.2.10,59.97591368515809,
0,1,4,"[-0.2, 0]",None,0,0,0,0,,,,,0,0,0,0,0,36,36,36,,,,,,,,,None,None,0,150.57688439986669,None,150.57688439986669,151.5768953000661,151.56022899993695,152.56024840008467,0,0,150.57688439986669,None,,,8,F,9,R,CJM,2021_Oct_29_1159,WASABI Nback,2020.2.10,59.97591368515809,
0,1,7,"[-0.2, -0.2]",None,0,0,0,0,,,,,0,0,0,0,0,37,37,37,,,,,,,,,None,None,0,152.57691120007075,None,152.57691120007075,153.5768990998622,153.56025779992342,154.5602790999692,0,1,152.57691120007075,None,,,8,F,9,R,CJM,2021_Oct_29_1159,WASABI Nback,2020.2.10,59.97591368515809,
0,1,4,"[-0.2, 0]",1,0,0,0,0,,,,,0,0,0,0,0,38,38,38,,,,,,,,,None,None,0,154.57694069994614,None,154.57694069994614,155.57693709991872,155.56027660006657,156.56028410000727,0,1,154.57694069994614,None,,,8,F,9,R,CJM,2021_Oct_29_1159,WASABI Nback,2020.2.10,59.97591368515809,
0,1,3,"[0.2, 0.2]",None,0,0,0,0,,,,,0,0,0,0,0,39,39,39,,,,,,,,,None,None,0,156.57694360008463,None,156.57694360008463,157.5769471998792,157.5602871000301,158.56030069990084,0,1,156.57694360008463,None,,,8,F,9,R,CJM,2021_Oct_29_1159,WASABI Nback,2020.2.10,59.97591368515809,
0,1,5,"[0, 0]",None,0,0,0,0,,,,,0,0,0,0,0,40,40,40,,,,,,,,,None,None,0,158.5769461998716,None,158.5769461998716,159.57646819995716,159.56032809987664,160.5603257000912,0,0,158.5769461998716,None,,,8,F,9,R,CJM,2021_Oct_29_1159,WASABI Nback,2020.2.10,59.97591368515809,
0,1,3,"[0.2, 0.2]",1,0,0,0,0,,,,,0,0,0,0,0,41,41,41,,,,,,,,,None,None,0,160.5769720999524,None,160.5769720999524,161.57696920004673,161.56031890003942,162.56034259987064,0,1,160.5769720999524,None,,,8,F,9,R,CJM,2021_Oct_29_1159,WASABI Nback,2020.2.10,59.97591368515809,
0,1,1,"[-0.2, 0.2]",None,0,0,0,0,,,,,0,0,0,0,0,42,42,42,,,,,,,,,None,None,0,162.57699109986424,None,162.57699109986424,163.57699109986424,163.56032070005313,164.56035119993612,0,1,162.57699109986424,None,,,8,F,9,R,CJM,2021_Oct_29_1159,WASABI Nback,2020.2.10,59.97591368515809,
0,1,9,"[0.2, -0.2]",None,0,0,0,0,,,,,0,0,0,0,0,43,43,43,,,,,,,,,None,None,0,164.57699640002102,None,164.57699640002102,165.57700089993887,165.5603439998813,166.56036069989204,0,1,164.57699640002102,None,,,8,F,9,R,CJM,2021_Oct_29_1159,WASABI Nback,2020.2.10,59.97591368515809,
0,1,9,"[0.2, -0.2]",None,0,0,0,0,,,,,0,0,0,0,0,44,44,44,,,,,,,,,None,None,0,166.57701099989936,None,166.57701099989936,167.57701910007745,167.56036269990727,168.56037419987842,0,1,166.57701099989936,None,,,8,F,9,R,CJM,2021_Oct_29_1159,WASABI Nback,2020.2.10,59.97591368515809,
0,1,8,"[0, -0.2]",None,0,0,0,0,,,,,0,0,0,0,0,45,45,45,,,,,,,,,None,None,0,168.57702529989183,None,168.57702529989183,169.57704119989648,169.56037959991954,170.5603879999835,0,1,168.57702529989183,None,,,8,F,9,R,CJM,2021_Oct_29_1159,WASABI Nback,2020.2.10,59.97591368515809,
0,1,6,"[0.2, 0]",None,0,0,0,0,,,,,0,0,0,0,0,46,46,46,,,,,,,,,None,None,0,170.57705349987373,None,170.57705349987373,171.5770620999392,171.560398099944,172.56040499988012,0,1,170.57705349987373,None,,,8,F,9,R,CJM,2021_Oct_29_1159,WASABI Nback,2020.2.10,59.97591368515809,
0,1,3,"[0.2, 0.2]",None,0,0,0,0,,,,,0,0,0,0,0,47,47,47,,,,,,,,,None,None,0,172.5770509999711,None,172.5770509999711,173.57707759994082,173.56041559996083,174.56042360002175,0,1,172.5770509999711,None,,,8,F,9,R,CJM,2021_Oct_29_1159,WASABI Nback,2020.2.10,59.97591368515809,
0,1,6,"[0.2, 0]",1,0,0,0,0,,,,,0,0,0,0,0,48,48,48,,,,,,,,,None,None,0,174.57706389995292,None,174.57706389995292,175.57707830006257,175.56043359986506,176.56043060007505,0,1,174.57706389995292,None,,,8,F,9,R,CJM,2021_Oct_29_1159,WASABI Nback,2020.2.10,59.97591368515809,
0,1,5,"[0, 0]",None,0,0,0,0,,,,,0,0,0,0,0,49,49,49,,,,,,,,,None,None,0,176.57710059988312,None,176.57710059988312,177.5770862000063,177.56044490006752,178.56045600003563,0,1,176.57710059988312,None,,,8,F,9,R,CJM,2021_Oct_29_1159,WASABI Nback,2020.2.10,59.97591368515809,
0,1,7,"[-0.2, -0.2]",None,0,0,0,0,,,,,0,0,0,0,0,50,50,50,,,,,,,,,None,None,0,178.57710179989226,None,178.57710179989226,179.5771230000537,179.56045689992607,180.56046419986524,0,1,178.57710179989226,None,,,8,F,9,R,CJM,2021_Oct_29_1159,WASABI Nback,2020.2.10,59.97591368515809,
0,1,5,"[0, 0]",1,0,0,0,0,,,,,0,0,0,0,0,51,51,51,,,,,,,,,None,None,0,180.57711270009167,None,180.57711270009167,181.57712949998677,181.56048089987598,182.5604822000023,0,1,180.57711270009167,None,,,8,F,9,R,CJM,2021_Oct_29_1159,WASABI Nback,2020.2.10,59.97591368515809,
0,1,1,"[-0.2, 0.2]",None,0,0,0,0,,,,,0,0,0,0,0,52,52,52,,,,,,,,,None,None,0,182.57713870005682,None,182.57713870005682,183.5771407999564,183.56048200000077,184.56050199992023,0,1,182.57713870005682,None,,,8,F,9,R,CJM,2021_Oct_29_1159,WASABI Nback,2020.2.10,59.97591368515809,
0,1,7,"[-0.2, -0.2]",None,0,0,0,0,,,,,0,0,0,0,0,53,53,53,,,,,,,,,None,None,0,184.57716519990936,None,184.57716519990936,185.57715640007518,185.56050850008614,186.5605170999188,0,1,184.57716519990936,None,,,8,F,9,R,CJM,2021_Oct_29_1159,WASABI Nback,2020.2.10,59.97591368515809,
0,1,9,"[0.2, -0.2]",None,0,0,0,0,,,,,0,0,0,0,0,54,54,54,,,,,,,,,None,None,0,186.57716759992763,None,186.57716759992763,187.57720559998415,187.56052579986863,188.56052569998428,0,1,186.57716759992763,None,,,8,F,9,R,CJM,2021_Oct_29_1159,WASABI Nback,2020.2.10,59.97591368515809,
0,1,3,"[0.2, 0.2]",None,0,0,0,0,,,,,0,0,0,0,0,55,55,55,,,,,,,,,None,None,0,188.57719370000996,None,188.57719370000996,189.57718649995513,189.56053910008632,190.5605492000468,0,1,188.57719370000996,None,,,8,F,9,R,CJM,2021_Oct_29_1159,WASABI Nback,2020.2.10,59.97591368515809,
0,1,9,"[0.2, -0.2]",1,0,0,0,0,,,,,0,0,0,0,0,56,56,56,,,,,,,,,None,None,0,190.5772130000405,None,190.5772130000405,191.57720949989744,191.560421400005,192.56057109986432,0,1,190.5772130000405,None,,,8,F,9,R,CJM,2021_Oct_29_1159,WASABI Nback,2020.2.10,59.97591368515809,
0,1,6,"[0.2, 0]",None,0,0,0,0,,,,,0,0,0,0,0,57,57,57,,,,,,,,,None,None,0,192.5772349999752,None,192.5772349999752,193.57723219995387,193.5605555998627,194.56057680002414,0,1,192.5772349999752,None,,,8,F,9,R,CJM,2021_Oct_29_1159,WASABI Nback,2020.2.10,59.97591368515809,
0,1,2,"[0, 0.2]",None,0,0,0,0,,,,,0,0,0,0,0,58,58,58,,,,,,,,,None,None,0,194.57723019993864,None,194.57723019993864,195.57725249999203,195.56058420008048,196.56059359991923,0,1,194.57723019993864,None,,,8,F,9,R,CJM,2021_Oct_29_1159,WASABI Nback,2020.2.10,59.97591368515809,
0,1,5,"[0, 0]",None,0,0,0,0,,,,,0,0,0,0,0,59,59,59,,,,,,,,,None,None,0,196.57724629994482,None,196.57724629994482,197.5772635000758,197.56061709998176,198.5605951999314,0,1,196.57724629994482,None,,,8,F,9,R,CJM,2021_Oct_29_1159,WASABI Nback,2020.2.10,59.97591368515809,
0,1,5,"[0, 0]",None,0,0,0,0,,,,,0,0,0,0,0,60,60,60,,,,,,,,,None,None,0,198.57728550001048,None,198.57728550001048,199.577271200018,199.56060059997253,200.560604600003,0,1,198.57728550001048,None,,,8,F,9,R,CJM,2021_Oct_29_1159,WASABI Nback,2020.2.10,59.97591368515809,
0,1,2,"[0, 0.2]",None,0,0,0,0,,,,,0,0,0,0,0,61,61,61,,,,,,,,,None,None,0,200.5772760999389,None,200.5772760999389,201.5772909000516,201.56060829991475,202.56063860002905,0,1,200.5772760999389,None,,,8,F,9,R,CJM,2021_Oct_29_1159,WASABI Nback,2020.2.10,59.97591368515809,
0,1,6,"[0.2, 0]",None,0,0,0,0,,,,,0,0,0,0,0,62,62,62,,,,,,,,,None,None,0,202.57730229990557,None,202.57730229990557,203.5773209000472,203.56064939987846,204.5606519000139,0,1,202.57730229990557,None,,,8,F,9,R,CJM,2021_Oct_29_1159,WASABI Nback,2020.2.10,59.97591368515809,
0,1,9,"[0.2, -0.2]",None,0,0,0,0,,,,,0,0,0,0,0,63,63,63,,,,,,,,,None,None,0,204.5773217000533,None,204.5773217000533,205.57733229990117,205.5606452000793,206.5606698000338,0,1,204.5773217000533,None,,,8,F,9,R,CJM,2021_Oct_29_1159,WASABI Nback,2020.2.10,59.97591368515809,
0,1,3,"[0.2, 0.2]",None,0,0,0,0,,,,,0,0,0,0,0,64,64,64,,,,,,,,,None,None,0,206.57734499988146,None,206.57734499988146,207.5773531999439,207.5605744998902,208.56067220005207,0,1,206.57734499988146,None,,,8,F,9,R,CJM,2021_Oct_29_1159,WASABI Nback,2020.2.10,59.97591368515809,
0,1,9,"[0.2, -0.2]",1,0,0,0,0,,,,,0,0,0,0,0,65,65,65,,,,,,,,,None,None,0,208.57737930002622,None,208.57737930002622,209.5773428999819,209.5606915000826,210.56069579999894,0,1,208.57737930002622,None,,,8,F,9,R,CJM,2021_Oct_29_1159,WASABI Nback,2020.2.10,59.97591368515809,
0,1,7,"[-0.2, -0.2]",None,0,0,0,0,,,,,0,0,0,0,0,66,66,66,,,,,,,,,None,None,0,210.5773712999653,None,210.5773712999653,211.57738099992275,211.56069419998676,212.560716799926,0,1,210.5773712999653,None,,,8,F,9,R,CJM,2021_Oct_29_1159,WASABI Nback,2020.2.10,59.97591368515809,
0,1,1,"[-0.2, 0.2]",None,0,0,0,0,,,,,0,0,0,0,0,67,67,67,,,,,,,,,None,None,0,212.5773851000704,None,212.5773851000704,213.57737610000186,213.56071519991383,214.56071639992297,0,1,212.5773851000704,None,,,8,F,9,R,CJM,2021_Oct_29_1159,WASABI Nback,2020.2.10,59.97591368515809,
0,1,5,"[0, 0]",None,0,0,0,0,,,,,0,0,0,0,0,68,68,68,,,,,,,,,None,None,0,214.57739469991066,None,214.57739469991066,215.57741130003706,215.56073999986984,216.56076280004345,0,1,214.57739469991066,None,,,8,F,9,R,CJM,2021_Oct_29_1159,WASABI Nback,2020.2.10,59.97591368515809,
0,1,7,"[-0.2, -0.2]",None,0,0,0,0,,,,,0,0,0,0,0,69,69,69,,,,,,,,,None,None,0,216.5774069998879,None,216.5774069998879,217.57741719996557,217.56074029998854,218.560705000069,0,1,216.5774069998879,None,,,8,F,9,R,CJM,2021_Oct_29_1159,WASABI Nback,2020.2.10,59.97591368515809,
0,1,5,"[0, 0]",1,0,0,0,0,,,,,0,0,0,0,0,70,70,70,,,,,,,,,None,None,0,218.57743489998393,None,218.57743489998393,219.57744090002961,219.56075860001147,220.56076529994607,0,1,218.57743489998393,None,,,8,F,9,R,CJM,2021_Oct_29_1159,WASABI Nback,2020.2.10,59.97591368515809,
0,1,6,"[0.2, 0]",None,0,0,0,0,,,,,0,0,0,0,0,71,71,71,,,,,,,,,None,None,0,220.57744019990787,None,220.57744019990787,221.577455899911,221.56078709987924,222.5607898000162,0,1,220.57744019990787,None,,,8,F,9,R,CJM,2021_Oct_29_1159,WASABI Nback,2020.2.10,59.97591368515809,
0,1,3,"[0.2, 0.2]",None,0,0,0,0,,,,,0,0,0,0,0,72,72,72,,,,,,,,,None,None,0,222.57746440009214,None,222.57746440009214,223.57745729992166,223.5608055999037,224.56079220003448,0,1,222.57746440009214,None,,,8,F,9,R,CJM,2021_Oct_29_1159,WASABI Nback,2020.2.10,59.97591368515809,
0,1,6,"[0.2, 0]",1,0,0,0,0,,,,,0,0,0,0,0,73,73,73,,,,,,,,,None,None,0,224.5774795000907,None,224.5774795000907,225.57748649991117,225.56081059994176,226.56081270007417,0,1,224.5774795000907,None,,,8,F,9,R,CJM,2021_Oct_29_1159,WASABI Nback,2020.2.10,59.97591368515809,
0,1,8,"[0, -0.2]",None,0,0,0,0,,,,,0,0,0,0,0,74,74,74,,,,,,,,,None,None,0,226.5774900999386,None,226.5774900999386,227.57747490005568,227.56081940000877,228.5608417999465,0,1,226.5774900999386,None,,,8,F,9,R,CJM,2021_Oct_29_1159,WASABI Nback,2020.2.10,59.97591368515809,
0,1,9,"[0.2, -0.2]",None,0,0,0,0,,,,,0,0,0,0,0,75,75,75,,,,,,,,,None,None,0,228.5775095000863,None,228.5775095000863,229.57751199998893,229.56084920000285,230.56086089997552,0,1,228.5775095000863,None,,,8,F,9,R,CJM,2021_Oct_29_1159,WASABI Nback,2020.2.10,59.97591368515809,
0,1,9,"[0.2, -0.2]",None,0,0,0,0,,,,,0,0,0,0,0,76,76,76,,,,,,,,,None,None,0,230.57751209987327,None,230.57751209987327,231.57751689990982,231.56083619990386,232.56087010004558,0,1,230.57751209987327,None,,,8,F,9,R,CJM,2021_Oct_29_1159,WASABI Nback,2020.2.10,59.97591368515809,
0,1,1,"[-0.2, 0.2]",None,0,0,0,0,,,,,0,0,0,0,0,77,77,77,,,,,,,,,None,None,0,232.57754249987192,None,232.57754249987192,233.57753270003013,233.5608466998674,234.5608691999223,0,1,232.57754249987192,None,,,8,F,9,R,CJM,2021_Oct_29_1159,WASABI Nback,2020.2.10,59.97591368515809,
0,1,3,"[0.2, 0.2]",None,0,0,0,0,,,,,0,0,0,0,0,78,78,78,,,,,,,,,None,None,0,234.57754900003783,None,234.57754900003783,235.57756350003183,235.56090099993162,236.56089870003052,0,1,234.57754900003783,None,,,8,F,9,R,CJM,2021_Oct_29_1159,WASABI Nback,2020.2.10,59.97591368515809,
0,1,5,"[0, 0]",None,0,0,0,0,,,,,0,0,0,0,0,79,79,79,,,,,,,,,None,None,0,236.57757329987362,None,236.57757329987362,237.57756190001965,237.56090299994685,238.56091620004736,0,1,236.57757329987362,None,,,8,F,9,R,CJM,2021_Oct_29_1159,WASABI Nback,2020.2.10,59.97591368515809,
0,1,3,"[0.2, 0.2]",1,0,0,0,0,,,,,0,0,0,0,0,80,80,80,,,,,,,,,None,None,0,238.57759879995137,None,238.57759879995137,239.57703719986603,239.56093499995768,240.5609222999774,0,1,238.57759879995137,None,,,8,F,9,R,CJM,2021_Oct_29_1159,WASABI Nback,2020.2.10,59.97591368515809,
0,1,4,"[-0.2, 0]",None,0,0,0,0,,,,,0,0,0,0,0,81,81,81,,,,,,,,,None,None,0,240.57760989991948,None,240.57760989991948,241.57758489996195,241.56094409991056,242.5609347000718,0,1,240.57760989991948,None,,,8,F,9,R,CJM,2021_Oct_29_1159,WASABI Nback,2020.2.10,59.97591368515809,
0,1,7,"[-0.2, -0.2]",None,0,0,0,0,,,,,0,0,0,0,0,82,82,82,,,,,,,,,None,None,0,242.5776025999803,None,242.5776025999803,243.57751279999502,243.5609464000445,244.56095209997147,0,1,242.5776025999803,None,,,8,F,9,R,CJM,2021_Oct_29_1159,WASABI Nback,2020.2.10,59.97591368515809,
0,1,4,"[-0.2, 0]",1,0,0,0,0,,,,,0,0,0,0,0,83,83,83,,,,,,,,,None,None,0,244.57763669989072,None,244.57763669989072,245.57763900002465,245.56096230004914,246.56098469998688,0,1,244.57763669989072,None,,,8,F,9,R,CJM,2021_Oct_29_1159,WASABI Nback,2020.2.10,59.97591368515809,
0,1,4,"[-0.2, 0]",None,0,0,0,0,,,,,0,0,0,0,0,84,84,84,,,,,,,,,None,None,0,246.5776237999089,None,246.5776237999089,247.57765430002473,247.56098509998992,248.56098549999297,0,1,246.5776237999089,None,,,8,F,9,R,CJM,2021_Oct_29_1159,WASABI Nback,2020.2.10,59.97591368515809,
0,1,5,"[0, 0]",None,0,0,0,0,,,,,0,0,0,0,0,85,85,85,,,,,,,,,None,None,0,248.57764320005663,None,248.57764320005663,249.57764919986948,249.56100620003417,250.56099999998696,0,1,248.57764320005663,None,,,8,F,9,R,CJM,2021_Oct_29_1159,WASABI Nback,2020.2.10,59.97591368515809,
0,1,2,"[0, 0.2]",None,0,0,0,0,,,,,0,0,0,0,0,86,86,86,,,,,,,,,None,None,0,250.577660900075,None,250.577660900075,251.57766960002482,251.56101249996573,252.56102999998257,0,1,250.577660900075,None,,,8,F,9,R,CJM,2021_Oct_29_1159,WASABI Nback,2020.2.10,59.97591368515809,
0,1,6,"[0.2, 0]",None,0,0,0,0,,,,,0,0,0,0,0,87,87,87,,,,,,,,,None,None,0,252.57767879986204,None,252.57767879986204,253.57768419990316,253.56104020006023,254.56102919997647,0,1,252.57767879986204,None,,,8,F,9,R,CJM,2021_Oct_29_1159,WASABI Nback,2020.2.10,59.97591368515809,
0,1,7,"[-0.2, -0.2]",None,0,0,0,0,,,,,0,0,0,0,0,88,88,88,,,,,,,,,None,None,0,254.57769529987127,None,254.57769529987127,255.57770480006002,255.56102039990947,256.56104429997504,0,1,254.57769529987127,None,,,8,F,9,R,CJM,2021_Oct_29_1159,WASABI Nback,2020.2.10,59.97591368515809,
0,1,6,"[0.2, 0]",1,0,0,0,0,,,,,0,0,0,0,0,89,89,89,,,,,,,,,None,None,0,256.57772800000384,None,256.57772800000384,257.5777181999292,257.5610680000391,258.56106109987013,0,1,256.57772800000384,None,,,8,F,9,R,CJM,2021_Oct_29_1159,WASABI Nback,2020.2.10,59.97591368515809,
0,1,6,"[0.2, 0]",None,0,0,0,0,,,,,0,0,0,0,0,90,90,90,,,,,,,,,None,None,0,258.5777398000937,None,258.5777398000937,259.5777368999552,259.5610712999478,260.5610783000011,0,1,258.5777398000937,None,,,8,F,9,R,CJM,2021_Oct_29_1159,WASABI Nback,2020.2.10,59.97591368515809,
0,1,7,"[-0.2, -0.2]",None,0,0,0,0,,,,,0,0,0,0,0,91,91,91,,,,,,,,,None,None,0,260.5777600000147,None,260.5777600000147,261.5777598998975,261.56108210003003,262.5610948000103,0,1,260.5777600000147,None,,,8,F,9,R,CJM,2021_Oct_29_1159,WASABI Nback,2020.2.10,59.97591368515809,
0,1,6,"[0.2, 0]",1,0,0,0,0,,,,,0,0,0,0,0,92,92,92,,,,,,,,,None,None,0,262.5777717998717,None,262.5777717998717,263.5777817000635,263.56111699994653,264.5610257999506,0,1,262.5777717998717,None,,,8,F,9,R,CJM,2021_Oct_29_1159,WASABI Nback,2020.2.10,59.97591368515809,
0,1,2,"[0, 0.2]",None,0,0,0,0,,,,,0,0,0,0,0,93,93,93,,,,,,,,,None,None,0,264.5777751998976,None,264.5777751998976,265.57778339996,265.5611316000577,266.5611372999847,0,1,264.5777751998976,None,,,8,F,9,R,CJM,2021_Oct_29_1159,WASABI Nback,2020.2.10,59.97591368515809,
0,1,5,"[0, 0]",None,0,0,0,0,,,,,0,0,0,0,0,94,94,94,,,,,,,,,None,None,0,266.57780149998143,None,266.57780149998143,267.57782969996333,267.56112940004095,268.5611562000122,0,1,266.57780149998143,None,,,8,F,9,R,CJM,2021_Oct_29_1159,WASABI Nback,2020.2.10,59.97591368515809,
0,1,4,"[-0.2, 0]",None,0,0,0,0,,,,,0,0,0,0,0,95,95,95,,,,,,,,,None,None,0,268.5778173999861,None,268.5778173999861,269.5778113999404,269.56116589996964,270.56117199989967,0,1,268.5778173999861,None,,,8,F,9,R,CJM,2021_Oct_29_1159,WASABI Nback,2020.2.10,59.97591368515809,
0,1,4,"[-0.2, 0]",None,0,0,0,0,,,,,0,0,0,0,0,96,96,96,,,,,,,,,None,None,0,270.5778147999663,None,270.5778147999663,271.5778256999329,271.561179399956,272.56119200005196,0,1,270.5778147999663,None,,,8,F,9,R,CJM,2021_Oct_29_1159,WASABI Nback,2020.2.10,59.97591368515809,
0,1,7,"[-0.2, -0.2]",None,0,0,0,0,,,,,0,0,0,0,0,97,97,97,,,,,,,,,None,None,0,272.5778540999163,None,272.5778540999163,273.57785900007,273.56119620008394,274.56120470003225,0,1,272.5778540999163,None,,,8,F,9,R,CJM,2021_Oct_29_1159,WASABI Nback,2020.2.10,59.97591368515809,
0,1,4,"[-0.2, 0]",1,0,0,0,0,,,,,0,0,0,0,0,98,98,98,,,,,,,,,None,None,0,274.5778643998783,None,274.5778643998783,275.5778757999651,275.56120550003834,276.5612119999714,0,1,274.5778643998783,None,,,8,F,9,R,CJM,2021_Oct_29_1159,WASABI Nback,2020.2.10,59.97591368515809,
0,1,3,"[0.2, 0.2]",None,0,0,0,0,,,,,0,0,0,0,0,99,99,99,,,,,,,,,None,None,0,276.57786819990724,None,276.57786819990724,277.5778804998845,277.56122769997455,278.561225600075,0,1,276.57786819990724,None,,,8,F,9,R,CJM,2021_Oct_29_1159,WASABI Nback,2020.2.10,59.97591368515809,
0,1,5,"[0, 0]",None,0,0,0,0,,,,,0,0,0,0,0,100,100,100,,,,,,,,,None,None,0,278.5778961000033,None,278.5778961000033,279.5778868000489,279.56122669996694,280.5612347999122,0,1,278.5778961000033,None,,,8,F,9,R,CJM,2021_Oct_29_1159,WASABI Nback,2020.2.10,59.97591368515809,
0,1,3,"[0.2, 0.2]",1,0,0,0,0,,,,,0,0,0,0,0,101,101,101,,,,,,,,,None,None,0,280.57789999991655,None,280.57789999991655,281.5779220000841,281.5612608999945,282.5612508999184,0,1,280.57789999991655,None,,,8,F,9,R,CJM,2021_Oct_29_1159,WASABI Nback,2020.2.10,59.97591368515809,
0,1,1,"[-0.2, 0.2]",None,0,0,0,0,,,,,0,0,0,0,0,102,102,102,,,,,,,,,None,None,0,282.5779309999198,None,282.5779309999198,283.57792100007646,283.5612784998957,284.5612838999368,0,1,282.5779309999198,None,,,8,F,9,R,CJM,2021_Oct_29_1159,WASABI Nback,2020.2.10,59.97591368515809,
0,1,9,"[0.2, -0.2]",None,0,0,0,0,,,,,0,0,0,0,0,103,103,103,,,,,,,,,None,None,0,284.5779407999944,None,284.5779407999944,285.57795069995336,285.56127989990637,286.56130039994605,0,1,284.5779407999944,None,,,8,F,9,R,CJM,2021_Oct_29_1159,WASABI Nback,2020.2.10,59.97591368515809,
0,1,9,"[0.2, -0.2]",None,0,0,0,0,,,,,0,0,0,0,0,104,104,104,,,,,,,,,None,None,0,286.57795999990776,None,286.57795999990776,287.57795830001123,287.56130900001153,288.5612971999217,0,1,286.57795999990776,None,,,8,F,9,R,CJM,2021_Oct_29_1159,WASABI Nback,2020.2.10,59.97591368515809,
0,1,8,"[0, -0.2]",None,0,0,0,0,,,,,0,0,0,0,0,105,105,105,,,,,,,,,None,None,0,288.5779667000752,None,288.5779667000752,289.57798420009203,289.5613303000573,290.56131589994766,0,1,288.5779667000752,None,,,8,F,9,R,CJM,2021_Oct_29_1159,WASABI Nback,2020.2.10,59.97591368515809,
0,1,6,"[0.2, 0]",None,0,0,0,0,,,,,0,0,0,0,0,106,106,106,,,,,,,,,None,None,0,290.5780088000465,None,290.5780088000465,291.577986799879,291.5613190000877,292.56133659998886,0,1,290.5780088000465,None,,,8,F,9,R,CJM,2021_Oct_29_1159,WASABI Nback,2020.2.10,59.97591368515809,
0,1,3,"[0.2, 0.2]",None,0,0,0,0,,,,,0,0,0,0,0,107,107,107,,,,,,,,,None,None,0,292.57800560002215,None,292.57800560002215,293.57799939997494,293.5613565999083,294.56135439989157,0,1,292.57800560002215,None,,,8,F,9,R,CJM,2021_Oct_29_1159,WASABI Nback,2020.2.10,59.97591368515809,
0,1,6,"[0.2, 0]",1,0,0,0,0,,,,,0,0,0,0,0,108,108,108,,,,,,,,,None,None,0,294.5780050000176,None,294.5780050000176,295.5780191998929,295.5613484000787,296.5613772000652,0,1,294.5780050000176,None,,,8,F,9,R,CJM,2021_Oct_29_1159,WASABI Nback,2020.2.10,59.97591368515809,
0,1,5,"[0, 0]",None,0,0,0,0,,,,,0,0,0,0,0,109,109,109,,,,,,,,,None,None,0,296.5780241000466,None,296.5780241000466,297.5780364999082,297.5613977999892,298.56139739998616,0,1,296.5780241000466,None,,,8,F,9,R,CJM,2021_Oct_29_1159,WASABI Nback,2020.2.10,59.97591368515809,
0,1,7,"[-0.2, -0.2]",None,0,0,0,0,,,,,0,0,0,0,0,110,110,110,,,,,,,,,None,None,0,298.5780450999737,None,298.5780450999737,299.5780452999752,299.5613949999679,300.561406099936,0,1,298.5780450999737,None,,,8,F,9,R,CJM,2021_Oct_29_1159,WASABI Nback,2020.2.10,59.97591368515809,
0,1,5,"[0, 0]",1,0,0,0,0,,,,,0,0,0,0,0,111,111,111,,,,,,,,,None,None,0,300.5780692000408,None,300.5780692000408,301.57808079989627,301.5614185000304,302.56142559996806,0,1,300.5780692000408,None,,,8,F,9,R,CJM,2021_Oct_29_1159,WASABI Nback,2020.2.10,59.97591368515809,
0,1,1,"[-0.2, 0.2]",None,0,0,0,0,,,,,0,0,0,0,0,112,112,112,,,,,,,,,None,None,0,302.57807240006514,None,302.57807240006514,303.57808090001345,303.5614322000183,304.5614400000777,0,1,302.57807240006514,None,,,8,F,9,R,CJM,2021_Oct_29_1159,WASABI Nback,2020.2.10,59.97591368515809,
0,1,7,"[-0.2, -0.2]",None,0,0,0,0,,,,,0,0,0,0,0,113,113,113,,,,,,,,,None,None,0,304.5781020000577,None,304.5781020000577,305.5780986000318,305.5614435998723,306.5614618998952,0,1,304.5781020000577,None,,,8,F,9,R,CJM,2021_Oct_29_1159,WASABI Nback,2020.2.10,59.97591368515809,
0,1,9,"[0.2, -0.2]",None,0,0,0,0,,,,,0,0,0,0,0,114,114,114,,,,,,,,,None,None,0,306.5781163999345,None,306.5781163999345,307.57812540000305,307.56146700005047,308.5614662999287,0,1,306.5781163999345,None,,,8,F,9,R,CJM,2021_Oct_29_1159,WASABI Nback,2020.2.10,59.97591368515809,
0,1,3,"[0.2, 0.2]",None,0,0,0,0,,,,,0,0,0,0,0,115,115,115,,,,,,,,,None,None,0,308.5781219000928,None,308.5781219000928,309.57814270001836,309.56152500002645,310.56148279993795,0,1,308.5781219000928,None,,,8,F,9,R,CJM,2021_Oct_29_1159,WASABI Nback,2020.2.10,59.97591368515809,
0,1,9,"[0.2, -0.2]",1,0,0,0,0,,,,,0,0,0,0,0,116,116,116,,,,,,,,,None,None,0,310.5781421000138,None,310.5781421000138,311.5781461999286,311.5614998000674,312.56150609999895,0,1,310.5781421000138,None,,,8,F,9,R,CJM,2021_Oct_29_1159,WASABI Nback,2020.2.10,59.97591368515809,
0,1,6,"[0.2, 0]",None,0,0,0,0,,,,,0,0,0,0,0,117,117,117,,,,,,,,,None,None,0,312.57816959987395,None,312.57816959987395,313.5781759999227,313.56150950002484,314.5615169000812,0,1,312.57816959987395,None,,,8,F,9,R,CJM,2021_Oct_29_1159,WASABI Nback,2020.2.10,59.97591368515809,
0,1,2,"[0, 0.2]",None,0,0,0,0,,,,,0,0,0,0,0,118,118,118,,,,,,,,,None,None,0,314.57818900002167,None,314.57818900002167,315.5781811000779,315.56153120007366,316.56153790000826,0,1,314.57818900002167,None,,,8,F,9,R,CJM,2021_Oct_29_1159,WASABI Nback,2020.2.10,59.97591368515809,
0,1,5,"[0, 0]",None,0,0,0,0,,,,,0,0,0,0,0,119,119,119,,,,,,,,,None,None,0,316.57823069998994,None,316.57823069998994,317.5781968999654,317.5615415000357,318.561549999984,0,1,316.57823069998994,None,,,8,F,9,R,CJM,2021_Oct_29_1159,WASABI Nback,2020.2.10,59.97591368515809,
1,0,,,,0,1,1,1,0,0,0,0,,,,,,,,,,,,,,,,,,,,,,,,,,,,,,446.64588500000536,None,8,F,9,R,CJM,2021_Oct_29_1159,WASABI Nback,2020.2.10,59.97591368515809,
