RestT1,TaskT1,square,location,corrAns,counterbalancer.thisRepN,counterbalancer.thisTrialN,counterbalancer.thisN,counterbalancer.thisIndex,RestT1Loop.thisRepN,RestT1Loop.thisTrialN,RestT1Loop.thisN,RestT1Loop.thisIndex,TaskT1Loop.thisRepN,TaskT1Loop.thisTrialN,TaskT1Loop.thisN,TaskT1Loop.thisIndex,trials_2.thisRepN,trials_2.thisTrialN,trials_2.thisN,trials_2.thisIndex,fixation_1.started,fixation_1.stopped,NbackInstructions.started,NbackInstructions.stopped,NbackStart.keys,NbackStart.rt,NbackStart.started,NbackStart.stopped,fixation_2.started,fixation_2.stopped,response_2.x,response_2.y,response_2.leftButton,grid_lines_2.started,grid_lines_2.stopped,target_square_2.started,target_square_2.stopped,fixation_3.started,fixation_3.stopped,response_2.click,response_2.corr,response_2.started,response_2.stopped,subject number,gender,session,handedness,scanner,date,expName,psychopyVersion,frameRate,
1,0,,,,0,0,0,0,0,0,0,0,,,,,,,,,37.359517199976835,None,,,,,,,,,,,,,,,,,,,,,,5,M,18,R,MK,2021_Nov_15_1700,WASABI Nback,2020.2.10,59.987174756114115,
0,1,,,,0,1,1,1,,,,,0,0,0,0,,,,,,,322.1617752999882,None,space,40.270255899988115,322.1617752999882,None,,,,,,,,,,,,,,,,5,M,18,R,MK,2021_Nov_15_1700,WASABI Nback,2020.2.10,59.987174756114115,
0,1,5,"[0, 0]",None,0,1,1,1,,,,,0,0,0,0,0,0,0,0,,,,,,,,,None,None,None,None,[],None,None,None,None,None,None,[],[],None,None,5,M,18,R,MK,2021_Nov_15_1700,WASABI Nback,2020.2.10,59.987174756114115,
0,1,2,"[0, 0.2]",None,0,1,1,1,,,,,0,0,0,0,0,1,1,1,,,,,,,,,,,None,None,[],None,None,None,None,None,None,[],[],None,None,5,M,18,R,MK,2021_Nov_15_1700,WASABI Nback,2020.2.10,59.987174756114115,
0,1,6,"[0.2, 0]",None,0,1,1,1,,,,,0,0,0,0,0,2,2,2,,,,,,,,,,,None,None,[],None,None,None,None,None,None,[],[],None,None,5,M,18,R,MK,2021_Nov_15_1700,WASABI Nback,2020.2.10,59.987174756114115,
0,1,9,"[0.2, -0.2]",None,0,1,1,1,,,,,0,0,0,0,0,3,3,3,,,,,,,,,,,None,None,0,371.0454951999709,None,371.0454951999709,None,None,None,0,1,371.0454951999709,None,5,M,18,R,MK,2021_Nov_15_1700,WASABI Nback,2020.2.10,59.987174756114115,
0,1,3,"[0.2, 0.2]",None,0,1,1,1,,,,,0,0,0,0,0,4,4,4,,,,,,,,,,,None,None,0,371.4788353999611,None,371.4788353999611,372.47886729997117,372.4622095999657,373.462195399974,0,1,371.4788353999611,None,5,M,18,R,MK,2021_Nov_15_1700,WASABI Nback,2020.2.10,59.987174756114115,
0,1,9,"[0.2, -0.2]",1,0,1,1,1,,,,,0,0,0,0,0,5,5,5,,,,,,,,,,,None,None,0,373.4788100000005,None,373.4788100000005,374.47887379996246,374.46222250000574,375.4622113999794,0,1,373.4788100000005,None,5,M,18,R,MK,2021_Nov_15_1700,WASABI Nback,2020.2.10,59.987174756114115,
0,1,7,"[-0.2, -0.2]",None,0,1,1,1,,,,,0,0,0,0,0,6,6,6,,,,,,,,,,,None,None,0,375.47886499995366,None,375.47886499995366,376.47883419995196,376.46224129997427,377.46224570000777,0,1,375.47886499995366,None,5,M,18,R,MK,2021_Nov_15_1700,WASABI Nback,2020.2.10,59.987174756114115,
0,1,1,"[-0.2, 0.2]",None,0,1,1,1,,,,,0,0,0,0,0,7,7,7,,,,,,,,,,,None,None,0,377.4788844999857,None,377.4788844999857,378.4789106999524,378.4622429999872,379.462238899956,0,1,377.4788844999857,None,5,M,18,R,MK,2021_Nov_15_1700,WASABI Nback,2020.2.10,59.987174756114115,
0,1,5,"[0, 0]",None,0,1,1,1,,,,,0,0,0,0,0,8,8,8,,,,,,,,,,,None,None,0,379.4788311999873,None,379.4788311999873,380.47891079995316,380.46224369999254,381.4622483999701,0,1,379.4788311999873,None,5,M,18,R,MK,2021_Nov_15_1700,WASABI Nback,2020.2.10,59.987174756114115,
0,1,7,"[-0.2, -0.2]",None,0,1,1,1,,,,,0,0,0,0,0,9,9,9,,,,,,,,,,,None,None,0,381.4789318999974,None,381.4789318999974,382.4789422999602,382.4622887999867,383.4622730999836,0,1,381.4789318999974,None,5,M,18,R,MK,2021_Nov_15_1700,WASABI Nback,2020.2.10,59.987174756114115,
0,1,5,"[0, 0]",1,0,1,1,1,,,,,0,0,0,0,0,10,10,10,,,,,,,,,,,None,None,0,383.47893959999783,None,383.47893959999783,384.47896390000824,384.4622898999951,385.4623084999621,0,1,383.47893959999783,None,5,M,18,R,MK,2021_Nov_15_1700,WASABI Nback,2020.2.10,59.987174756114115,
0,1,6,"[0.2, 0]",None,0,1,1,1,,,,,0,0,0,0,0,11,11,11,,,,,,,,,,,None,None,0,385.47898219997296,None,385.47898219997296,386.4789874999551,386.4622529000044,387.4623164999648,0,1,385.47898219997296,None,5,M,18,R,MK,2021_Nov_15_1700,WASABI Nback,2020.2.10,59.987174756114115,
0,1,3,"[0.2, 0.2]",None,0,1,1,1,,,,,0,0,0,0,0,12,12,12,,,,,,,,,,,None,None,0,387.4789898999734,None,387.4789898999734,388.4790004999959,388.46231460000854,389.4623319999664,0,1,387.4789898999734,None,5,M,18,R,MK,2021_Nov_15_1700,WASABI Nback,2020.2.10,59.987174756114115,
0,1,6,"[0.2, 0]",1,0,1,1,1,,,,,0,0,0,0,0,13,13,13,,,,,,,,,,,None,None,0,389.4790151999914,None,389.4790151999914,390.47899849998066,390.46234589995584,391.4623672000016,0,1,389.4790151999914,None,5,M,18,R,MK,2021_Nov_15_1700,WASABI Nback,2020.2.10,59.987174756114115,
0,1,8,"[0, -0.2]",None,0,1,1,1,,,,,0,0,0,0,0,14,14,14,,,,,,,,,,,None,None,0,391.4790135999792,None,391.4790135999792,392.4790213999804,392.4623469999642,393.46235879999585,0,1,391.4790135999792,None,5,M,18,R,MK,2021_Nov_15_1700,WASABI Nback,2020.2.10,59.987174756114115,
0,1,9,"[0.2, -0.2]",None,0,1,1,1,,,,,0,0,0,0,0,15,15,15,,,,,,,,,,,None,None,0,393.4790471000015,None,393.4790471000015,394.4790418999619,394.4623643999803,395.4623959999881,0,1,393.4790471000015,None,5,M,18,R,MK,2021_Nov_15_1700,WASABI Nback,2020.2.10,59.987174756114115,
0,1,9,"[0.2, -0.2]",None,0,1,1,1,,,,,0,0,0,0,0,16,16,16,,,,,,,,,,,None,None,0,395.4790386999957,None,395.4790386999957,396.4790854000021,396.4623833000078,397.46238679997623,0,1,395.4790386999957,None,5,M,18,R,MK,2021_Nov_15_1700,WASABI Nback,2020.2.10,59.987174756114115,
0,1,1,"[-0.2, 0.2]",None,0,1,1,1,,,,,0,0,0,0,0,17,17,17,,,,,,,,,,,None,None,0,397.4790634000092,None,397.4790634000092,398.4790902999812,398.46241649996955,399.4624069999554,0,1,397.4790634000092,None,5,M,18,R,MK,2021_Nov_15_1700,WASABI Nback,2020.2.10,59.987174756114115,
0,1,3,"[0.2, 0.2]",None,0,1,1,1,,,,,0,0,0,0,0,18,18,18,,,,,,,,,,,None,None,0,399.47909559996333,None,399.47909559996333,400.47908809996443,400.4624279999989,401.4624414999853,0,1,399.47909559996333,None,5,M,18,R,MK,2021_Nov_15_1700,WASABI Nback,2020.2.10,59.987174756114115,
0,1,5,"[0, 0]",None,0,1,1,1,,,,,0,0,0,0,0,19,19,19,,,,,,,,,,,None,None,0,401.4791145999916,None,401.4791145999916,402.47912219999125,402.46243119996507,403.4624427999952,0,1,401.4791145999916,None,5,M,18,R,MK,2021_Nov_15_1700,WASABI Nback,2020.2.10,59.987174756114115,
0,1,3,"[0.2, 0.2]",1,0,1,1,1,,,,,0,0,0,0,0,20,20,20,,,,,,,,,,,None,None,0,403.479111499968,None,403.479111499968,404.47914209996816,404.4623682000092,405.4624600999523,0,1,403.479111499968,None,5,M,18,R,MK,2021_Nov_15_1700,WASABI Nback,2020.2.10,59.987174756114115,
0,1,4,"[-0.2, 0]",None,0,1,1,1,,,,,0,0,0,0,0,21,21,21,,,,,,,,,,,None,None,0,405.4791391000035,None,405.4791391000035,406.4791435999796,406.4624851999688,407.46246489998884,0,1,405.4791391000035,None,5,M,18,R,MK,2021_Nov_15_1700,WASABI Nback,2020.2.10,59.987174756114115,
0,1,7,"[-0.2, -0.2]",None,0,1,1,1,,,,,0,0,0,0,0,22,22,22,,,,,,,,,,,None,None,0,407.479165799974,None,407.479165799974,408.47916769998847,408.4624792999821,409.462516199972,0,1,407.479165799974,None,5,M,18,R,MK,2021_Nov_15_1700,WASABI Nback,2020.2.10,59.987174756114115,
0,1,4,"[-0.2, 0]",1,0,1,1,1,,,,,0,0,0,0,0,23,23,23,,,,,,,,,,,None,None,0,409.4791608999949,None,409.4791608999949,410.4791897999821,410.4625065999571,411.4625051000039,0,1,409.4791608999949,None,5,M,18,R,MK,2021_Nov_15_1700,WASABI Nback,2020.2.10,59.987174756114115,
0,1,4,"[-0.2, 0]",None,0,1,1,1,,,,,0,0,0,0,0,24,24,24,,,,,,,,,,,None,None,0,411.47917549998965,None,411.47917549998965,412.4792024999624,412.4625239999732,413.4625202000025,0,1,411.47917549998965,None,5,M,18,R,MK,2021_Nov_15_1700,WASABI Nback,2020.2.10,59.987174756114115,
0,1,5,"[0, 0]",None,0,1,1,1,,,,,0,0,0,0,0,25,25,25,,,,,,,,,,,None,None,0,413.47921399999177,None,413.47921399999177,414.4791985999909,414.46253419999266,415.4625453999615,0,1,413.47921399999177,None,5,M,18,R,MK,2021_Nov_15_1700,WASABI Nback,2020.2.10,59.987174756114115,
0,1,2,"[0, 0.2]",None,0,1,1,1,,,,,0,0,0,0,0,26,26,26,,,,,,,,,,,None,None,0,415.47923349996563,None,415.47923349996563,416.4792122999788,416.4625512000057,417.4625692999689,0,1,415.47923349996563,None,5,M,18,R,MK,2021_Nov_15_1700,WASABI Nback,2020.2.10,59.987174756114115,
0,1,6,"[0.2, 0]",None,0,1,1,1,,,,,0,0,0,0,0,27,27,27,,,,,,,,,,,None,None,0,417.4792369999923,None,417.4792369999923,418.47923969995463,418.4625820000074,419.46257979999064,0,1,417.4792369999923,None,5,M,18,R,MK,2021_Nov_15_1700,WASABI Nback,2020.2.10,59.987174756114115,
0,1,7,"[-0.2, -0.2]",None,0,1,1,1,,,,,0,0,0,0,0,28,28,28,,,,,,,,,,,None,None,0,419.4792392999516,None,419.4792392999516,420.4792663999833,420.46258519997355,421.46260460000485,0,1,419.4792392999516,None,5,M,18,R,MK,2021_Nov_15_1700,WASABI Nback,2020.2.10,59.987174756114115,
0,1,6,"[0.2, 0]",1,0,1,1,1,,,,,0,0,0,0,0,29,29,29,,,,,,,,,,,None,None,0,421.47928239998873,None,421.47928239998873,422.4792785999598,422.4626013999805,423.46261059999233,0,1,421.47928239998873,None,5,M,18,R,MK,2021_Nov_15_1700,WASABI Nback,2020.2.10,59.987174756114115,
0,1,6,"[0.2, 0]",None,0,1,1,1,,,,,0,0,0,0,0,30,30,30,,,,,,,,,,,None,None,0,423.4792668999871,None,423.4792668999871,424.4793571999762,424.462636799959,425.46263999998337,0,1,423.4792668999871,None,5,M,18,R,MK,2021_Nov_15_1700,WASABI Nback,2020.2.10,59.987174756114115,
0,1,7,"[-0.2, -0.2]",None,0,1,1,1,,,,,0,0,0,0,0,31,31,31,,,,,,,,,,,None,None,0,425.4792851000093,None,425.4792851000093,426.4792920000036,426.46262810000917,427.46264369995333,0,1,425.4792851000093,None,5,M,18,R,MK,2021_Nov_15_1700,WASABI Nback,2020.2.10,59.987174756114115,
0,1,6,"[0.2, 0]",1,0,1,1,1,,,,,0,0,0,0,0,32,32,32,,,,,,,,,,,None,None,0,427.47932139999466,None,427.47932139999466,428.47930819995236,428.4626488999929,429.46265689999564,0,1,427.47932139999466,None,5,M,18,R,MK,2021_Nov_15_1700,WASABI Nback,2020.2.10,59.987174756114115,
0,1,2,"[0, 0.2]",None,0,1,1,1,,,,,0,0,0,0,0,33,33,33,,,,,,,,,,,None,None,0,429.47931389999576,None,429.47931389999576,430.47933619999094,430.46268019999843,431.4626711999881,0,1,429.47931389999576,None,5,M,18,R,MK,2021_Nov_15_1700,WASABI Nback,2020.2.10,59.987174756114115,
0,1,5,"[0, 0]",None,0,1,1,1,,,,,0,0,0,0,0,34,34,34,,,,,,,,,,,None,None,0,431.4793470999575,None,431.4793470999575,432.4793636999675,432.4626805000007,433.46271399996476,0,1,431.4793470999575,None,5,M,18,R,MK,2021_Nov_15_1700,WASABI Nback,2020.2.10,59.987174756114115,
0,1,4,"[-0.2, 0]",None,0,1,1,1,,,,,0,0,0,0,0,35,35,35,,,,,,,,,,,None,None,0,433.4793709999649,None,433.4793709999649,434.4793853999581,434.46269799995935,435.4627213999629,0,1,433.4793709999649,None,5,M,18,R,MK,2021_Nov_15_1700,WASABI Nback,2020.2.10,59.987174756114115,
0,1,4,"[-0.2, 0]",None,0,1,1,1,,,,,0,0,0,0,0,36,36,36,,,,,,,,,,,None,None,0,435.47938609996345,None,435.47938609996345,436.47939210000914,436.4627122999518,437.4627151999739,0,1,435.47938609996345,None,5,M,18,R,MK,2021_Nov_15_1700,WASABI Nback,2020.2.10,59.987174756114115,
0,1,7,"[-0.2, -0.2]",None,0,1,1,1,,,,,0,0,0,0,0,37,37,37,,,,,,,,,,,None,None,0,437.4793028999702,None,437.4793028999702,438.47939130000304,438.46264389995486,439.46273889997974,0,1,437.4793028999702,None,5,M,18,R,MK,2021_Nov_15_1700,WASABI Nback,2020.2.10,59.987174756114115,
0,1,4,"[-0.2, 0]",1,0,1,1,1,,,,,0,0,0,0,0,38,38,38,,,,,,,,,,,None,None,0,439.479405399994,None,439.479405399994,440.4794166999636,440.4627571000019,441.4627591999597,0,1,439.479405399994,None,5,M,18,R,MK,2021_Nov_15_1700,WASABI Nback,2020.2.10,59.987174756114115,
0,1,3,"[0.2, 0.2]",None,0,1,1,1,,,,,0,0,0,0,0,39,39,39,,,,,,,,,,,None,None,0,441.4793496999773,None,441.4793496999773,442.47944199998165,442.4627601999673,443.46276889997534,0,1,441.4793496999773,None,5,M,18,R,MK,2021_Nov_15_1700,WASABI Nback,2020.2.10,59.987174756114115,
0,1,5,"[0, 0]",None,0,1,1,1,,,,,0,0,0,0,0,40,40,40,,,,,,,,,,,None,None,0,443.47945179999806,None,443.47945179999806,444.4794366999995,444.4627842999762,445.4627964999527,0,1,443.47945179999806,None,5,M,18,R,MK,2021_Nov_15_1700,WASABI Nback,2020.2.10,59.987174756114115,
0,1,3,"[0.2, 0.2]",1,0,1,1,1,,,,,0,0,0,0,0,41,41,41,,,,,,,,,,,None,None,0,445.4794479999691,None,445.4794479999691,446.4794588999939,446.46279679995496,447.46280609996757,0,1,445.4794479999691,None,5,M,18,R,MK,2021_Nov_15_1700,WASABI Nback,2020.2.10,59.987174756114115,
0,1,1,"[-0.2, 0.2]",None,0,1,1,1,,,,,0,0,0,0,0,42,42,42,,,,,,,,,,,None,None,0,447.47955119999824,None,447.47955119999824,448.479478299967,448.4628367999685,449.46281439997256,0,1,447.47955119999824,None,5,M,18,R,MK,2021_Nov_15_1700,WASABI Nback,2020.2.10,59.987174756114115,
0,1,9,"[0.2, -0.2]",None,0,1,1,1,,,,,0,0,0,0,0,43,43,43,,,,,,,,,,,None,None,0,449.4794852999621,None,449.4794852999621,450.4795111999847,450.4628395999898,451.4628581999568,0,1,449.4794852999621,None,5,M,18,R,MK,2021_Nov_15_1700,WASABI Nback,2020.2.10,59.987174756114115,
0,1,9,"[0.2, -0.2]",None,0,1,1,1,,,,,0,0,0,0,0,44,44,44,,,,,,,,,,,None,None,0,451.47951489995467,None,451.47951489995467,452.47953179996694,452.4628559999983,453.4628585999599,0,1,451.47951489995467,None,5,M,18,R,MK,2021_Nov_15_1700,WASABI Nback,2020.2.10,59.987174756114115,
0,1,8,"[0, -0.2]",None,0,1,1,1,,,,,0,0,0,0,0,45,45,45,,,,,,,,,,,None,None,0,453.4795318999677,None,453.4795318999677,454.4795269999886,454.46286639996106,455.46288379997713,0,1,453.4795318999677,None,5,M,18,R,MK,2021_Nov_15_1700,WASABI Nback,2020.2.10,59.987174756114115,
0,1,6,"[0.2, 0]",None,0,1,1,1,,,,,0,0,0,0,0,46,46,46,,,,,,,,,,,None,None,0,455.4795338999829,None,455.4795338999829,456.4795607999549,456.46289669995895,457.462899199978,0,1,455.4795338999829,None,5,M,18,R,MK,2021_Nov_15_1700,WASABI Nback,2020.2.10,59.987174756114115,
0,1,3,"[0.2, 0.2]",None,0,1,1,1,,,,,0,0,0,0,0,47,47,47,,,,,,,,,,,None,None,0,457.47955220000586,None,457.47955220000586,458.4795768999611,458.46288949996233,459.4629026000039,0,1,457.47955220000586,None,5,M,18,R,MK,2021_Nov_15_1700,WASABI Nback,2020.2.10,59.987174756114115,
0,1,6,"[0.2, 0]",1,0,1,1,1,,,,,0,0,0,0,0,48,48,48,,,,,,,,,,,None,None,0,459.47958399995696,None,459.47958399995696,460.47957779996796,460.46291379997274,461.462932800001,0,1,459.47958399995696,None,5,M,18,R,MK,2021_Nov_15_1700,WASABI Nback,2020.2.10,59.987174756114115,
0,1,5,"[0, 0]",None,0,1,1,1,,,,,0,0,0,0,0,49,49,49,,,,,,,,,,,None,None,0,461.4795823000022,None,461.4795823000022,462.47961429995485,462.46292359998915,463.4629633000004,0,1,461.4795823000022,None,5,M,18,R,MK,2021_Nov_15_1700,WASABI Nback,2020.2.10,59.987174756114115,
0,1,7,"[-0.2, -0.2]",None,0,1,1,1,,,,,0,0,0,0,0,50,50,50,,,,,,,,,,,None,None,0,463.479603099986,None,463.479603099986,464.47963159997016,464.4629583999631,465.4629607999814,0,1,463.479603099986,None,5,M,18,R,MK,2021_Nov_15_1700,WASABI Nback,2020.2.10,59.987174756114115,
0,1,5,"[0, 0]",1,0,1,1,1,,,,,0,0,0,0,0,51,51,51,,,,,,,,,,,None,None,0,465.47963029996026,None,465.47963029996026,466.47964249999495,466.4629609999829,467.4629909999785,0,1,465.47963029996026,None,5,M,18,R,MK,2021_Nov_15_1700,WASABI Nback,2020.2.10,59.987174756114115,
0,1,1,"[-0.2, 0.2]",None,0,1,1,1,,,,,0,0,0,0,0,52,52,52,,,,,,,,,,,None,None,0,467.4796549999737,None,467.4796549999737,468.47966469998937,468.46297609998146,469.46300719998544,0,1,467.4796549999737,None,5,M,18,R,MK,2021_Nov_15_1700,WASABI Nback,2020.2.10,59.987174756114115,
0,1,7,"[-0.2, -0.2]",None,0,1,1,1,,,,,0,0,0,0,0,53,53,53,,,,,,,,,,,None,None,0,469.47966089996044,None,469.47966089996044,470.47968409996247,470.4630102000083,471.46300119999796,0,1,469.47966089996044,None,5,M,18,R,MK,2021_Nov_15_1700,WASABI Nback,2020.2.10,59.987174756114115,
0,1,9,"[0.2, -0.2]",None,0,1,1,1,,,,,0,0,0,0,0,54,54,54,,,,,,,,,,,None,None,0,471.47966499999166,None,471.47966499999166,472.47967849997804,472.46302530000685,473.4630383999902,0,1,471.47966499999166,None,5,M,18,R,MK,2021_Nov_15_1700,WASABI Nback,2020.2.10,59.987174756114115,
0,1,3,"[0.2, 0.2]",None,0,1,1,1,,,,,0,0,0,0,0,55,55,55,,,,,,,,,,,None,None,0,473.47970229998464,None,473.47970229998464,474.47971389995655,474.4630402000039,475.46303280000575,0,1,473.47970229998464,None,5,M,18,R,MK,2021_Nov_15_1700,WASABI Nback,2020.2.10,59.987174756114115,
0,1,9,"[0.2, -0.2]",1,0,1,1,1,,,,,0,0,0,0,0,56,56,56,,,,,,,,,,,None,None,0,475.47971749998396,None,475.47971749998396,476.47973490000004,476.4630543999956,477.46308399998816,0,1,475.47971749998396,None,5,M,18,R,MK,2021_Nov_15_1700,WASABI Nback,2020.2.10,59.987174756114115,
0,1,6,"[0.2, 0]",None,0,1,1,1,,,,,0,0,0,0,0,57,57,57,,,,,,,,,,,None,None,0,477.47971310000867,None,477.47971310000867,478.47973689995706,478.46309069998097,479.4630782000022,0,1,477.47971310000867,None,5,M,18,R,MK,2021_Nov_15_1700,WASABI Nback,2020.2.10,59.987174756114115,
0,1,2,"[0, 0.2]",None,0,1,1,1,,,,,0,0,0,0,0,58,58,58,,,,,,,,,,,None,None,0,479.47975890000816,None,479.47975890000816,480.4797388999723,480.4631029999582,481.4631107999594,0,1,479.47975890000816,None,5,M,18,R,MK,2021_Nov_15_1700,WASABI Nback,2020.2.10,59.987174756114115,
0,1,5,"[0, 0]",None,0,1,1,1,,,,,0,0,0,0,0,59,59,59,,,,,,,,,,,None,None,0,481.47976899996866,None,481.47976899996866,482.4797719999915,482.46310079999967,483.46310649998486,0,1,481.47976899996866,None,5,M,18,R,MK,2021_Nov_15_1700,WASABI Nback,2020.2.10,59.987174756114115,
0,1,5,"[0, 0]",None,0,1,1,1,,,,,0,0,0,0,0,60,60,60,,,,,,,,,,,None,None,0,483.4797760999645,None,483.4797760999645,484.47979099996155,484.4631184999598,485.4631431999733,0,1,483.4797760999645,None,5,M,18,R,MK,2021_Nov_15_1700,WASABI Nback,2020.2.10,59.987174756114115,
0,1,2,"[0, 0.2]",None,0,1,1,1,,,,,0,0,0,0,0,61,61,61,,,,,,,,,,,None,None,0,485.47978429996874,None,485.47978429996874,486.4798121000058,486.46313389996067,487.4631461999961,0,1,485.47978429996874,None,5,M,18,R,MK,2021_Nov_15_1700,WASABI Nback,2020.2.10,59.987174756114115,
0,1,6,"[0.2, 0]",None,0,1,1,1,,,,,0,0,0,0,0,62,62,62,,,,,,,,,,,None,None,0,487.4798130999552,None,487.4798130999552,488.47980939998524,488.463171899959,489.463176499994,0,1,487.4798130999552,None,5,M,18,R,MK,2021_Nov_15_1700,WASABI Nback,2020.2.10,59.987174756114115,
0,1,9,"[0.2, -0.2]",None,0,1,1,1,,,,,0,0,0,0,0,63,63,63,,,,,,,,,,,None,None,0,489.4798402999877,None,489.4798402999877,490.4798464999767,490.463188899972,491.46319270000095,0,1,489.4798402999877,None,5,M,18,R,MK,2021_Nov_15_1700,WASABI Nback,2020.2.10,59.987174756114115,
0,1,3,"[0.2, 0.2]",None,0,1,1,1,,,,,0,0,0,0,0,64,64,64,,,,,,,,,,,None,None,0,491.47983319999184,None,491.47983319999184,492.4798469999805,492.46320299996296,493.4632089000079,0,1,491.47983319999184,None,5,M,18,R,MK,2021_Nov_15_1700,WASABI Nback,2020.2.10,59.987174756114115,
0,1,9,"[0.2, -0.2]",1,0,1,1,1,,,,,0,0,0,0,0,65,65,65,,,,,,,,,,,None,None,0,493.4798475999851,None,493.4798475999851,494.4798743999563,494.46320769999875,495.46320850000484,0,1,493.4798475999851,None,5,M,18,R,MK,2021_Nov_15_1700,WASABI Nback,2020.2.10,59.987174756114115,
0,1,7,"[-0.2, -0.2]",None,0,1,1,1,,,,,0,0,0,0,0,66,66,66,,,,,,,,,,,None,None,0,495.4798855999834,None,495.4798855999834,496.47988979995716,496.4632411999628,497.4632292999886,0,1,495.4798855999834,None,5,M,18,R,MK,2021_Nov_15_1700,WASABI Nback,2020.2.10,59.987174756114115,
0,1,1,"[-0.2, 0.2]",None,0,1,1,1,,,,,0,0,0,0,0,67,67,67,,,,,,,,,,,None,None,0,497.4798959000036,None,497.4798959000036,498.4799075999763,498.46323509997455,499.46326250000857,0,1,497.4798959000036,None,5,M,18,R,MK,2021_Nov_15_1700,WASABI Nback,2020.2.10,59.987174756114115,
0,1,5,"[0, 0]",None,0,1,1,1,,,,,0,0,0,0,0,68,68,68,,,,,,,,,,,None,None,0,499.4799021999934,None,499.4799021999934,500.47993619996123,500.4632664999808,501.4632791999611,0,1,499.4799021999934,None,5,M,18,R,MK,2021_Nov_15_1700,WASABI Nback,2020.2.10,59.987174756114115,
0,1,7,"[-0.2, -0.2]",None,0,1,1,1,,,,,0,0,0,0,0,69,69,69,,,,,,,,,,,None,None,0,501.479959099961,None,501.479959099961,502.47994910000125,502.4632616000017,503.4632910999935,0,1,501.479959099961,None,5,M,18,R,MK,2021_Nov_15_1700,WASABI Nback,2020.2.10,59.987174756114115,
0,1,5,"[0, 0]",1,0,1,1,1,,,,,0,0,0,0,0,70,70,70,,,,,,,,,,,None,None,0,503.4799328999943,None,503.4799328999943,504.4799613999785,504.46328319999157,505.46331249998184,0,1,503.4799328999943,None,5,M,18,R,MK,2021_Nov_15_1700,WASABI Nback,2020.2.10,59.987174756114115,
0,1,6,"[0.2, 0]",None,0,1,1,1,,,,,0,0,0,0,0,71,71,71,,,,,,,,,,,None,None,0,505.479952899972,None,505.479952899972,506.4799696999835,506.4633210999891,507.4633150000009,0,1,505.479952899972,None,5,M,18,R,MK,2021_Nov_15_1700,WASABI Nback,2020.2.10,59.987174756114115,
0,1,3,"[0.2, 0.2]",None,0,1,1,1,,,,,0,0,0,0,0,72,72,72,,,,,,,,,,,None,None,0,507.47991679998813,None,507.47991679998813,508.47998089995235,508.46332129999064,509.46334299998125,0,1,507.47991679998813,None,5,M,18,R,MK,2021_Nov_15_1700,WASABI Nback,2020.2.10,59.987174756114115,
0,1,6,"[0.2, 0]",1,0,1,1,1,,,,,0,0,0,0,0,73,73,73,,,,,,,,,,,None,None,0,509.4800138999708,None,509.4800138999708,510.4800074999803,510.463330700004,511.4633423999767,0,1,509.4800138999708,None,5,M,18,R,MK,2021_Nov_15_1700,WASABI Nback,2020.2.10,59.987174756114115,
0,1,8,"[0, -0.2]",None,0,1,1,1,,,,,0,0,0,0,0,74,74,74,,,,,,,,,,,None,None,0,511.4800011999905,None,511.4800011999905,512.4800078999833,512.4633698999532,513.4633645999711,0,1,511.4800011999905,None,5,M,18,R,MK,2021_Nov_15_1700,WASABI Nback,2020.2.10,59.987174756114115,
0,1,9,"[0.2, -0.2]",None,0,1,1,1,,,,,0,0,0,0,0,75,75,75,,,,,,,,,,,None,None,0,513.4800157999853,None,513.4800157999853,514.4800401999964,514.4633684,515.4633891999838,0,1,513.4800157999853,None,5,M,18,R,MK,2021_Nov_15_1700,WASABI Nback,2020.2.10,59.987174756114115,
0,1,9,"[0.2, -0.2]",None,0,1,1,1,,,,,0,0,0,0,0,76,76,76,,,,,,,,,,,None,None,0,515.4800534999813,None,515.4800534999813,516.4800624999916,516.4633804999758,517.4633925999515,0,1,515.4800534999813,None,5,M,18,R,MK,2021_Nov_15_1700,WASABI Nback,2020.2.10,59.987174756114115,
0,1,1,"[-0.2, 0.2]",None,0,1,1,1,,,,,0,0,0,0,0,77,77,77,,,,,,,,,,,None,None,0,517.4800650999532,None,517.4800650999532,518.4800737999612,518.4633940999629,519.463403199974,0,1,517.4800650999532,None,5,M,18,R,MK,2021_Nov_15_1700,WASABI Nback,2020.2.10,59.987174756114115,
0,1,3,"[0.2, 0.2]",None,0,1,1,1,,,,,0,0,0,0,0,78,78,78,,,,,,,,,,,None,None,0,519.4800621999893,None,519.4800621999893,520.4800776999909,520.4634141999995,521.4634399999632,0,1,519.4800621999893,None,5,M,18,R,MK,2021_Nov_15_1700,WASABI Nback,2020.2.10,59.987174756114115,
0,1,5,"[0, 0]",None,0,1,1,1,,,,,0,0,0,0,0,79,79,79,,,,,,,,,,,None,None,0,521.4801122999634,None,521.4801122999634,522.4801186999539,522.4634222000022,523.4634535000077,0,1,521.4801122999634,None,5,M,18,R,MK,2021_Nov_15_1700,WASABI Nback,2020.2.10,59.987174756114115,
0,1,3,"[0.2, 0.2]",1,0,1,1,1,,,,,0,0,0,0,0,80,80,80,,,,,,,,,,,None,None,0,523.4801299999817,None,523.4801299999817,524.4801377999829,524.4634569999762,525.4634519999963,0,1,523.4801299999817,None,5,M,18,R,MK,2021_Nov_15_1700,WASABI Nback,2020.2.10,59.987174756114115,
0,1,4,"[-0.2, 0]",None,0,1,1,1,,,,,0,0,0,0,0,81,81,81,,,,,,,,,,,None,None,0,525.4801275999635,None,525.4801275999635,526.4801471999963,526.4634877999779,527.463467900001,0,1,525.4801275999635,None,5,M,18,R,MK,2021_Nov_15_1700,WASABI Nback,2020.2.10,59.987174756114115,
0,1,7,"[-0.2, -0.2]",None,0,1,1,1,,,,,0,0,0,0,0,82,82,82,,,,,,,,,,,None,None,0,527.4801642000093,None,527.4801642000093,528.480140700005,528.4634797999752,529.4634958999814,0,1,527.4801642000093,None,5,M,18,R,MK,2021_Nov_15_1700,WASABI Nback,2020.2.10,59.987174756114115,
0,1,4,"[-0.2, 0]",1,0,1,1,1,,,,,0,0,0,0,0,83,83,83,,,,,,,,,,,None,None,0,529.4801877999562,None,529.4801877999562,530.4801833999809,530.4634982999996,531.4635093999677,0,1,529.4801877999562,None,5,M,18,R,MK,2021_Nov_15_1700,WASABI Nback,2020.2.10,59.987174756114115,
0,1,4,"[-0.2, 0]",None,0,1,1,1,,,,,0,0,0,0,0,84,84,84,,,,,,,,,,,None,None,0,531.4801699999953,None,531.4801699999953,532.48020489997,532.4634684000048,533.4635157999583,0,1,531.4801699999953,None,5,M,18,R,MK,2021_Nov_15_1700,WASABI Nback,2020.2.10,59.987174756114115,
0,1,5,"[0, 0]",None,0,1,1,1,,,,,0,0,0,0,0,85,85,85,,,,,,,,,,,None,None,0,533.4801892999676,None,533.4801892999676,534.4802213999792,534.4635327999713,535.4635385999572,0,1,533.4801892999676,None,5,M,18,R,MK,2021_Nov_15_1700,WASABI Nback,2020.2.10,59.987174756114115,
0,1,2,"[0, 0.2]",None,0,1,1,1,,,,,0,0,0,0,0,86,86,86,,,,,,,,,,,None,None,0,535.4802290999796,None,535.4802290999796,536.4802167000016,536.4635433999938,537.4635600000038,0,1,535.4802290999796,None,5,M,18,R,MK,2021_Nov_15_1700,WASABI Nback,2020.2.10,59.987174756114115,
0,1,6,"[0.2, 0]",None,0,1,1,1,,,,,0,0,0,0,0,87,87,87,,,,,,,,,,,None,None,0,537.4802347999648,None,537.4802347999648,538.4802541999961,538.4635575999855,539.4635765999556,0,1,537.4802347999648,None,5,M,18,R,MK,2021_Nov_15_1700,WASABI Nback,2020.2.10,59.987174756114115,
0,1,7,"[-0.2, -0.2]",None,0,1,1,1,,,,,0,0,0,0,0,88,88,88,,,,,,,,,,,None,None,0,539.480238899996,None,539.480238899996,540.4802416999592,540.4635915999534,541.4635483999737,0,1,539.480238899996,None,5,M,18,R,MK,2021_Nov_15_1700,WASABI Nback,2020.2.10,59.987174756114115,
0,1,6,"[0.2, 0]",1,0,1,1,1,,,,,0,0,0,0,0,89,89,89,,,,,,,,,,,None,None,0,541.4802825999795,None,541.4802825999795,542.4802824999788,542.4636020999751,543.4636009999667,0,1,541.4802825999795,None,5,M,18,R,MK,2021_Nov_15_1700,WASABI Nback,2020.2.10,59.987174756114115,
0,1,6,"[0.2, 0]",None,0,1,1,1,,,,,0,0,0,0,0,90,90,90,,,,,,,,,,,None,None,0,543.4802912999876,None,543.4802912999876,544.480286200007,544.4636115999892,545.4636249999749,0,1,543.4802912999876,None,5,M,18,R,MK,2021_Nov_15_1700,WASABI Nback,2020.2.10,59.987174756114115,
0,1,7,"[-0.2, -0.2]",None,0,1,1,1,,,,,0,0,0,0,0,91,91,91,,,,,,,,,,,None,None,0,545.4802978999796,None,545.4802978999796,546.4803212999832,546.4636295000091,547.463638199959,0,1,545.4802978999796,None,5,M,18,R,MK,2021_Nov_15_1700,WASABI Nback,2020.2.10,59.987174756114115,
0,1,6,"[0.2, 0]",1,0,1,1,1,,,,,0,0,0,0,0,92,92,92,,,,,,,,,,,None,None,0,547.4803174999543,None,547.4803174999543,548.4803391000023,548.4636496999883,549.4636644999846,0,1,547.4803174999543,None,5,M,18,R,MK,2021_Nov_15_1700,WASABI Nback,2020.2.10,59.987174756114115,
0,1,2,"[0, 0.2]",None,0,1,1,1,,,,,0,0,0,0,0,93,93,93,,,,,,,,,,,None,None,0,549.4803427999723,None,549.4803427999723,550.4803552000085,550.4636628999724,551.4636961999931,0,1,549.4803427999723,None,5,M,18,R,MK,2021_Nov_15_1700,WASABI Nback,2020.2.10,59.987174756114115,
0,1,5,"[0, 0]",None,0,1,1,1,,,,,0,0,0,0,0,94,94,94,,,,,,,,,,,None,None,0,551.4803645999637,None,551.4803645999637,552.480371499958,552.4636780999717,553.4637108999887,0,1,551.4803645999637,None,5,M,18,R,MK,2021_Nov_15_1700,WASABI Nback,2020.2.10,59.987174756114115,
0,1,4,"[-0.2, 0]",None,0,1,1,1,,,,,0,0,0,0,0,95,95,95,,,,,,,,,,,None,None,0,553.4803584999754,None,553.4803584999754,554.4803671999834,554.4637138999533,555.4637039999943,0,1,553.4803584999754,None,5,M,18,R,MK,2021_Nov_15_1700,WASABI Nback,2020.2.10,59.987174756114115,
0,1,4,"[-0.2, 0]",None,0,1,1,1,,,,,0,0,0,0,0,96,96,96,,,,,,,,,,,None,None,0,555.4803892999771,None,555.4803892999771,556.4803936999524,556.4637385999667,557.4637519999524,0,1,555.4803892999771,None,5,M,18,R,MK,2021_Nov_15_1700,WASABI Nback,2020.2.10,59.987174756114115,
0,1,7,"[-0.2, -0.2]",None,0,1,1,1,,,,,0,0,0,0,0,97,97,97,,,,,,,,,,,None,None,0,557.4804117999738,None,557.4804117999738,558.4804316000082,558.4637395999744,559.4637346999953,0,1,557.4804117999738,None,5,M,18,R,MK,2021_Nov_15_1700,WASABI Nback,2020.2.10,59.987174756114115,
0,1,4,"[-0.2, 0]",1,0,1,1,1,,,,,0,0,0,0,0,98,98,98,,,,,,,,,,,None,None,0,559.4804023999604,None,559.4804023999604,560.4804230000009,560.4637607999612,561.4637599999551,0,1,559.4804023999604,None,5,M,18,R,MK,2021_Nov_15_1700,WASABI Nback,2020.2.10,59.987174756114115,
0,1,3,"[0.2, 0.2]",None,0,1,1,1,,,,,0,0,0,0,0,99,99,99,,,,,,,,,,,None,None,0,561.4804125999799,None,561.4804125999799,562.4804479999584,562.4637623999733,563.4637853999739,0,1,561.4804125999799,None,5,M,18,R,MK,2021_Nov_15_1700,WASABI Nback,2020.2.10,59.987174756114115,
0,1,5,"[0, 0]",None,0,1,1,1,,,,,0,0,0,0,0,100,100,100,,,,,,,,,,,None,None,0,563.4804511999828,None,563.4804511999828,564.4804588999832,564.463784499967,565.4637820000062,0,1,563.4804511999828,None,5,M,18,R,MK,2021_Nov_15_1700,WASABI Nback,2020.2.10,59.987174756114115,
0,1,3,"[0.2, 0.2]",1,0,1,1,1,,,,,0,0,0,0,0,101,101,101,,,,,,,,,,,None,None,0,565.480367799988,None,565.480367799988,566.4804851000081,566.4638101999881,567.4638024999877,0,1,565.480367799988,None,5,M,18,R,MK,2021_Nov_15_1700,WASABI Nback,2020.2.10,59.987174756114115,
0,1,1,"[-0.2, 0.2]",None,0,1,1,1,,,,,0,0,0,0,0,102,102,102,,,,,,,,,,,None,None,0,567.480463099957,None,567.480463099957,568.480482199986,568.463828399952,569.4638329999871,0,1,567.480463099957,None,5,M,18,R,MK,2021_Nov_15_1700,WASABI Nback,2020.2.10,59.987174756114115,
0,1,9,"[0.2, -0.2]",None,0,1,1,1,,,,,0,0,0,0,0,103,103,103,,,,,,,,,,,None,None,0,569.4805103999679,None,569.4805103999679,570.480492600007,570.4638440999552,571.463844599959,0,1,569.4805103999679,None,5,M,18,R,MK,2021_Nov_15_1700,WASABI Nback,2020.2.10,59.987174756114115,
0,1,9,"[0.2, -0.2]",None,0,1,1,1,,,,,0,0,0,0,0,104,104,104,,,,,,,,,,,None,None,0,571.4805258999695,None,571.4805258999695,572.4805314999539,572.4638622999773,573.4638547999784,0,0,571.4805258999695,None,5,M,18,R,MK,2021_Nov_15_1700,WASABI Nback,2020.2.10,59.987174756114115,
0,1,8,"[0, -0.2]",None,0,1,1,1,,,,,0,0,0,0,0,105,105,105,,,,,,,,,,,None,None,0,573.4805149000022,None,573.4805149000022,574.4805273999809,574.463886499987,575.4638684999663,0,1,573.4805149000022,None,5,M,18,R,MK,2021_Nov_15_1700,WASABI Nback,2020.2.10,59.987174756114115,
0,1,6,"[0.2, 0]",None,0,1,1,1,,,,,0,0,0,0,0,106,106,106,,,,,,,,,,,None,None,0,575.4805557999643,None,575.4805557999643,576.4805384000065,576.4638710999861,577.4638772999751,0,1,575.4805557999643,None,5,M,18,R,MK,2021_Nov_15_1700,WASABI Nback,2020.2.10,59.987174756114115,
0,1,3,"[0.2, 0.2]",None,0,1,1,1,,,,,0,0,0,0,0,107,107,107,,,,,,,,,,,None,None,0,577.4805691000074,None,577.4805691000074,578.480559299991,578.4638952999958,579.4639231999754,0,1,577.4805691000074,None,5,M,18,R,MK,2021_Nov_15_1700,WASABI Nback,2020.2.10,59.987174756114115,
0,1,6,"[0.2, 0]",1,0,1,1,1,,,,,0,0,0,0,0,108,108,108,,,,,,,,,,,None,None,0,579.4805655999808,None,579.4805655999808,580.4805922000087,580.4639414999983,581.4639206999564,0,1,579.4805655999808,None,5,M,18,R,MK,2021_Nov_15_1700,WASABI Nback,2020.2.10,59.987174756114115,
0,1,5,"[0, 0]",None,0,1,1,1,,,,,0,0,0,0,0,109,109,109,,,,,,,,,,,None,None,0,581.4805995000061,None,581.4805995000061,582.4805904999957,582.4639255999937,583.4639569999999,0,1,581.4805995000061,None,5,M,18,R,MK,2021_Nov_15_1700,WASABI Nback,2020.2.10,59.987174756114115,
0,1,7,"[-0.2, -0.2]",None,0,1,1,1,,,,,0,0,0,0,0,110,110,110,,,,,,,,,,,None,None,0,583.4806220000028,None,583.4806220000028,584.4806097999681,584.463967699965,585.463965700008,0,1,583.4806220000028,None,5,M,18,R,MK,2021_Nov_15_1700,WASABI Nback,2020.2.10,59.987174756114115,
0,1,5,"[0, 0]",1,0,1,1,1,,,,,0,0,0,0,0,111,111,111,,,,,,,,,,,None,None,0,585.4806104999734,None,585.4806104999734,586.480694799975,586.4639698999817,587.4639661999536,0,1,585.4806104999734,None,5,M,18,R,MK,2021_Nov_15_1700,WASABI Nback,2020.2.10,59.987174756114115,
0,1,1,"[-0.2, 0.2]",None,0,1,1,1,,,,,0,0,0,0,0,112,112,112,,,,,,,,,,,None,None,0,587.4806328999694,None,587.4806328999694,588.4806437999941,588.4639796999982,589.4640188000049,0,1,587.4806328999694,None,5,M,18,R,MK,2021_Nov_15_1700,WASABI Nback,2020.2.10,59.987174756114115,
0,1,7,"[-0.2, -0.2]",None,0,1,1,1,,,,,0,0,0,0,0,113,113,113,,,,,,,,,,,None,None,0,589.4806671999977,None,589.4806671999977,590.4806576999836,590.4639974999591,591.464003000001,0,1,589.4806671999977,None,5,M,18,R,MK,2021_Nov_15_1700,WASABI Nback,2020.2.10,59.987174756114115,
0,1,9,"[0.2, -0.2]",None,0,1,1,1,,,,,0,0,0,0,0,114,114,114,,,,,,,,,,,None,None,0,591.480667900003,None,591.480667900003,592.4807070999523,592.4640235999832,593.4640508999582,0,1,591.480667900003,None,5,M,18,R,MK,2021_Nov_15_1700,WASABI Nback,2020.2.10,59.987174756114115,
0,1,3,"[0.2, 0.2]",None,0,1,1,1,,,,,0,0,0,0,0,115,115,115,,,,,,,,,,,None,None,0,593.4807146000094,None,593.4807146000094,594.4807176999748,594.4640354999574,595.4640627999906,0,1,593.4807146000094,None,5,M,18,R,MK,2021_Nov_15_1700,WASABI Nback,2020.2.10,59.987174756114115,
0,1,9,"[0.2, -0.2]",1,0,1,1,1,,,,,0,0,0,0,0,116,116,116,,,,,,,,,,,None,None,0,595.4807304999558,None,595.4807304999558,596.480737899954,596.4640499000088,597.4640527999727,0,1,595.4807304999558,None,5,M,18,R,MK,2021_Nov_15_1700,WASABI Nback,2020.2.10,59.987174756114115,
0,1,6,"[0.2, 0]",None,0,1,1,1,,,,,0,0,0,0,0,117,117,117,,,,,,,,,,,None,None,0,597.4807191999862,None,597.4807191999862,598.4807401999715,598.4640870000003,599.4640683999751,0,1,597.4807191999862,None,5,M,18,R,MK,2021_Nov_15_1700,WASABI Nback,2020.2.10,59.987174756114115,
0,1,2,"[0, 0.2]",None,0,1,1,1,,,,,0,0,0,0,0,118,118,118,,,,,,,,,,,None,None,0,599.4807375000091,None,599.4807375000091,600.4807528000092,600.4640935999923,601.4640985999722,0,1,599.4807375000091,None,5,M,18,R,MK,2021_Nov_15_1700,WASABI Nback,2020.2.10,59.987174756114115,
0,1,5,"[0, 0]",None,0,1,1,1,,,,,0,0,0,0,0,119,119,119,,,,,,,,,,,None,None,0,601.4807725999854,None,601.4807725999854,602.4807605999522,602.464123999991,603.4641066999757,0,1,601.4807725999854,None,5,M,18,R,MK,2021_Nov_15_1700,WASABI Nback,2020.2.10,59.987174756114115,
