RestT1,TaskT1,square,location,corrAns,counterbalancer.thisRepN,counterbalancer.thisTrialN,counterbalancer.thisN,counterbalancer.thisIndex,RestT1Loop.thisRepN,RestT1Loop.thisTrialN,RestT1Loop.thisN,RestT1Loop.thisIndex,TaskT1Loop.thisRepN,TaskT1Loop.thisTrialN,TaskT1Loop.thisN,TaskT1Loop.thisIndex,trials_2.thisRepN,trials_2.thisTrialN,trials_2.thisN,trials_2.thisIndex,fixation_1.started,fixation_1.stopped,NbackInstructions.started,NbackInstructions.stopped,NbackStart.keys,NbackStart.rt,NbackStart.started,NbackStart.stopped,fixation_2.started,fixation_2.stopped,response_2.x,response_2.y,response_2.leftButton,grid_lines_2.started,grid_lines_2.stopped,target_square_2.started,target_square_2.stopped,fixation_3.started,fixation_3.stopped,response_2.click,response_2.corr,response_2.started,response_2.stopped,response_2.rt,subject number,gender,session,handedness,scanner,date,expName,psychopyVersion,frameRate,
1,0,,,,0,0,0,0,0,0,0,0,,,,,,,,,52.228870700004336,None,,,,,,,,,,,,,,,,,,,,,,,7,F,7,R,SK,2022_Jan_12_1631,WASABI Nback,2020.2.10,59.98789444412794,
0,1,,,,0,1,1,1,,,,,0,0,0,0,,,,,,,333.21436769999855,None,space,36.721444700000575,333.21436769999855,None,,,,,,,,,,,,,,,,,7,F,7,R,SK,2022_Jan_12_1631,WASABI Nback,2020.2.10,59.98789444412794,
0,1,5,"[0, 0]",None,0,1,1,1,,,,,0,0,0,0,0,0,0,0,,,,,,,,,None,None,None,None,[],None,None,None,None,None,None,[],[],None,None,,7,F,7,R,SK,2022_Jan_12_1631,WASABI Nback,2020.2.10,59.98789444412794,
0,1,2,"[0, 0.2]",None,0,1,1,1,,,,,0,0,0,0,0,1,1,1,,,,,,,,,,,None,None,[],None,None,None,None,None,None,[],[],None,None,,7,F,7,R,SK,2022_Jan_12_1631,WASABI Nback,2020.2.10,59.98789444412794,
0,1,6,"[0.2, 0]",None,0,1,1,1,,,,,0,0,0,0,0,2,2,2,,,,,,,,,,,None,None,0,375.2313359000036,None,375.2313359000036,376.2313263000033,376.21468240000104,None,0,1,375.2313359000036,None,,7,F,7,R,SK,2022_Jan_12_1631,WASABI Nback,2020.2.10,59.98789444412794,
0,1,9,"[0.2, -0.2]",None,0,1,1,1,,,,,0,0,0,0,0,3,3,3,,,,,,,,,,,None,None,0,376.9813437999983,None,376.9813437999983,377.9813359000036,377.9647028000036,378.9646169999978,0,1,376.9813437999983,None,,7,F,7,R,SK,2022_Jan_12_1631,WASABI Nback,2020.2.10,59.98789444412794,
0,1,3,"[0.2, 0.2]",None,0,1,1,1,,,,,0,0,0,0,0,4,4,4,,,,,,,,,,,None,None,0,378.9813520000025,None,378.9813520000025,379.9813710000017,379.96471120000206,380.96471069999825,0,1,378.9813520000025,None,,7,F,7,R,SK,2022_Jan_12_1631,WASABI Nback,2020.2.10,59.98789444412794,
0,1,9,"[0.2, -0.2]",1,0,1,1,1,,,,,0,0,0,0,0,5,5,5,,,,,,,,,,,None,None,0,380.9813590999984,None,380.9813590999984,381.9813778000025,381.9647113000028,382.9647236000019,0,0,380.9813590999984,None,,7,F,7,R,SK,2022_Jan_12_1631,WASABI Nback,2020.2.10,59.98789444412794,
0,1,7,"[-0.2, -0.2]",None,0,1,1,1,,,,,0,0,0,0,0,6,6,6,,,,,,,,,,,None,None,0,382.9813928000003,None,382.9813928000003,383.9813886000047,383.96474500000477,384.96475479999935,0,0,382.9813928000003,None,,7,F,7,R,SK,2022_Jan_12_1631,WASABI Nback,2020.2.10,59.98789444412794,
0,1,1,"[-0.2, 0.2]",None,0,1,1,1,,,,,0,0,0,0,0,7,7,7,,,,,,,,,,,None,None,0,384.98140389999753,None,384.98140389999753,385.9814036000025,385.96474509999825,386.9647499999992,0,1,384.98140389999753,None,,7,F,7,R,SK,2022_Jan_12_1631,WASABI Nback,2020.2.10,59.98789444412794,
0,1,5,"[0, 0]",None,0,1,1,1,,,,,0,0,0,0,0,8,8,8,,,,,,,,,,,None,None,0,386.9814047000036,None,386.9814047000036,387.98141939999914,387.96477310000046,388.9647668000034,0,1,386.9814047000036,None,,7,F,7,R,SK,2022_Jan_12_1631,WASABI Nback,2020.2.10,59.98789444412794,
0,1,7,"[-0.2, -0.2]",None,0,1,1,1,,,,,0,0,0,0,0,9,9,9,,,,,,,,,,,None,None,0,388.98142740000185,None,388.98142740000185,389.9814273000011,389.96475640000426,390.96477030000096,0,1,388.98142740000185,None,,7,F,7,R,SK,2022_Jan_12_1631,WASABI Nback,2020.2.10,59.98789444412794,
0,1,5,"[0, 0]",1,0,1,1,1,,,,,0,0,0,0,0,10,10,10,,,,,,,,,,,None,None,0,390.98144689999754,None,390.98144689999754,391.98144210000464,391.96479840000393,392.9648004999981,0,1,390.98144689999754,None,,7,F,7,R,SK,2022_Jan_12_1631,WASABI Nback,2020.2.10,59.98789444412794,
0,1,6,"[0.2, 0]",None,0,1,1,1,,,,,0,0,0,0,0,11,11,11,,,,,,,,,,,None,None,0,392.98145040000236,None,392.98145040000236,393.9814680999989,393.96481660000427,394.96481420000055,0,1,392.98145040000236,None,,7,F,7,R,SK,2022_Jan_12_1631,WASABI Nback,2020.2.10,59.98789444412794,
0,1,3,"[0.2, 0.2]",None,0,1,1,1,,,,,0,0,0,0,0,12,12,12,,,,,,,,,,,None,None,0,394.98148090000177,None,394.98148090000177,395.9814845000001,395.9648262999981,396.9648191000015,0,1,394.98148090000177,None,,7,F,7,R,SK,2022_Jan_12_1631,WASABI Nback,2020.2.10,59.98789444412794,
0,1,6,"[0.2, 0]",1,0,1,1,1,,,,,0,0,0,0,0,13,13,13,,,,,,,,,,,None,None,0,396.9814841000043,None,396.9814841000043,397.98148950000177,397.9648350999996,398.9648352000004,0,1,396.9814841000043,None,,7,F,7,R,SK,2022_Jan_12_1631,WASABI Nback,2020.2.10,59.98789444412794,
0,1,8,"[0, -0.2]",None,0,1,1,1,,,,,0,0,0,0,0,14,14,14,,,,,,,,,,,None,None,0,398.98150700000406,None,398.98150700000406,399.98150619999797,399.96484030000283,400.9648448000007,0,1,398.98150700000406,None,,7,F,7,R,SK,2022_Jan_12_1631,WASABI Nback,2020.2.10,59.98789444412794,
0,1,9,"[0.2, -0.2]",None,0,1,1,1,,,,,0,0,0,0,0,15,15,15,,,,,,,,,,,None,None,0,400.9815146000037,None,400.9815146000037,401.9815286000012,401.96484690000216,402.9648726000014,0,1,400.9815146000037,None,,7,F,7,R,SK,2022_Jan_12_1631,WASABI Nback,2020.2.10,59.98789444412794,
0,1,9,"[0.2, -0.2]",None,0,1,1,1,,,,,0,0,0,0,0,16,16,16,,,,,,,,,,,None,None,0,402.98152950000076,None,402.98152950000076,403.9815335000021,403.96488379999937,404.9648712999988,0,1,402.98152950000076,None,,7,F,7,R,SK,2022_Jan_12_1631,WASABI Nback,2020.2.10,59.98789444412794,
0,1,1,"[-0.2, 0.2]",None,0,1,1,1,,,,,0,0,0,0,0,17,17,17,,,,,,,,,,,None,None,0,404.9815422000029,None,404.9815422000029,405.98157090000313,405.96488220000174,406.96497400000226,0,1,404.9815422000029,None,,7,F,7,R,SK,2022_Jan_12_1631,WASABI Nback,2020.2.10,59.98789444412794,
0,1,3,"[0.2, 0.2]",None,0,1,1,1,,,,,0,0,0,0,0,18,18,18,,,,,,,,,,,None,None,0,406.98161170000094,None,406.98161170000094,407.9815652000034,407.96490160000394,408.96491570000217,0,1,406.98161170000094,None,,7,F,7,R,SK,2022_Jan_12_1631,WASABI Nback,2020.2.10,59.98789444412794,
0,1,5,"[0, 0]",None,0,1,1,1,,,,,0,0,0,0,0,19,19,19,,,,,,,,,,,None,None,0,408.9815798999989,None,408.9815798999989,409.98159830000077,409.96490970000013,410.96492849999777,0,1,408.9815798999989,None,,7,F,7,R,SK,2022_Jan_12_1631,WASABI Nback,2020.2.10,59.98789444412794,
0,1,3,"[0.2, 0.2]",1,0,1,1,1,,,,,0,0,0,0,0,20,20,20,,,,,,,,,,,None,None,0,410.981584000001,None,410.981584000001,411.98159309999755,411.9649786000009,412.9648856999993,0,1,410.981584000001,None,,7,F,7,R,SK,2022_Jan_12_1631,WASABI Nback,2020.2.10,59.98789444412794,
0,1,4,"[-0.2, 0]",None,0,1,1,1,,,,,0,0,0,0,0,21,21,21,,,,,,,,,,,None,None,0,412.98162080000475,None,412.98162080000475,413.981620999999,413.9649372999993,414.964959500001,0,1,412.98162080000475,None,,7,F,7,R,SK,2022_Jan_12_1631,WASABI Nback,2020.2.10,59.98789444412794,
0,1,7,"[-0.2, -0.2]",None,0,1,1,1,,,,,0,0,0,0,0,22,22,22,,,,,,,,,,,None,None,0,414.981626599998,None,414.981626599998,415.98163390000263,415.96495069999946,416.96496409999963,0,1,414.981626599998,None,,7,F,7,R,SK,2022_Jan_12_1631,WASABI Nback,2020.2.10,59.98789444412794,
0,1,4,"[-0.2, 0]",1,0,1,1,1,,,,,0,0,0,0,0,23,23,23,,,,,,,,,,,None,None,0,416.9816271000018,None,416.9816271000018,417.98164830000314,417.96496520000073,418.9649766000002,0,1,416.9816271000018,None,,7,F,7,R,SK,2022_Jan_12_1631,WASABI Nback,2020.2.10,59.98789444412794,
0,1,4,"[-0.2, 0]",None,0,1,1,1,,,,,0,0,0,0,0,24,24,24,,,,,,,,,,,None,None,0,418.9816448999991,None,418.9816448999991,419.981652399998,419.96498430000065,420.9649444000024,0,1,418.9816448999991,None,,7,F,7,R,SK,2022_Jan_12_1631,WASABI Nback,2020.2.10,59.98789444412794,
0,1,5,"[0, 0]",None,0,1,1,1,,,,,0,0,0,0,0,25,25,25,,,,,,,,,,,None,None,0,420.98166630000196,None,420.98166630000196,421.98168579999765,421.9649933000037,422.96500209999795,0,1,420.98166630000196,None,,7,F,7,R,SK,2022_Jan_12_1631,WASABI Nback,2020.2.10,59.98789444412794,
0,1,2,"[0, 0.2]",None,0,1,1,1,,,,,0,0,0,0,0,26,26,26,,,,,,,,,,,None,None,0,422.9816728000005,None,422.9816728000005,423.9816798000029,423.9650335999977,424.9650327999989,0,1,422.9816728000005,None,,7,F,7,R,SK,2022_Jan_12_1631,WASABI Nback,2020.2.10,59.98789444412794,
0,1,6,"[0.2, 0]",None,0,1,1,1,,,,,0,0,0,0,0,27,27,27,,,,,,,,,,,None,None,0,424.98169190000044,None,424.98169190000044,425.9816920000012,425.9650421999977,426.9650588000004,0,1,424.98169190000044,None,,7,F,7,R,SK,2022_Jan_12_1631,WASABI Nback,2020.2.10,59.98789444412794,
0,1,7,"[-0.2, -0.2]",None,0,1,1,1,,,,,0,0,0,0,0,28,28,28,,,,,,,,,,,None,None,0,426.9816839999985,None,426.9816839999985,427.98171960000036,427.96505590000015,428.965022700002,0,1,426.9816839999985,None,,7,F,7,R,SK,2022_Jan_12_1631,WASABI Nback,2020.2.10,59.98789444412794,
0,1,6,"[0.2, 0]",1,0,1,1,1,,,,,0,0,0,0,0,29,29,29,,,,,,,,,,,None,None,0,428.981729799998,None,428.981729799998,429.98173490000045,429.9650612999976,430.9650591000027,0,0,428.981729799998,None,,7,F,7,R,SK,2022_Jan_12_1631,WASABI Nback,2020.2.10,59.98789444412794,
0,1,6,"[0.2, 0]",None,0,1,1,1,,,,,0,0,0,0,0,30,30,30,,,,,,,,,,,None,None,0,430.9817347999997,None,430.9817347999997,431.9817512000009,431.96508500000346,432.9651059000025,0,1,430.9817347999997,None,,7,F,7,R,SK,2022_Jan_12_1631,WASABI Nback,2020.2.10,59.98789444412794,
0,1,7,"[-0.2, -0.2]",None,0,1,1,1,,,,,0,0,0,0,0,31,31,31,,,,,,,,,,,None,None,0,432.98175769999943,None,432.98175769999943,433.98177399999986,433.96512520000397,434.96509280000464,0,0,432.98175769999943,None,,7,F,7,R,SK,2022_Jan_12_1631,WASABI Nback,2020.2.10,59.98789444412794,
0,1,6,"[0.2, 0]",1,0,1,1,1,,,,,0,0,0,0,0,32,32,32,,,,,,,,,,,None,None,0,434.98177650000434,None,434.98177650000434,435.9818041000035,435.965099699999,436.96510580000177,0,0,434.98177650000434,None,,7,F,7,R,SK,2022_Jan_12_1631,WASABI Nback,2020.2.10,59.98789444412794,
0,1,2,"[0, 0.2]",None,0,1,1,1,,,,,0,0,0,0,0,33,33,33,,,,,,,,,,,None,None,0,436.9817794999981,None,436.9817794999981,437.9817994999976,437.9651273999989,438.9651204000038,0,1,436.9817794999981,None,,7,F,7,R,SK,2022_Jan_12_1631,WASABI Nback,2020.2.10,59.98789444412794,
0,1,5,"[0, 0]",None,0,1,1,1,,,,,0,0,0,0,0,34,34,34,,,,,,,,,,,None,None,0,438.9818002000029,None,438.9818002000029,439.98180239999783,439.96514359999856,440.96514939999906,0,1,438.9818002000029,None,,7,F,7,R,SK,2022_Jan_12_1631,WASABI Nback,2020.2.10,59.98789444412794,
0,1,4,"[-0.2, 0]",None,0,1,1,1,,,,,0,0,0,0,0,35,35,35,,,,,,,,,,,None,None,0,440.9816948000007,None,440.9816948000007,441.98182200000156,441.9651507000017,442.9651632000023,0,1,440.9816948000007,None,,7,F,7,R,SK,2022_Jan_12_1631,WASABI Nback,2020.2.10,59.98789444412794,
0,1,4,"[-0.2, 0]",None,0,1,1,1,,,,,0,0,0,0,0,36,36,36,,,,,,,,,,,None,None,0,442.9818299000035,None,442.9818299000035,443.9818302999993,443.96517270000186,444.96517049999966,0,1,442.9818299000035,None,,7,F,7,R,SK,2022_Jan_12_1631,WASABI Nback,2020.2.10,59.98789444412794,
0,1,7,"[-0.2, -0.2]",None,0,1,1,1,,,,,0,0,0,0,0,37,37,37,,,,,,,,,,,None,None,0,444.9817878000031,None,444.9817878000031,445.98179900000105,445.96518610000203,446.9651784000016,0,1,444.9817878000031,None,,7,F,7,R,SK,2022_Jan_12_1631,WASABI Nback,2020.2.10,59.98789444412794,
0,1,4,"[-0.2, 0]",1,0,1,1,1,,,,,0,0,0,0,0,38,38,38,,,,,,,,,,,None,None,0,446.9818460000024,None,446.9818460000024,447.9818505000003,447.96519029999763,448.96520650000457,0,1,446.9818460000024,None,,7,F,7,R,SK,2022_Jan_12_1631,WASABI Nback,2020.2.10,59.98789444412794,
0,1,3,"[0.2, 0.2]",None,0,1,1,1,,,,,0,0,0,0,0,39,39,39,,,,,,,,,,,None,None,0,448.9818572000004,None,448.9818572000004,449.981881300002,449.96520299999975,450.9652156000011,0,1,448.9818572000004,None,,7,F,7,R,SK,2022_Jan_12_1631,WASABI Nback,2020.2.10,59.98789444412794,
0,1,5,"[0, 0]",None,0,1,1,1,,,,,0,0,0,0,0,40,40,40,,,,,,,,,,,None,None,0,450.9818721999982,None,450.9818721999982,451.9818979999982,451.9652301000024,452.9652285999982,0,1,450.9818721999982,None,,7,F,7,R,SK,2022_Jan_12_1631,WASABI Nback,2020.2.10,59.98789444412794,
0,1,3,"[0.2, 0.2]",1,0,1,1,1,,,,,0,0,0,0,0,41,41,41,,,,,,,,,,,None,None,0,452.9818846999988,None,452.9818846999988,453.9818951999987,453.96523770000204,454.9652399999977,0,0,452.9818846999988,None,,7,F,7,R,SK,2022_Jan_12_1631,WASABI Nback,2020.2.10,59.98789444412794,
0,1,1,"[-0.2, 0.2]",None,0,1,1,1,,,,,0,0,0,0,0,42,42,42,,,,,,,,,,,None,None,0,454.98191640000005,None,454.98191640000005,455.98191000000224,455.96524990000034,456.96525570000085,0,1,454.98191640000005,None,,7,F,7,R,SK,2022_Jan_12_1631,WASABI Nback,2020.2.10,59.98789444412794,
0,1,9,"[0.2, -0.2]",None,0,1,1,1,,,,,0,0,0,0,0,43,43,43,,,,,,,,,,,None,None,0,456.98193080000055,None,456.98193080000055,457.9819451000003,457.96527700000297,458.965280000004,0,1,456.98193080000055,None,,7,F,7,R,SK,2022_Jan_12_1631,WASABI Nback,2020.2.10,59.98789444412794,
0,1,9,"[0.2, -0.2]",None,0,1,1,1,,,,,0,0,0,0,0,44,44,44,,,,,,,,,,,None,None,0,458.98193500000343,None,458.98193500000343,459.9819196000026,459.9652875000029,460.9652810000043,0,1,458.98193500000343,None,,7,F,7,R,SK,2022_Jan_12_1631,WASABI Nback,2020.2.10,59.98789444412794,
0,1,8,"[0, -0.2]",None,0,1,1,1,,,,,0,0,0,0,0,45,45,45,,,,,,,,,,,None,None,0,460.98196270000335,None,460.98196270000335,461.98191580000275,461.9652953000041,462.9652971000032,0,1,460.98196270000335,None,,7,F,7,R,SK,2022_Jan_12_1631,WASABI Nback,2020.2.10,59.98789444412794,
0,1,6,"[0.2, 0]",None,0,1,1,1,,,,,0,0,0,0,0,46,46,46,,,,,,,,,,,None,None,0,462.98197770000115,None,462.98197770000115,463.9819762000043,463.9653068000043,464.9653133000029,0,1,462.98197770000115,None,,7,F,7,R,SK,2022_Jan_12_1631,WASABI Nback,2020.2.10,59.98789444412794,
0,1,3,"[0.2, 0.2]",None,0,1,1,1,,,,,0,0,0,0,0,47,47,47,,,,,,,,,,,None,None,0,464.9819717999999,None,464.9819717999999,465.98199880000175,465.965323000004,466.96532650000154,0,1,464.9819717999999,None,,7,F,7,R,SK,2022_Jan_12_1631,WASABI Nback,2020.2.10,59.98789444412794,
0,1,6,"[0.2, 0]",1,0,1,1,1,,,,,0,0,0,0,0,48,48,48,,,,,,,,,,,None,None,1,466.981996100003,None,466.981996100003,467.9820009000032,467.96534729999985,468.965354699998,1,1,466.981996100003,None,1.7002420999997412,7,F,7,R,SK,2022_Jan_12_1631,WASABI Nback,2020.2.10,59.98789444412794,
0,1,5,"[0, 0]",None,0,1,1,1,,,,,0,0,0,0,0,49,49,49,,,,,,,,,,,None,None,0,468.9820120000004,None,468.9820120000004,469.98192949999793,469.96535369999765,470.9653687000027,0,1,468.9820120000004,None,,7,F,7,R,SK,2022_Jan_12_1631,WASABI Nback,2020.2.10,59.98789444412794,
0,1,7,"[-0.2, -0.2]",None,0,1,1,1,,,,,0,0,0,0,0,50,50,50,,,,,,,,,,,None,None,0,470.98202490000403,None,470.98202490000403,471.9820322000014,471.96536619999824,472.9653737999979,0,1,470.98202490000403,None,,7,F,7,R,SK,2022_Jan_12_1631,WASABI Nback,2020.2.10,59.98789444412794,
0,1,5,"[0, 0]",1,0,1,1,1,,,,,0,0,0,0,0,51,51,51,,,,,,,,,,,None,None,0,472.98204049999913,None,472.98204049999913,473.9820591000025,473.9653790000011,474.9654098000028,0,1,472.98204049999913,None,,7,F,7,R,SK,2022_Jan_12_1631,WASABI Nback,2020.2.10,59.98789444412794,
0,1,1,"[-0.2, 0.2]",None,0,1,1,1,,,,,0,0,0,0,0,52,52,52,,,,,,,,,,,None,None,0,474.98204540000006,None,474.98204540000006,475.9820741000003,475.96540919999825,476.9654928000018,0,1,474.98204540000006,None,,7,F,7,R,SK,2022_Jan_12_1631,WASABI Nback,2020.2.10,59.98789444412794,
0,1,7,"[-0.2, -0.2]",None,0,1,1,1,,,,,0,0,0,0,0,53,53,53,,,,,,,,,,,None,None,1,476.9820780000009,None,476.9820780000009,477.9820899999977,477.9654109000039,478.9654150999995,1,0,476.9820780000009,None,1.8194834000023548,7,F,7,R,SK,2022_Jan_12_1631,WASABI Nback,2020.2.10,59.98789444412794,
0,1,9,"[0.2, -0.2]",None,0,1,1,1,,,,,0,0,0,0,0,54,54,54,,,,,,,,,,,None,None,0,478.9820980000004,None,478.9820980000004,479.98208700000396,479.96543799999927,480.96545309999783,0,1,478.9820980000004,None,,7,F,7,R,SK,2022_Jan_12_1631,WASABI Nback,2020.2.10,59.98789444412794,
0,1,3,"[0.2, 0.2]",None,0,1,1,1,,,,,0,0,0,0,0,55,55,55,,,,,,,,,,,None,None,0,480.98209260000294,None,480.98209260000294,481.9821075,481.9654567000034,482.96545609999885,0,1,480.98209260000294,None,,7,F,7,R,SK,2022_Jan_12_1631,WASABI Nback,2020.2.10,59.98789444412794,
0,1,9,"[0.2, -0.2]",1,0,1,1,1,,,,,0,0,0,0,0,56,56,56,,,,,,,,,,,None,None,0,482.98211789999914,None,482.98211789999914,483.9821383000017,483.9654759000041,484.96547660000215,0,1,482.98211789999914,None,,7,F,7,R,SK,2022_Jan_12_1631,WASABI Nback,2020.2.10,59.98789444412794,
0,1,6,"[0.2, 0]",None,0,1,1,1,,,,,0,0,0,0,0,57,57,57,,,,,,,,,,,None,None,0,484.9821274999995,None,484.9821274999995,485.9821643000032,485.9654831000007,486.96549410000443,0,1,484.9821274999995,None,,7,F,7,R,SK,2022_Jan_12_1631,WASABI Nback,2020.2.10,59.98789444412794,
0,1,2,"[0, 0.2]",None,0,1,1,1,,,,,0,0,0,0,0,58,58,58,,,,,,,,,,,None,None,0,486.9821503999992,None,486.9821503999992,487.98214720000396,487.9654842000018,488.9654924999995,0,1,486.9821503999992,None,,7,F,7,R,SK,2022_Jan_12_1631,WASABI Nback,2020.2.10,59.98789444412794,
0,1,5,"[0, 0]",None,0,1,1,1,,,,,0,0,0,0,0,59,59,59,,,,,,,,,,,None,None,0,488.9821568999978,None,488.9821568999978,489.98217609999847,489.9655004000015,490.96551130000444,0,1,488.9821568999978,None,,7,F,7,R,SK,2022_Jan_12_1631,WASABI Nback,2020.2.10,59.98789444412794,
0,1,5,"[0, 0]",None,0,1,1,1,,,,,0,0,0,0,0,60,60,60,,,,,,,,,,,None,None,0,490.9821723999994,None,490.9821723999994,491.98217060000025,491.96553120000317,492.96554130000004,0,1,490.9821723999994,None,,7,F,7,R,SK,2022_Jan_12_1631,WASABI Nback,2020.2.10,59.98789444412794,
0,1,2,"[0, 0.2]",None,0,1,1,1,,,,,0,0,0,0,0,61,61,61,,,,,,,,,,,None,None,0,492.98209510000015,None,492.98209510000015,493.98221130000456,493.96552900000097,494.9655530000018,0,0,492.98209510000015,None,,7,F,7,R,SK,2022_Jan_12_1631,WASABI Nback,2020.2.10,59.98789444412794,
0,1,6,"[0.2, 0]",None,0,1,1,1,,,,,0,0,0,0,0,62,62,62,,,,,,,,,,,None,None,0,494.9822058999998,None,494.9822058999998,495.982207699999,495.9655447000041,496.965563400001,0,1,494.9822058999998,None,,7,F,7,R,SK,2022_Jan_12_1631,WASABI Nback,2020.2.10,59.98789444412794,
0,1,9,"[0.2, -0.2]",None,0,1,1,1,,,,,0,0,0,0,0,63,63,63,,,,,,,,,,,None,None,0,496.98222850000457,None,496.98222850000457,497.9822174000001,497.9655993999986,498.9655874000018,0,1,496.98222850000457,None,,7,F,7,R,SK,2022_Jan_12_1631,WASABI Nback,2020.2.10,59.98789444412794,
0,1,3,"[0.2, 0.2]",None,0,1,1,1,,,,,0,0,0,0,0,64,64,64,,,,,,,,,,,None,None,0,498.98222630000237,None,498.98222630000237,499.98224240000127,499.9656044000003,500.96560820000013,0,1,498.98222630000237,None,,7,F,7,R,SK,2022_Jan_12_1631,WASABI Nback,2020.2.10,59.98789444412794,
0,1,9,"[0.2, -0.2]",1,0,1,1,1,,,,,0,0,0,0,0,65,65,65,,,,,,,,,,,None,None,0,500.98226160000195,None,500.98226160000195,501.98227050000423,501.9656116000042,502.9656144000037,0,1,500.98226160000195,None,,7,F,7,R,SK,2022_Jan_12_1631,WASABI Nback,2020.2.10,59.98789444412794,
0,1,7,"[-0.2, -0.2]",None,0,1,1,1,,,,,0,0,0,0,0,66,66,66,,,,,,,,,,,None,None,0,502.9822631999996,None,502.9822631999996,503.98227100000076,503.9656176999997,504.9656208000015,0,1,502.9822631999996,None,,7,F,7,R,SK,2022_Jan_12_1631,WASABI Nback,2020.2.10,59.98789444412794,
0,1,1,"[-0.2, 0.2]",None,0,1,1,1,,,,,0,0,0,0,0,67,67,67,,,,,,,,,,,None,None,0,504.9822819000037,None,504.9822819000037,505.98228550000204,505.96563340000284,506.96563700000115,0,1,504.9822819000037,None,,7,F,7,R,SK,2022_Jan_12_1631,WASABI Nback,2020.2.10,59.98789444412794,
0,1,5,"[0, 0]",None,0,1,1,1,,,,,0,0,0,0,0,68,68,68,,,,,,,,,,,None,None,0,506.9822944000043,None,506.9822944000043,507.9822967,507.96566000000166,508.96566390000226,0,1,506.9822944000043,None,,7,F,7,R,SK,2022_Jan_12_1631,WASABI Nback,2020.2.10,59.98789444412794,
0,1,7,"[-0.2, -0.2]",None,0,1,1,1,,,,,0,0,0,0,0,69,69,69,,,,,,,,,,,None,None,0,508.9823030999978,None,508.9823030999978,509.98224250000203,509.96565340000234,510.9656677000021,0,0,508.9823030999978,None,,7,F,7,R,SK,2022_Jan_12_1631,WASABI Nback,2020.2.10,59.98789444412794,
0,1,5,"[0, 0]",1,0,1,1,1,,,,,0,0,0,0,0,70,70,70,,,,,,,,,,,None,None,0,510.9823172000033,None,510.9823172000033,511.9823398000008,511.9656806999992,512.9656805999984,0,1,510.9823172000033,None,,7,F,7,R,SK,2022_Jan_12_1631,WASABI Nback,2020.2.10,59.98789444412794,
0,1,6,"[0.2, 0]",None,0,1,1,1,,,,,0,0,0,0,0,71,71,71,,,,,,,,,,,None,None,0,512.9823374000043,None,512.9823374000043,513.9823157999999,513.9657041000028,514.9657080000034,0,1,512.9823374000043,None,,7,F,7,R,SK,2022_Jan_12_1631,WASABI Nback,2020.2.10,59.98789444412794,
0,1,3,"[0.2, 0.2]",None,0,1,1,1,,,,,0,0,0,0,0,72,72,72,,,,,,,,,,,None,None,0,514.9823658000023,None,514.9823658000023,515.982353899999,515.9657057000004,516.9657225999981,0,1,514.9823658000023,None,,7,F,7,R,SK,2022_Jan_12_1631,WASABI Nback,2020.2.10,59.98789444412794,
0,1,6,"[0.2, 0]",1,0,1,1,1,,,,,0,0,0,0,0,73,73,73,,,,,,,,,,,None,None,0,516.9823772000018,None,516.9823772000018,517.9823814000047,517.9655992999978,518.9657363000006,0,0,516.9823772000018,None,,7,F,7,R,SK,2022_Jan_12_1631,WASABI Nback,2020.2.10,59.98789444412794,
0,1,8,"[0, -0.2]",None,0,1,1,1,,,,,0,0,0,0,0,74,74,74,,,,,,,,,,,None,None,0,518.9823751000004,None,518.9823751000004,519.9824015999984,519.9657483000046,520.965736099999,0,1,518.9823751000004,None,,7,F,7,R,SK,2022_Jan_12_1631,WASABI Nback,2020.2.10,59.98789444412794,
0,1,9,"[0.2, -0.2]",None,0,1,1,1,,,,,0,0,0,0,0,75,75,75,,,,,,,,,,,None,None,0,520.9824074999997,None,520.9824074999997,521.9823976999978,521.965758600003,522.9657699000018,0,1,520.9824074999997,None,,7,F,7,R,SK,2022_Jan_12_1631,WASABI Nback,2020.2.10,59.98789444412794,
0,1,9,"[0.2, -0.2]",None,0,1,1,1,,,,,0,0,0,0,0,76,76,76,,,,,,,,,,,None,None,0,522.9824200000003,None,522.9824200000003,523.9824214000037,523.9657755000007,524.9657150999992,0,1,522.9824200000003,None,,7,F,7,R,SK,2022_Jan_12_1631,WASABI Nback,2020.2.10,59.98789444412794,
0,1,1,"[-0.2, 0.2]",None,0,1,1,1,,,,,0,0,0,0,0,77,77,77,,,,,,,,,,,None,None,0,524.9824233000036,None,524.9824233000036,525.982445499998,525.9657877999998,526.9657854000034,0,1,524.9824233000036,None,,7,F,7,R,SK,2022_Jan_12_1631,WASABI Nback,2020.2.10,59.98789444412794,
0,1,3,"[0.2, 0.2]",None,0,1,1,1,,,,,0,0,0,0,0,78,78,78,,,,,,,,,,,None,None,0,526.982465699999,None,526.982465699999,527.9824473000044,527.9657931000038,528.9658006000027,0,1,526.982465699999,None,,7,F,7,R,SK,2022_Jan_12_1631,WASABI Nback,2020.2.10,59.98789444412794,
0,1,5,"[0, 0]",None,0,1,1,1,,,,,0,0,0,0,0,79,79,79,,,,,,,,,,,None,None,0,528.9824653000032,None,528.9824653000032,529.9824670000016,529.9658111000026,530.9658172999989,0,1,528.9824653000032,None,,7,F,7,R,SK,2022_Jan_12_1631,WASABI Nback,2020.2.10,59.98789444412794,
0,1,3,"[0.2, 0.2]",1,0,1,1,1,,,,,0,0,0,0,0,80,80,80,,,,,,,,,,,None,None,0,530.9824804000018,None,530.9824804000018,531.9824818999987,531.9658226000029,532.9658387000018,0,1,530.9824804000018,None,,7,F,7,R,SK,2022_Jan_12_1631,WASABI Nback,2020.2.10,59.98789444412794,
0,1,4,"[-0.2, 0]",None,0,1,1,1,,,,,0,0,0,0,0,81,81,81,,,,,,,,,,,None,None,0,532.982482600004,None,532.982482600004,533.9825073000029,533.9658987000003,534.9659208000012,0,1,532.982482600004,None,,7,F,7,R,SK,2022_Jan_12_1631,WASABI Nback,2020.2.10,59.98789444412794,
0,1,7,"[-0.2, -0.2]",None,0,1,1,1,,,,,0,0,0,0,0,82,82,82,,,,,,,,,,,None,None,0,534.982502400002,None,534.982502400002,535.9825113999977,535.9658430999989,536.9658586000005,0,1,534.982502400002,None,,7,F,7,R,SK,2022_Jan_12_1631,WASABI Nback,2020.2.10,59.98789444412794,
0,1,4,"[-0.2, 0]",1,0,1,1,1,,,,,0,0,0,0,0,83,83,83,,,,,,,,,,,None,None,0,536.982525899999,None,536.982525899999,537.9825524999978,537.965872300003,538.9658606000012,0,1,536.982525899999,None,,7,F,7,R,SK,2022_Jan_12_1631,WASABI Nback,2020.2.10,59.98789444412794,
0,1,4,"[-0.2, 0]",None,0,1,1,1,,,,,0,0,0,0,0,84,84,84,,,,,,,,,,,None,None,0,538.9825301000019,None,538.9825301000019,539.9825449999989,539.9658983000045,540.9658450999996,0,1,538.9825301000019,None,,7,F,7,R,SK,2022_Jan_12_1631,WASABI Nback,2020.2.10,59.98789444412794,
0,1,5,"[0, 0]",None,0,1,1,1,,,,,0,0,0,0,0,85,85,85,,,,,,,,,,,None,None,0,540.9825438000044,None,540.9825438000044,541.9825619000039,541.9658784999992,542.9659002999979,0,0,540.9825438000044,None,,7,F,7,R,SK,2022_Jan_12_1631,WASABI Nback,2020.2.10,59.98789444412794,
0,1,2,"[0, 0.2]",None,0,1,1,1,,,,,0,0,0,0,0,86,86,86,,,,,,,,,,,None,None,0,542.9825777000005,None,542.9825777000005,543.9825825000007,543.9658999000021,544.9659031000047,0,1,542.9825777000005,None,,7,F,7,R,SK,2022_Jan_12_1631,WASABI Nback,2020.2.10,59.98789444412794,
0,1,6,"[0.2, 0]",None,0,1,1,1,,,,,0,0,0,0,0,87,87,87,,,,,,,,,,,None,None,0,544.9825897999981,None,544.9825897999981,545.9825925000041,545.9659256000014,546.9659208000012,0,1,544.9825897999981,None,,7,F,7,R,SK,2022_Jan_12_1631,WASABI Nback,2020.2.10,59.98789444412794,
0,1,7,"[-0.2, -0.2]",None,0,1,1,1,,,,,0,0,0,0,0,88,88,88,,,,,,,,,,,None,None,0,546.9825918999995,None,546.9825918999995,547.9826152000023,547.9659285000016,548.9659351000009,0,1,546.9825918999995,None,,7,F,7,R,SK,2022_Jan_12_1631,WASABI Nback,2020.2.10,59.98789444412794,
0,1,6,"[0.2, 0]",1,0,1,1,1,,,,,0,0,0,0,0,89,89,89,,,,,,,,,,,None,None,0,548.9826182000033,None,548.9826182000033,549.9826203999983,549.9659440000032,550.9659446000005,0,1,548.9826182000033,None,,7,F,7,R,SK,2022_Jan_12_1631,WASABI Nback,2020.2.10,59.98789444412794,
0,1,6,"[0.2, 0]",None,0,1,1,1,,,,,0,0,0,0,0,90,90,90,,,,,,,,,,,None,None,0,550.9826241999981,None,550.9826241999981,551.9826361000014,551.9659659000026,552.9659661000042,0,1,550.9826241999981,None,,7,F,7,R,SK,2022_Jan_12_1631,WASABI Nback,2020.2.10,59.98789444412794,
0,1,7,"[-0.2, -0.2]",None,0,1,1,1,,,,,0,0,0,0,0,91,91,91,,,,,,,,,,,None,None,0,552.9826360000006,None,552.9826360000006,553.9826431000038,553.9659862999979,554.9659912999996,0,1,552.9826360000006,None,,7,F,7,R,SK,2022_Jan_12_1631,WASABI Nback,2020.2.10,59.98789444412794,
0,1,6,"[0.2, 0]",1,0,1,1,1,,,,,0,0,0,0,0,92,92,92,,,,,,,,,,,None,None,0,554.9826561000009,None,554.9826561000009,555.9826601000022,555.9659810000012,556.9660134000005,0,1,554.9826561000009,None,,7,F,7,R,SK,2022_Jan_12_1631,WASABI Nback,2020.2.10,59.98789444412794,
0,1,2,"[0, 0.2]",None,0,1,1,1,,,,,0,0,0,0,0,93,93,93,,,,,,,,,,,None,None,0,556.982677400003,None,556.982677400003,557.9825534999982,557.9660004000034,558.9660150999989,0,1,556.982677400003,None,,7,F,7,R,SK,2022_Jan_12_1631,WASABI Nback,2020.2.10,59.98789444412794,
0,1,5,"[0, 0]",None,0,1,1,1,,,,,0,0,0,0,0,94,94,94,,,,,,,,,,,None,None,0,558.9826795000045,None,558.9826795000045,559.9826870000034,559.9660310000036,560.9660259000011,0,1,558.9826795000045,None,,7,F,7,R,SK,2022_Jan_12_1631,WASABI Nback,2020.2.10,59.98789444412794,
0,1,4,"[-0.2, 0]",None,0,1,1,1,,,,,0,0,0,0,0,95,95,95,,,,,,,,,,,None,None,0,560.9827009,None,560.9827009,561.9827015000046,561.9660407999982,562.966052900003,0,1,560.9827009,None,,7,F,7,R,SK,2022_Jan_12_1631,WASABI Nback,2020.2.10,59.98789444412794,
0,1,4,"[-0.2, 0]",None,0,1,1,1,,,,,0,0,0,0,0,96,96,96,,,,,,,,,,,None,None,0,562.9827267000001,None,562.9827267000001,563.9827263000043,563.9660569999978,564.966053199998,0,1,562.9827267000001,None,,7,F,7,R,SK,2022_Jan_12_1631,WASABI Nback,2020.2.10,59.98789444412794,
0,1,7,"[-0.2, -0.2]",None,0,1,1,1,,,,,0,0,0,0,0,97,97,97,,,,,,,,,,,None,None,0,564.9827327000021,None,564.9827327000021,565.9827392000007,565.9660579999982,566.9660635000037,0,1,564.9827327000021,None,,7,F,7,R,SK,2022_Jan_12_1631,WASABI Nback,2020.2.10,59.98789444412794,
0,1,4,"[-0.2, 0]",1,0,1,1,1,,,,,0,0,0,0,0,98,98,98,,,,,,,,,,,None,None,0,566.9827340000047,None,566.9827340000047,567.9827492999975,567.9660782999999,568.9660963999995,0,1,566.9827340000047,None,,7,F,7,R,SK,2022_Jan_12_1631,WASABI Nback,2020.2.10,59.98789444412794,
0,1,3,"[0.2, 0.2]",None,0,1,1,1,,,,,0,0,0,0,0,99,99,99,,,,,,,,,,,None,None,0,568.9827614000023,None,568.9827614000023,569.9827536000012,569.9660942000046,570.9661148000014,0,1,568.9827614000023,None,,7,F,7,R,SK,2022_Jan_12_1631,WASABI Nback,2020.2.10,59.98789444412794,
0,1,5,"[0, 0]",None,0,1,1,1,,,,,0,0,0,0,0,100,100,100,,,,,,,,,,,None,None,0,570.9827722000045,None,570.9827722000045,571.9827903999976,571.9661175000001,572.9661506999983,0,1,570.9827722000045,None,,7,F,7,R,SK,2022_Jan_12_1631,WASABI Nback,2020.2.10,59.98789444412794,
0,1,3,"[0.2, 0.2]",1,0,1,1,1,,,,,0,0,0,0,0,101,101,101,,,,,,,,,,,None,None,0,572.9827826000037,None,572.9827826000037,573.9828517999995,573.9661435000016,574.9661265000032,0,1,572.9827826000037,None,,7,F,7,R,SK,2022_Jan_12_1631,WASABI Nback,2020.2.10,59.98789444412794,
0,1,1,"[-0.2, 0.2]",None,0,1,1,1,,,,,0,0,0,0,0,102,102,102,,,,,,,,,,,None,None,0,574.9827972999992,None,574.9827972999992,575.9827787000031,575.9661391000045,576.9661448000043,0,1,574.9827972999992,None,,7,F,7,R,SK,2022_Jan_12_1631,WASABI Nback,2020.2.10,59.98789444412794,
0,1,9,"[0.2, -0.2]",None,0,1,1,1,,,,,0,0,0,0,0,103,103,103,,,,,,,,,,,None,None,0,576.9828221999996,None,576.9828221999996,577.9828539000009,577.9661619000035,578.9661697000047,0,1,576.9828221999996,None,,7,F,7,R,SK,2022_Jan_12_1631,WASABI Nback,2020.2.10,59.98789444412794,
0,1,9,"[0.2, -0.2]",None,0,1,1,1,,,,,0,0,0,0,0,104,104,104,,,,,,,,,,,None,None,0,578.9828227000035,None,578.9828227000035,579.9828391999981,579.9661840999979,580.9661694000024,0,0,578.9828227000035,None,,7,F,7,R,SK,2022_Jan_12_1631,WASABI Nback,2020.2.10,59.98789444412794,
0,1,8,"[0, -0.2]",None,0,1,1,1,,,,,0,0,0,0,0,105,105,105,,,,,,,,,,,None,None,0,580.9828419000041,None,580.9828419000041,581.9827989999976,581.9661959000005,582.9661901,0,1,580.9828419000041,None,,7,F,7,R,SK,2022_Jan_12_1631,WASABI Nback,2020.2.10,59.98789444412794,
0,1,6,"[0.2, 0]",None,0,1,1,1,,,,,0,0,0,0,0,106,106,106,,,,,,,,,,,None,None,0,582.982852000001,None,582.982852000001,583.982861000004,583.9661928999994,584.9662171000018,0,1,582.982852000001,None,,7,F,7,R,SK,2022_Jan_12_1631,WASABI Nback,2020.2.10,59.98789444412794,
0,1,3,"[0.2, 0.2]",None,0,1,1,1,,,,,0,0,0,0,0,107,107,107,,,,,,,,,,,None,None,0,584.9828571000035,None,584.9828571000035,585.982877100003,585.9662211000032,586.9662117999978,0,1,584.9828571000035,None,,7,F,7,R,SK,2022_Jan_12_1631,WASABI Nback,2020.2.10,59.98789444412794,
0,1,6,"[0.2, 0]",1,0,1,1,1,,,,,0,0,0,0,0,108,108,108,,,,,,,,,,,None,None,0,586.9828888000047,None,586.9828888000047,587.9828918999992,587.9662285000013,588.9662555000032,0,1,586.9828888000047,None,,7,F,7,R,SK,2022_Jan_12_1631,WASABI Nback,2020.2.10,59.98789444412794,
0,1,5,"[0, 0]",None,0,1,1,1,,,,,0,0,0,0,0,109,109,109,,,,,,,,,,,None,None,0,588.9829097000038,None,588.9829097000038,589.9829222000044,589.9662356000044,590.9662462999986,0,1,588.9829097000038,None,,7,F,7,R,SK,2022_Jan_12_1631,WASABI Nback,2020.2.10,59.98789444412794,
0,1,7,"[-0.2, -0.2]",None,0,1,1,1,,,,,0,0,0,0,0,110,110,110,,,,,,,,,,,None,None,0,590.9829180000015,None,590.9829180000015,591.9829124000025,591.9662549999994,592.9662618000002,0,1,590.9829180000015,None,,7,F,7,R,SK,2022_Jan_12_1631,WASABI Nback,2020.2.10,59.98789444412794,
0,1,5,"[0, 0]",1,0,1,1,1,,,,,0,0,0,0,0,111,111,111,,,,,,,,,,,None,None,0,592.982940599999,None,592.982940599999,593.982940599999,593.9662819000005,594.9663034000041,0,0,592.982940599999,None,,7,F,7,R,SK,2022_Jan_12_1631,WASABI Nback,2020.2.10,59.98789444412794,
0,1,1,"[-0.2, 0.2]",None,0,1,1,1,,,,,0,0,0,0,0,112,112,112,,,,,,,,,,,None,None,0,594.982946600001,None,594.982946600001,595.9829326000036,595.9663094999996,596.9663013000027,0,1,594.982946600001,None,,7,F,7,R,SK,2022_Jan_12_1631,WASABI Nback,2020.2.10,59.98789444412794,
0,1,7,"[-0.2, -0.2]",None,0,1,1,1,,,,,0,0,0,0,0,113,113,113,,,,,,,,,,,None,None,0,596.9829535000026,None,596.9829535000026,597.9829196999999,597.9663044000044,598.9663207999984,0,0,596.9829535000026,None,,7,F,7,R,SK,2022_Jan_12_1631,WASABI Nback,2020.2.10,59.98789444412794,
0,1,9,"[0.2, -0.2]",None,0,1,1,1,,,,,0,0,0,0,0,114,114,114,,,,,,,,,,,None,None,0,598.9829862000042,None,598.9829862000042,599.9829802000022,599.9663275999992,600.9663244000039,0,1,598.9829862000042,None,,7,F,7,R,SK,2022_Jan_12_1631,WASABI Nback,2020.2.10,59.98789444412794,
0,1,3,"[0.2, 0.2]",None,0,1,1,1,,,,,0,0,0,0,0,115,115,115,,,,,,,,,,,None,None,0,600.9829995000036,None,600.9829995000036,601.983009399999,601.966328399998,602.9663441000012,0,1,600.9829995000036,None,,7,F,7,R,SK,2022_Jan_12_1631,WASABI Nback,2020.2.10,59.98789444412794,
0,1,9,"[0.2, -0.2]",1,0,1,1,1,,,,,0,0,0,0,0,116,116,116,,,,,,,,,,,None,None,0,602.9830084999994,None,602.9830084999994,603.9830223000026,603.9663583000001,604.9663677999997,0,1,602.9830084999994,None,,7,F,7,R,SK,2022_Jan_12_1631,WASABI Nback,2020.2.10,59.98789444412794,
0,1,6,"[0.2, 0]",None,0,1,1,1,,,,,0,0,0,0,0,117,117,117,,,,,,,,,,,None,None,0,604.9830304999996,None,604.9830304999996,605.9830369999981,605.9663740000033,606.9663826000033,0,1,604.9830304999996,None,,7,F,7,R,SK,2022_Jan_12_1631,WASABI Nback,2020.2.10,59.98789444412794,
0,1,2,"[0, 0.2]",None,0,1,1,1,,,,,0,0,0,0,0,118,118,118,,,,,,,,,,,None,None,0,606.9830421000006,None,606.9830421000006,607.9830415000033,607.966371399998,608.966391300004,0,1,606.9830421000006,None,,7,F,7,R,SK,2022_Jan_12_1631,WASABI Nback,2020.2.10,59.98789444412794,
0,1,5,"[0, 0]",None,0,1,1,1,,,,,0,0,0,0,0,119,119,119,,,,,,,,,,,None,None,0,608.983043799999,None,608.983043799999,609.9830593000006,609.9664091000013,610.9664121000023,0,1,608.983043799999,None,,7,F,7,R,SK,2022_Jan_12_1631,WASABI Nback,2020.2.10,59.98789444412794,
