	SID	biopac_channel	body_site	condition	correct	date	duration	handedness	mouseclick	onset	rt	scanner	score	session	sex	skin_site	temperature	value
0	2475	51	Chest	Expectancy		2022_Dec_02_1649	5.016528849955648	R		3.268845699960366		MH		2	M	3		35.8641975308642
1	2475	45	Chest	2-back Instruction		2022_Dec_02_1649	5.012838159920648	R		8.752348099835217		MH		2	M	3		
2	2475	7	Chest	Pre-trial Jitter		2022_Dec_02_1649	7.012674379860982	R		13.7775035998784		MH		2	M	3		
3	2475	44.0	Chest	pretrialfixation		2022_Dec_02_1649	1.0084288599900901	R		21.088010299950838		MH		2	M	3		
4	2475		Chest	2-back	1.0	2022_Dec_02_1649	1.9845136399380863	R		22.108298799954355		MH	12.5	2	M	3	48.5	
5	2475		Chest	2-back	1.0	2022_Dec_02_1649	1.98700933996588	R		24.11539679998532		MH	25.0	2	M	3	48.5	
6	2475		Chest	2-back	1.0	2022_Dec_02_1649	1.98804373992607	R	2	26.114886299939826	0.83051300002262	MH	37.5	2	M	3	48.5	
7	2475		Chest	2-back	1.0	2022_Dec_02_1649	1.9878152401652187	R	2	28.11502519994974	1.6137669999152422	MH	50.0	2	M	3	48.5	
8	2475		Chest	2-back	1.0	2022_Dec_02_1649	1.9876427401322871	R	0	30.115094000007957	1.0175128001719713	MH	62.5	2	M	3	48.5	
9	2475		Chest	2-back	1.0	2022_Dec_02_1649	1.9879370399285108	R	2	32.114995799958706	0.8333306999411434	MH	75.0	2	M	3	48.5	
10	2475		Chest	2-back	0.0	2022_Dec_02_1649	1.9878457402810454	R	2	34.115076299989596	1.030625999905169	MH	75.0	2	M	3	48.5	
11	2475		Chest	2-back	1.0	2022_Dec_02_1649	1.9877815400250256	R	2	36.11513060005382	1.0675800000317395	MH	87.5	2	M	3	48.5	
12	2475	48.0	Chest	ScoreReport		2022_Dec_02_1649	5.0096696799155325	R		38.129256800049916		MH		2	M	3		
13	2475	8	Chest	Post-trial Jitter		2022_Dec_02_1649	5.004652460105717	R		43.190111099975184		MH		2	M	3		
14	2475	20	Chest	PainBinary		2022_Dec_02_1649	4.999743379885331	R		48.21760630002245	2.9169751999434084	MH		2	M	3		-1.0
15	2475	21	Chest	IntensityRating		2022_Dec_02_1649	5.009199680062011	R		53.2379576000385	4.4833635000977665	MH		2	M	3		34.074074074074076
16	2475	9	Chest	Post-Q-Jitter		2022_Dec_02_1649	4.994857440236956	R		58.25353099987842		MH		2	M	3		
17	2475	51	Chest	Expectancy		2022_Dec_02_1649	5.007111680228263	R		63.51412449986674	3.61931430012919	MH		2	M	3		36.17283950617284
18	2475	45	Chest	2-back Instruction		2022_Dec_02_1649	5.011768640019	R		68.92849169997498		MH		2	M	3		
19	2475	7	Chest	Pre-trial Jitter		2022_Dec_02_1649	9.00360684003681	R		73.9409658999648		MH		2	M	3		
20	2475	44.0	Chest	pretrialfixation		2022_Dec_02_1649	1.0057253600098193	R		83.24829829996452		MH		2	M	3		
21	2475		Chest	2-back	1.0	2022_Dec_02_1649	1.9897092401515692	R		84.25630649994127		MH	12.5	2	M	3	48.5	
22	2475		Chest	2-back	1.0	2022_Dec_02_1649	1.9875959400087595	R		86.26573990006		MH	25.0	2	M	3	48.5	
23	2475		Chest	2-back	1.0	2022_Dec_02_1649	1.9882261401508003	R	0	88.26543859997764	0.6967716999351978	MH	37.5	2	M	3	48.5	
24	2475		Chest	2-back	1.0	2022_Dec_02_1649	1.987479540053755	R	2	90.26581689994782	0.6836715000681579	MH	50.0	2	M	3	48.5	
25	2475		Chest	2-back	1.0	2022_Dec_02_1649	1.9877109399531037	R	2	92.26572779985145	1.5306202000938356	MH	62.5	2	M	3	48.5	
26	2475		Chest	2-back	0.0	2022_Dec_02_1649	1.9872387398499995	R	0	94.2659805000294	0.9839578999672085	MH	62.5	2	M	3	48.5	
27	2475		Chest	2-back	1.0	2022_Dec_02_1649	1.9872383398469537	R	0	96.26598239992745	1.0970410001464188	MH	75.0	2	M	3	48.5	
28	2475		Chest	2-back	1.0	2022_Dec_02_1649	1.987960739992559	R	0	98.26562860002741	1.0964053999632597	MH	87.5	2	M	3	48.5	
29	2475	48.0	Chest	ScoreReport		2022_Dec_02_1649	5.010327179916203	R		100.27950039994903		MH		2	M	3		
30	2475	8	Chest	Post-trial Jitter		2022_Dec_02_1649	5.0031244601123035	R		105.33315469999798		MH		2	M	3		
31	2475	20	Chest	PainBinary		2022_Dec_02_1649	5.0006795800291	R		110.35108699998818	2.2503963001072407	MH		2	M	3		-1.0
32	2475	21	Chest	IntensityRating		2022_Dec_02_1649	5.011047679930925	R		115.37096689990722	2.749995000194758	MH		2	M	3		34.75308641975308
33	2475	9	Chest	Post-Q-Jitter		2022_Dec_02_1649	4.994943339843303	R		120.38739910000004		MH		2	M	3		
34	2475	51	Chest	Expectancy		2022_Dec_02_1649	5.004183720098808	R		125.66619129991159	2.2860329998657107	MH		2	M	3		35.24691358024691
35	2475	44	Chest	0-back Instruction		2022_Dec_02_1649	5.010192740010098	R		131.07991009997204		MH		2	M	3		
36	2475	7	Chest	Pre-Trial Jitter		2022_Dec_02_1649	9.003020639996976	R		136.09185549989343		MH		2	M	3		
37	2475	44.0	Chest	pretrialfixation		2022_Dec_02_1649	1.0101346601732075	R		145.39668220002204		MH		2	M	3		
38	2475		Chest	0-back	0.0	2022_Dec_02_1649	1.990877240197733	R		146.40632559987716		MH	0.0	2	M	3	48.5	
39	2475		Chest	0-back	0.0	2022_Dec_02_1649	1.98699274007231	R		148.41662999987602		MH	0.0	2	M	3	48.5	
40	2475		Chest	0-back	0.0	2022_Dec_02_1649	1.9872124399989843	R	2	150.41657350002788	0.7971803999971598	MH	0.0	2	M	3	48.5	
41	2475		Chest	0-back	1.0	2022_Dec_02_1649	1.987139139790088	R	0	152.41658499999903	1.3305433001369238	MH	12.5	2	M	3	48.5	
42	2475		Chest	0-back	0.0	2022_Dec_02_1649	1.9866816401481628	R	2	154.4168447998818	1.3002539000008255	MH	12.5	2	M	3	48.5	
43	2475		Chest	0-back	1.0	2022_Dec_02_1649	1.9873898399528116	R	0	156.41652289987542	0.8968241999391466	MH	25.0	2	M	3	48.5	
44	2475		Chest	0-back	0.0	2022_Dec_02_1649	1.986587940249592	R	2	158.41694139991887	0.7971450998447835	MH	25.0	2	M	3	48.5	
45	2475		Chest	0-back	0.0	2022_Dec_02_1649	1.9853104401845485	R	2	160.41759059997275	0.6803612001240253	MH	25.0	2	M	3	48.5	
46	2475	50.0	Chest	ScoreReport		2022_Dec_02_1649	5.012550579849631	R		162.4290068000555		MH		2	M	3		
47	2475	8	Chest	Post-Trial Jitter		2022_Dec_02_1649	6.9989061600063	R		167.48590179998428		MH		2	M	3		
48	2475	20	Chest	PainBinary		2022_Dec_02_1649	5.000775679945946	R		174.50169609999284	1.7362354001961648	MH		2	M	3		-1.0
49	2475	21	Chest	IntensityRating		2022_Dec_02_1649	5.009910180000588	R		179.52217100001872	2.852606999920681	MH		2	M	3		34.876543209876544
50	2475	9	Chest	Post-Q-Jitter		2022_Dec_02_1649	6.994860440026969	R		184.53807689994574		MH		2	M	3		
51	2475	51	Chest	Expectancy		2022_Dec_02_1649	5.007725980365649	R		192.63178419996984	3.2857951000332832	MH		2	M	3		34.81481481481482
52	2475	44	Chest	0-back Instruction		2022_Dec_02_1649	5.011983640026301	R		198.046351299854		MH		2	M	3		
53	2475	7	Chest	Pre-Trial Jitter		2022_Dec_02_1649	7.001309440005571	R		203.06004759995267		MH		2	M	3		
54	2475	44.0	Chest	pretrialfixation		2022_Dec_02_1649	1.0130844002123922	R		210.37921739998274		MH		2	M	3		
55	2475		Chest	0-back	1.0	2022_Dec_02_1649	1.9889504401944578	R	0.0	211.39130360004492	0.646556599996984	MH	12.5	2	M	3	48.5	
56	2475		Chest	0-back	1.0	2022_Dec_02_1649	1.9880987401120365	R	0.0	213.40007460000925	0.29711550008505583	MH	25.0	2	M	3	48.5	
57	2475		Chest	0-back	1.0	2022_Dec_02_1649	1.9890274398494512	R	0.0	215.39962619985454	0.33057980006560683	MH	37.5	2	M	3	48.5	
58	2475		Chest	0-back	1.0	2022_Dec_02_1649	1.9883917402476072	R	0.0	217.39996319985949	0.3834418999031186	MH	50.0	2	M	3	48.5	
59	2475		Chest	0-back	1.0	2022_Dec_02_1649	1.9891654399689287	R	0.0	219.39959389995784	0.38057759986259043	MH	62.5	2	M	3	48.5	
60	2475		Chest	0-back	1.0	2022_Dec_02_1649	1.9892421402037144	R	0.0	221.39957219990902	0.3469867000821978	MH	75.0	2	M	3	48.5	
61	2475		Chest	0-back	1.0	2022_Dec_02_1649	1.989230640232563	R	0.0	223.39959729998372	0.34705170011147857	MH	87.5	2	M	3	48.5	
62	2475		Chest	0-back	1.0	2022_Dec_02_1649	1.989314140053466	R	0.0	225.3995985998772	0.34710869984701276	MH	100.0	2	M	3	48.5	
63	2475	48.0	Chest	ScoreReport		2022_Dec_02_1649	5.0041011401917785	R		227.40888780006208		MH		2	M	3		
64	2475	8	Chest	Post-Trial Jitter		2022_Dec_02_1649	7.001880560070276	R		232.46840430004522		MH		2	M	3		
65	2475	20	Chest	PainBinary		2022_Dec_02_1649	5.001305079786107	R		239.48540170001797	1.367019800003618	MH		2	M	3		1.0
66	2475	21	Chest	IntensityRating		2022_Dec_02_1649	4.9962572797667235	R		244.50463879993185	2.966756199952215	MH		2	M	3		37.65432098765433
67	2475	23	Chest	DistractBinary		2022_Dec_02_1649	5.004441479919478	R		249.51726979995146	2.0669719998259097	MH		2	M	3		1.0
68	2475	9	Chest	Post-Q-Jitter		2022_Dec_02_1649	7.009693940170109	R		254.5230308000464		MH		2	M	3		
69	2475	51	Chest	Expectancy		2022_Dec_02_1649	5.00856807990931	R		261.80699780001305	3.733314000070095	MH		2	M	3		37.71604938271605
70	2475	45	Chest	2-back Instruction		2022_Dec_02_1649	5.014167540008202	R		267.2292603000533		MH		2	M	3		
71	2475	7	Chest	Pre-trial Jitter		2022_Dec_02_1649	7.00103924004361	R		272.2441821999382		MH		2	M	3		
72	2475	44.0	Chest	pretrialfixation		2022_Dec_02_1649	1.0060634003020823	R		279.56674330006354		MH		2	M	3		
73	2475		Chest	2-back	1.0	2022_Dec_02_1649	1.9887819399591535	R		280.5754251999315		MH	12.5	2	M	3	48.5	
74	2475		Chest	2-back	1.0	2022_Dec_02_1649	1.9874212401919067	R		282.58442609990016		MH	25.0	2	M	3	48.5	
75	2475		Chest	2-back	1.0	2022_Dec_02_1649	1.9883115398697555	R	2	284.58400260005146	0.7637587999925017	MH	37.5	2	M	3	48.5	
76	2475		Chest	2-back	1.0	2022_Dec_02_1649	1.9860056401230395	R	2	286.585170699982	0.6637128998991102	MH	50.0	2	M	3	48.5	
77	2475		Chest	2-back	1.0	2022_Dec_02_1649	1.987878339830786	R	0	288.58429569983855	1.0300932999234647	MH	62.5	2	M	3	48.5	
78	2475		Chest	2-back	0.0	2022_Dec_02_1649	1.987544739851728	R	2	290.5844558000099	0.7469657000619918	MH	62.5	2	M	3	48.5	
79	2475		Chest	2-back	1.0	2022_Dec_02_1649	1.987654039869085	R	2	292.58441710006446	0.9805395000148565	MH	75.0	2	M	3	48.5	
80	2475		Chest	2-back	1.0	2022_Dec_02_1649	1.9876198400743306	R	2	294.58445169986226	0.9804303999990225	MH	87.5	2	M	3	48.5	
81	2475	48.0	Chest	ScoreReport		2022_Dec_02_1649	5.010461779776961	R		296.5980785000138		MH		2	M	3		
82	2475	8	Chest	Post-trial Jitter		2022_Dec_02_1649	5.004517960129306	R		301.65109319984913		MH		2	M	3		
83	2475	20	Chest	PainBinary		2022_Dec_02_1649	5.0023766797967255	R		306.66887619998306	1.9336126998532563	MH		2	M	3		-1.0
84	2475	21	Chest	IntensityRating		2022_Dec_02_1649	5.010889579774812	R		311.6896732999012	2.1499741999432445	MH		2	M	3		35.925925925925924
85	2475	9	Chest	Post-Q-Jitter		2022_Dec_02_1649	4.994965440127999	R		316.706000499893		MH		2	M	3		
86	2475	51	Chest	Expectancy		2022_Dec_02_1649	5.0006925005000085	R		322.7782570000272	2.8999947998672724	MH		2	M	3		36.17283950617284
87	2475	45	Chest	2-back Instruction		2022_Dec_02_1649	5.0050677000544965	R		328.1927777999081		MH		2	M	3		
88	2475	7	Chest	Pre-trial Jitter		2022_Dec_02_1649	9.002053640084341	R		333.21099449996836		MH		2	M	3		
89	2475	44.0	Chest	pretrialfixation		2022_Dec_02_1649	1.0138045402709395	R		342.5468508999329		MH		2	M	3		
90	2475		Chest	2-back	1.0	2022_Dec_02_1649	1.9899458400905132	R		343.55877389991656		MH	12.5	2	M	3	48.5	
91	2475		Chest	2-back	1.0	2022_Dec_02_1649	1.9866261400748044	R		345.5688165000174		MH	25.0	2	M	3	48.5	
92	2475		Chest	2-back	1.0	2022_Dec_02_1649	1.987563039874658	R	2	347.5683500999585	0.9303872000891715	MH	37.5	2	M	3	48.5	
93	2475		Chest	2-back	1.0	2022_Dec_02_1649	1.9876706399954855	R	0	349.56830789987	0.7136448000092059	MH	50.0	2	M	3	48.5	
94	2475		Chest	2-back	1.0	2022_Dec_02_1649	1.9877531400416046	R	2	351.56828189990483	1.1964208001736552	MH	62.5	2	M	3	48.5	
95	2475		Chest	2-back	1.0	2022_Dec_02_1649	1.987334739882499	R	2	353.56852019997314	1.0636781000066549	MH	75.0	2	M	3	48.5	
96	2475		Chest	2-back	1.0	2022_Dec_02_1649	1.986948240082711	R	2	355.568722399883	0.800428600050509	MH	87.5	2	M	3	48.5	
97	2475		Chest	2-back	1.0	2022_Dec_02_1649	1.987162240082398	R	0	357.5685984999873	0.663478699978441	MH	100.0	2	M	3	48.5	
98	2475	48.0	Chest	ScoreReport		2022_Dec_02_1649	5.001509239897132	R		359.57816729997285		MH		2	M	3		
99	2475	8	Chest	Post-trial Jitter		2022_Dec_02_1649	9.00114076002501	R		364.636773499893		MH		2	M	3		
100	2475	20	Chest	PainBinary		2022_Dec_02_1649	5.000179179711267	R		373.65390400006436	1.6856114000547677	MH		2	M	3		-1.0
101	2475	21	Chest	IntensityRating		2022_Dec_02_1649	5.010297280037776	R		378.67389569990337	2.3833561001811177	MH		2	M	3		35.24691358024691
102	2475	9	Chest	Post-Q-Jitter		2022_Dec_02_1649	8.994831240037456	R		383.690104899928		MH		2	M	3		
103	2475	42	Chest	0-back Instruction		2022_Dec_02_1649	5.0060376797337085	R		392.7095764998812		MH		2	M	3		
104	2475	7	Chest	Pre-Trial Jitter		2022_Dec_02_1649	5.001631540246308	R		397.7284947000444		MH		2	M	3		
105	2475	44.0	Chest	pretrialfixation		2022_Dec_02_1649	1.015028279973194	R		402.9968473999761		MH		2	M	3		
106	2475		Chest	0-back	1.0	2022_Dec_02_1649	1.9896685399580747	R	0.0	404.00952069996856	0.9632784998975694	MH	12.5	2	M	3	32.0	
107	2475		Chest	0-back	1.0	2022_Dec_02_1649	1.9877317401114851	R	0.0	406.0188388999086	0.3637316001113504	MH	25.0	2	M	3	32.0	
108	2475		Chest	0-back	1.0	2022_Dec_02_1649	1.9887405401095748	R	0.0	408.0181446999777	0.3470528998877853	MH	37.5	2	M	3	32.0	
109	2475		Chest	0-back	1.0	2022_Dec_02_1649	1.9879737400915474	R	0.0	410.0187713999767	0.34719030000269413	MH	50.0	2	M	3	32.0	
110	2475		Chest	0-back	1.0	2022_Dec_02_1649	1.9887804400641471	R	0.0	412.0183881998528	0.33388599986210465	MH	62.5	2	M	3	32.0	
111	2475		Chest	0-back	1.0	2022_Dec_02_1649	1.9881336400285363	R	0.0	414.01871279999614	0.36350099998526275	MH	75.0	2	M	3	32.0	
112	2475		Chest	0-back	1.0	2022_Dec_02_1649	1.989364739973098	R	0.0	416.0181288998574	0.363534800009802	MH	87.5	2	M	3	32.0	
113	2475		Chest	0-back	1.0	2022_Dec_02_1649	1.9883006399031729	R	0.0	418.018657800043	0.33032670011743903	MH	100.0	2	M	3	32.0	
114	2475	48.0	Chest	ScoreReport		2022_Dec_02_1649	5.003491339972243	R		420.02779529988766		MH		2	M	3		
115	2475	8	Chest	Post-Trial Jitter		2022_Dec_02_1649	4.993916060309857	R		425.0909631999675		MH		2	M	3		
116	2475	42	Chest	0-back Instruction		2022_Dec_02_1649	5.007414379855618	R		430.1092652999796		MH		2	M	3		
117	2475	7	Chest	Pre-Trial Jitter		2022_Dec_02_1649	9.001855039969087	R		435.12878350005485		MH		2	M	3		
118	2475	44.0	Chest	pretrialfixation		2022_Dec_02_1649	1.014569080201909	R		444.3975213000085		MH		2	M	3		
119	2475		Chest	0-back	1.0	2022_Dec_02_1649	1.9908233401365578	R	0.0	445.40939030004665	0.7131934999488294	MH	12.5	2	M	3	32.0	
120	2475		Chest	0-back	1.0	2022_Dec_02_1649	1.988169840304181	R	0.0	447.41903429990634	0.4504350000061095	MH	25.0	2	M	3	32.0	
121	2475		Chest	0-back	1.0	2022_Dec_02_1649	1.988972540013492	R	0.0	449.4186473998707	0.44706299994140863	MH	37.5	2	M	3	32.0	
122	2475		Chest	0-back	1.0	2022_Dec_02_1649	1.9887357400730252	R	0.0	451.4187948999461	0.33045729994773865	MH	50.0	2	M	3	32.0	
123	2475		Chest	0-back	1.0	2022_Dec_02_1649	1.9891942399553955	R	0.0	453.41859839996323	0.34700499987229705	MH	62.5	2	M	3	32.0	
124	2475		Chest	0-back	1.0	2022_Dec_02_1649	1.9890149403363466	R	0.0	455.4187260000035	0.33030929998494685	MH	75.0	2	M	3	32.0	
125	2475		Chest	0-back	1.0	2022_Dec_02_1649	1.9890666401479393	R	0.0	457.41871969983913	0.33037859993055463	MH	87.5	2	M	3	32.0	
126	2475		Chest	0-back	1.0	2022_Dec_02_1649	1.9884567400440574	R	0.0	459.41902339993976	0.3304618000984192	MH	100.0	2	M	3	32.0	
127	2475	48.0	Chest	ScoreReport		2022_Dec_02_1649	5.004524540156126	R		461.42769180005416		MH		2	M	3		
128	2475	8	Chest	Post-Trial Jitter		2022_Dec_02_1649	9.000797459855676	R		466.4879606999457		MH		2	M	3		
129	2475	51	Chest	Expectancy		2022_Dec_02_1649	5.0059397800359875	R		476.59384969994426	4.750326900044456	MH		2	M	3		35.37037037037037
130	2475	44	Chest	0-back Instruction		2022_Dec_02_1649	5.004418640164658	R		482.01963360002264		MH		2	M	3		
131	2475	7	Chest	Pre-Trial Jitter		2022_Dec_02_1649	5.001545040169731	R		487.0294319000095		MH		2	M	3		
132	2475	44.0	Chest	pretrialfixation		2022_Dec_02_1649	1.0137294803280383	R		492.38172389985994		MH		2	M	3		
133	2475		Chest	0-back	1.0	2022_Dec_02_1649	1.9903776401188225	R	0.0	493.39343459997326	0.7130138999782503	MH	12.5	2	M	3	48.5	
134	2475		Chest	0-back	1.0	2022_Dec_02_1649	1.9882218400016427	R	0.0	495.40283899987116	0.46355550014413893	MH	25.0	2	M	3	48.5	
135	2475		Chest	0-back	1.0	2022_Dec_02_1649	1.9884941400960088	R	0.0	497.40272030001506	0.33389240014366806	MH	37.5	2	M	3	48.5	
136	2475		Chest	0-back	1.0	2022_Dec_02_1649	1.9891436400357634	R	0.0	499.4024169999175	0.3136696999426931	MH	50.0	2	M	3	48.5	
137	2475		Chest	0-back	1.0	2022_Dec_02_1649	1.988881440134719	R	0.0	501.4025665000081	0.3803491999860853	MH	62.5	2	M	3	48.5	
138	2475		Chest	0-back	1.0	2022_Dec_02_1649	1.9891706402413547	R	0.0	503.4024409998674	0.26689599989913404	MH	75.0	2	M	3	48.5	
139	2475		Chest	0-back	1.0	2022_Dec_02_1649	1.98841024027206	R	0.0	505.4028459000401	0.31768680014647543	MH	87.5	2	M	3	48.5	
140	2475		Chest	0-back	1.0	2022_Dec_02_1649	1.9890487403608859	R	0.0	507.40254689985886	0.44701569993048906	MH	100.0	2	M	3	48.5	
141	2475	48.0	Chest	ScoreReport		2022_Dec_02_1649	5.005031639942899	R		509.4112374999095		MH		2	M	3		
142	2475	8	Chest	Post-Trial Jitter		2022_Dec_02_1649	8.999632660066709	R		514.4723568998743		MH		2	M	3		
143	2475	20	Chest	PainBinary		2022_Dec_02_1649	5.001252580201253	R		523.4882980999537	2.033663700101897	MH		2	M	3		1.0
144	2475	21	Chest	IntensityRating		2022_Dec_02_1649	5.0089325797744095	R		528.509505999973	2.8165211000014096	MH		2	M	3		37.839506172839506
145	2475	23	Chest	DistractBinary		2022_Dec_02_1649	5.002693479880691	R		533.5376631000545	2.3836398001294583	MH		2	M	3		1.0
146	2475	9	Chest	Post-Q-Jitter		2022_Dec_02_1649	8.993687440408394	R		538.5422459999099		MH		2	M	3		
147	2475	51	Chest	Expectancy		2022_Dec_02_1649	5.01437492063269	R		548.6570695999544	3.267042800085619	MH		2	M	3		37.96296296296296
148	2475	44	Chest	0-back Instruction		2022_Dec_02_1649	5.008853539824486	R		554.0848318999633		MH		2	M	3		
149	2475	7	Chest	Pre-Trial Jitter		2022_Dec_02_1649	5.002175939967856	R		559.0965189000126		MH		2	M	3		
150	2475	44.0	Chest	pretrialfixation		2022_Dec_02_1649	1.0045288598630577	R		564.4120485000312		MH		2	M	3		
151	2475		Chest	0-back	1.0	2022_Dec_02_1649	1.9908205401152372	R	0.0	565.4272467999253	0.8794768999796361	MH	12.5	2	M	3	48.5	
152	2475		Chest	0-back	1.0	2022_Dec_02_1649	1.9879299399908632	R	0.0	567.4370401999913	0.4304589999374002	MH	25.0	2	M	3	48.5	
153	2475		Chest	0-back	1.0	2022_Dec_02_1649	1.988868139917031	R	0.0	569.4365943998564	0.44716239999979734	MH	37.5	2	M	3	48.5	
154	2475		Chest	0-back	1.0	2022_Dec_02_1649	1.988997139967978	R	0.0	571.4366039000452	0.4470937999431044	MH	50.0	2	M	3	48.5	
155	2475		Chest	0-back	1.0	2022_Dec_02_1649	1.9888913400936872	R	0.0	573.4365815999918	0.38438310008496046	MH	62.5	2	M	3	48.5	
156	2475		Chest	0-back	1.0	2022_Dec_02_1649	1.9890517401508987	R	0.0	575.4365711000282	0.44717440009117126	MH	75.0	2	M	3	48.5	
157	2475		Chest	0-back	1.0	2022_Dec_02_1649	1.9877992402762175	R	0.0	577.4372010999359	0.4012943000998348	MH	87.5	2	M	3	48.5	
158	2475		Chest	0-back	1.0	2022_Dec_02_1649	1.98890984011814	R	0.0	579.4366760000121	0.4471716000698507	MH	100.0	2	M	3	48.5	
159	2475	48.0	Chest	ScoreReport		2022_Dec_02_1649	5.0042225401848555	R		581.4457121999003		MH		2	M	3		
160	2475	8	Chest	Post-Trial Jitter		2022_Dec_02_1649	5.000084660248831	R		586.5062051999848		MH		2	M	3		
161	2475	20	Chest	PainBinary		2022_Dec_02_1649	5.000833780039102	R		591.5225861999206	3.1003753999248147	MH		2	M	3		1.0
162	2475	21	Chest	IntensityRating		2022_Dec_02_1649	5.0105285798199475	R		596.5427697999403	1.9335229999851435	MH		2	M	3		36.23456790123456
163	2475	23	Chest	DistractBinary		2022_Dec_02_1649	5.0041288796346635	R		601.5709943999536	1.9835634999908507	MH		2	M	3		1.0
164	2475	9	Chest	Post-Q-Jitter		2022_Dec_02_1649	5.009766339790076	R		606.5765432999469		MH		2	M	3		
165	2475	43	Chest	2-back Instruction		2022_Dec_02_1649	5.004672379931435	R		611.6124972999096		MH		2	M	3		
166	2475	7	Chest	Pre-trial Jitter		2022_Dec_02_1649	9.001749640097842	R		616.6306952000596		MH		2	M	3		
167	2475	44.0	Chest	pretrialfixation		2022_Dec_02_1649	1.010971080046147	R		625.9011150998995		MH		2	M	3		
168	2475		Chest	2-back	1.0	2022_Dec_02_1649	1.989655240206048	R		626.9117812998593		MH	12.5	2	M	3	32.0	
169	2475		Chest	2-back	1.0	2022_Dec_02_1649	1.9873491402249783	R		628.9212908998597		MH	25.0	2	M	3	32.0	
170	2475		Chest	2-back	1.0	2022_Dec_02_1649	1.9883960401639342	R	0	630.9208092000335	0.6971289999783039	MH	37.5	2	M	3	32.0	
171	2475		Chest	2-back	1.0	2022_Dec_02_1649	1.98688184004277	R	2	632.921572299907	0.947025700006634	MH	50.0	2	M	3	32.0	
172	2475		Chest	2-back	1.0	2022_Dec_02_1649	1.9878915399312973	R	0	634.921105899848	0.5977008000481874	MH	62.5	2	M	3	32.0	
173	2475		Chest	2-back	1.0	2022_Dec_02_1649	1.9878196399658918	R	2	636.9211522999685	0.7515684999525547	MH	75.0	2	M	3	32.0	
174	2475		Chest	2-back	1.0	2022_Dec_02_1649	1.9876859402284026	R	2	638.9212317999918	0.8137439000420272	MH	87.5	2	M	3	32.0	
175	2475		Chest	2-back	1.0	2022_Dec_02_1649	1.9872774400282651	R	2	640.9214443999808	0.6637947999406606	MH	100.0	2	M	3	32.0	
176	2475	48.0	Chest	ScoreReport		2022_Dec_02_1649	5.00023454008624	R		642.931680599926		MH		2	M	3		
177	2475	8	Chest	Post-trial Jitter		2022_Dec_02_1649	6.998198359971866	R		647.991097799968		MH		2	M	3		
178	2475	43	Chest	2-back Instruction		2022_Dec_02_1649	5.007809580070898	R		655.0113442998845		MH		2	M	3		
179	2475	7	Chest	Pre-trial Jitter		2022_Dec_02_1649	7.001386840129271	R		660.0312703000382		MH		2	M	3		
180	2475	44.0	Chest	pretrialfixation		2022_Dec_02_1649	1.0151501803193241	R		667.2993902999442		MH		2	M	3		
181	2475		Chest	2-back	1.0	2022_Dec_02_1649	1.9912066399119794	R		668.3113764000591		MH	12.5	2	M	3	32.0	
182	2475		Chest	2-back	1.0	2022_Dec_02_1649	1.9870231398381293	R		670.3219175999984		MH	25.0	2	M	3	32.0	
183	2475		Chest	2-back	1.0	2022_Dec_02_1649	1.9875512400176376	R	2	672.3216229998507	0.6970258001238108	MH	37.5	2	M	3	32.0	
184	2475		Chest	2-back	1.0	2022_Dec_02_1649	1.986876139882952	R	2	674.3219875998329	0.7138308000285178	MH	50.0	2	M	3	32.0	
185	2475		Chest	2-back	1.0	2022_Dec_02_1649	1.9877890401985496	R	0	676.3215774998534	0.5304315001703799	MH	62.5	2	M	3	32.0	
186	2475		Chest	2-back	1.0	2022_Dec_02_1649	1.9878440401516855	R	0	678.3215564999264	0.8803669000044465	MH	75.0	2	M	3	32.0	
187	2475		Chest	2-back	1.0	2022_Dec_02_1649	1.9880367398727685	R	2	680.3214773000218	0.6969292000867426	MH	87.5	2	M	3	32.0	
188	2475		Chest	2-back	1.0	2022_Dec_02_1649	1.9878666400909424	R	2	682.3216062998399	0.7471252998802811	MH	100.0	2	M	3	32.0	
189	2475	48.0	Chest	ScoreReport		2022_Dec_02_1649	5.0011014400515705	R		684.3317181998864		MH		2	M	3		
190	2475	8	Chest	Post-trial Jitter		2022_Dec_02_1649	8.999929259996861	R		689.3906952999532		MH		2	M	3		
191	2475	26	Chest	ComfortRating		2022_Dec_02_1649	2.7167705197352916	R		698.4156938998494	2.6837659999728203	MH		2	M	3		-1.3580246913580254
192	2475	24	Chest	ValenceRating		2022_Dec_02_1649	2.584490380017087	R		701.1485251998529	2.566635299939662	MH		2	M	3		46.48148148148148
193	2475	26	Chest	IntensityRating		2022_Dec_02_1649	1.447432680055499	R		703.7587277998682	1.4167596001643687	MH		2	M	3		47.654320987654316
194	2475	27	Chest	AvoidanceRating		2022_Dec_02_1649	4.508467179955915	R		705.2282413998619	4.483338000020012	MH		2	M	3		6.296296296296305
195	2475	28	Chest	RelaxationRating		2022_Dec_02_1649	2.749348680023104	R		709.7578459000215	2.7337923001032323	MH		2	M	3		48.20987654320987
196	2475	29	Chest	AttentionRating		2022_Dec_02_1649	4.290626479778439	R		712.528901899932	4.266883600037545	MH		2	M	3		52.09876543209876
197	2475	30	Chest	BoredomRating		2022_Dec_02_1649	2.2798377799335867	R		716.8426536000334	2.2499847998842597	MH		2	M	3		52.716049382716044
198	2475	31	Chest	AlertnessRating		2022_Dec_02_1649	3.211514979833737	R		719.1435044999234	3.183337800204754	MH		2	M	3		-5.185185185185176
199	2475	32	Chest	PosThxRating		2022_Dec_02_1649	7.4878951797727495	R		722.3803894000594	7.466741400072351	MH		2	M	3		-2.716049382716051
200	2475	33	Chest	NegThxRating		2022_Dec_02_1649	4.194742779945955	R		729.8936904999427	4.166634900029749	MH		2	M	3		-8.76543209876543
201	2475	34	Chest	SelfRating		2022_Dec_02_1649	3.5758722799364477	R		734.1114864998963	3.5499609999824315	MH		2	M	3		-6.41975308641976
202	2475	35	Chest	OtherRating		2022_Dec_02_1649	2.2092235796153545	R		737.7114732998889	2.183231000090018	MH		2	M	3		-7.160493827160494
203	2475	32	Chest	ImageryRating		2022_Dec_02_1649	3.7250888801645488	R		739.9452345999889	3.6999909998849034	MH		2	M	3		-9.753086419753089
204	2475	37	Chest	PresentRating		2022_Dec_02_1649	3.023259579902515	R		743.6962216999382	2.9859362998977304	MH		2	M	3		15.18518518518519
