square,location,corrAns,trials.thisRepN,trials.thisTrialN,trials.thisN,trials.thisIndex,trials_2.thisRepN,trials_2.thisTrialN,trials_2.thisN,trials_2.thisIndex,fixation_1.started,fixation_1.stopped,grid_lines.started,grid_lines.stopped,target_square.started,target_square.stopped,fixation_2.started,fixation_2.stopped,response.corr,response.x,response.y,response.leftButton,response.click_left,response.click_right,response.started,response.stopped,ScoreReportText.started,ScoreReportText.stopped,ScoreReportResponse.keys,ScoreReportResponse.started,ScoreReportResponse.stopped,response.rt_left,response.rt_right,response_2.x,response_2.y,response_2.leftButton,grid_lines_2.started,grid_lines_2.stopped,target_square_2.started,target_square_2.stopped,fixation_3.started,fixation_3.stopped,response_2.click,response_2.corr,response_2.started,response_2.stopped,BodySiteInstructionText.started,BodySiteImg.started,BodySiteImg.stopped,BodySiteInstructionRead.keys,BodySiteInstructionRead.rt,BodySiteInstructionRead.started,BodySiteInstructionRead.stopped,response.click,IntensityRating.response,IntensityRating.rt,IntensityRating.started,IntensityRating.stopped,subject number,gender,distractMap first- or second-half (1 or 2),session,handedness,scanner,date,psychopyVersion,expName,frameRate,body_site_order,
6,"[0.2, 0]",None,0,0,0,0,,,,,160.86154830000305,None,161.89487989999907,None,161.89487989999907,162.89495010000246,162.89495010000246,None,0,-0.023148148148148147,0.125,"[0, 0, 0]",0,0,161.89487989999907,None,,,,,,,,,,,,,,,,,,,,,,,,,,,,,,,,,8,f,1,13,r,MS,2022_Jan_12_1354,2020.2.10,distractmap1,59.999160009729295,"['Abdomen', 'Right Arm', 'Left Leg', 'Right Leg']",
6,"[0.2, 0]",1,0,1,1,1,,,,,,,163.87811599999986,None,163.87811599999986,164.87821930000064,164.86156240000128,165.86153770000237,1,-0.023148148148148147,0.125,"[0, 0, 0]",0,0,163.87811599999986,None,,,,,,,,,,,,,,,,,,,,,,,,,,,,,,,,,8,f,1,13,r,MS,2022_Jan_12_1354,2020.2.10,distractmap1,59.999160009729295,"['Abdomen', 'Right Arm', 'Left Leg', 'Right Leg']",
2,"[0, 0.2]",0,0,2,2,2,,,,,,,165.87821590000385,None,165.87821590000385,166.87824560000445,166.8615409000049,167.86155660000077,0,-0.023148148148148147,0.125,"[0, 0, 0]",0,0,165.87821590000385,None,,,,,,,,,,,,,,,,,,,,,,,,,,,,,,,,,8,f,1,13,r,MS,2022_Jan_12_1354,2020.2.10,distractmap1,59.999160009729295,"['Abdomen', 'Right Arm', 'Left Leg', 'Right Leg']",
9,"[0.2, -0.2]",0,0,3,3,3,,,,,,,167.87823670000216,None,167.87823670000216,168.87824950000504,168.86157000000094,169.86157729999832,0,-0.023148148148148147,0.125,"[0, 0, 0]",0,0,167.87823670000216,None,,,,,,,,,,,,,,,,,,,,,,,,,,,,,,,,,8,f,1,13,r,MS,2022_Jan_12_1354,2020.2.10,distractmap1,59.999160009729295,"['Abdomen', 'Right Arm', 'Left Leg', 'Right Leg']",
9,"[0.2, -0.2]",1,0,4,4,4,,,,,,,169.87826399999904,None,169.87826399999904,170.894950599999,170.86156350000238,171.86158250000153,1,-0.023148148148148147,0.125,"[0, 0, 0]",0,0,169.87826399999904,None,,,,,,,,,,,,,,,,,,,,,,,,,,,,,,,,,8,f,1,13,r,MS,2022_Jan_12_1354,2020.2.10,distractmap1,59.999160009729295,"['Abdomen', 'Right Arm', 'Left Leg', 'Right Leg']",
6,"[0.2, 0]",0,0,5,5,5,,,,,,,171.8782760000031,None,171.8782760000031,172.87828140000056,172.86158930000238,173.86162160000094,1,-0.023148148148148147,0.125,"[0, 0, 0]",0,0,171.8782760000031,None,,,,,,,,,,,,,,,,,,,,,,,,,,,,,,,,,8,f,1,13,r,MS,2022_Jan_12_1354,2020.2.10,distractmap1,59.999160009729295,"['Abdomen', 'Right Arm', 'Left Leg', 'Right Leg']",
4,"[-0.2, 0]",0,0,6,6,6,,,,,,,173.87828040000022,None,173.87828040000022,174.87828319999971,174.86161189999984,175.86162370000238,0,-0.023148148148148147,0.125,"[0, 0, 0]",0,0,173.87828040000022,None,,,,,,,,,,,,,,,,,,,,,,,,,,,,,,,,,8,f,1,13,r,MS,2022_Jan_12_1354,2020.2.10,distractmap1,59.999160009729295,"['Abdomen', 'Right Arm', 'Left Leg', 'Right Leg']",
3,"[0.2, 0.2]",0,0,7,7,7,,,,,,,175.87828480000462,None,175.87828480000462,176.8782996000009,176.86162640000111,177.8616123000029,0,-0.023148148148148147,0.125,"[0, 0, 0]",0,0,175.87828480000462,None,,,,,,,,,,,,,,,,,,,,,,,,,,,,,,,,,8,f,1,13,r,MS,2022_Jan_12_1354,2020.2.10,distractmap1,59.999160009729295,"['Abdomen', 'Right Arm', 'Left Leg', 'Right Leg']",
3,"[0.2, 0.2]",1,0,8,8,8,,,,,,,177.8783115000042,None,177.8783115000042,178.87831120000192,178.8616175999996,179.86168510000425,0,-0.023148148148148147,0.125,"[0, 0, 0]",0,0,177.8783115000042,None,,,,,,,,,,,,,,,,,,,,,,,,,,,,,,,,,8,f,1,13,r,MS,2022_Jan_12_1354,2020.2.10,distractmap1,59.999160009729295,"['Abdomen', 'Right Arm', 'Left Leg', 'Right Leg']",
8,"[0, -0.2]",0,0,9,9,9,,,,,,,179.87831980000192,None,179.87831980000192,180.87833659999887,180.86166310000408,181.86168120000366,1,-0.023148148148148147,0.125,"[0, 0, 0]",0,0,179.87831980000192,None,,,,,,,,,,,,,,,,,,,,,,,,,,,,,,,,,8,f,1,13,r,MS,2022_Jan_12_1354,2020.2.10,distractmap1,59.999160009729295,"['Abdomen', 'Right Arm', 'Left Leg', 'Right Leg']",
1,"[-0.2, 0.2]",0,0,10,10,10,,,,,,,181.87823149999895,None,181.87823149999895,182.87834690000454,182.86168460000044,183.86167869999917,1,-0.023148148148148147,0.125,"[0, 0, 0]",0,0,181.87823149999895,None,,,,,,,,,,,,,,,,,,,,,,,,,,,,,,,,,8,f,1,13,r,MS,2022_Jan_12_1354,2020.2.10,distractmap1,59.999160009729295,"['Abdomen', 'Right Arm', 'Left Leg', 'Right Leg']",
2,"[0, 0.2]",0,0,11,11,11,,,,,,,183.8783426000009,None,183.8783426000009,184.8783384000053,184.86166760000197,185.86171200000535,1,-0.023148148148148147,0.125,"[0, 0, 0]",0,0,183.8783426000009,None,,,,,,,,,,,,,,,,,,,,,,,,,,,,,,,,,8,f,1,13,r,MS,2022_Jan_12_1354,2020.2.10,distractmap1,59.999160009729295,"['Abdomen', 'Right Arm', 'Left Leg', 'Right Leg']",
4,"[-0.2, 0]",0,0,12,12,12,,,,,,,185.87836349999998,None,185.87836349999998,186.87837740000396,186.86169040000095,187.86170120000315,1,-0.023148148148148147,0.125,"[0, 0, 0]",0,0,185.87836349999998,None,,,,,,,,,,,,,,,,,,,,,,,,,,,,,,,,,8,f,1,13,r,MS,2022_Jan_12_1354,2020.2.10,distractmap1,59.999160009729295,"['Abdomen', 'Right Arm', 'Left Leg', 'Right Leg']",
4,"[-0.2, 0]",1,0,13,13,13,,,,,,,187.8783728000053,None,187.8783728000053,188.8783812000038,188.86168230000476,189.86170480000146,1,-0.023148148148148147,0.125,"[0, 0, 0]",0,0,187.8783728000053,None,,,,,,,,,,,,,,,,,,,,,,,,,,,,,,,,,8,f,1,13,r,MS,2022_Jan_12_1354,2020.2.10,distractmap1,59.999160009729295,"['Abdomen', 'Right Arm', 'Left Leg', 'Right Leg']",
8,"[0, -0.2]",0,0,14,14,14,,,,,,,189.87840549999964,None,189.87840549999964,190.87843440000142,190.86173229999986,191.86172929999884,1,-0.023148148148148147,0.125,"[0, 0, 0]",0,0,189.87840549999964,None,,,,,,,,,,,,,,,,,,,,,,,,,,,,,,,,,8,f,1,13,r,MS,2022_Jan_12_1354,2020.2.10,distractmap1,59.999160009729295,"['Abdomen', 'Right Arm', 'Left Leg', 'Right Leg']",
5,"[0, 0]",0,0,15,15,15,,,,,,,191.87842580000142,None,191.87842580000142,192.8784228000004,192.86172900000383,193.86173530000087,1,-0.023148148148148147,0.125,"[0, 0, 0]",0,0,191.87842580000142,None,,,,,,,,,,,,,,,,,,,,,,,,,,,,,,,,,8,f,1,13,r,MS,2022_Jan_12_1354,2020.2.10,distractmap1,59.999160009729295,"['Abdomen', 'Right Arm', 'Left Leg', 'Right Leg']",
5,"[0, 0]",1,0,16,16,16,,,,,,,193.8784158999988,None,193.8784158999988,194.87841760000447,194.8617286000008,195.86174849999952,0,-0.023148148148148147,0.125,"[0, 0, 0]",0,0,193.8784158999988,None,,,,,,,,,,,,,,,,,,,,,,,,,,,,,,,,,8,f,1,13,r,MS,2022_Jan_12_1354,2020.2.10,distractmap1,59.999160009729295,"['Abdomen', 'Right Arm', 'Left Leg', 'Right Leg']",
1,"[-0.2, 0.2]",0,0,17,17,17,,,,,,,195.87840750000032,None,195.87840750000032,196.87842570000066,196.86167520000163,197.8617471000034,0,-0.023148148148148147,0.125,"[0, 0, 0]",0,0,195.87840750000032,None,,,,,,,,,,,,,,,,,,,,,,,,,,,,,,,,,8,f,1,13,r,MS,2022_Jan_12_1354,2020.2.10,distractmap1,59.999160009729295,"['Abdomen', 'Right Arm', 'Left Leg', 'Right Leg']",
3,"[0.2, 0.2]",0,0,18,18,18,,,,,,,197.878443900001,None,197.878443900001,198.87843490000523,198.86177560000215,199.86176759999944,0,-0.023148148148148147,0.125,"[0, 0, 0]",0,0,197.878443900001,None,,,,,,,,,,,,,,,,,,,,,,,,,,,,,,,,,8,f,1,13,r,MS,2022_Jan_12_1354,2020.2.10,distractmap1,59.999160009729295,"['Abdomen', 'Right Arm', 'Left Leg', 'Right Leg']",
6,"[0.2, 0]",0,0,19,19,19,,,,,,,199.8784633000032,None,199.8784633000032,200.87845430000016,200.86184019999928,201.86168020000332,1,-0.023148148148148147,0.125,"[0, 0, 0]",0,0,199.8784633000032,None,,,,,,,,,,,,,,,,,,,,,,,,,,,,,,,,,8,f,1,13,r,MS,2022_Jan_12_1354,2020.2.10,distractmap1,59.999160009729295,"['Abdomen', 'Right Arm', 'Left Leg', 'Right Leg']",
1,"[-0.2, 0.2]",0,0,20,20,20,,,,,,,201.87853140000516,None,201.87853140000516,202.87846290000016,202.8618140000035,203.86185430000478,0,-0.023148148148148147,0.125,"[0, 0, 0]",0,0,201.87853140000516,None,,,,,,,,,,,,,,,,,,,,,,,,,,,,,,,,,8,f,1,13,r,MS,2022_Jan_12_1354,2020.2.10,distractmap1,59.999160009729295,"['Abdomen', 'Right Arm', 'Left Leg', 'Right Leg']",
1,"[-0.2, 0.2]",1,0,21,21,21,,,,,,,203.8785362999988,None,203.8785362999988,204.8784799999994,204.86182140000165,205.86182890000055,1,-0.023148148148148147,0.125,"[0, 0, 0]",0,0,203.8785362999988,None,,,,,,,,,,,,,,,,,,,,,,,,,,,,,,,,,8,f,1,13,r,MS,2022_Jan_12_1354,2020.2.10,distractmap1,59.999160009729295,"['Abdomen', 'Right Arm', 'Left Leg', 'Right Leg']",
1,"[-0.2, 0.2]",1,0,22,22,22,,,,,,,205.8784702000048,None,205.8784702000048,206.87851729999966,206.86187000000064,207.86184810000123,1,-0.023148148148148147,0.125,"[0, 0, 0]",0,0,205.8784702000048,None,,,,,,,,,,,,,,,,,,,,,,,,,,,,,,,,,8,f,1,13,r,MS,2022_Jan_12_1354,2020.2.10,distractmap1,59.999160009729295,"['Abdomen', 'Right Arm', 'Left Leg', 'Right Leg']",
3,"[0.2, 0.2]",0,0,23,23,23,,,,,,,207.87848170000507,None,207.87848170000507,208.87852779999957,208.86184460000368,209.86185269999987,1,-0.023148148148148147,0.125,"[0, 0, 0]",0,0,207.87848170000507,None,,,,,,,,,,,,,,,,,,,,,,,,,,,,,,,,,8,f,1,13,r,MS,2022_Jan_12_1354,2020.2.10,distractmap1,59.999160009729295,"['Abdomen', 'Right Arm', 'Left Leg', 'Right Leg']",
2,"[0, 0.2]",0,0,24,24,24,,,,,,,209.87855259999924,None,209.87855259999924,210.89558530000068,210.86185030000343,211.8618690000003,1,-0.023148148148148147,0.125,"[0, 0, 0]",0,0,209.87855259999924,None,,,,,,,,,,,,,,,,,,,,,,,,,,,,,,,,,8,f,1,13,r,MS,2022_Jan_12_1354,2020.2.10,distractmap1,59.999160009729295,"['Abdomen', 'Right Arm', 'Left Leg', 'Right Leg']",
1,"[-0.2, 0.2]",0,0,25,25,25,,,,,,,211.87856360000296,None,211.87856360000296,212.87853900000482,212.86188070000208,213.8618717999998,0,-0.023148148148148147,0.125,"[0, 0, 0]",0,0,211.87856360000296,None,,,,,,,,,,,,,,,,,,,,,,,,,,,,,,,,,8,f,1,13,r,MS,2022_Jan_12_1354,2020.2.10,distractmap1,59.999160009729295,"['Abdomen', 'Right Arm', 'Left Leg', 'Right Leg']",
7,"[-0.2, -0.2]",0,0,26,26,26,,,,,,,213.8785216000033,None,213.8785216000033,214.87856200000533,214.8618964000052,215.86190239999996,1,-0.023148148148148147,0.125,"[0, 0, 0]",0,0,213.8785216000033,None,,,,,,,,,,,,,,,,,,,,,,,,,,,,,,,,,8,f,1,13,r,MS,2022_Jan_12_1354,2020.2.10,distractmap1,59.999160009729295,"['Abdomen', 'Right Arm', 'Left Leg', 'Right Leg']",
7,"[-0.2, -0.2]",1,0,27,27,27,,,,,,,215.8785599000039,None,215.8785599000039,216.87855200000195,216.86190820000047,217.86190640000132,1,-0.023148148148148147,0.125,"[0, 0, 0]",0,0,215.8785599000039,None,,,,,,,,,,,,,,,,,,,,,,,,,,,,,,,,,8,f,1,13,r,MS,2022_Jan_12_1354,2020.2.10,distractmap1,59.999160009729295,"['Abdomen', 'Right Arm', 'Left Leg', 'Right Leg']",
2,"[0, 0.2]",0,0,28,28,28,,,,,,,217.87855290000152,None,217.87855290000152,218.8785882000011,218.86193040000217,219.8619273000004,1,-0.023148148148148147,0.125,"[0, 0, 0]",0,0,217.87855290000152,None,,,,,,,,,,,,,,,,,,,,,,,,,,,,,,,,,8,f,1,13,r,MS,2022_Jan_12_1354,2020.2.10,distractmap1,59.999160009729295,"['Abdomen', 'Right Arm', 'Left Leg', 'Right Leg']",
6,"[0.2, 0]",0,0,29,29,29,,,,,,,219.878586800005,None,219.878586800005,220.8785801999984,220.86192519999895,221.86193450000428,1,-0.023148148148148147,0.125,"[0, 0, 0]",0,0,219.878586800005,None,,,,,,,,,,,,,,,,,,,,,,,,,,,,,,,,,8,f,1,13,r,MS,2022_Jan_12_1354,2020.2.10,distractmap1,59.999160009729295,"['Abdomen', 'Right Arm', 'Left Leg', 'Right Leg']",
,,,,,,,,,,,,,,,,,,,,,,,,,,,221.8952860999998,None,space,221.8952860999998,None,,,,,,,,,,,,,,,,,,,,,,,,,,,,8,f,1,13,r,MS,2022_Jan_12_1354,2020.2.10,distractmap1,59.999160009729295,"['Abdomen', 'Right Arm', 'Left Leg', 'Right Leg']",
6,"[0.2, 0]",None,0,0,0,0,,,,,253.1121490000005,None,254.12889350000478,None,254.12889350000478,255.12884750000376,255.11215880000236,256.11217600000236,0,-0.023148148148148147,0.125,"[0, 0, 0]",0,0,254.12889350000478,None,,,,,,,,,,,,,,,,,,,,,,,,,,,,,,,,,8,f,1,13,r,MS,2022_Jan_12_1354,2020.2.10,distractmap1,59.999160009729295,"['Abdomen', 'Right Arm', 'Left Leg', 'Right Leg']",
6,"[0.2, 0]",1,0,1,1,1,,,,,,,256.1288601000051,None,256.1288601000051,257.1288477000053,257.1121800000037,258.1121840000051,1,-0.023148148148148147,0.125,"[0, 0, 0]",0,0,256.1288601000051,None,,,,,,,,,,,,,,,,,,,,,,,,,,,,,,,,,8,f,1,13,r,MS,2022_Jan_12_1354,2020.2.10,distractmap1,59.999160009729295,"['Abdomen', 'Right Arm', 'Left Leg', 'Right Leg']",
2,"[0, 0.2]",0,0,2,2,2,,,,,,,258.12885950000054,None,258.12885950000054,259.1288604000001,259.11218940000253,260.1122123000023,1,-0.023148148148148147,0.125,"[0, 0, 0]",0,0,258.12885950000054,None,,,,,,,,,,,,,,,,,,,,,,,,,,,,,,,,,8,f,1,13,r,MS,2022_Jan_12_1354,2020.2.10,distractmap1,59.999160009729295,"['Abdomen', 'Right Arm', 'Left Leg', 'Right Leg']",
9,"[0.2, -0.2]",0,0,3,3,3,,,,,,,260.12886699999945,None,260.12886699999945,261.1288730000015,261.11221430000296,262.1122174999982,1,-0.023148148148148147,0.125,"[0, 0, 0]",0,0,260.12886699999945,None,,,,,,,,,,,,,,,,,,,,,,,,,,,,,,,,,8,f,1,13,r,MS,2022_Jan_12_1354,2020.2.10,distractmap1,59.999160009729295,"['Abdomen', 'Right Arm', 'Left Leg', 'Right Leg']",
9,"[0.2, -0.2]",1,0,4,4,4,,,,,,,262.1288730000015,None,262.1288730000015,263.1288857000036,263.1122331000006,264.1122325000033,1,-0.023148148148148147,0.125,"[0, 0, 0]",0,0,262.1288730000015,None,,,,,,,,,,,,,,,,,,,,,,,,,,,,,,,,,8,f,1,13,r,MS,2022_Jan_12_1354,2020.2.10,distractmap1,59.999160009729295,"['Abdomen', 'Right Arm', 'Left Leg', 'Right Leg']",
6,"[0.2, 0]",0,0,5,5,5,,,,,,,264.12890699999843,None,264.12890699999843,265.12890809999953,265.1122316000037,266.1122644999996,1,-0.023148148148148147,0.125,"[0, 0, 0]",0,0,264.12890699999843,None,,,,,,,,,,,,,,,,,,,,,,,,,,,,,,,,,8,f,1,13,r,MS,2022_Jan_12_1354,2020.2.10,distractmap1,59.999160009729295,"['Abdomen', 'Right Arm', 'Left Leg', 'Right Leg']",
4,"[-0.2, 0]",0,0,6,6,6,,,,,,,266.12890889999835,None,266.12890889999835,267.12891740000487,267.11225019999983,268.11225570000533,0,-0.023148148148148147,0.125,"[0, 0, 0]",0,0,266.12890889999835,None,,,,,,,,,,,,,,,,,,,,,,,,,,,,,,,,,8,f,1,13,r,MS,2022_Jan_12_1354,2020.2.10,distractmap1,59.999160009729295,"['Abdomen', 'Right Arm', 'Left Leg', 'Right Leg']",
3,"[0.2, 0.2]",0,0,7,7,7,,,,,,,268.1289168000003,None,268.1289168000003,269.1289605999991,269.1122744000022,270.1122475000011,1,-0.023148148148148147,0.125,"[0, 0, 0]",0,0,268.1289168000003,None,,,,,,,,,,,,,,,,,,,,,,,,,,,,,,,,,8,f,1,13,r,MS,2022_Jan_12_1354,2020.2.10,distractmap1,59.999160009729295,"['Abdomen', 'Right Arm', 'Left Leg', 'Right Leg']",
3,"[0.2, 0.2]",1,0,8,8,8,,,,,,,270.1289405999996,None,270.1289405999996,271.1289273000002,271.1122766000044,272.1122899000038,1,-0.023148148148148147,0.125,"[0, 0, 0]",0,0,270.1289405999996,None,,,,,,,,,,,,,,,,,,,,,,,,,,,,,,,,,8,f,1,13,r,MS,2022_Jan_12_1354,2020.2.10,distractmap1,59.999160009729295,"['Abdomen', 'Right Arm', 'Left Leg', 'Right Leg']",
8,"[0, -0.2]",0,0,9,9,9,,,,,,,272.12895520000166,None,272.12895520000166,273.1289573000031,273.11218380000355,274.1122964000024,1,-0.023148148148148147,0.125,"[0, 0, 0]",0,0,272.12895520000166,None,,,,,,,,,,,,,,,,,,,,,,,,,,,,,,,,,8,f,1,13,r,MS,2022_Jan_12_1354,2020.2.10,distractmap1,59.999160009729295,"['Abdomen', 'Right Arm', 'Left Leg', 'Right Leg']",
1,"[-0.2, 0.2]",0,0,10,10,10,,,,,,,274.12897019999946,None,274.12897019999946,275.1289689000041,275.11230620000424,276.11231170000246,1,-0.023148148148148147,0.125,"[0, 0, 0]",0,0,274.12897019999946,None,,,,,,,,,,,,,,,,,,,,,,,,,,,,,,,,,8,f,1,13,r,MS,2022_Jan_12_1354,2020.2.10,distractmap1,59.999160009729295,"['Abdomen', 'Right Arm', 'Left Leg', 'Right Leg']",
2,"[0, 0.2]",0,0,11,11,11,,,,,,,276.1289851000038,None,276.1289851000038,277.12899350000225,277.1123191000006,278.112326100003,1,-0.023148148148148147,0.125,"[0, 0, 0]",0,0,276.1289851000038,None,,,,,,,,,,,,,,,,,,,,,,,,,,,,,,,,,8,f,1,13,r,MS,2022_Jan_12_1354,2020.2.10,distractmap1,59.999160009729295,"['Abdomen', 'Right Arm', 'Left Leg', 'Right Leg']",
4,"[-0.2, 0]",0,0,12,12,12,,,,,,,278.12897820000217,None,278.12897820000217,279.12900630000513,279.1123301000043,280.1123336000019,1,-0.023148148148148147,0.125,"[0, 0, 0]",0,0,278.12897820000217,None,,,,,,,,,,,,,,,,,,,,,,,,,,,,,,,,,8,f,1,13,r,MS,2022_Jan_12_1354,2020.2.10,distractmap1,59.999160009729295,"['Abdomen', 'Right Arm', 'Left Leg', 'Right Leg']",
4,"[-0.2, 0]",1,0,13,13,13,,,,,,,280.12902490000124,None,280.12902490000124,281.1290149999986,281.11235590000433,282.11235560000205,1,-0.023148148148148147,0.125,"[0, 0, 0]",0,0,280.12902490000124,None,,,,,,,,,,,,,,,,,,,,,,,,,,,,,,,,,8,f,1,13,r,MS,2022_Jan_12_1354,2020.2.10,distractmap1,59.999160009729295,"['Abdomen', 'Right Arm', 'Left Leg', 'Right Leg']",
8,"[0, -0.2]",0,0,14,14,14,,,,,,,282.1290313999998,None,282.1290313999998,283.1290230000013,283.11235260000103,284.1123732999986,1,-0.023148148148148147,0.125,"[0, 0, 0]",0,0,282.1290313999998,None,,,,,,,,,,,,,,,,,,,,,,,,,,,,,,,,,8,f,1,13,r,MS,2022_Jan_12_1354,2020.2.10,distractmap1,59.999160009729295,"['Abdomen', 'Right Arm', 'Left Leg', 'Right Leg']",
5,"[0, 0]",0,0,15,15,15,,,,,,,284.1289135000043,None,284.1289135000043,285.1290544000003,285.11237310000433,286.11241020000307,0,-0.023148148148148147,0.125,"[0, 0, 0]",0,0,284.1289135000043,None,,,,,,,,,,,,,,,,,,,,,,,,,,,,,,,,,8,f,1,13,r,MS,2022_Jan_12_1354,2020.2.10,distractmap1,59.999160009729295,"['Abdomen', 'Right Arm', 'Left Leg', 'Right Leg']",
5,"[0, 0]",1,0,16,16,16,,,,,,,286.12904459999845,None,286.12904459999845,287.1290592000005,287.11242330000096,288.1123999000047,1,-0.023148148148148147,0.125,"[0, 0, 0]",0,0,286.12904459999845,None,,,,,,,,,,,,,,,,,,,,,,,,,,,,,,,,,8,f,1,13,r,MS,2022_Jan_12_1354,2020.2.10,distractmap1,59.999160009729295,"['Abdomen', 'Right Arm', 'Left Leg', 'Right Leg']",
1,"[-0.2, 0.2]",0,0,17,17,17,,,,,,,288.1290697000004,None,288.1290697000004,289.12906120000116,289.11240030000044,290.11242050000146,1,-0.023148148148148147,0.125,"[0, 0, 0]",0,0,288.1290697000004,None,,,,,,,,,,,,,,,,,,,,,,,,,,,,,,,,,8,f,1,13,r,MS,2022_Jan_12_1354,2020.2.10,distractmap1,59.999160009729295,"['Abdomen', 'Right Arm', 'Left Leg', 'Right Leg']",
3,"[0.2, 0.2]",0,0,18,18,18,,,,,,,290.12907370000175,None,290.12907370000175,291.12909370000125,291.11239860000205,292.11244490000536,1,-0.023148148148148147,0.125,"[0, 0, 0]",0,0,290.12907370000175,None,,,,,,,,,,,,,,,,,,,,,,,,,,,,,,,,,8,f,1,13,r,MS,2022_Jan_12_1354,2020.2.10,distractmap1,59.999160009729295,"['Abdomen', 'Right Arm', 'Left Leg', 'Right Leg']",
6,"[0.2, 0]",0,0,19,19,19,,,,,,,292.1290958000027,None,292.1290958000027,293.1291220999992,293.11247269999876,294.11241580000205,1,-0.023148148148148147,0.125,"[0, 0, 0]",0,0,292.1290958000027,None,,,,,,,,,,,,,,,,,,,,,,,,,,,,,,,,,8,f,1,13,r,MS,2022_Jan_12_1354,2020.2.10,distractmap1,59.999160009729295,"['Abdomen', 'Right Arm', 'Left Leg', 'Right Leg']",
1,"[-0.2, 0.2]",0,0,20,20,20,,,,,,,294.12911870000244,None,294.12911870000244,295.1291194000005,295.11232060000475,296.11246329999994,1,-0.023148148148148147,0.125,"[0, 0, 0]",0,0,294.12911870000244,None,,,,,,,,,,,,,,,,,,,,,,,,,,,,,,,,,8,f,1,13,r,MS,2022_Jan_12_1354,2020.2.10,distractmap1,59.999160009729295,"['Abdomen', 'Right Arm', 'Left Leg', 'Right Leg']",
1,"[-0.2, 0.2]",1,0,21,21,21,,,,,,,296.1291182999994,None,296.1291182999994,297.1291392999992,297.1124559000018,298.1124670999998,1,-0.023148148148148147,0.125,"[0, 0, 0]",0,0,296.1291182999994,None,,,,,,,,,,,,,,,,,,,,,,,,,,,,,,,,,8,f,1,13,r,MS,2022_Jan_12_1354,2020.2.10,distractmap1,59.999160009729295,"['Abdomen', 'Right Arm', 'Left Leg', 'Right Leg']",
1,"[-0.2, 0.2]",1,0,22,22,22,,,,,,,298.12914170000295,None,298.12914170000295,299.12913860000117,299.11246160000155,300.112492500004,1,-0.023148148148148147,0.125,"[0, 0, 0]",0,0,298.12914170000295,None,,,,,,,,,,,,,,,,,,,,,,,,,,,,,,,,,8,f,1,13,r,MS,2022_Jan_12_1354,2020.2.10,distractmap1,59.999160009729295,"['Abdomen', 'Right Arm', 'Left Leg', 'Right Leg']",
3,"[0.2, 0.2]",0,0,23,23,23,,,,,,,300.12915780000185,None,300.12915780000185,301.1291524000044,301.11248049999995,302.11253600000055,1,-0.023148148148148147,0.125,"[0, 0, 0]",0,0,300.12915780000185,None,,,,,,,,,,,,,,,,,,,,,,,,,,,,,,,,,8,f,1,13,r,MS,2022_Jan_12_1354,2020.2.10,distractmap1,59.999160009729295,"['Abdomen', 'Right Arm', 'Left Leg', 'Right Leg']",
2,"[0, 0.2]",0,0,24,24,24,,,,,,,302.12905930000124,None,302.12905930000124,303.12917670000024,303.11241829999926,304.11253260000376,1,-0.023148148148148147,0.125,"[0, 0, 0]",0,0,302.12905930000124,None,,,,,,,,,,,,,,,,,,,,,,,,,,,,,,,,,8,f,1,13,r,MS,2022_Jan_12_1354,2020.2.10,distractmap1,59.999160009729295,"['Abdomen', 'Right Arm', 'Left Leg', 'Right Leg']",
1,"[-0.2, 0.2]",0,0,25,25,25,,,,,,,304.1291773000048,None,304.1291773000048,305.1291917999988,305.1125472999993,306.1125385999985,1,-0.023148148148148147,0.125,"[0, 0, 0]",0,0,304.1291773000048,None,,,,,,,,,,,,,,,,,,,,,,,,,,,,,,,,,8,f,1,13,r,MS,2022_Jan_12_1354,2020.2.10,distractmap1,59.999160009729295,"['Abdomen', 'Right Arm', 'Left Leg', 'Right Leg']",
7,"[-0.2, -0.2]",0,0,26,26,26,,,,,,,306.12918720000016,None,306.12918720000016,307.12918029999855,307.1125547000047,308.1125572000019,1,-0.023148148148148147,0.125,"[0, 0, 0]",0,0,306.12918720000016,None,,,,,,,,,,,,,,,,,,,,,,,,,,,,,,,,,8,f,1,13,r,MS,2022_Jan_12_1354,2020.2.10,distractmap1,59.999160009729295,"['Abdomen', 'Right Arm', 'Left Leg', 'Right Leg']",
7,"[-0.2, -0.2]",1,0,27,27,27,,,,,,,308.1292076000027,None,308.1292076000027,309.12921080000524,309.1124101000023,310.1125738000046,0,-0.023148148148148147,0.125,"[0, 0, 0]",0,0,308.1292076000027,None,,,,,,,,,,,,,,,,,,,,,,,,,,,,,,,,,8,f,1,13,r,MS,2022_Jan_12_1354,2020.2.10,distractmap1,59.999160009729295,"['Abdomen', 'Right Arm', 'Left Leg', 'Right Leg']",
2,"[0, 0.2]",0,0,28,28,28,,,,,,,310.12922550000076,None,310.12922550000076,311.1292262999996,311.11255900000106,312.11253370000486,0,-0.023148148148148147,0.125,"[0, 0, 0]",0,0,310.12922550000076,None,,,,,,,,,,,,,,,,,,,,,,,,,,,,,,,,,8,f,1,13,r,MS,2022_Jan_12_1354,2020.2.10,distractmap1,59.999160009729295,"['Abdomen', 'Right Arm', 'Left Leg', 'Right Leg']",
6,"[0.2, 0]",0,0,29,29,29,,,,,,,312.12921410000126,None,312.12921410000126,313.12924249999924,313.11254120000376,314.1125477000023,1,-0.023148148148148147,0.125,"[0, 0, 1]",0,1,312.12921410000126,None,,,,,,0.0,1.851308599994809,,,,,,,,,,,,,,,,,,,,,,,,,,8,f,1,13,r,MS,2022_Jan_12_1354,2020.2.10,distractmap1,59.999160009729295,"['Abdomen', 'Right Arm', 'Left Leg', 'Right Leg']",
,,,,,,,,,,,,,,,,,,,,,,,,,,,314.1459219000026,None,space,314.1459219000026,None,,,,,,,,,,,,,,,,,,,,,,,,,,,,8,f,1,13,r,MS,2022_Jan_12_1354,2020.2.10,distractmap1,59.999160009729295,"['Abdomen', 'Right Arm', 'Left Leg', 'Right Leg']",
6,"[0.2, 0]",None,,,,,0,0,0,0,378.2630180000051,None,,,,,,,,,,,,,,,,,,,,,,None,None,"[0, 0, 0]",379.2796023000046,None,379.2796023000046,380.2796820000003,380.2630315999995,381.2630607000028,"[0, 0, 0]",1,379.2796023000046,None,,,,,,,,,,,,,8,f,1,13,r,MS,2022_Jan_12_1354,2020.2.10,distractmap1,59.999160009729295,"['Abdomen', 'Right Arm', 'Left Leg', 'Right Leg']",
7,"[-0.2, -0.2]",None,,,,,0,1,1,1,,,,,,,,,,,,,,,,,,,,,,,,None,None,"[0, 0, 0]",381.27969770000345,383.2797172999999,381.27969770000345,382.2797195000021,382.263042700004,383.26305590000266,"[0, 0, 0]",0,381.27969770000345,383.2797172999999,,,,,,,,,,,,,8,f,1,13,r,MS,2022_Jan_12_1354,2020.2.10,distractmap1,59.999160009729295,"['Abdomen', 'Right Arm', 'Left Leg', 'Right Leg']",
6,"[0.2, 0]",1,,,,,0,2,2,2,,,,,,,,,,,,,,,,,,,,,,,,None,None,"[0, 0, 0]",383.2964049000002,385.2964095999996,383.2964049000002,384.2964051000017,384.27973130000464,385.2797217000043,"[0, 0, 0]",1,383.2964049000002,385.2964095999996,,,,,,,,,,,,,8,f,1,13,r,MS,2022_Jan_12_1354,2020.2.10,distractmap1,59.999160009729295,"['Abdomen', 'Right Arm', 'Left Leg', 'Right Leg']",
2,"[0, 0.2]",0,,,,,0,3,3,3,,,,,,,,,,,,,,,,,,,,,,,,None,None,"[0, 0, 0]",385.3131202000004,387.3130807999987,385.3131202000004,386.31308179999905,386.2964260000008,387.2964223000017,"[0, 0, 0]",1,385.3131202000004,387.3130807999987,,,,,,,,,,,,,8,f,1,13,r,MS,2022_Jan_12_1354,2020.2.10,distractmap1,59.999160009729295,"['Abdomen', 'Right Arm', 'Left Leg', 'Right Leg']",
5,"[0, 0]",0,,,,,0,4,4,4,,,,,,,,,,,,,,,,,,,,,,,,None,None,"[0, 0, 0]",387.32972639999934,389.3297695000001,387.32972639999934,388.3297470000034,388.3130977000037,389.3130963000003,"[0, 0, 0]",1,387.32972639999934,389.3297695000001,,,,,,,,,,,,,8,f,1,13,r,MS,2022_Jan_12_1354,2020.2.10,distractmap1,59.999160009729295,"['Abdomen', 'Right Arm', 'Left Leg', 'Right Leg']",
4,"[-0.2, 0]",0,,,,,0,5,5,5,,,,,,,,,,,,,,,,,,,,,,,,None,None,"[0, 0, 0]",389.3464634000047,391.34645920000185,389.3464634000047,390.34644560000015,390.3297507000025,391.32980900000257,"[0, 0, 0]",1,389.3464634000047,391.34645920000185,,,,,,,,,,,,,8,f,1,13,r,MS,2022_Jan_12_1354,2020.2.10,distractmap1,59.999160009729295,"['Abdomen', 'Right Arm', 'Left Leg', 'Right Leg']",
4,"[-0.2, 0]",0,,,,,0,6,6,6,,,,,,,,,,,,,,,,,,,,,,,,None,None,"[0, 0, 0]",391.3631255,393.36311959999875,391.3631255,392.3631272999992,392.3631272999992,393.36311959999875,"[0, 0, 0]",1,391.3631255,393.36311959999875,,,,,,,,,,,,,8,f,1,13,r,MS,2022_Jan_12_1354,2020.2.10,distractmap1,59.999160009729295,"['Abdomen', 'Right Arm', 'Left Leg', 'Right Leg']",
7,"[-0.2, -0.2]",0,,,,,0,7,7,7,,,,,,,,,,,,,,,,,,,,,,,,None,None,"[0, 0, 0]",393.3798001000032,395.37983550000354,393.3798001000032,394.37981270000455,394.3631489000036,395.3631471000044,"[0, 0, 0]",1,393.3798001000032,395.37983550000354,,,,,,,,,,,,,8,f,1,13,r,MS,2022_Jan_12_1354,2020.2.10,distractmap1,59.999160009729295,"['Abdomen', 'Right Arm', 'Left Leg', 'Right Leg']",
4,"[-0.2, 0]",1,,,,,0,8,8,8,,,,,,,,,,,,,,,,,,,,,,,,None,None,"[0, 0, 0]",395.39649009999994,397.3964874000012,395.39649009999994,396.39649700000155,396.3798270000043,397.3798486000014,"[0, 0, 0]",0,395.39649009999994,397.3964874000012,,,,,,,,,,,,,8,f,1,13,r,MS,2022_Jan_12_1354,2020.2.10,distractmap1,59.999160009729295,"['Abdomen', 'Right Arm', 'Left Leg', 'Right Leg']",
3,"[0.2, 0.2]",0,,,,,0,9,9,9,,,,,,,,,,,,,,,,,,,,,,,,None,None,"[0, 0, 0]",397.4131483000019,399.4131733000031,397.4131483000019,398.4131781000033,398.3965204999986,399.3965354000029,"[0, 0, 0]",1,397.4131483000019,399.4131733000031,,,,,,,,,,,,,8,f,1,13,r,MS,2022_Jan_12_1354,2020.2.10,distractmap1,59.999160009729295,"['Abdomen', 'Right Arm', 'Left Leg', 'Right Leg']",
5,"[0, 0]",0,,,,,0,10,10,10,,,,,,,,,,,,,,,,,,,,,,,,None,None,"[0, 0, 0]",399.4297785000017,401.429853200003,399.4297785000017,400.4298514000038,400.41317269999854,401.4131978000005,"[0, 0, 0]",1,399.4297785000017,401.429853200003,,,,,,,,,,,,,8,f,1,13,r,MS,2022_Jan_12_1354,2020.2.10,distractmap1,59.999160009729295,"['Abdomen', 'Right Arm', 'Left Leg', 'Right Leg']",
3,"[0.2, 0.2]",1,,,,,0,11,11,11,,,,,,,,,,,,,,,,,,,,,,,,None,None,"[0, 0, 0]",401.4465366000004,403.44653760000074,401.4465366000004,402.44653780000226,402.42986309999833,403.42986470000324,"[0, 0, 0]",1,401.4465366000004,403.44653760000074,,,,,,,,,,,,,8,f,1,13,r,MS,2022_Jan_12_1354,2020.2.10,distractmap1,59.999160009729295,"['Abdomen', 'Right Arm', 'Left Leg', 'Right Leg']",
1,"[-0.2, 0.2]",0,,,,,0,12,12,12,,,,,,,,,,,,,,,,,,,,,,,,None,None,"[0, 0, 0]",403.46320099999866,405.4632238999984,403.46320099999866,404.4632292000024,404.4464325000008,405.44656699999905,"[0, 0, 0]",1,403.46320099999866,405.4632238999984,,,,,,,,,,,,,8,f,1,13,r,MS,2022_Jan_12_1354,2020.2.10,distractmap1,59.999160009729295,"['Abdomen', 'Right Arm', 'Left Leg', 'Right Leg']",
9,"[0.2, -0.2]",0,,,,,0,13,13,13,,,,,,,,,,,,,,,,,,,,,,,,None,None,"[0, 0, 0]",405.47988469999837,407.47988160000386,405.47988469999837,406.479886000001,406.4632042000012,407.46321870000247,"[0, 0, 0]",1,405.47988469999837,407.47988160000386,,,,,,,,,,,,,8,f,1,13,r,MS,2022_Jan_12_1354,2020.2.10,distractmap1,59.999160009729295,"['Abdomen', 'Right Arm', 'Left Leg', 'Right Leg']",
9,"[0.2, -0.2]",0,,,,,0,14,14,14,,,,,,,,,,,,,,,,,,,,,,,,None,None,"[0, 0, 0]",407.4965467000002,409.49657070000103,407.4965467000002,408.49655780000467,408.47990520000167,409.47992109999905,"[0, 0, 0]",1,407.4965467000002,409.49657070000103,,,,,,,,,,,,,8,f,1,13,r,MS,2022_Jan_12_1354,2020.2.10,distractmap1,59.999160009729295,"['Abdomen', 'Right Arm', 'Left Leg', 'Right Leg']",
8,"[0, -0.2]",0,,,,,0,15,15,15,,,,,,,,,,,,,,,,,,,,,,,,None,None,"[0, 0, 0]",409.5132506000009,411.5132515000005,409.5132506000009,410.5132558000041,410.49658640000416,411.4965874000045,"[0, 0, 0]",1,409.5132506000009,411.5132515000005,,,,,,,,,,,,,8,f,1,13,r,MS,2022_Jan_12_1354,2020.2.10,distractmap1,59.999160009729295,"['Abdomen', 'Right Arm', 'Left Leg', 'Right Leg']",
6,"[0.2, 0]",0,,,,,0,16,16,16,,,,,,,,,,,,,,,,,,,,,,,,None,None,"[0, 0, 0]",411.5299318000034,413.52993300000526,411.5299318000034,412.52992310000263,412.5132601000005,413.5132674999986,"[0, 0, 0]",1,411.5299318000034,413.52993300000526,,,,,,,,,,,,,8,f,1,13,r,MS,2022_Jan_12_1354,2020.2.10,distractmap1,59.999160009729295,"['Abdomen', 'Right Arm', 'Left Leg', 'Right Leg']",
3,"[0.2, 0.2]",0,,,,,0,17,17,17,,,,,,,,,,,,,,,,,,,,,,,,None,None,"[0, 0, 0]",413.5465678000037,415.54662510000344,413.5465678000037,414.54663209999853,414.5299424000041,415.52994780000154,"[0, 0, 0]",1,413.5465678000037,415.54662510000344,,,,,,,,,,,,,8,f,1,13,r,MS,2022_Jan_12_1354,2020.2.10,distractmap1,59.999160009729295,"['Abdomen', 'Right Arm', 'Left Leg', 'Right Leg']",
6,"[0.2, 0]",1,,,,,0,18,18,18,,,,,,,,,,,,,,,,,,,,,,,,None,None,"[0, 0, 0]",415.5632800000021,417.56329540000297,415.5632800000021,416.56330430000526,416.54659620000166,417.5466299000036,"[0, 0, 0]",1,415.5632800000021,417.56329540000297,,,,,,,,,,,,,8,f,1,13,r,MS,2022_Jan_12_1354,2020.2.10,distractmap1,59.999160009729295,"['Abdomen', 'Right Arm', 'Left Leg', 'Right Leg']",
5,"[0, 0]",0,,,,,0,19,19,19,,,,,,,,,,,,,,,,,,,,,,,,None,None,"[0, 0, 0]",417.5799642999991,419.57997700000124,417.5799642999991,418.57998970000335,418.56330660000094,419.56330719999823,"[0, 0, 0]",1,417.5799642999991,419.57997700000124,,,,,,,,,,,,,8,f,1,13,r,MS,2022_Jan_12_1354,2020.2.10,distractmap1,59.999160009729295,"['Abdomen', 'Right Arm', 'Left Leg', 'Right Leg']",
7,"[-0.2, -0.2]",0,,,,,0,20,20,20,,,,,,,,,,,,,,,,,,,,,,,,None,None,"[0, 0, 0]",419.5966428000029,421.59665870000026,419.5966428000029,420.59662010000466,420.5799846000009,421.57999750000454,"[0, 0, 0]",1,419.5966428000029,421.59665870000026,,,,,,,,,,,,,8,f,1,13,r,MS,2022_Jan_12_1354,2020.2.10,distractmap1,59.999160009729295,"['Abdomen', 'Right Arm', 'Left Leg', 'Right Leg']",
5,"[0, 0]",1,,,,,0,21,21,21,,,,,,,,,,,,,,,,,,,,,,,,None,None,"[0, 0, 0]",421.6133241999996,423.6133387000009,421.6133241999996,422.6133353000041,422.5966750000007,423.5966619000028,"[0, 0, 0]",1,421.6133241999996,423.6133387000009,,,,,,,,,,,,,8,f,1,13,r,MS,2022_Jan_12_1354,2020.2.10,distractmap1,59.999160009729295,"['Abdomen', 'Right Arm', 'Left Leg', 'Right Leg']",
1,"[-0.2, 0.2]",0,,,,,0,22,22,22,,,,,,,,,,,,,,,,,,,,,,,,None,None,"[0, 0, 0]",423.6300061000002,425.63002390000474,423.6300061000002,424.6300115999984,424.6133437000026,425.6133611000041,"[0, 0, 0]",1,423.6300061000002,425.63002390000474,,,,,,,,,,,,,8,f,1,13,r,MS,2022_Jan_12_1354,2020.2.10,distractmap1,59.999160009729295,"['Abdomen', 'Right Arm', 'Left Leg', 'Right Leg']",
7,"[-0.2, -0.2]",0,,,,,0,23,23,23,,,,,,,,,,,,,,,,,,,,,,,,None,None,"[0, 0, 0]",425.6466645000037,427.6466834000021,425.6466645000037,426.64667929999996,426.63003720000415,427.63004970000475,"[0, 0, 0]",1,425.6466645000037,427.6466834000021,,,,,,,,,,,,,8,f,1,13,r,MS,2022_Jan_12_1354,2020.2.10,distractmap1,59.999160009729295,"['Abdomen', 'Right Arm', 'Left Leg', 'Right Leg']",
9,"[0.2, -0.2]",0,,,,,0,24,24,24,,,,,,,,,,,,,,,,,,,,,,,,None,None,"[0, 0, 0]",427.6633798000039,429.6634036000032,427.6633798000039,428.6633770000044,428.6467058999988,429.64671960000123,"[0, 0, 0]",1,427.6633798000039,429.6634036000032,,,,,,,,,,,,,8,f,1,13,r,MS,2022_Jan_12_1354,2020.2.10,distractmap1,59.999160009729295,"['Abdomen', 'Right Arm', 'Left Leg', 'Right Leg']",
3,"[0.2, 0.2]",0,,,,,0,25,25,25,,,,,,,,,,,,,,,,,,,,,,,,None,None,"[0, 0, 0]",429.6800569000043,431.6800757000019,429.6800569000043,430.6800507000007,430.66339020000305,431.66341710000415,"[0, 0, 0]",1,429.6800569000043,431.6800757000019,,,,,,,,,,,,,8,f,1,13,r,MS,2022_Jan_12_1354,2020.2.10,distractmap1,59.999160009729295,"['Abdomen', 'Right Arm', 'Left Leg', 'Right Leg']",
9,"[0.2, -0.2]",1,,,,,0,26,26,26,,,,,,,,,,,,,,,,,,,,,,,,None,None,"[0, 0, 0]",431.6967250000016,433.69675460000144,431.6967250000016,432.6967452000026,432.68007999999827,433.6800771000053,"[0, 0, 0]",1,431.6967250000016,433.69675460000144,,,,,,,,,,,,,8,f,1,13,r,MS,2022_Jan_12_1354,2020.2.10,distractmap1,59.999160009729295,"['Abdomen', 'Right Arm', 'Left Leg', 'Right Leg']",
6,"[0.2, 0]",0,,,,,0,27,27,27,,,,,,,,,,,,,,,,,,,,,,,,None,None,"[0, 0, 0]",433.713433500001,435.7134210000004,433.713433500001,434.7134389999992,434.6967573000002,435.6967678000001,"[0, 0, 0]",1,433.713433500001,435.7134210000004,,,,,,,,,,,,,8,f,1,13,r,MS,2022_Jan_12_1354,2020.2.10,distractmap1,59.999160009729295,"['Abdomen', 'Right Arm', 'Left Leg', 'Right Leg']",
2,"[0, 0.2]",0,,,,,0,28,28,28,,,,,,,,,,,,,,,,,,,,,,,,None,None,"[0, 0, 0]",435.7300890000042,437.73010259999865,435.7300890000042,436.73011200000474,436.7134284999993,437.7134367000035,"[0, 0, 0]",1,435.7300890000042,437.73010259999865,,,,,,,,,,,,,8,f,1,13,r,MS,2022_Jan_12_1354,2020.2.10,distractmap1,59.999160009729295,"['Abdomen', 'Right Arm', 'Left Leg', 'Right Leg']",
5,"[0, 0]",0,,,,,0,29,29,29,,,,,,,,,,,,,,,,,,,,,,,,None,None,"[0, 0, 0]",437.7468222000025,439.7467828000008,437.7468222000025,438.7467515000026,438.73010670000076,439.7301271000033,"[0, 0, 0]",1,437.7468222000025,439.7467828000008,,,,,,,,,,,,,8,f,1,13,r,MS,2022_Jan_12_1354,2020.2.10,distractmap1,59.999160009729295,"['Abdomen', 'Right Arm', 'Left Leg', 'Right Leg']",
,,,,,,,,,,,,,,,,,,,,,,,,,,,439.76346580000245,None,space,439.76346580000245,None,,,,,,,,,,,,,,,,,,,,,,,,,,,,8,f,1,13,r,MS,2022_Jan_12_1354,2020.2.10,distractmap1,59.999160009729295,"['Abdomen', 'Right Arm', 'Left Leg', 'Right Leg']",
5,"[0, 0]",None,0,0,0,0,,,,,632.0318772000028,None,636.6648458000054,None,636.6648458000054,637.6648494000037,637.6481907000052,638.6482135000042,1,None,None,"[0, 0, 0]",,,636.6648458000054,None,,,,,,,,,,,,,,,,,,,,,490.64741810000123,490.64741810000123,None,space,101.51525419999962,490.64741810000123,None,"[0, 0, 0]",,,,,8,f,1,13,r,MS,2022_Jan_12_1354,2020.2.10,distractmap1,59.999160009729295,"['Abdomen', 'Right Arm', 'Left Leg', 'Right Leg']",
5,"[0, 0]",1,0,1,1,1,,,,,,,638.6648596000014,None,638.6648596000014,639.6647838999997,639.6482182000036,640.6482160000014,1,None,None,"[0, 0, 0]",,,638.6648596000014,None,,,,,,,,,,,,,,,,,,,,,,,,,,,,"[0, 0, 0]",,,,,8,f,1,13,r,MS,2022_Jan_12_1354,2020.2.10,distractmap1,59.999160009729295,"['Abdomen', 'Right Arm', 'Left Leg', 'Right Leg']",
4,"[-0.2, 0]",0,0,2,2,2,,,,,,,640.6648735000053,640.6648735000053,640.6648735000053,641.6649006000007,641.6485612000033,642.6482374000043,1,None,None,"[0, 0, 0]",,,640.6648735000053,640.6648735000053,,,,,,,,,,,,,,,,,,,,,,,,,,,,"[0, 0, 0]",,,,,8,f,1,13,r,MS,2022_Jan_12_1354,2020.2.10,distractmap1,59.999160009729295,"['Abdomen', 'Right Arm', 'Left Leg', 'Right Leg']",
2,"[0, 0.2]",0,0,3,3,3,,,,,,,642.66489,642.66489,642.66489,643.6649017000018,643.6482336000045,644.6482558999996,1,None,None,"[0, 0, 0]",,,642.66489,642.66489,,,,,,,,,,,,,,,,,,,,,,,,,,,,"[0, 0, 0]",,,,,8,f,1,13,r,MS,2022_Jan_12_1354,2020.2.10,distractmap1,59.999160009729295,"['Abdomen', 'Right Arm', 'Left Leg', 'Right Leg']",
6,"[0.2, 0]",0,0,4,4,4,,,,,,,644.698149900003,644.698149900003,644.698149900003,645.6982817000026,645.6982817000026,None,1,None,None,"[0, 0, 0]",,,644.698149900003,644.698149900003,,,,,,,,,,,,,,,,,,,,,,,,,,,,"[0, 0, 0]",,,,,8,f,1,13,r,MS,2022_Jan_12_1354,2020.2.10,distractmap1,59.999160009729295,"['Abdomen', 'Right Arm', 'Left Leg', 'Right Leg']",
8,"[0, -0.2]",0,0,5,5,5,,,,,,,646.6815963000045,None,646.6815963000045,647.6815706000052,647.6649309999993,648.6649483000001,1,None,None,"[0, 0, 0]",,,646.6815963000045,None,,,,,,,,,,,,,,,,,,,,,,,,,,,,"[0, 0, 0]",,,,,8,f,1,13,r,MS,2022_Jan_12_1354,2020.2.10,distractmap1,59.999160009729295,"['Abdomen', 'Right Arm', 'Left Leg', 'Right Leg']",
1,"[-0.2, 0.2]",0,0,6,6,6,,,,,,,648.6815768000015,648.6815768000015,648.6815768000015,649.6816143000033,649.6649395999993,650.6649508000046,1,None,None,"[0, 0, 0]",,,648.6815768000015,648.6815768000015,,,,,,,,,,,,,,,,,,,,,,,,,,,,"[0, 0, 0]",,,,,8,f,1,13,r,MS,2022_Jan_12_1354,2020.2.10,distractmap1,59.999160009729295,"['Abdomen', 'Right Arm', 'Left Leg', 'Right Leg']",
4,"[-0.2, 0]",0,0,7,7,7,,,,,,,650.6816245000009,650.6816245000009,650.6816245000009,651.6816231999983,651.664964399999,652.6649665000004,1,None,None,"[0, 0, 0]",,,650.6816245000009,650.6816245000009,,,,,,,,,,,,,,,,,,,,,,,,,,,,"[0, 0, 0]",,,,,8,f,1,13,r,MS,2022_Jan_12_1354,2020.2.10,distractmap1,59.999160009729295,"['Abdomen', 'Right Arm', 'Left Leg', 'Right Leg']",
8,"[0, -0.2]",0,0,8,8,8,,,,,,,652.6816096000039,652.6816096000039,652.6816096000039,653.681628600003,653.6649710999991,654.6649936000031,1,None,None,"[0, 0, 0]",,,652.6816096000039,652.6816096000039,,,,,,,,,,,,,,,,,,,,,,,,,,,,"[0, 0, 0]",,,,,8,f,1,13,r,MS,2022_Jan_12_1354,2020.2.10,distractmap1,59.999160009729295,"['Abdomen', 'Right Arm', 'Left Leg', 'Right Leg']",
8,"[0, -0.2]",1,0,9,9,9,,,,,,,654.6816477000029,654.6816477000029,654.6816477000029,655.6816668000029,655.664986900003,656.6649904000005,1,None,None,"[0, 0, 0]",,,654.6816477000029,654.6816477000029,,,,,,,,,,,,,,,,,,,,,,,,,,,,"[0, 0, 0]",,,,,8,f,1,13,r,MS,2022_Jan_12_1354,2020.2.10,distractmap1,59.999160009729295,"['Abdomen', 'Right Arm', 'Left Leg', 'Right Leg']",
,,,,,,,,,,,656.681557200005,None,,,,,,,,,,,,,,,,,,,,,,,,,,,,,,,,,,,,,,,,,,,34.81481481481482,640.7835708700004,,,8,f,1,13,r,MS,2022_Jan_12_1354,2020.2.10,distractmap1,59.999160009729295,"['Abdomen', 'Right Arm', 'Left Leg', 'Right Leg']",
3,"[0.2, 0.2]",None,0,0,0,0,,,,,672.5320243000024,None,676.7318263999987,None,676.7318263999987,677.7318404000034,677.7151549000046,678.7151568000045,1,None,None,"[0, 0, 0]",,,676.7318263999987,None,,,,,,,,,,,,,,,,,,,,,,,,,,,,"[0, 0, 0]",,,0.015032329996756744,5.012340729997959,8,f,1,13,r,MS,2022_Jan_12_1354,2020.2.10,distractmap1,59.999160009729295,"['Abdomen', 'Right Arm', 'Left Leg', 'Right Leg']",
4,"[-0.2, 0]",0,0,1,1,1,,,,,,,678.7317913000006,None,678.7317913000006,679.7318635000047,679.7151641000019,680.7151721000046,1,None,None,"[0, 0, 0]",,,678.7317913000006,None,,,,,,,,,,,,,,,,,,,,,,,,,,,,"[0, 0, 0]",,,,,8,f,1,13,r,MS,2022_Jan_12_1354,2020.2.10,distractmap1,59.999160009729295,"['Abdomen', 'Right Arm', 'Left Leg', 'Right Leg']",
1,"[-0.2, 0.2]",0,0,2,2,2,,,,,,,680.7318432000029,680.7318432000029,680.7318432000029,681.7318540999986,681.7151699000024,682.715188400005,1,None,None,"[0, 0, 0]",,,680.7318432000029,680.7318432000029,,,,,,,,,,,,,,,,,,,,,,,,,,,,"[0, 0, 0]",,,,,8,f,1,13,r,MS,2022_Jan_12_1354,2020.2.10,distractmap1,59.999160009729295,"['Abdomen', 'Right Arm', 'Left Leg', 'Right Leg']",
2,"[0, 0.2]",0,0,3,3,3,,,,,,,682.7318644000043,682.7318644000043,682.7318644000043,683.7318426999991,683.7151870000016,684.7151924999998,1,None,None,"[0, 0, 0]",,,682.7318644000043,682.7318644000043,,,,,,,,,,,,,,,,,,,,,,,,,,,,"[0, 0, 0]",,,,,8,f,1,13,r,MS,2022_Jan_12_1354,2020.2.10,distractmap1,59.999160009729295,"['Abdomen', 'Right Arm', 'Left Leg', 'Right Leg']",
2,"[0, 0.2]",1,0,4,4,4,,,,,,,684.7987066999995,684.7987066999995,684.7987066999995,685.7985489999992,685.7818667000029,None,1,None,None,"[0, 0, 0]",,,684.7987066999995,684.7987066999995,,,,,,,,,,,,,,,,,,,,,,,,,,,,"[0, 0, 0]",,,,,8,f,1,13,r,MS,2022_Jan_12_1354,2020.2.10,distractmap1,59.999160009729295,"['Abdomen', 'Right Arm', 'Left Leg', 'Right Leg']",
5,"[0, 0]",0,0,5,5,5,,,,,,,686.7484422000052,None,686.7484422000052,687.7485423000035,687.7318797000044,688.7319011,1,None,None,"[0, 0, 0]",,,686.7484422000052,None,,,,,,,,,,,,,,,,,,,,,,,,,,,,"[0, 0, 0]",,,,,8,f,1,13,r,MS,2022_Jan_12_1354,2020.2.10,distractmap1,59.999160009729295,"['Abdomen', 'Right Arm', 'Left Leg', 'Right Leg']",
1,"[-0.2, 0.2]",0,0,6,6,6,,,,,,,688.7485729000036,688.7485729000036,688.7485729000036,689.7485549000048,689.7318920000034,690.7319132999983,1,None,None,"[0, 0, 0]",,,688.7485729000036,688.7485729000036,,,,,,,,,,,,,,,,,,,,,,,,,,,,"[0, 0, 0]",,,,,8,f,1,13,r,MS,2022_Jan_12_1354,2020.2.10,distractmap1,59.999160009729295,"['Abdomen', 'Right Arm', 'Left Leg', 'Right Leg']",
1,"[-0.2, 0.2]",1,0,7,7,7,,,,,,,690.7484716000035,690.7484716000035,690.7484716000035,691.7485806000041,691.7319218999983,692.7319204000014,1,None,None,"[0, 0, 0]",,,690.7484716000035,690.7484716000035,,,,,,,,,,,,,,,,,,,,,,,,,,,,"[0, 0, 0]",,,,,8,f,1,13,r,MS,2022_Jan_12_1354,2020.2.10,distractmap1,59.999160009729295,"['Abdomen', 'Right Arm', 'Left Leg', 'Right Leg']",
8,"[0, -0.2]",0,0,8,8,8,,,,,,,692.7485680000027,692.7485680000027,692.7485680000027,693.7486019999997,693.7319104999988,694.7319323000047,1,None,None,"[0, 0, 0]",,,692.7485680000027,692.7485680000027,,,,,,,,,,,,,,,,,,,,,,,,,,,,"[0, 0, 0]",,,,,8,f,1,13,r,MS,2022_Jan_12_1354,2020.2.10,distractmap1,59.999160009729295,"['Abdomen', 'Right Arm', 'Left Leg', 'Right Leg']",
7,"[-0.2, -0.2]",0,0,9,9,9,,,,,,,694.7486051000014,694.7486051000014,694.7486051000014,695.7485891000033,695.7319372999991,696.7319685000039,1,None,None,"[0, 0, 0]",,,694.7486051000014,694.7486051000014,,,,,,,,,,,,,,,,,,,,,,,,,,,,"[0, 0, 0]",,,,,8,f,1,13,r,MS,2022_Jan_12_1354,2020.2.10,distractmap1,59.999160009729295,"['Abdomen', 'Right Arm', 'Left Leg', 'Right Leg']",
,,,,,,,,,,,696.7485903000052,None,,,,,,,,,,,,,,,,,,,,,,,,,,,,,,,,,,,,,,,,,,,25.925925925925924,679.3004754699941,,,8,f,1,13,r,MS,2022_Jan_12_1354,2020.2.10,distractmap1,59.999160009729295,"['Abdomen', 'Right Arm', 'Left Leg', 'Right Leg']",
6,"[0.2, 0]",None,0,0,0,0,,,,,711.9989696000048,None,716.7988173000049,None,716.7988173000049,717.7987704000043,717.7820957000004,718.7821154000048,1,None,None,"[0, 0, 0]",,,716.7988173000049,None,,,,,,,,,,,,,,,,,,,,,,,,,,,,"[0, 0, 0]",,,0.014999730003182776,5.012448430003133,8,f,1,13,r,MS,2022_Jan_12_1354,2020.2.10,distractmap1,59.999160009729295,"['Abdomen', 'Right Arm', 'Left Leg', 'Right Leg']",
6,"[0.2, 0]",1,0,1,1,1,,,,,,,718.7987734000053,None,718.7987734000053,719.7987592999998,719.7821237000026,720.7821220000042,1,None,None,"[0, 0, 0]",,,718.7987734000053,None,,,,,,,,,,,,,,,,,,,,,,,,,,,,"[0, 0, 0]",,,,,8,f,1,13,r,MS,2022_Jan_12_1354,2020.2.10,distractmap1,59.999160009729295,"['Abdomen', 'Right Arm', 'Left Leg', 'Right Leg']",
1,"[-0.2, 0.2]",0,0,2,2,2,,,,,,,720.7987570000041,720.7987570000041,720.7987570000041,721.7988050999993,721.7821423999994,722.7821385999996,1,None,None,"[0, 0, 0]",,,720.7987570000041,720.7987570000041,,,,,,,,,,,,,,,,,,,,,,,,,,,,"[0, 0, 0]",,,,,8,f,1,13,r,MS,2022_Jan_12_1354,2020.2.10,distractmap1,59.999160009729295,"['Abdomen', 'Right Arm', 'Left Leg', 'Right Leg']",
8,"[0, -0.2]",0,0,3,3,3,,,,,,,722.7988227000023,722.7988227000023,722.7988227000023,723.7988249000045,723.7821420000037,724.7821504000021,1,None,None,"[0, 0, 0]",,,722.7988227000023,722.7988227000023,,,,,,,,,,,,,,,,,,,,,,,,,,,,"[0, 0, 0]",,,,,8,f,1,13,r,MS,2022_Jan_12_1354,2020.2.10,distractmap1,59.999160009729295,"['Abdomen', 'Right Arm', 'Left Leg', 'Right Leg']",
1,"[-0.2, 0.2]",0,0,4,4,4,,,,,,,724.8323240000027,724.8323240000027,724.8323240000027,725.8321558000025,725.8154874000029,None,1,None,None,"[0, 0, 0]",,,724.8323240000027,724.8323240000027,,,,,,,,,,,,,,,,,,,,,,,,,,,,"[0, 0, 0]",,,,,8,f,1,13,r,MS,2022_Jan_12_1354,2020.2.10,distractmap1,59.999160009729295,"['Abdomen', 'Right Arm', 'Left Leg', 'Right Leg']",
4,"[-0.2, 0]",0,0,5,5,5,,,,,,,726.815488100001,None,726.815488100001,727.8154982999986,727.7988776999991,728.7988645000005,1,None,None,"[0, 0, 0]",,,726.815488100001,None,,,,,,,,,,,,,,,,,,,,,,,,,,,,"[0, 0, 0]",,,,,8,f,1,13,r,MS,2022_Jan_12_1354,2020.2.10,distractmap1,59.999160009729295,"['Abdomen', 'Right Arm', 'Left Leg', 'Right Leg']",
5,"[0, 0]",0,0,6,6,6,,,,,,,728.8155353000038,728.8155353000038,728.8155353000038,729.8155040999991,729.7988552000024,730.798878200003,1,None,None,"[0, 0, 0]",,,728.8155353000038,728.8155353000038,,,,,,,,,,,,,,,,,,,,,,,,,,,,"[0, 0, 0]",,,,,8,f,1,13,r,MS,2022_Jan_12_1354,2020.2.10,distractmap1,59.999160009729295,"['Abdomen', 'Right Arm', 'Left Leg', 'Right Leg']",
7,"[-0.2, -0.2]",0,0,7,7,7,,,,,,,730.8155191000042,730.8155191000042,730.8155191000042,731.8155389000021,731.7988662999996,732.7988888000036,1,None,None,"[0, 0, 0]",,,730.8155191000042,730.8155191000042,,,,,,,,,,,,,,,,,,,,,,,,,,,,"[0, 0, 0]",,,,,8,f,1,13,r,MS,2022_Jan_12_1354,2020.2.10,distractmap1,59.999160009729295,"['Abdomen', 'Right Arm', 'Left Leg', 'Right Leg']",
7,"[-0.2, -0.2]",1,0,8,8,8,,,,,,,732.8155390000029,732.8155390000029,732.8155390000029,733.8150508000035,733.7989353000012,734.7988913000008,1,None,None,"[0, 0, 0]",,,732.8155390000029,732.8155390000029,,,,,,,,,,,,,,,,,,,,,,,,,,,,"[0, 0, 0]",,,,,8,f,1,13,r,MS,2022_Jan_12_1354,2020.2.10,distractmap1,59.999160009729295,"['Abdomen', 'Right Arm', 'Left Leg', 'Right Leg']",
7,"[-0.2, -0.2]",1,0,9,9,9,,,,,,,734.8155814999991,734.8155814999991,734.8155814999991,735.8155592000039,735.7989034999991,736.7988966999983,1,None,None,"[0, 0, 0]",,,734.8155814999991,734.8155814999991,,,,,,,,,,,,,,,,,,,,,,,,,,,,"[0, 0, 0]",,,,,8,f,1,13,r,MS,2022_Jan_12_1354,2020.2.10,distractmap1,59.999160009729295,"['Abdomen', 'Right Arm', 'Left Leg', 'Right Leg']",
,,,,,,,,,,,736.8155728999991,None,,,,,,,,,,,,,,,,,,,,,,,,,,,,,,,,,,,,,,,,,,,26.296296296296294,717.1842315699978,,,8,f,1,13,r,MS,2022_Jan_12_1354,2020.2.10,distractmap1,59.999160009729295,"['Abdomen', 'Right Arm', 'Left Leg', 'Right Leg']",
3,"[0.2, 0.2]",None,,,,,0,0,0,0,750.0491701999999,None,,,,,,,,,,,,,,,,,,,,,,None,None,"[0, 0, 0]",756.8824032000048,None,756.8824032000048,757.8824138999989,757.8657128999985,758.8657416999995,"[0, 0, 0]",1,756.8824032000048,None,,,,,,,,,,,0.014906429998518433,5.012247129998286,8,f,1,13,r,MS,2022_Jan_12_1354,2020.2.10,distractmap1,59.999160009729295,"['Abdomen', 'Right Arm', 'Left Leg', 'Right Leg']",
3,"[0.2, 0.2]",None,,,,,0,1,1,1,,,,,,,,,,,,,,,,,,,,,,,,None,None,"[0, 0, 0]",758.882334599999,760.882428900004,758.882334599999,759.8824137000047,759.8657415000052,760.8657347000044,"[0, 0, 0]",0,758.882334599999,760.882428900004,,,,,,,,,,,,,8,f,1,13,r,MS,2022_Jan_12_1354,2020.2.10,distractmap1,59.999160009729295,"['Abdomen', 'Right Arm', 'Left Leg', 'Right Leg']",
5,"[0, 0]",0,,,,,0,2,2,2,,,,,,,,,,,,,,,,,,,,,,,,None,None,"[0, 0, 0]",760.8990917000046,762.8990890999994,760.8990917000046,761.8990966999991,761.8826943000022,762.8824193000037,"[0, 0, 0]",1,760.8990917000046,762.8990890999994,,,,,,,,,,,,,8,f,1,13,r,MS,2022_Jan_12_1354,2020.2.10,distractmap1,59.999160009729295,"['Abdomen', 'Right Arm', 'Left Leg', 'Right Leg']",
1,"[-0.2, 0.2]",0,,,,,0,3,3,3,,,,,,,,,,,,,,,,,,,,,,,,None,None,"[0, 0, 0]",762.9157320000013,764.9157514000035,762.9157320000013,763.9157312000025,763.8991120999999,764.899110600003,"[0, 0, 0]",1,762.9157320000013,764.9157514000035,,,,,,,,,,,,,8,f,1,13,r,MS,2022_Jan_12_1354,2020.2.10,distractmap1,59.999160009729295,"['Abdomen', 'Right Arm', 'Left Leg', 'Right Leg']",
5,"[0, 0]",1,,,,,0,4,4,4,,,,,,,,,,,,,,,,,,,,,,,,None,None,"[0, 0, 0]",764.9823804000043,None,764.9823804000043,765.9824540000045,765.9824540000045,None,"[0, 0, 0]",1,764.9823804000043,None,,,,,,,,,,,,,8,f,1,13,r,MS,2022_Jan_12_1354,2020.2.10,distractmap1,59.999160009729295,"['Abdomen', 'Right Arm', 'Left Leg', 'Right Leg']",
8,"[0, -0.2]",0,,,,,0,5,5,5,,,,,,,,,,,,,,,,,,,,,,,,None,None,"[0, 0, 0]",766.9491172999988,768.949008800002,766.9491172999988,767.9491245000027,767.9324705000035,768.9324867000032,"[0, 0, 0]",1,766.9491172999988,768.949008800002,,,,,,,,,,,,,8,f,1,13,r,MS,2022_Jan_12_1354,2020.2.10,distractmap1,59.999160009729295,"['Abdomen', 'Right Arm', 'Left Leg', 'Right Leg']",
5,"[0, 0]",1,,,,,0,6,6,6,,,,,,,,,,,,,,,,,,,,,,,,None,None,"[0, 0, 0]",768.9658219999983,770.9658168000024,768.9658219999983,769.9658278999996,769.9491344999988,770.9491534000044,"[0, 0, 0]",1,768.9658219999983,770.9658168000024,,,,,,,,,,,,,8,f,1,13,r,MS,2022_Jan_12_1354,2020.2.10,distractmap1,59.999160009729295,"['Abdomen', 'Right Arm', 'Left Leg', 'Right Leg']",
7,"[-0.2, -0.2]",0,,,,,0,7,7,7,,,,,,,,,,,,,,,,,,,,,,,,None,None,"[0, 0, 0]",770.9825205000016,772.9824934999997,770.9825205000016,771.9824945,771.9658459999991,772.9658611999985,"[0, 0, 0]",1,770.9825205000016,772.9824934999997,,,,,,,,,,,,,8,f,1,13,r,MS,2022_Jan_12_1354,2020.2.10,distractmap1,59.999160009729295,"['Abdomen', 'Right Arm', 'Left Leg', 'Right Leg']",
5,"[0, 0]",1,,,,,0,8,8,8,,,,,,,,,,,,,,,,,,,,,,,,None,None,"[0, 0, 0]",772.9991757000025,774.9991805000027,772.9991757000025,773.9995601000046,773.9828272000013,774.9824978000033,"[0, 0, 0]",0,772.9991757000025,774.9991805000027,,,,,,,,,,,,,8,f,1,13,r,MS,2022_Jan_12_1354,2020.2.10,distractmap1,59.999160009729295,"['Abdomen', 'Right Arm', 'Left Leg', 'Right Leg']",
7,"[-0.2, -0.2]",1,,,,,0,9,9,9,,,,,,,,,,,,,,,,,,,,,,,,None,None,"[0, 0, 0]",775.0157412000044,777.0158659000008,775.0157412000044,776.0158575000023,775.9991968000031,776.9991885000054,"[0, 0, 0]",1,775.0157412000044,777.0158659000008,,,,,,,,,,,,,8,f,1,13,r,MS,2022_Jan_12_1354,2020.2.10,distractmap1,59.999160009729295,"['Abdomen', 'Right Arm', 'Left Leg', 'Right Leg']",
,,,,,,,,,,,777.0325338000039,None,,,,,,,,,,,,,,,,,,,,,,,,,,,,,,,,,,,,,,,,,,,27.22222222222222,759.3679154700003,,,8,f,1,13,r,MS,2022_Jan_12_1354,2020.2.10,distractmap1,59.999160009729295,"['Abdomen', 'Right Arm', 'Left Leg', 'Right Leg']",
6,"[0.2, 0]",None,,,,,0,0,0,0,792.2662362000046,None,,,,,,,,,,,,,,,,,,,,,,None,None,"[0, 0, 0]",797.0826633000033,None,797.0826633000033,798.0826574000021,798.0660050000006,799.0660148000024,"[0, 0, 0]",1,797.0826633000033,None,,,,,,,,,,,0.0148470299973269,5.012073929996404,8,f,1,13,r,MS,2022_Jan_12_1354,2020.2.10,distractmap1,59.999160009729295,"['Abdomen', 'Right Arm', 'Left Leg', 'Right Leg']",
1,"[-0.2, 0.2]",None,,,,,0,1,1,1,,,,,,,,,,,,,,,,,,,,,,,,None,None,"[0, 0, 0]",799.0827321000033,801.0827118000016,799.0827321000033,800.0830085000052,800.0660250000001,801.0660263000027,"[0, 0, 0]",0,799.0827321000033,801.0827118000016,,,,,,,,,,,,,8,f,1,13,r,MS,2022_Jan_12_1354,2020.2.10,distractmap1,59.999160009729295,"['Abdomen', 'Right Arm', 'Left Leg', 'Right Leg']",
6,"[0.2, 0]",1,,,,,0,2,2,2,,,,,,,,,,,,,,,,,,,,,,,,None,None,"[0, 0, 0]",801.0993862000032,803.0993976000027,801.0993862000032,802.0993715000004,802.082694100005,803.0827045000042,"[0, 0, 0]",1,801.0993862000032,803.0993976000027,,,,,,,,,,,,,8,f,1,13,r,MS,2022_Jan_12_1354,2020.2.10,distractmap1,59.999160009729295,"['Abdomen', 'Right Arm', 'Left Leg', 'Right Leg']",
4,"[-0.2, 0]",0,,,,,0,3,3,3,,,,,,,,,,,,,,,,,,,,,,,,None,None,"[0, 0, 0]",803.116059400003,805.1160562000005,803.116059400003,804.1160520000049,804.0994043000028,805.0994331000038,"[0, 0, 0]",1,803.116059400003,805.1160562000005,,,,,,,,,,,,,8,f,1,13,r,MS,2022_Jan_12_1354,2020.2.10,distractmap1,59.999160009729295,"['Abdomen', 'Right Arm', 'Left Leg', 'Right Leg']",
1,"[-0.2, 0.2]",0,,,,,0,4,4,4,,,,,,,,,,,,,,,,,,,,,,,,None,None,"[0, 0, 0]",805.1662208999987,None,805.1662208999987,806.1660642999996,806.1494163000025,None,"[0, 0, 0]",0,805.1662208999987,None,,,,,,,,,,,,,8,f,1,13,r,MS,2022_Jan_12_1354,2020.2.10,distractmap1,59.999160009729295,"['Abdomen', 'Right Arm', 'Left Leg', 'Right Leg']",
8,"[0, -0.2]",0,,,,,0,5,5,5,,,,,,,,,,,,,,,,,,,,,,,,None,None,"[0, 0, 0]",807.1494260000036,809.1494629000008,807.1494260000036,808.1494205000054,808.1327174000035,809.1327610000008,"[0, 0, 0]",1,807.1494260000036,809.1494629000008,,,,,,,,,,,,,8,f,1,13,r,MS,2022_Jan_12_1354,2020.2.10,distractmap1,59.999160009729295,"['Abdomen', 'Right Arm', 'Left Leg', 'Right Leg']",
1,"[-0.2, 0.2]",1,,,,,0,6,6,6,,,,,,,,,,,,,,,,,,,,,,,,None,None,"[0, 0, 0]",809.166092600004,811.1661023999986,809.166092600004,810.1659988000029,810.1494170000005,811.1494539999985,"[0, 0, 0]",0,809.166092600004,811.1661023999986,,,,,,,,,,,,,8,f,1,13,r,MS,2022_Jan_12_1354,2020.2.10,distractmap1,59.999160009729295,"['Abdomen', 'Right Arm', 'Left Leg', 'Right Leg']",
8,"[0, -0.2]",1,,,,,0,7,7,7,,,,,,,,,,,,,,,,,,,,,,,,None,None,"[0, 0, 0]",811.1827829000031,813.1827826000008,811.1827829000031,812.1827868000037,812.1661112000002,813.166118400004,"[0, 0, 0]",1,811.1827829000031,813.1827826000008,,,,,,,,,,,,,8,f,1,13,r,MS,2022_Jan_12_1354,2020.2.10,distractmap1,59.999160009729295,"['Abdomen', 'Right Arm', 'Left Leg', 'Right Leg']",
1,"[-0.2, 0.2]",1,,,,,0,8,8,8,,,,,,,,,,,,,,,,,,,,,,,,None,None,"[0, 0, 0]",813.1994813999991,815.1994727999991,813.1994813999991,814.1994591000039,814.1827814999997,815.1828155000039,"[0, 0, 0]",1,813.1994813999991,815.1994727999991,,,,,,,,,,,,,8,f,1,13,r,MS,2022_Jan_12_1354,2020.2.10,distractmap1,59.999160009729295,"['Abdomen', 'Right Arm', 'Left Leg', 'Right Leg']",
6,"[0.2, 0]",0,,,,,0,9,9,9,,,,,,,,,,,,,,,,,,,,,,,,None,None,"[0, 0, 0]",815.2161414000002,817.2161606000009,815.2161414000002,816.2161416000017,816.1994925000035,817.1994819000029,"[0, 0, 0]",1,815.2161414000002,817.2161606000009,,,,,,,,,,,,,8,f,1,13,r,MS,2022_Jan_12_1354,2020.2.10,distractmap1,59.999160009729295,"['Abdomen', 'Right Arm', 'Left Leg', 'Right Leg']",
,,,,,,,,,,,817.2328229999985,None,,,,,,,,,,,,,,,,,,,,,,,,,,,,,,,,,,,,,,,,,,,30.49382716049383,800.6346216699967,,,8,f,1,13,r,MS,2022_Jan_12_1354,2020.2.10,distractmap1,59.999160009729295,"['Abdomen', 'Right Arm', 'Left Leg', 'Right Leg']",
7,"[-0.2, -0.2]",None,,,,,0,0,0,0,833.216477300004,None,,,,,,,,,,,,,,,,,,,,,,None,None,"[0, 0, 0]",837.2829712000021,None,837.2829712000021,838.2829631999994,838.2663045000008,839.2663184999983,"[0, 0, 0]",1,837.2829712000021,None,,,,,,,,,,,0.015136030000576284,5.0126315300076385,8,f,1,13,r,MS,2022_Jan_12_1354,2020.2.10,distractmap1,59.999160009729295,"['Abdomen', 'Right Arm', 'Left Leg', 'Right Leg']",
7,"[-0.2, -0.2]",None,,,,,0,1,1,1,,,,,,,,,,,,,,,,,,,,,,,,None,None,"[0, 0, 0]",839.2829710000005,841.2829780000029,839.2829710000005,840.2829961000025,840.2663184000048,841.2663279000044,"[0, 0, 0]",0,839.2829710000005,841.2829780000029,,,,,,,,,,,,,8,f,1,13,r,MS,2022_Jan_12_1354,2020.2.10,distractmap1,59.999160009729295,"['Abdomen', 'Right Arm', 'Left Leg', 'Right Leg']",
7,"[-0.2, -0.2]",1,,,,,0,2,2,2,,,,,,,,,,,,,,,,,,,,,,,,None,None,"[0, 0, 0]",841.2996605000008,843.2996518,841.2996605000008,842.2995568000042,842.2829887000044,843.2829970000021,"[0, 0, 0]",1,841.2996605000008,843.2996518,,,,,,,,,,,,,8,f,1,13,r,MS,2022_Jan_12_1354,2020.2.10,distractmap1,59.999160009729295,"['Abdomen', 'Right Arm', 'Left Leg', 'Right Leg']",
5,"[0, 0]",0,,,,,0,3,3,3,,,,,,,,,,,,,,,,,,,,,,,,None,None,"[0, 0, 0]",843.3163486000049,845.316350400004,843.3163486000049,844.316333499999,844.2996425000019,845.2996891000003,"[0, 0, 0]",1,843.3163486000049,845.316350400004,,,,,,,,,,,,,8,f,1,13,r,MS,2022_Jan_12_1354,2020.2.10,distractmap1,59.999160009729295,"['Abdomen', 'Right Arm', 'Left Leg', 'Right Leg']",
1,"[-0.2, 0.2]",0,,,,,0,4,4,4,,,,,,,,,,,,,,,,,,,,,,,,None,None,"[0, 0, 0]",845.3830239000017,None,845.3830239000017,846.3830319000044,846.3830319000044,None,"[0, 0, 0]",1,845.3830239000017,None,,,,,,,,,,,,,8,f,1,13,r,MS,2022_Jan_12_1354,2020.2.10,distractmap1,59.999160009729295,"['Abdomen', 'Right Arm', 'Left Leg', 'Right Leg']",
6,"[0.2, 0]",0,,,,,0,5,5,5,,,,,,,,,,,,,,,,,,,,,,,,None,None,"[0, 0, 0]",847.3496865999987,849.3496969000043,847.3496865999987,848.3497062000024,848.3330436000033,849.3330438000048,"[0, 0, 0]",1,847.3496865999987,849.3496969000043,,,,,,,,,,,,,8,f,1,13,r,MS,2022_Jan_12_1354,2020.2.10,distractmap1,59.999160009729295,"['Abdomen', 'Right Arm', 'Left Leg', 'Right Leg']",
1,"[-0.2, 0.2]",1,,,,,0,6,6,6,,,,,,,,,,,,,,,,,,,,,,,,None,None,"[0, 0, 0]",849.3663796000037,851.3663919000028,849.3663796000037,850.3663988000044,850.3497196000026,851.3497162999993,"[0, 0, 0]",1,849.3663796000037,851.3663919000028,,,,,,,,,,,,,8,f,1,13,r,MS,2022_Jan_12_1354,2020.2.10,distractmap1,59.999160009729295,"['Abdomen', 'Right Arm', 'Left Leg', 'Right Leg']",
7,"[-0.2, -0.2]",0,,,,,0,7,7,7,,,,,,,,,,,,,,,,,,,,,,,,None,None,"[0, 0, 0]",851.3830635000049,853.3830805000034,851.3830635000049,852.3830770999994,852.366397400001,853.3664306999999,"[0, 0, 0]",1,851.3830635000049,853.3830805000034,,,,,,,,,,,,,8,f,1,13,r,MS,2022_Jan_12_1354,2020.2.10,distractmap1,59.999160009729295,"['Abdomen', 'Right Arm', 'Left Leg', 'Right Leg']",
6,"[0.2, 0]",0,,,,,0,8,8,8,,,,,,,,,,,,,,,,,,,,,,,,None,None,"[0, 0, 0]",853.3997535000017,855.3997359999994,853.3997535000017,854.3997219000012,854.3830845999983,855.3830973000004,"[0, 0, 0]",0,853.3997535000017,855.3997359999994,,,,,,,,,,,,,8,f,1,13,r,MS,2022_Jan_12_1354,2020.2.10,distractmap1,59.999160009729295,"['Abdomen', 'Right Arm', 'Left Leg', 'Right Leg']",
7,"[-0.2, -0.2]",1,,,,,0,9,9,9,,,,,,,,,,,,,,,,,,,,,,,,None,None,"[0, 0, 0]",855.4164143000016,857.4164748000039,855.4164143000016,856.4164297000025,856.3997659000015,857.3997722999993,"[0, 0, 0]",1,855.4164143000016,857.4164748000039,,,,,,,,,,,,,8,f,1,13,r,MS,2022_Jan_12_1354,2020.2.10,distractmap1,59.999160009729295,"['Abdomen', 'Right Arm', 'Left Leg', 'Right Leg']",
,,,,,,,,,,,857.4330977999998,None,,,,,,,,,,,,,,,,,,,,,,,,,,,,,,,,,,,,,,,,,,,28.086419753086417,840.1856551699966,,,8,f,1,13,r,MS,2022_Jan_12_1354,2020.2.10,distractmap1,59.999160009729295,"['Abdomen', 'Right Arm', 'Left Leg', 'Right Leg']",
8,"[0, -0.2]",None,0,0,0,0,,,,,872.6675844999991,None,877.4832666000002,None,877.4832666000002,878.4832730000053,878.4665881000037,879.4664791000032,1,None,None,"[0, 0, 0]",,,877.4832666000002,None,,,,,,,,,,,,,,,,,,,,,,,,,,,,"[0, 0, 0]",,,0.014356030005728826,5.0111129300057655,8,f,1,13,r,MS,2022_Jan_12_1354,2020.2.10,distractmap1,59.999160009729295,"['Abdomen', 'Right Arm', 'Left Leg', 'Right Leg']",
6,"[0.2, 0]",0,0,1,1,1,,,,,,,879.4832625999989,None,879.4832625999989,880.4832690000039,880.4666112999985,881.4666027999992,1,None,None,"[0, 0, 0]",,,879.4832625999989,None,,,,,,,,,,,,,,,,,,,,,,,,,,,,"[0, 0, 0]",,,,,8,f,1,13,r,MS,2022_Jan_12_1354,2020.2.10,distractmap1,59.999160009729295,"['Abdomen', 'Right Arm', 'Left Leg', 'Right Leg']",
6,"[0.2, 0]",1,0,2,2,2,,,,,,,881.4832831000022,881.4832831000022,881.4832831000022,882.4831684000019,882.4666164000009,883.4666298000011,1,None,None,"[0, 0, 0]",,,881.4832831000022,881.4832831000022,,,,,,,,,,,,,,,,,,,,,,,,,,,,"[0, 0, 0]",,,,,8,f,1,13,r,MS,2022_Jan_12_1354,2020.2.10,distractmap1,59.999160009729295,"['Abdomen', 'Right Arm', 'Left Leg', 'Right Leg']",
2,"[0, 0.2]",0,0,3,3,3,,,,,,,883.4833139000038,883.4833139000038,883.4833139000038,884.4833089000022,884.4666241000014,885.4666475000049,1,None,None,"[0, 0, 0]",,,883.4833139000038,883.4833139000038,,,,,,,,,,,,,,,,,,,,,,,,,,,,"[0, 0, 0]",,,,,8,f,1,13,r,MS,2022_Jan_12_1354,2020.2.10,distractmap1,59.999160009729295,"['Abdomen', 'Right Arm', 'Left Leg', 'Right Leg']",
1,"[-0.2, 0.2]",0,0,4,4,4,,,,,,,885.5503691999984,885.5503691999984,885.5503691999984,886.5499989000018,886.5333181000024,None,1,None,None,"[0, 0, 0]",,,885.5503691999984,885.5503691999984,,,,,,,,,,,,,,,,,,,,,,,,,,,,"[0, 0, 0]",,,,,8,f,1,13,r,MS,2022_Jan_12_1354,2020.2.10,distractmap1,59.999160009729295,"['Abdomen', 'Right Arm', 'Left Leg', 'Right Leg']",
6,"[0.2, 0]",0,0,5,5,5,,,,,,,887.5000037999998,None,887.5000037999998,888.5000026999987,888.4833461000017,889.4832610000012,1,None,None,"[0, 0, 0]",,,887.5000037999998,None,,,,,,,,,,,,,,,,,,,,,,,,,,,,"[0, 0, 0]",,,,,8,f,1,13,r,MS,2022_Jan_12_1354,2020.2.10,distractmap1,59.999160009729295,"['Abdomen', 'Right Arm', 'Left Leg', 'Right Leg']",
9,"[0.2, -0.2]",0,0,6,6,6,,,,,,,889.4999344000025,889.4999344000025,889.4999344000025,890.5000236999986,890.4833397000039,891.4833546000009,1,None,None,"[0, 0, 0]",,,889.4999344000025,889.4999344000025,,,,,,,,,,,,,,,,,,,,,,,,,,,,"[0, 0, 0]",,,,,8,f,1,13,r,MS,2022_Jan_12_1354,2020.2.10,distractmap1,59.999160009729295,"['Abdomen', 'Right Arm', 'Left Leg', 'Right Leg']",
1,"[-0.2, 0.2]",0,0,7,7,7,,,,,,,891.5000234000036,891.5000234000036,891.5000234000036,892.5000179000053,892.4834092000019,893.4833817000035,1,None,None,"[0, 0, 0]",,,891.5000234000036,891.5000234000036,,,,,,,,,,,,,,,,,,,,,,,,,,,,"[0, 0, 0]",,,,,8,f,1,13,r,MS,2022_Jan_12_1354,2020.2.10,distractmap1,59.999160009729295,"['Abdomen', 'Right Arm', 'Left Leg', 'Right Leg']",
6,"[0.2, 0]",0,0,8,8,8,,,,,,,893.5000450000007,893.5000450000007,893.5000450000007,894.5000536000007,894.4833704999983,895.4833790999983,1,None,None,"[0, 0, 0]",,,893.5000450000007,893.5000450000007,,,,,,,,,,,,,,,,,,,,,,,,,,,,"[0, 0, 0]",,,,,8,f,1,13,r,MS,2022_Jan_12_1354,2020.2.10,distractmap1,59.999160009729295,"['Abdomen', 'Right Arm', 'Left Leg', 'Right Leg']",
6,"[0.2, 0]",1,0,9,9,9,,,,,,,895.5000541000045,895.5000541000045,895.5000541000045,896.5000714999987,896.4833715999994,897.4834105000045,1,None,None,"[0, 0, 0]",,,895.5000541000045,895.5000541000045,,,,,,,,,,,,,,,,,,,,,,,,,,,,"[0, 0, 0]",,,,,8,f,1,13,r,MS,2022_Jan_12_1354,2020.2.10,distractmap1,59.999160009729295,"['Abdomen', 'Right Arm', 'Left Leg', 'Right Leg']",
,,,,,,,,,,,897.5000508000012,None,,,,,,,,,,,,,,,,,,,,,,,,,,,,,,,,,,,,,,,,,,,35.18518518518518,882.9026749699988,,,8,f,1,13,r,MS,2022_Jan_12_1354,2020.2.10,distractmap1,59.999160009729295,"['Abdomen', 'Right Arm', 'Left Leg', 'Right Leg']",
4,"[-0.2, 0]",None,,,,,0,0,0,0,915.4336604000055,None,,,,,,,,,,,,,,,,,,,,,,None,None,"[0, 0, 0]",917.550216100004,None,917.550216100004,918.5502171000044,918.5335795999999,919.5335545999988,"[0, 0, 0]",1,917.550216100004,None,,,,,,,,,,,0.01432642999861855,5.011021929996787,8,f,1,13,r,MS,2022_Jan_12_1354,2020.2.10,distractmap1,59.999160009729295,"['Abdomen', 'Right Arm', 'Left Leg', 'Right Leg']",
5,"[0, 0]",None,,,,,0,1,1,1,,,,,,,,,,,,,,,,,,,,,,,,None,None,"[0, 0, 0]",919.5502534000043,921.5502378000019,919.5502534000043,920.5502357000005,920.5335655000017,921.5335686000035,"[0, 0, 0]",0,919.5502534000043,921.5502378000019,,,,,,,,,,,,,8,f,1,13,r,MS,2022_Jan_12_1354,2020.2.10,distractmap1,59.999160009729295,"['Abdomen', 'Right Arm', 'Left Leg', 'Right Leg']",
6,"[0.2, 0]",0,,,,,0,2,2,2,,,,,,,,,,,,,,,,,,,,,,,,None,None,"[0, 0, 0]",921.5669076000049,923.5669276000044,921.5669076000049,922.5669105999987,922.5502520000009,923.5502550000019,"[0, 0, 0]",1,921.5669076000049,923.5669276000044,,,,,,,,,,,,,8,f,1,13,r,MS,2022_Jan_12_1354,2020.2.10,distractmap1,59.999160009729295,"['Abdomen', 'Right Arm', 'Left Leg', 'Right Leg']",
1,"[-0.2, 0.2]",0,,,,,0,3,3,3,,,,,,,,,,,,,,,,,,,,,,,,None,None,"[0, 0, 0]",923.5835879000006,925.5836070000005,923.5835879000006,924.5835841000007,924.566922500002,925.5669335999992,"[0, 0, 0]",1,923.5835879000006,925.5836070000005,,,,,,,,,,,,,8,f,1,13,r,MS,2022_Jan_12_1354,2020.2.10,distractmap1,59.999160009729295,"['Abdomen', 'Right Arm', 'Left Leg', 'Right Leg']",
6,"[0.2, 0]",1,,,,,0,4,4,4,,,,,,,,,,,,,,,,,,,,,,,,None,None,"[0, 0, 0]",925.6671438999983,None,925.6671438999983,926.6672925000021,926.650275,None,"[0, 0, 0]",1,925.6671438999983,None,,,,,,,,,,,,,8,f,1,13,r,MS,2022_Jan_12_1354,2020.2.10,distractmap1,59.999160009729295,"['Abdomen', 'Right Arm', 'Left Leg', 'Right Leg']",
1,"[-0.2, 0.2]",1,,,,,0,5,5,5,,,,,,,,,,,,,,,,,,,,,,,,None,None,"[0, 0, 0]",927.616944100002,929.6169570999991,927.616944100002,928.6169263000047,928.6002895999991,929.6003045000034,"[0, 0, 0]",0,927.616944100002,929.6169570999991,,,,,,,,,,,,,8,f,1,13,r,MS,2022_Jan_12_1354,2020.2.10,distractmap1,59.999160009729295,"['Abdomen', 'Right Arm', 'Left Leg', 'Right Leg']",
2,"[0, 0.2]",0,,,,,0,6,6,6,,,,,,,,,,,,,,,,,,,,,,,,None,None,"[0, 0, 0]",929.633611600002,931.6336395000035,929.633611600002,930.6336429000003,930.6169980999985,931.6169711000039,"[0, 0, 0]",1,929.633611600002,931.6336395000035,,,,,,,,,,,,,8,f,1,13,r,MS,2022_Jan_12_1354,2020.2.10,distractmap1,59.999160009729295,"['Abdomen', 'Right Arm', 'Left Leg', 'Right Leg']",
3,"[0.2, 0.2]",0,,,,,0,7,7,7,,,,,,,,,,,,,,,,,,,,,,,,None,None,"[0, 0, 0]",931.6503149000055,933.6503385000033,931.6503149000055,932.6503251000031,932.6336222000027,933.6336450000017,"[0, 0, 0]",1,931.6503149000055,933.6503385000033,,,,,,,,,,,,,8,f,1,13,r,MS,2022_Jan_12_1354,2020.2.10,distractmap1,59.999160009729295,"['Abdomen', 'Right Arm', 'Left Leg', 'Right Leg']",
6,"[0.2, 0]",0,,,,,0,8,8,8,,,,,,,,,,,,,,,,,,,,,,,,None,None,"[0, 0, 0]",933.6669936000035,935.666999400004,933.6669936000035,934.6670108000035,934.6503283999991,935.6503458000007,"[0, 0, 0]",1,933.6669936000035,935.666999400004,,,,,,,,,,,,,8,f,1,13,r,MS,2022_Jan_12_1354,2020.2.10,distractmap1,59.999160009729295,"['Abdomen', 'Right Arm', 'Left Leg', 'Right Leg']",
3,"[0.2, 0.2]",1,,,,,0,9,9,9,,,,,,,,,,,,,,,,,,,,,,,,None,None,"[0, 0, 0]",935.6836471999995,937.6836789000008,935.6836471999995,936.6836708000046,936.667017300002,937.6670142000003,"[0, 0, 0]",1,935.6836471999995,937.6836789000008,,,,,,,,,,,,,8,f,1,13,r,MS,2022_Jan_12_1354,2020.2.10,distractmap1,59.999160009729295,"['Abdomen', 'Right Arm', 'Left Leg', 'Right Leg']",
,,,,,,,,,,,937.7003641000047,None,,,,,,,,,,,,,,,,,,,,,,,,,,,,,,,,,,,,,,,,,,,34.32098765432099,922.2527056700055,,,8,f,1,13,r,MS,2022_Jan_12_1354,2020.2.10,distractmap1,59.999160009729295,"['Abdomen', 'Right Arm', 'Left Leg', 'Right Leg']",
9,"[0.2, -0.2]",None,0,0,0,0,,,,,954.9500726000042,None,957.7671872999999,None,957.7671872999999,958.7671838000024,958.7505463000052,959.7505416999993,1,None,None,"[0, 0, 0]",,,957.7671872999999,None,,,,,,,,,,,,,,,,,,,,,,,,,,,,"[0, 0, 0]",,,0.014573129992641043,5.011516429993208,8,f,1,13,r,MS,2022_Jan_12_1354,2020.2.10,distractmap1,59.999160009729295,"['Abdomen', 'Right Arm', 'Left Leg', 'Right Leg']",
9,"[0.2, -0.2]",1,0,1,1,1,,,,,,,959.7671741000013,None,959.7671741000013,960.7671889000048,960.7505558000048,961.7505614000038,1,None,None,"[0, 0, 0]",,,959.7671741000013,None,,,,,,,,,,,,,,,,,,,,,,,,,,,,"[0, 0, 0]",,,,,8,f,1,13,r,MS,2022_Jan_12_1354,2020.2.10,distractmap1,59.999160009729295,"['Abdomen', 'Right Arm', 'Left Leg', 'Right Leg']",
9,"[0.2, -0.2]",1,0,2,2,2,,,,,,,961.7672061999983,961.7672061999983,961.7672061999983,962.7672076000017,962.7505374000029,963.7505397999994,1,None,None,"[0, 0, 0]",,,961.7672061999983,961.7672061999983,,,,,,,,,,,,,,,,,,,,,,,,,,,,"[0, 0, 0]",,,,,8,f,1,13,r,MS,2022_Jan_12_1354,2020.2.10,distractmap1,59.999160009729295,"['Abdomen', 'Right Arm', 'Left Leg', 'Right Leg']",
3,"[0.2, 0.2]",0,0,3,3,3,,,,,,,963.7672276000012,963.7672276000012,963.7672276000012,964.7672345000028,964.7505518000034,965.7505569999994,1,None,None,"[0, 0, 0]",,,963.7672276000012,963.7672276000012,,,,,,,,,,,,,,,,,,,,,,,,,,,,"[0, 0, 0]",,,,,8,f,1,13,r,MS,2022_Jan_12_1354,2020.2.10,distractmap1,59.999160009729295,"['Abdomen', 'Right Arm', 'Left Leg', 'Right Leg']",
5,"[0, 0]",0,0,4,4,4,,,,,,,965.8173991000003,965.8173991000003,965.8173991000003,966.817229100001,966.8005579000019,None,1,None,None,"[0, 0, 0]",,,965.8173991000003,965.8173991000003,,,,,,,,,,,,,,,,,,,,,,,,,,,,"[0, 0, 0]",,,,,8,f,1,13,r,MS,2022_Jan_12_1354,2020.2.10,distractmap1,59.999160009729295,"['Abdomen', 'Right Arm', 'Left Leg', 'Right Leg']",
4,"[-0.2, 0]",0,0,5,5,5,,,,,,,967.7839173000029,None,967.7839173000029,968.783912800005,968.7672530999989,969.7672680000032,1,None,None,"[0, 0, 0]",,,967.7839173000029,None,,,,,,,,,,,,,,,,,,,,,,,,,,,,"[0, 0, 0]",,,,,8,f,1,13,r,MS,2022_Jan_12_1354,2020.2.10,distractmap1,59.999160009729295,"['Abdomen', 'Right Arm', 'Left Leg', 'Right Leg']",
9,"[0.2, -0.2]",0,0,6,6,6,,,,,,,969.7839900000035,969.7839900000035,969.7839900000035,970.7839451000036,970.7672706000012,971.7672673000052,1,None,None,"[0, 0, 0]",,,969.7839900000035,969.7839900000035,,,,,,,,,,,,,,,,,,,,,,,,,,,,"[0, 0, 0]",,,,,8,f,1,13,r,MS,2022_Jan_12_1354,2020.2.10,distractmap1,59.999160009729295,"['Abdomen', 'Right Arm', 'Left Leg', 'Right Leg']",
6,"[0.2, 0]",0,0,7,7,7,,,,,,,971.783927299999,971.783927299999,971.783927299999,972.7839384000035,972.7672919000033,973.7672897000011,1,None,None,"[0, 0, 0]",,,971.783927299999,971.783927299999,,,,,,,,,,,,,,,,,,,,,,,,,,,,"[0, 0, 0]",,,,,8,f,1,13,r,MS,2022_Jan_12_1354,2020.2.10,distractmap1,59.999160009729295,"['Abdomen', 'Right Arm', 'Left Leg', 'Right Leg']",
2,"[0, 0.2]",0,0,8,8,8,,,,,,,973.7839480000039,973.7839480000039,973.7839480000039,974.783970299999,974.7672931000052,975.7673139000035,1,None,None,"[0, 0, 0]",,,973.7839480000039,973.7839480000039,,,,,,,,,,,,,,,,,,,,,,,,,,,,"[0, 0, 0]",,,,,8,f,1,13,r,MS,2022_Jan_12_1354,2020.2.10,distractmap1,59.999160009729295,"['Abdomen', 'Right Arm', 'Left Leg', 'Right Leg']",
2,"[0, 0.2]",1,0,9,9,9,,,,,,,975.7839651000031,975.7839651000031,975.7839651000031,976.7839899000028,976.7673106000002,977.7673443000022,1,None,None,"[0, 0, 0]",,,975.7839651000031,975.7839651000031,,,,,,,,,,,,,,,,,,,,,,,,,,,,"[0, 0, 0]",,,,,8,f,1,13,r,MS,2022_Jan_12_1354,2020.2.10,distractmap1,59.999160009729295,"['Abdomen', 'Right Arm', 'Left Leg', 'Right Leg']",
,,,,,,,,,,,977.7839793000021,None,,,,,,,,,,,,,,,,,,,,,,,,,,,,,,,,,,,,,,,,,,,28.888888888888893,958.0023733699927,,,8,f,1,13,r,MS,2022_Jan_12_1354,2020.2.10,distractmap1,59.999160009729295,"['Abdomen', 'Right Arm', 'Left Leg', 'Right Leg']",
2,"[0, 0.2]",None,,,,,0,0,0,0,991.0176028999995,None,,,,,,,,,,,,,,,,,,,,,,None,None,"[0, 0, 0]",997.8508075999998,None,997.8508075999998,998.8508379999985,998.8341303000052,999.834176299999,"[0, 0, 0]",1,997.8508075999998,None,,,,,,,,,,,0.015134630004467908,5.012720930004434,8,f,1,13,r,MS,2022_Jan_12_1354,2020.2.10,distractmap1,59.999160009729295,"['Abdomen', 'Right Arm', 'Left Leg', 'Right Leg']",
5,"[0, 0]",None,,,,,0,1,1,1,,,,,,,,,,,,,,,,,,,,,,,,None,None,"[0, 0, 0]",999.8508404000022,1001.8508245000048,999.8508404000022,1000.8508449000001,1000.8341437000054,1001.8341493000044,"[0, 0, 0]",0,999.8508404000022,1001.8508245000048,,,,,,,,,,,,,8,f,1,13,r,MS,2022_Jan_12_1354,2020.2.10,distractmap1,59.999160009729295,"['Abdomen', 'Right Arm', 'Left Leg', 'Right Leg']",
6,"[0.2, 0]",0,,,,,0,2,2,2,,,,,,,,,,,,,,,,,,,,,,,,None,None,"[0, 0, 0]",1001.8674821000022,1003.867499400003,1001.8674821000022,1002.8675533999995,1002.8508428999994,1003.8508718000012,"[0, 0, 0]",1,1001.8674821000022,1003.867499400003,,,,,,,,,,,,,8,f,1,13,r,MS,2022_Jan_12_1354,2020.2.10,distractmap1,59.999160009729295,"['Abdomen', 'Right Arm', 'Left Leg', 'Right Leg']",
1,"[-0.2, 0.2]",0,,,,,0,3,3,3,,,,,,,,,,,,,,,,,,,,,,,,None,None,"[0, 0, 0]",1003.8841772000014,1005.8841821000024,1003.8841772000014,1004.8841776000045,1004.8675296000001,1005.8675223000027,"[0, 0, 0]",1,1003.8841772000014,1005.8841821000024,,,,,,,,,,,,,8,f,1,13,r,MS,2022_Jan_12_1354,2020.2.10,distractmap1,59.999160009729295,"['Abdomen', 'Right Arm', 'Left Leg', 'Right Leg']",
6,"[0.2, 0]",1,,,,,0,4,4,4,,,,,,,,,,,,,,,,,,,,,,,,None,None,"[0, 0, 0]",1005.9677340999988,None,1005.9677340999988,1006.9675414000012,1006.9508624000009,None,"[0, 0, 0]",1,1005.9677340999988,None,,,,,,,,,,,,,8,f,1,13,r,MS,2022_Jan_12_1354,2020.2.10,distractmap1,59.999160009729295,"['Abdomen', 'Right Arm', 'Left Leg', 'Right Leg']",
6,"[0.2, 0]",0,,,,,0,5,5,5,,,,,,,,,,,,,,,,,,,,,,,,None,None,"[0, 0, 0]",1007.9175346999982,1009.9175360000008,1007.9175346999982,1008.9175411000033,1008.900950700001,1009.9008984000029,"[0, 0, 0]",1,1007.9175346999982,1009.9175360000008,,,,,,,,,,,,,8,f,1,13,r,MS,2022_Jan_12_1354,2020.2.10,distractmap1,59.999160009729295,"['Abdomen', 'Right Arm', 'Left Leg', 'Right Leg']",
9,"[0.2, -0.2]",0,,,,,0,6,6,6,,,,,,,,,,,,,,,,,,,,,,,,None,None,"[0, 0, 0]",1009.9342314000023,1011.9342270000052,1009.9342314000023,1010.9342223999993,1010.9175594000044,1011.9175380000015,"[0, 0, 0]",1,1009.9342314000023,1011.9342270000052,,,,,,,,,,,,,8,f,1,13,r,MS,2022_Jan_12_1354,2020.2.10,distractmap1,59.999160009729295,"['Abdomen', 'Right Arm', 'Left Leg', 'Right Leg']",
6,"[0.2, 0]",1,,,,,0,7,7,7,,,,,,,,,,,,,,,,,,,,,,,,None,None,"[0, 0, 0]",1011.950903900004,1013.9509118999995,1011.950903900004,1012.9509106000041,1012.9342351000014,1013.9342461999986,"[0, 0, 0]",1,1011.950903900004,1013.9509118999995,,,,,,,,,,,,,8,f,1,13,r,MS,2022_Jan_12_1354,2020.2.10,distractmap1,59.999160009729295,"['Abdomen', 'Right Arm', 'Left Leg', 'Right Leg']",
3,"[0.2, 0.2]",0,,,,,0,8,8,8,,,,,,,,,,,,,,,,,,,,,,,,None,None,"[0, 0, 0]",1013.9675590000043,1015.9675881000003,1013.9675590000043,1014.967564300001,1014.9509165999989,1015.9509174999985,"[0, 0, 0]",1,1013.9675590000043,1015.9675881000003,,,,,,,,,,,,,8,f,1,13,r,MS,2022_Jan_12_1354,2020.2.10,distractmap1,59.999160009729295,"['Abdomen', 'Right Arm', 'Left Leg', 'Right Leg']",
9,"[0.2, -0.2]",0,,,,,0,9,9,9,,,,,,,,,,,,,,,,,,,,,,,,None,None,"[0, 0, 0]",1015.9842571000045,1017.9842776000005,1015.9842571000045,1016.9842661000002,1016.9675742000036,1017.9675977000006,"[0, 0, 0]",0,1015.9842571000045,1017.9842776000005,,,,,,,,,,,,,8,f,1,13,r,MS,2022_Jan_12_1354,2020.2.10,distractmap1,59.999160009729295,"['Abdomen', 'Right Arm', 'Left Leg', 'Right Leg']",
,,,,,,,,,,,1018.0009486000054,None,,,,,,,,,,,,,,,,,,,,,,,,,,,,,,,,,,,,,,,,,,,34.876543209876544,998.3370539699972,,,8,f,1,13,r,MS,2022_Jan_12_1354,2020.2.10,distractmap1,59.999160009729295,"['Abdomen', 'Right Arm', 'Left Leg', 'Right Leg']",
3,"[0.2, 0.2]",None,,,,,0,0,0,0,1031.267990100001,None,,,,,,,,,,,,,,,,,,,,,,None,None,"[0, 0, 0]",1038.051098200005,None,1038.051098200005,1039.0510861000002,1039.0344440000044,1040.034470700004,"[0, 0, 0]",1,1038.051098200005,None,,,,,,,,,,,0.014115930003754329,5.010612329999276,8,f,1,13,r,MS,2022_Jan_12_1354,2020.2.10,distractmap1,59.999160009729295,"['Abdomen', 'Right Arm', 'Left Leg', 'Right Leg']",
9,"[0.2, -0.2]",None,,,,,0,1,1,1,,,,,,,,,,,,,,,,,,,,,,,,None,None,"[0, 0, 0]",1040.0511179000023,1042.0511138000002,1040.0511179000023,1041.051112400004,1041.034459100003,1042.0344480999993,"[0, 0, 0]",1,1040.0511179000023,1042.0511138000002,,,,,,,,,,,,,8,f,1,13,r,MS,2022_Jan_12_1354,2020.2.10,distractmap1,59.999160009729295,"['Abdomen', 'Right Arm', 'Left Leg', 'Right Leg']",
3,"[0.2, 0.2]",1,,,,,0,2,2,2,,,,,,,,,,,,,,,,,,,,,,,,None,None,"[0, 0, 0]",1042.067773900002,1044.0678068999987,1042.067773900002,1043.0678028000038,1043.0511340000012,1044.0511337999997,"[0, 0, 0]",1,1042.067773900002,1044.0678068999987,,,,,,,,,,,,,8,f,1,13,r,MS,2022_Jan_12_1354,2020.2.10,distractmap1,59.999160009729295,"['Abdomen', 'Right Arm', 'Left Leg', 'Right Leg']",
7,"[-0.2, -0.2]",0,,,,,0,3,3,3,,,,,,,,,,,,,,,,,,,,,,,,None,None,"[0, 0, 0]",1044.0845228000035,1046.0844885000042,1044.0845228000035,1045.0844760000036,1045.0678182000047,1046.067830400003,"[0, 0, 0]",0,1044.0845228000035,1046.0844885000042,,,,,,,,,,,,,8,f,1,13,r,MS,2022_Jan_12_1354,2020.2.10,distractmap1,59.999160009729295,"['Abdomen', 'Right Arm', 'Left Leg', 'Right Leg']",
8,"[0, -0.2]",0,,,,,0,4,4,4,,,,,,,,,,,,,,,,,,,,,,,,None,None,"[0, 0, 0]",1046.1511204999988,None,1046.1511204999988,1047.151154500003,1047.1345249000005,None,"[0, 0, 0]",1,1046.1511204999988,None,,,,,,,,,,,,,8,f,1,13,r,MS,2022_Jan_12_1354,2020.2.10,distractmap1,59.999160009729295,"['Abdomen', 'Right Arm', 'Left Leg', 'Right Leg']",
4,"[-0.2, 0]",0,,,,,0,5,5,5,,,,,,,,,,,,,,,,,,,,,,,,None,None,"[0, 0, 0]",1048.1178304999994,1050.1178447999991,1048.1178304999994,1049.1178265000053,1049.1011628999986,1050.1011902000027,"[0, 0, 0]",1,1048.1178304999994,1050.1178447999991,,,,,,,,,,,,,8,f,1,13,r,MS,2022_Jan_12_1354,2020.2.10,distractmap1,59.999160009729295,"['Abdomen', 'Right Arm', 'Left Leg', 'Right Leg']",
4,"[-0.2, 0]",0,,,,,0,6,6,6,,,,,,,,,,,,,,,,,,,,,,,,None,None,"[0, 0, 0]",1050.1345384000015,1052.1345382,1050.1345384000015,1051.134539999999,1051.1178480000017,1052.1178670000008,"[0, 0, 0]",1,1050.1345384000015,1052.1345382,,,,,,,,,,,,,8,f,1,13,r,MS,2022_Jan_12_1354,2020.2.10,distractmap1,59.999160009729295,"['Abdomen', 'Right Arm', 'Left Leg', 'Right Leg']",
1,"[-0.2, 0.2]",0,,,,,0,7,7,7,,,,,,,,,,,,,,,,,,,,,,,,None,None,"[0, 0, 0]",1052.151191500001,1054.151211700002,1052.151191500001,1053.1512053000042,1053.1346746999989,1054.1345471000022,"[0, 0, 0]",1,1052.151191500001,1054.151211700002,,,,,,,,,,,,,8,f,1,13,r,MS,2022_Jan_12_1354,2020.2.10,distractmap1,59.999160009729295,"['Abdomen', 'Right Arm', 'Left Leg', 'Right Leg']",
4,"[-0.2, 0]",1,,,,,0,8,8,8,,,,,,,,,,,,,,,,,,,,,,,,None,None,"[0, 0, 0]",1054.1678777000052,1056.1678949999987,1054.1678777000052,1055.1679102999988,1055.1512122999993,1056.1512195000032,"[0, 0, 0]",1,1054.1678777000052,1056.1678949999987,,,,,,,,,,,,,8,f,1,13,r,MS,2022_Jan_12_1354,2020.2.10,distractmap1,59.999160009729295,"['Abdomen', 'Right Arm', 'Left Leg', 'Right Leg']",
8,"[0, -0.2]",0,,,,,0,9,9,9,,,,,,,,,,,,,,,,,,,,,,,,None,None,"[0, 0, 0]",1056.1845820000017,1058.1845719000048,1056.1845820000017,1057.1845385999986,1057.167884100003,1058.1678939999983,"[0, 0, 0]",1,1056.1845820000017,1058.1845719000048,,,,,,,,,,,,,8,f,1,13,r,MS,2022_Jan_12_1354,2020.2.10,distractmap1,59.999160009729295,"['Abdomen', 'Right Arm', 'Left Leg', 'Right Leg']",
,,,,,,,,,,,1058.2012489000044,None,,,,,,,,,,,,,,,,,,,,,,,,,,,,,,,,,,,,,,,,,,,33.33333333333333,1041.9539157699983,,,8,f,1,13,r,MS,2022_Jan_12_1354,2020.2.10,distractmap1,59.999160009729295,"['Abdomen', 'Right Arm', 'Left Leg', 'Right Leg']",
2,"[0, 0.2]",None,0,0,0,0,,,,,1073.7014034000022,None,1078.2680518000052,None,1078.2680518000052,1079.2680594999983,1079.251423900001,1080.2513909000045,1,None,None,"[0, 0, 0]",,,1078.2680518000052,None,,,,,,,,,,,,,,,,,,,,,,,,,,,,"[0, 0, 0]",,,0.014262130003771745,5.011001129998476,8,f,1,13,r,MS,2022_Jan_12_1354,2020.2.10,distractmap1,59.999160009729295,"['Abdomen', 'Right Arm', 'Left Leg', 'Right Leg']",
8,"[0, -0.2]",0,0,1,1,1,,,,,,,1080.2679801999984,None,1080.2679801999984,1081.2680696000025,1081.2514211000016,1082.2514478000012,1,None,None,"[0, 0, 0]",,,1080.2679801999984,None,,,,,,,,,,,,,,,,,,,,,,,,,,,,"[0, 0, 0]",,,,,8,f,1,13,r,MS,2022_Jan_12_1354,2020.2.10,distractmap1,59.999160009729295,"['Abdomen', 'Right Arm', 'Left Leg', 'Right Leg']",
1,"[-0.2, 0.2]",0,0,2,2,2,,,,,,,1082.2680908000038,1082.2680908000038,1082.2680908000038,1083.268082900002,1083.251422500005,1084.2514112999997,1,None,None,"[0, 0, 0]",,,1082.2680908000038,1082.2680908000038,,,,,,,,,,,,,,,,,,,,,,,,,,,,"[0, 0, 0]",,,,,8,f,1,13,r,MS,2022_Jan_12_1354,2020.2.10,distractmap1,59.999160009729295,"['Abdomen', 'Right Arm', 'Left Leg', 'Right Leg']",
2,"[0, 0.2]",0,0,3,3,3,,,,,,,1084.2680065000022,1084.2680065000022,1084.2680065000022,1085.2681072999985,1085.2514142,1086.251469499999,1,None,None,"[0, 0, 0]",,,1084.2680065000022,1084.2680065000022,,,,,,,,,,,,,,,,,,,,,,,,,,,,"[0, 0, 0]",,,,,8,f,1,13,r,MS,2022_Jan_12_1354,2020.2.10,distractmap1,59.999160009729295,"['Abdomen', 'Right Arm', 'Left Leg', 'Right Leg']",
2,"[0, 0.2]",1,0,4,4,4,,,,,,,1086.3026265000008,1086.3026265000008,1086.3026265000008,1087.3181057000038,1087.2847454000002,None,1,None,None,"[0, 0, 0]",,,1086.3026265000008,1086.3026265000008,,,,,,,,,,,,,,,,,,,,,,,,,,,,"[0, 0, 0]",,,,,8,f,1,13,r,MS,2022_Jan_12_1354,2020.2.10,distractmap1,59.999160009729295,"['Abdomen', 'Right Arm', 'Left Leg', 'Right Leg']",
7,"[-0.2, -0.2]",0,0,5,5,5,,,,,,,1088.2848049000022,None,1088.2848049000022,1089.2848152000006,1089.2681347000034,1090.2681426999989,1,None,None,"[0, 0, 0]",,,1088.2848049000022,None,,,,,,,,,,,,,,,,,,,,,,,,,,,,"[0, 0, 0]",,,,,8,f,1,13,r,MS,2022_Jan_12_1354,2020.2.10,distractmap1,59.999160009729295,"['Abdomen', 'Right Arm', 'Left Leg', 'Right Leg']",
9,"[0.2, -0.2]",0,0,6,6,6,,,,,,,1090.2847086000038,1090.2847086000038,1090.2847086000038,1091.2847431000046,1091.2681544000006,1092.2681527000022,1,None,None,"[0, 0, 0]",,,1090.2847086000038,1090.2847086000038,,,,,,,,,,,,,,,,,,,,,,,,,,,,"[0, 0, 0]",,,,,8,f,1,13,r,MS,2022_Jan_12_1354,2020.2.10,distractmap1,59.999160009729295,"['Abdomen', 'Right Arm', 'Left Leg', 'Right Leg']",
9,"[0.2, -0.2]",1,0,7,7,7,,,,,,,1092.2847174000053,1092.2847174000053,1092.2847174000053,1093.2848511999982,1093.268168100003,1094.2681704999995,0,None,None,"[0, 0, 0]",,,1092.2847174000053,1092.2847174000053,,,,,,,,,,,,,,,,,,,,,,,,,,,,"[0, 0, 0]",,,,,8,f,1,13,r,MS,2022_Jan_12_1354,2020.2.10,distractmap1,59.999160009729295,"['Abdomen', 'Right Arm', 'Left Leg', 'Right Leg']",
4,"[-0.2, 0]",0,0,8,8,8,,,,,,,1094.2848802000008,1094.2848802000008,1094.2848802000008,1095.2848586000036,1095.2681875000053,1096.2681802000006,1,None,None,"[0, 0, 0]",,,1094.2848802000008,1094.2848802000008,,,,,,,,,,,,,,,,,,,,,,,,,,,,"[0, 0, 0]",,,,,8,f,1,13,r,MS,2022_Jan_12_1354,2020.2.10,distractmap1,59.999160009729295,"['Abdomen', 'Right Arm', 'Left Leg', 'Right Leg']",
5,"[0, 0]",0,0,9,9,9,,,,,,,1096.2848797000042,1096.2848797000042,1096.2848797000042,1097.2848558000042,1097.2681955000007,1098.2681830000001,1,None,None,"[0, 0, 0]",,,1096.2848797000042,1096.2848797000042,,,,,,,,,,,,,,,,,,,,,,,,,,,,"[0, 0, 0]",,,,,8,f,1,13,r,MS,2022_Jan_12_1354,2020.2.10,distractmap1,59.999160009729295,"['Abdomen', 'Right Arm', 'Left Leg', 'Right Leg']",
,,,,,,,,,,,1098.284854700003,None,,,,,,,,,,,,,,,,,,,,,,,,,,,,,,,,,,,,,,,,,,,34.01234567901235,1079.0868393700002,,,8,f,1,13,r,MS,2022_Jan_12_1354,2020.2.10,distractmap1,59.999160009729295,"['Abdomen', 'Right Arm', 'Left Leg', 'Right Leg']",
2,"[0, 0.2]",None,0,0,0,0,,,,,1111.5185592999987,None,1118.335014700002,None,1118.335014700002,1119.3350236000042,1119.3183646000034,1120.3183508000002,1,None,None,"[0, 0, 0]",,,1118.335014700002,None,,,,,,,,,,,,,,,,,,,,,,,,,,,,"[0, 0, 0]",,,0.014896230000886135,5.0123051299960935,8,f,1,13,r,MS,2022_Jan_12_1354,2020.2.10,distractmap1,59.999160009729295,"['Abdomen', 'Right Arm', 'Left Leg', 'Right Leg']",
2,"[0, 0.2]",1,0,1,1,1,,,,,,,1120.3350333999988,None,1120.3350333999988,1121.3349607000055,1121.3183552000046,1122.3183816000019,1,None,None,"[0, 0, 0]",,,1120.3350333999988,None,,,,,,,,,,,,,,,,,,,,,,,,,,,,"[0, 0, 0]",,,,,8,f,1,13,r,MS,2022_Jan_12_1354,2020.2.10,distractmap1,59.999160009729295,"['Abdomen', 'Right Arm', 'Left Leg', 'Right Leg']",
1,"[-0.2, 0.2]",0,0,2,2,2,,,,,,,1122.3350420999996,1122.3350420999996,1122.3350420999996,1123.3350639000055,1123.3183845000021,1124.3183923000033,1,None,None,"[0, 0, 0]",,,1122.3350420999996,1122.3350420999996,,,,,,,,,,,,,,,,,,,,,,,,,,,,"[0, 0, 0]",,,,,8,f,1,13,r,MS,2022_Jan_12_1354,2020.2.10,distractmap1,59.999160009729295,"['Abdomen', 'Right Arm', 'Left Leg', 'Right Leg']",
2,"[0, 0.2]",0,0,3,3,3,,,,,,,1124.3350524000052,1124.3350524000052,1124.3350524000052,1125.335068600005,1125.3184043,1126.318384600003,1,None,None,"[0, 0, 0]",,,1124.3350524000052,1124.3350524000052,,,,,,,,,,,,,,,,,,,,,,,,,,,,"[0, 0, 0]",,,,,8,f,1,13,r,MS,2022_Jan_12_1354,2020.2.10,distractmap1,59.999160009729295,"['Abdomen', 'Right Arm', 'Left Leg', 'Right Leg']",
2,"[0, 0.2]",1,0,4,4,4,,,,,,,1126.3853345000025,1126.3853345000025,1126.3853345000025,1127.3850865999993,1127.3684158000033,None,1,None,None,"[0, 0, 0]",,,1126.3853345000025,1126.3853345000025,,,,,,,,,,,,,,,,,,,,,,,,,,,,"[0, 0, 0]",,,,,8,f,1,13,r,MS,2022_Jan_12_1354,2020.2.10,distractmap1,59.999160009729295,"['Abdomen', 'Right Arm', 'Left Leg', 'Right Leg']",
4,"[-0.2, 0]",0,0,5,5,5,,,,,,,1128.3517579000036,None,1128.3517579000036,1129.3517549000026,1129.3350900000005,1130.3350924000042,1,None,None,"[0, 0, 0]",,,1128.3517579000036,None,,,,,,,,,,,,,,,,,,,,,,,,,,,,"[0, 0, 0]",,,,,8,f,1,13,r,MS,2022_Jan_12_1354,2020.2.10,distractmap1,59.999160009729295,"['Abdomen', 'Right Arm', 'Left Leg', 'Right Leg']",
6,"[0.2, 0]",0,0,6,6,6,,,,,,,1130.3517795000007,1130.3517795000007,1130.3517795000007,1131.3517715000053,1131.3351049000048,1132.3351107999988,0,None,None,"[0, 0, 0]",,,1130.3517795000007,1130.3517795000007,,,,,,,,,,,,,,,,,,,,,,,,,,,,"[0, 0, 0]",,,,,8,f,1,13,r,MS,2022_Jan_12_1354,2020.2.10,distractmap1,59.999160009729295,"['Abdomen', 'Right Arm', 'Left Leg', 'Right Leg']",
8,"[0, -0.2]",0,0,7,7,7,,,,,,,1132.3517743000048,1132.3517743000048,1132.3517743000048,1133.351766300002,1133.3351353000035,1134.3351346000054,1,None,None,"[0, 0, 0]",,,1132.3517743000048,1132.3517743000048,,,,,,,,,,,,,,,,,,,,,,,,,,,,"[0, 0, 0]",,,,,8,f,1,13,r,MS,2022_Jan_12_1354,2020.2.10,distractmap1,59.999160009729295,"['Abdomen', 'Right Arm', 'Left Leg', 'Right Leg']",
9,"[0.2, -0.2]",0,0,8,8,8,,,,,,,1134.3517944999985,1134.3517944999985,1134.3517944999985,1135.3518834999995,1135.3351776000054,1136.3351402000044,1,None,None,"[0, 0, 0]",,,1134.3517944999985,1134.3517944999985,,,,,,,,,,,,,,,,,,,,,,,,,,,,"[0, 0, 0]",,,,,8,f,1,13,r,MS,2022_Jan_12_1354,2020.2.10,distractmap1,59.999160009729295,"['Abdomen', 'Right Arm', 'Left Leg', 'Right Leg']",
9,"[0.2, -0.2]",1,0,9,9,9,,,,,,,1136.3518034000008,1136.3518034000008,1136.3518034000008,1137.351824199999,1137.3351469000045,1138.3351694000012,0,None,None,"[0, 0, 0]",,,1136.3518034000008,1136.3518034000008,,,,,,,,,,,,,,,,,,,,,,,,,,,,"[0, 0, 0]",,,,,8,f,1,13,r,MS,2022_Jan_12_1354,2020.2.10,distractmap1,59.999160009729295,"['Abdomen', 'Right Arm', 'Left Leg', 'Right Leg']",
,,,,,,,,,,,1138.3518200000035,None,,,,,,,,,,,,,,,,,,,,,,,,,,,,,,,,,,,,,,,,,,,32.71604938271605,1120.7872813700014,,,8,f,1,13,r,MS,2022_Jan_12_1354,2020.2.10,distractmap1,59.999160009729295,"['Abdomen', 'Right Arm', 'Left Leg', 'Right Leg']",
4,"[-0.2, 0]",None,0,0,0,0,,,,,1153.6022015000053,None,1158.4019953000025,None,1158.4019953000025,1159.4019816,1159.3853247000006,1160.3853247000006,1,None,None,"[0, 0, 0]",,,1158.4019953000025,None,,,,,,,,,,,,,,,,,,,,,,,,,,,,"[0, 0, 0]",,,0.014785829996981192,5.012088329996914,8,f,1,13,r,MS,2022_Jan_12_1354,2020.2.10,distractmap1,59.999160009729295,"['Abdomen', 'Right Arm', 'Left Leg', 'Right Leg']",
7,"[-0.2, -0.2]",0,0,1,1,1,,,,,,,1160.4019898000042,None,1160.4019898000042,1161.4018862000012,1161.3853229000015,1162.3853492000053,1,None,None,"[0, 0, 0]",,,1160.4019898000042,None,,,,,,,,,,,,,,,,,,,,,,,,,,,,"[0, 0, 0]",,,,,8,f,1,13,r,MS,2022_Jan_12_1354,2020.2.10,distractmap1,59.999160009729295,"['Abdomen', 'Right Arm', 'Left Leg', 'Right Leg']",
7,"[-0.2, -0.2]",1,0,2,2,2,,,,,,,1162.4020111999998,1162.4020111999998,1162.4020111999998,1163.402019699999,1163.3856818999993,1164.385350000004,1,None,None,"[0, 0, 0]",,,1162.4020111999998,1162.4020111999998,,,,,,,,,,,,,,,,,,,,,,,,,,,,"[0, 0, 0]",,,,,8,f,1,13,r,MS,2022_Jan_12_1354,2020.2.10,distractmap1,59.999160009729295,"['Abdomen', 'Right Arm', 'Left Leg', 'Right Leg']",
4,"[-0.2, 0]",0,0,3,3,3,,,,,,,1164.4020100000052,1164.4020100000052,1164.4020100000052,1165.402006000004,1165.385363100002,1166.3853732999996,1,None,None,"[0, 0, 0]",,,1164.4020100000052,1164.4020100000052,,,,,,,,,,,,,,,,,,,,,,,,,,,,"[0, 0, 0]",,,,,8,f,1,13,r,MS,2022_Jan_12_1354,2020.2.10,distractmap1,59.999160009729295,"['Abdomen', 'Right Arm', 'Left Leg', 'Right Leg']",
8,"[0, -0.2]",0,0,4,4,4,,,,,,,1166.435631100001,1166.435631100001,1166.435631100001,1167.4353564999983,1167.4187012000039,None,1,None,None,"[0, 0, 0]",,,1166.435631100001,1166.435631100001,,,,,,,,,,,,,,,,,,,,,,,,,,,,"[0, 0, 0]",,,,,8,f,1,13,r,MS,2022_Jan_12_1354,2020.2.10,distractmap1,59.999160009729295,"['Abdomen', 'Right Arm', 'Left Leg', 'Right Leg']",
4,"[-0.2, 0]",0,0,5,5,5,,,,,,,1168.4187096000023,None,1168.4187096000023,1169.4187058000025,1169.4019331000018,1170.4020602000019,1,None,None,"[0, 0, 0]",,,1168.4187096000023,None,,,,,,,,,,,,,,,,,,,,,,,,,,,,"[0, 0, 0]",,,,,8,f,1,13,r,MS,2022_Jan_12_1354,2020.2.10,distractmap1,59.999160009729295,"['Abdomen', 'Right Arm', 'Left Leg', 'Right Leg']",
7,"[-0.2, -0.2]",0,0,6,6,6,,,,,,,1170.4187138999987,1170.4187138999987,1170.4187138999987,1171.4187260000035,1171.4020799999998,1172.402071000004,1,None,None,"[0, 0, 0]",,,1170.4187138999987,1170.4187138999987,,,,,,,,,,,,,,,,,,,,,,,,,,,,"[0, 0, 0]",,,,,8,f,1,13,r,MS,2022_Jan_12_1354,2020.2.10,distractmap1,59.999160009729295,"['Abdomen', 'Right Arm', 'Left Leg', 'Right Leg']",
6,"[0.2, 0]",0,0,7,7,7,,,,,,,1172.4187186999989,1172.4187186999989,1172.4187186999989,1173.418738100001,1173.402081799999,1174.402097099999,1,None,None,"[0, 0, 0]",,,1172.4187186999989,1172.4187186999989,,,,,,,,,,,,,,,,,,,,,,,,,,,,"[0, 0, 0]",,,,,8,f,1,13,r,MS,2022_Jan_12_1354,2020.2.10,distractmap1,59.999160009729295,"['Abdomen', 'Right Arm', 'Left Leg', 'Right Leg']",
6,"[0.2, 0]",1,0,8,8,8,,,,,,,1174.4187491999983,1174.4187491999983,1174.4187491999983,1175.418751600002,1175.4021128000022,1176.4021227999983,1,None,None,"[0, 0, 0]",,,1174.4187491999983,1174.4187491999983,,,,,,,,,,,,,,,,,,,,,,,,,,,,"[0, 0, 0]",,,,,8,f,1,13,r,MS,2022_Jan_12_1354,2020.2.10,distractmap1,59.999160009729295,"['Abdomen', 'Right Arm', 'Left Leg', 'Right Leg']",
1,"[-0.2, 0.2]",0,0,9,9,9,,,,,,,1176.418752000005,1176.418752000005,1176.418752000005,1177.4187568999987,1177.4021175000016,1178.4021176000024,1,None,None,"[0, 0, 0]",,,1176.418752000005,1176.418752000005,,,,,,,,,,,,,,,,,,,,,,,,,,,,"[0, 0, 0]",,,,,8,f,1,13,r,MS,2022_Jan_12_1354,2020.2.10,distractmap1,59.999160009729295,"['Abdomen', 'Right Arm', 'Left Leg', 'Right Leg']",
,,,,,,,,,,,1178.4187691000043,None,,,,,,,,,,,,,,,,,,,,,,,,,,,,,,,,,,,,,,,,,,,28.518518518518515,1161.037590070002,,,8,f,1,13,r,MS,2022_Jan_12_1354,2020.2.10,distractmap1,59.999160009729295,"['Abdomen', 'Right Arm', 'Left Leg', 'Right Leg']",
2,"[0, 0.2]",None,,,,,0,0,0,0,1194.3522537000026,None,,,,,,,,,,,,,,,,,,,,,,None,None,"[0, 0, 0]",1198.4855880000032,None,1198.4855880000032,1199.4855726000023,1199.468934800003,1200.4689451000013,"[0, 0, 0]",1,1198.4855880000032,None,,,,,,,,,,,0.01476732999435626,5.0119979299925035,8,f,1,13,r,MS,2022_Jan_12_1354,2020.2.10,distractmap1,59.999160009729295,"['Abdomen', 'Right Arm', 'Left Leg', 'Right Leg']",
5,"[0, 0]",None,,,,,0,1,1,1,,,,,,,,,,,,,,,,,,,,,,,,None,None,"[0, 0, 0]",1200.4856163000004,1202.485595500002,1200.4856163000004,1201.4856083999985,1201.4689558000027,1202.4689629999993,"[0, 0, 0]",1,1200.4856163000004,1202.485595500002,,,,,,,,,,,,,8,f,1,13,r,MS,2022_Jan_12_1354,2020.2.10,distractmap1,59.999160009729295,"['Abdomen', 'Right Arm', 'Left Leg', 'Right Leg']",
3,"[0.2, 0.2]",0,,,,,0,2,2,2,,,,,,,,,,,,,,,,,,,,,,,,None,None,"[0, 0, 0]",1202.502314700003,1204.5023089000024,1202.502314700003,1203.502312800003,1203.485624300003,1204.485633700002,"[0, 0, 0]",1,1202.502314700003,1204.5023089000024,,,,,,,,,,,,,8,f,1,13,r,MS,2022_Jan_12_1354,2020.2.10,distractmap1,59.999160009729295,"['Abdomen', 'Right Arm', 'Left Leg', 'Right Leg']",
5,"[0, 0]",1,,,,,0,3,3,3,,,,,,,,,,,,,,,,,,,,,,,,None,None,"[0, 0, 0]",1204.5189883999992,1206.5189912999995,1204.5189883999992,1205.5189916000018,1205.5023279000015,1206.5023344,"[0, 0, 0]",1,1204.5189883999992,1206.5189912999995,,,,,,,,,,,,,8,f,1,13,r,MS,2022_Jan_12_1354,2020.2.10,distractmap1,59.999160009729295,"['Abdomen', 'Right Arm', 'Left Leg', 'Right Leg']",
2,"[0, 0.2]",0,,,,,0,4,4,4,,,,,,,,,,,,,,,,,,,,,,,,None,None,"[0, 0, 0]",1206.568777600005,None,1206.568777600005,1207.5689944000042,1207.552347900004,None,"[0, 0, 0]",1,1206.568777600005,None,,,,,,,,,,,,,8,f,1,13,r,MS,2022_Jan_12_1354,2020.2.10,distractmap1,59.999160009729295,"['Abdomen', 'Right Arm', 'Left Leg', 'Right Leg']",
8,"[0, -0.2]",0,,,,,0,5,5,5,,,,,,,,,,,,,,,,,,,,,,,,None,None,"[0, 0, 0]",1208.5523438000018,1210.5523729999986,1208.5523438000018,1209.5523666000008,1209.5357348000034,1210.5356633000047,"[0, 0, 0]",1,1208.5523438000018,1210.5523729999986,,,,,,,,,,,,,8,f,1,13,r,MS,2022_Jan_12_1354,2020.2.10,distractmap1,59.999160009729295,"['Abdomen', 'Right Arm', 'Left Leg', 'Right Leg']",
4,"[-0.2, 0]",0,,,,,0,6,6,6,,,,,,,,,,,,,,,,,,,,,,,,None,None,"[0, 0, 0]",1210.5688966000016,1212.568917100005,1210.5688966000016,1211.5689302000028,1211.5523672999989,1212.5523844000054,"[0, 0, 0]",1,1210.5688966000016,1212.568917100005,,,,,,,,,,,,,8,f,1,13,r,MS,2022_Jan_12_1354,2020.2.10,distractmap1,59.999160009729295,"['Abdomen', 'Right Arm', 'Left Leg', 'Right Leg']",
8,"[0, -0.2]",1,,,,,0,7,7,7,,,,,,,,,,,,,,,,,,,,,,,,None,None,"[0, 0, 0]",1212.5857090999998,1214.5857184000051,1212.5857090999998,1213.5856496000051,1213.569047500001,1214.5690469000037,"[0, 0, 0]",1,1212.5857090999998,1214.5857184000051,,,,,,,,,,,,,8,f,1,13,r,MS,2022_Jan_12_1354,2020.2.10,distractmap1,59.999160009729295,"['Abdomen', 'Right Arm', 'Left Leg', 'Right Leg']",
7,"[-0.2, -0.2]",0,,,,,0,8,8,8,,,,,,,,,,,,,,,,,,,,,,,,None,None,"[0, 0, 0]",1214.6024331000008,1216.6024179000015,1214.6024331000008,1215.6023982000042,1215.5857139,1216.5857246000014,"[0, 0, 0]",1,1214.6024331000008,1216.6024179000015,,,,,,,,,,,,,8,f,1,13,r,MS,2022_Jan_12_1354,2020.2.10,distractmap1,59.999160009729295,"['Abdomen', 'Right Arm', 'Left Leg', 'Right Leg']",
8,"[0, -0.2]",1,,,,,0,9,9,9,,,,,,,,,,,,,,,,,,,,,,,,None,None,"[0, 0, 0]",1216.6190678999992,1218.6190943000038,1216.6190678999992,1217.6190664000023,1217.6024209000025,1218.6024007000015,"[0, 0, 0]",1,1216.6190678999992,1218.6190943000038,,,,,,,,,,,,,8,f,1,13,r,MS,2022_Jan_12_1354,2020.2.10,distractmap1,59.999160009729295,"['Abdomen', 'Right Arm', 'Left Leg', 'Right Leg']",
,,,,,,,,,,,1218.6357351000042,None,,,,,,,,,,,,,,,,,,,,,,,,,,,,,,,,,,,,,,,,,,,29.38271604938272,1200.0212414700072,,,8,f,1,13,r,MS,2022_Jan_12_1354,2020.2.10,distractmap1,59.999160009729295,"['Abdomen', 'Right Arm', 'Left Leg', 'Right Leg']",
2,"[0, 0.2]",None,,,,,0,0,0,0,1232.0861034000045,None,,,,,,,,,,,,,,,,,,,,,,None,None,"[0, 0, 0]",1238.6859317999988,None,1238.6859317999988,1239.6859034000008,1239.6692337999993,1240.669252700005,"[0, 0, 0]",1,1238.6859317999988,None,,,,,,,,,,,0.014690729993162677,5.011849729999085,8,f,1,13,r,MS,2022_Jan_12_1354,2020.2.10,distractmap1,59.999160009729295,"['Abdomen', 'Right Arm', 'Left Leg', 'Right Leg']",
2,"[0, 0.2]",None,,,,,0,1,1,1,,,,,,,,,,,,,,,,,,,,,,,,None,None,"[0, 0, 0]",1240.6859189000024,1242.6859308999992,1240.6859189000024,1241.6859334000037,1241.669312500002,1242.669256699999,"[0, 0, 0]",1,1240.6859189000024,1242.6859308999992,,,,,,,,,,,,,8,f,1,13,r,MS,2022_Jan_12_1354,2020.2.10,distractmap1,59.999160009729295,"['Abdomen', 'Right Arm', 'Left Leg', 'Right Leg']",
2,"[0, 0.2]",1,,,,,0,2,2,2,,,,,,,,,,,,,,,,,,,,,,,,None,None,"[0, 0, 0]",1242.7025762000048,1244.7025821999996,1242.7025762000048,1243.7025999000034,1243.6858852000005,1244.685953799999,"[0, 0, 0]",1,1242.7025762000048,1244.7025821999996,,,,,,,,,,,,,8,f,1,13,r,MS,2022_Jan_12_1354,2020.2.10,distractmap1,59.999160009729295,"['Abdomen', 'Right Arm', 'Left Leg', 'Right Leg']",
8,"[0, -0.2]",0,,,,,0,3,3,3,,,,,,,,,,,,,,,,,,,,,,,,None,None,"[0, 0, 0]",1244.7192835000023,1246.7192827000035,1244.7192835000023,1245.7191826000053,1245.7026344000042,1246.7025961000036,"[0, 0, 0]",1,1244.7192835000023,1246.7192827000035,,,,,,,,,,,,,8,f,1,13,r,MS,2022_Jan_12_1354,2020.2.10,distractmap1,59.999160009729295,"['Abdomen', 'Right Arm', 'Left Leg', 'Right Leg']",
2,"[0, 0.2]",1,,,,,0,4,4,4,,,,,,,,,,,,,,,,,,,,,,,,None,None,"[0, 0, 0]",1246.785991800003,None,1246.785991800003,1247.7859567999985,1247.769295500002,None,"[0, 0, 0]",1,1246.785991800003,None,,,,,,,,,,,,,8,f,1,13,r,MS,2022_Jan_12_1354,2020.2.10,distractmap1,59.999160009729295,"['Abdomen', 'Right Arm', 'Left Leg', 'Right Leg']",
5,"[0, 0]",0,,,,,0,5,5,5,,,,,,,,,,,,,,,,,,,,,,,,None,None,"[0, 0, 0]",1248.7526345000006,1250.7526484000045,1248.7526345000006,1249.7526384000012,1249.735981800004,1250.7359887999992,"[0, 0, 0]",1,1248.7526345000006,1250.7526484000045,,,,,,,,,,,,,8,f,1,13,r,MS,2022_Jan_12_1354,2020.2.10,distractmap1,59.999160009729295,"['Abdomen', 'Right Arm', 'Left Leg', 'Right Leg']",
1,"[-0.2, 0.2]",0,,,,,0,6,6,6,,,,,,,,,,,,,,,,,,,,,,,,None,None,"[0, 0, 0]",1250.7693508000011,1252.7693306,1250.7693508000011,1251.769380400001,1251.7529685000045,1252.752668000001,"[0, 0, 0]",1,1250.7693508000011,1252.7693306,,,,,,,,,,,,,8,f,1,13,r,MS,2022_Jan_12_1354,2020.2.10,distractmap1,59.999160009729295,"['Abdomen', 'Right Arm', 'Left Leg', 'Right Leg']",
1,"[-0.2, 0.2]",0,,,,,0,7,7,7,,,,,,,,,,,,,,,,,,,,,,,,None,None,"[0, 0, 0]",1252.786010900003,1254.7860110000038,1252.786010900003,1253.786000400003,1253.7693394000016,1254.7693518000015,"[0, 0, 0]",1,1252.786010900003,1254.7860110000038,,,,,,,,,,,,,8,f,1,13,r,MS,2022_Jan_12_1354,2020.2.10,distractmap1,59.999160009729295,"['Abdomen', 'Right Arm', 'Left Leg', 'Right Leg']",
6,"[0.2, 0]",0,,,,,0,8,8,8,,,,,,,,,,,,,,,,,,,,,,,,None,None,"[0, 0, 0]",1254.802681000001,1256.8026931999993,1254.802681000001,1255.802694099999,1255.7860370999988,1256.7860383000007,"[0, 0, 0]",1,1254.802681000001,1256.8026931999993,,,,,,,,,,,,,8,f,1,13,r,MS,2022_Jan_12_1354,2020.2.10,distractmap1,59.999160009729295,"['Abdomen', 'Right Arm', 'Left Leg', 'Right Leg']",
1,"[-0.2, 0.2]",1,,,,,0,9,9,9,,,,,,,,,,,,,,,,,,,,,,,,None,None,"[0, 0, 0]",1256.8193728000042,1258.8194105000002,1256.8193728000042,1257.819381100002,1257.8027191,1258.8027057,"[0, 0, 0]",1,1256.8193728000042,1258.8194105000002,,,,,,,,,,,,,8,f,1,13,r,MS,2022_Jan_12_1354,2020.2.10,distractmap1,59.999160009729295,"['Abdomen', 'Right Arm', 'Left Leg', 'Right Leg']",
,,,,,,,,,,,1258.8360386999993,None,,,,,,,,,,,,,,,,,,,,,,,,,,,,,,,,,,,,,,,,,,,32.901234567901234,1242.1390023699932,,,8,f,1,13,r,MS,2022_Jan_12_1354,2020.2.10,distractmap1,59.999160009729295,"['Abdomen', 'Right Arm', 'Left Leg', 'Right Leg']",
5,"[0, 0]",None,0,0,0,0,,,,,1527.4715934999986,None,1532.2047217,None,1532.2047217,1533.2047291999988,1533.1880298000033,1534.188068800002,1,None,None,"[0, 0, 0]",,,1532.2047217,None,,,,,,,,,,,,,,,,,,,,,1366.6868700999985,1366.6868700999985,None,space,122.99957529999665,1366.6868700999985,None,"[0, 0, 0]",,,0.013956430004327558,5.077085130003979,8,f,1,13,r,MS,2022_Jan_12_1354,2020.2.10,distractmap1,59.999160009729295,"['Abdomen', 'Right Arm', 'Left Leg', 'Right Leg']",
5,"[0, 0]",1,0,1,1,1,,,,,,,1534.2047353000016,None,1534.2047353000016,1535.2047338999982,1535.1880635000052,1536.1880724000002,1,None,None,"[0, 0, 0]",,,1534.2047353000016,None,,,,,,,,,,,,,,,,,,,,,,,,,,,,"[0, 0, 0]",,,,,8,f,1,13,r,MS,2022_Jan_12_1354,2020.2.10,distractmap1,59.999160009729295,"['Abdomen', 'Right Arm', 'Left Leg', 'Right Leg']",
4,"[-0.2, 0]",0,0,2,2,2,,,,,,,1536.2047531999997,1536.2047531999997,1536.2047531999997,1537.2047534000012,1537.1880776000035,1538.188090100004,1,None,None,"[0, 0, 0]",,,1536.2047531999997,1536.2047531999997,,,,,,,,,,,,,,,,,,,,,,,,,,,,"[0, 0, 0]",,,,,8,f,1,13,r,MS,2022_Jan_12_1354,2020.2.10,distractmap1,59.999160009729295,"['Abdomen', 'Right Arm', 'Left Leg', 'Right Leg']",
2,"[0, 0.2]",0,0,3,3,3,,,,,,,1538.2047413000037,1538.2047413000037,1538.2047413000037,1539.204800600004,1539.1880929000035,1540.1881089000017,1,None,None,"[0, 0, 0]",,,1538.2047413000037,1538.2047413000037,,,,,,,,,,,,,,,,,,,,,,,,,,,,"[0, 0, 0]",,,,,8,f,1,13,r,MS,2022_Jan_12_1354,2020.2.10,distractmap1,59.999160009729295,"['Abdomen', 'Right Arm', 'Left Leg', 'Right Leg']",
6,"[0.2, 0]",0,0,4,4,4,,,,,,,1540.2378039000032,1540.2378039000032,1540.2378039000032,1541.2381094000011,1541.221474500002,None,1,None,None,"[0, 0, 0]",,,1540.2378039000032,1540.2378039000032,,,,,,,,,,,,,,,,,,,,,,,,,,,,"[0, 0, 0]",,,,,8,f,1,13,r,MS,2022_Jan_12_1354,2020.2.10,distractmap1,59.999160009729295,"['Abdomen', 'Right Arm', 'Left Leg', 'Right Leg']",
8,"[0, -0.2]",0,0,5,5,5,,,,,,,1542.2214526000025,None,1542.2214526000025,1543.2214747000035,1543.204778600004,1544.2048024000032,1,None,None,"[0, 0, 0]",,,1542.2214526000025,None,,,,,,,,,,,,,,,,,,,,,,,,,,,,"[0, 0, 0]",,,,,8,f,1,13,r,MS,2022_Jan_12_1354,2020.2.10,distractmap1,59.999160009729295,"['Abdomen', 'Right Arm', 'Left Leg', 'Right Leg']",
