square,location,corrAns,trials_2.thisRepN,trials_2.thisTrialN,trials_2.thisN,trials_2.thisIndex,fixation_1.started,fixation_1.stopped,response_2.x,response_2.y,response_2.leftButton,grid_lines_2.started,grid_lines_2.stopped,target_square_2.started,target_square_2.stopped,fixation_3.started,fixation_3.stopped,response_2.click,response_2.corr,response_2.started,response_2.stopped,ScoreReportText.started,ScoreReportText.stopped,ScoreReportResponse.keys,ScoreReportResponse.started,ScoreReportResponse.stopped,BodySiteInstructionText.started,BodySiteImg.started,BodySiteImg.stopped,BodySiteInstructionRead.keys,BodySiteInstructionRead.rt,BodySiteInstructionRead.started,BodySiteInstructionRead.stopped,IntensityRating.response,IntensityRating.rt,IntensityRating.started,IntensityRating.stopped,fixation_rest.started,fixation_rest.stopped,subject number,gender,distractMap first- or second-half (1 or 2),session,handedness,scanner,bodysite1 temp,bodysite2 temp,date,psychopyVersion,expName,frameRate,body_site_order,
6,"[0.2, 0]",None,0,0,0,0,90.61235929990653,None,None,None,"[0, 0, 0]",91.6290369000053,None,91.6290369000053,92.62904449994676,92.61236639996059,93.61238049995154,"[0, 0, 0]",1,91.6290369000053,None,,,,,,,,,,,,,,,,,,,6,M,2,19,R,MH,49,49,2022_Aug_17_1136,2020.2.10,distractmap2,60.00168004586376,"['Left Face', 'Right Leg', 'Left Face', 'Right Leg']",
7,"[-0.2, -0.2]",None,0,1,1,1,,,None,None,"[0, 0, 0]",93.62905879993923,95.62906559999101,93.62905879993923,94.62905779993162,94.6123876000056,95.612388099893,"[0, 0, 0]",1,93.62905879993923,95.62906559999101,,,,,,,,,,,,,,,,,,,6,M,2,19,R,MH,49,49,2022_Aug_17_1136,2020.2.10,distractmap2,60.00168004586376,"['Left Face', 'Right Leg', 'Left Face', 'Right Leg']",
6,"[0.2, 0]",1,0,2,2,2,,,None,None,"[0, 0, 0]",95.6457368999254,97.64574459998403,95.6457368999254,96.64574429998174,96.6290756999515,97.62906449998263,"[0, 0, 0]",1,95.6457368999254,97.64574459998403,,,,,,,,,,,,,,,,,,,6,M,2,19,R,MH,49,49,2022_Aug_17_1136,2020.2.10,distractmap2,60.00168004586376,"['Left Face', 'Right Leg', 'Left Face', 'Right Leg']",
2,"[0, 0.2]",0,0,3,3,3,,,None,None,"[0, 0, 0]",97.6624130998971,99.66243009991013,97.6624130998971,98.66240619996097,98.64576929993927,99.64577439997811,"[0, 0, 0]",1,97.6624130998971,99.66243009991013,,,,,,,,,,,,,,,,,,,6,M,2,19,R,MH,49,49,2022_Aug_17_1136,2020.2.10,distractmap2,60.00168004586376,"['Left Face', 'Right Leg', 'Left Face', 'Right Leg']",
5,"[0, 0]",0,0,4,4,4,,,None,None,"[0, 0, 0]",99.67911339993589,101.6791077000089,99.67911339993589,100.67912449990399,100.66244819993153,101.66244539991021,"[0, 0, 0]",1,99.67911339993589,101.6791077000089,,,,,,,,,,,,,,,,,,,6,M,2,19,R,MH,49,49,2022_Aug_17_1136,2020.2.10,distractmap2,60.00168004586376,"['Left Face', 'Right Leg', 'Left Face', 'Right Leg']",
4,"[-0.2, 0]",0,0,5,5,5,,,None,None,"[0, 0, 0]",101.69577749993186,103.69578879990149,101.69577749993186,102.6957936999388,102.67913319997024,103.67912709992379,"[0, 0, 0]",1,101.69577749993186,103.69578879990149,,,,,,,,,,,,,,,,,,,6,M,2,19,R,MH,49,49,2022_Aug_17_1136,2020.2.10,distractmap2,60.00168004586376,"['Left Face', 'Right Leg', 'Left Face', 'Right Leg']",
4,"[-0.2, 0]",0,0,6,6,6,,,None,None,"[0, 0, 0]",103.71246819989756,105.71247809997294,103.71246819989756,104.71246999991126,104.69580459990539,105.6958178000059,"[0, 0, 0]",1,103.71246819989756,105.71247809997294,,,,,,,,,,,,,,,,,,,6,M,2,19,R,MH,49,49,2022_Aug_17_1136,2020.2.10,distractmap2,60.00168004586376,"['Left Face', 'Right Leg', 'Left Face', 'Right Leg']",
7,"[-0.2, -0.2]",0,0,7,7,7,,,None,None,"[0, 0, 0]",105.72913439990953,107.72916309989523,105.72913439990953,106.72917489998508,106.71250359993428,107.71249369997531,"[0, 0, 0]",1,105.72913439990953,107.72916309989523,,,,,,,,,,,,,,,,,,,6,M,2,19,R,MH,49,49,2022_Aug_17_1136,2020.2.10,distractmap2,60.00168004586376,"['Left Face', 'Right Leg', 'Left Face', 'Right Leg']",
4,"[-0.2, 0]",1,0,8,8,8,,,None,None,"[0, 0, 0]",107.74582819989882,109.7458420000039,107.74582819989882,108.7458362999605,108.72916639992036,109.72918379993644,"[0, 0, 0]",1,107.74582819989882,109.7458420000039,,,,,,,,,,,,,,,,,,,6,M,2,19,R,MH,49,49,2022_Aug_17_1136,2020.2.10,distractmap2,60.00168004586376,"['Left Face', 'Right Leg', 'Left Face', 'Right Leg']",
3,"[0.2, 0.2]",0,0,9,9,9,,,None,None,"[0, 0, 0]",109.76251089992002,111.76252559991553,109.76251089992002,110.7625049999915,110.74586359993555,111.74587619991507,"[0, 0, 0]",1,109.76251089992002,111.76252559991553,,,,,,,,,,,,,,,,,,,6,M,2,19,R,MH,49,49,2022_Aug_17_1136,2020.2.10,distractmap2,60.00168004586376,"['Left Face', 'Right Leg', 'Left Face', 'Right Leg']",
5,"[0, 0]",0,0,10,10,10,,,None,None,"[0, 0, 0]",111.77920409990475,113.77922559995204,111.77920409990475,112.77921680000145,112.76251489995047,113.76253329997417,"[0, 0, 0]",1,111.77920409990475,113.77922559995204,,,,,,,,,,,,,,,,,,,6,M,2,19,R,MH,49,49,2022_Aug_17_1136,2020.2.10,distractmap2,60.00168004586376,"['Left Face', 'Right Leg', 'Left Face', 'Right Leg']",
3,"[0.2, 0.2]",1,0,11,11,11,,,None,None,"[0, 0, 0]",113.79587199992966,115.79589999991003,113.79587199992966,114.79588079999667,114.77923129999544,115.77922279993072,"[0, 0, 0]",1,113.79587199992966,115.79589999991003,,,,,,,,,,,,,,,,,,,6,M,2,19,R,MH,49,49,2022_Aug_17_1136,2020.2.10,distractmap2,60.00168004586376,"['Left Face', 'Right Leg', 'Left Face', 'Right Leg']",
1,"[-0.2, 0.2]",0,0,12,12,12,,,None,None,"[0, 0, 0]",115.81258699996397,117.81259049999062,115.81258699996397,116.8125845999457,116.79591449990403,117.79590949998237,"[0, 0, 0]",1,115.81258699996397,117.81259049999062,,,,,,,,,,,,,,,,,,,6,M,2,19,R,MH,49,49,2022_Aug_17_1136,2020.2.10,distractmap2,60.00168004586376,"['Left Face', 'Right Leg', 'Left Face', 'Right Leg']",
9,"[0.2, -0.2]",0,0,13,13,13,,,None,None,"[0, 0, 0]",117.82925349997822,119.82925829989836,117.82925349997822,118.82926039991435,118.812618499971,119.81258679996245,"[0, 0, 0]",1,117.82925349997822,119.82925829989836,,,,,,,,,,,,,,,,,,,6,M,2,19,R,MH,49,49,2022_Aug_17_1136,2020.2.10,distractmap2,60.00168004586376,"['Left Face', 'Right Leg', 'Left Face', 'Right Leg']",
9,"[0.2, -0.2]",0,0,14,14,14,,,None,None,"[0, 0, 0]",119.84594819997437,121.84594069991726,119.84594819997437,120.84591909998562,120.82928059995174,121.82927849993575,"[0, 0, 0]",1,119.84594819997437,121.84594069991726,,,,,,,,,,,,,,,,,,,6,M,2,19,R,MH,49,49,2022_Aug_17_1136,2020.2.10,distractmap2,60.00168004586376,"['Left Face', 'Right Leg', 'Left Face', 'Right Leg']",
8,"[0, -0.2]",0,0,15,15,15,,,None,None,"[0, 0, 0]",121.86262229993008,123.86262609995902,121.86262229993008,122.862630299991,122.84593119996134,123.84595919994172,"[0, 0, 0]",1,121.86262229993008,123.86262609995902,,,,,,,,,,,,,,,,,,,6,M,2,19,R,MH,49,49,2022_Aug_17_1136,2020.2.10,distractmap2,60.00168004586376,"['Left Face', 'Right Leg', 'Left Face', 'Right Leg']",
6,"[0.2, 0]",0,0,16,16,16,,,None,None,"[0, 0, 0]",123.87929439998697,125.87932369997725,123.87929439998697,124.87932449998334,124.86262599995825,125.86263679992408,"[0, 0, 0]",1,123.87929439998697,125.87932369997725,,,,,,,,,,,,,,,,,,,6,M,2,19,R,MH,49,49,2022_Aug_17_1136,2020.2.10,distractmap2,60.00168004586376,"['Left Face', 'Right Leg', 'Left Face', 'Right Leg']",
3,"[0.2, 0.2]",0,0,17,17,17,,,None,None,"[0, 0, 0]",125.89596059999894,127.89598779997323,125.89596059999894,126.89590929995757,126.87932619999629,127.87931819993537,"[0, 0, 0]",1,125.89596059999894,127.89598779997323,,,,,,,,,,,,,,,,,,,6,M,2,19,R,MH,49,49,2022_Aug_17_1136,2020.2.10,distractmap2,60.00168004586376,"['Left Face', 'Right Leg', 'Left Face', 'Right Leg']",
6,"[0.2, 0]",1,0,18,18,18,,,None,None,"[0, 0, 0]",127.91267789993435,129.91267170000356,127.91267789993435,128.9126787999412,128.89600039995275,129.89601019991096,"[0, 0, 0]",1,127.91267789993435,129.91267170000356,,,,,,,,,,,,,,,,,,,6,M,2,19,R,MH,49,49,2022_Aug_17_1136,2020.2.10,distractmap2,60.00168004586376,"['Left Face', 'Right Leg', 'Left Face', 'Right Leg']",
5,"[0, 0]",0,0,19,19,19,,,None,None,"[0, 0, 0]",129.9293228999013,131.9293327999767,129.9293228999013,130.9293549999129,130.91267679992598,131.91274099994916,"[0, 0, 0]",1,129.9293228999013,131.9293327999767,,,,,,,,,,,,,,,,,,,6,M,2,19,R,MH,49,49,2022_Aug_17_1136,2020.2.10,distractmap2,60.00168004586376,"['Left Face', 'Right Leg', 'Left Face', 'Right Leg']",
7,"[-0.2, -0.2]",0,0,20,20,20,,,None,None,"[0, 0, 0]",131.94600979995448,133.94602959998883,131.94600979995448,132.9460309999995,132.92938240000512,133.9293575999327,"[0, 0, 0]",1,131.94600979995448,133.94602959998883,,,,,,,,,,,,,,,,,,,6,M,2,19,R,MH,49,49,2022_Aug_17_1136,2020.2.10,distractmap2,60.00168004586376,"['Left Face', 'Right Leg', 'Left Face', 'Right Leg']",
5,"[0, 0]",1,0,21,21,21,,,None,None,"[0, 0, 0]",133.96271809993777,135.9627192999469,133.96271809993777,134.9627084999811,134.9460441999836,135.94608619995415,"[0, 0, 0]",1,133.96271809993777,135.9627192999469,,,,,,,,,,,,,,,,,,,6,M,2,19,R,MH,49,49,2022_Aug_17_1136,2020.2.10,distractmap2,60.00168004586376,"['Left Face', 'Right Leg', 'Left Face', 'Right Leg']",
1,"[-0.2, 0.2]",0,0,22,22,22,,,None,None,"[0, 0, 0]",135.97937449999154,137.97940569999628,135.97937449999154,136.97938889998477,136.96273209992796,137.96274849993642,"[0, 0, 0]",1,135.97937449999154,137.97940569999628,,,,,,,,,,,,,,,,,,,6,M,2,19,R,MH,49,49,2022_Aug_17_1136,2020.2.10,distractmap2,60.00168004586376,"['Left Face', 'Right Leg', 'Left Face', 'Right Leg']",
7,"[-0.2, -0.2]",0,0,23,23,23,,,None,None,"[0, 0, 0]",137.99607979995199,139.9960828999756,137.99607979995199,138.99608579999767,138.9793106999714,139.97941169992555,"[0, 0, 0]",1,137.99607979995199,139.9960828999756,,,,,,,,,,,,,,,,,,,6,M,2,19,R,MH,49,49,2022_Aug_17_1136,2020.2.10,distractmap2,60.00168004586376,"['Left Face', 'Right Leg', 'Left Face', 'Right Leg']",
9,"[0.2, -0.2]",0,0,24,24,24,,,None,None,"[0, 0, 0]",140.0127680998994,142.0127639999846,140.0127680998994,141.0127706999192,140.99637529999018,141.9960846999893,"[0, 0, 0]",1,140.0127680998994,142.0127639999846,,,,,,,,,,,,,,,,,,,6,M,2,19,R,MH,49,49,2022_Aug_17_1136,2020.2.10,distractmap2,60.00168004586376,"['Left Face', 'Right Leg', 'Left Face', 'Right Leg']",
3,"[0.2, 0.2]",0,0,25,25,25,,,None,None,"[0, 0, 0]",142.0294235999463,144.02944889990613,142.0294235999463,143.02944879990537,143.0127869999269,144.01278129999992,"[0, 0, 0]",1,142.0294235999463,144.02944889990613,,,,,,,,,,,,,,,,,,,6,M,2,19,R,MH,49,49,2022_Aug_17_1136,2020.2.10,distractmap2,60.00168004586376,"['Left Face', 'Right Leg', 'Left Face', 'Right Leg']",
9,"[0.2, -0.2]",1,0,26,26,26,,,None,None,"[0, 0, 0]",144.0461137999082,146.04613339994103,144.0461137999082,145.0461129999021,145.02946059999522,146.02947399998084,"[0, 0, 0]",1,144.0461137999082,146.04613339994103,,,,,,,,,,,,,,,,,,,6,M,2,19,R,MH,49,49,2022_Aug_17_1136,2020.2.10,distractmap2,60.00168004586376,"['Left Face', 'Right Leg', 'Left Face', 'Right Leg']",
6,"[0.2, 0]",0,0,27,27,27,,,None,None,"[0, 0, 0]",146.0628179999767,148.06281499995384,146.0628179999767,147.06282429990824,147.04613859998062,148.04614739993121,"[0, 0, 0]",1,146.0628179999767,148.06281499995384,,,,,,,,,,,,,,,,,,,6,M,2,19,R,MH,49,49,2022_Aug_17_1136,2020.2.10,distractmap2,60.00168004586376,"['Left Face', 'Right Leg', 'Left Face', 'Right Leg']",
2,"[0, 0.2]",0,0,28,28,28,,,None,None,"[0, 0, 0]",148.07949239993468,150.07951519999187,148.07949239993468,149.07950110000093,149.0628282999387,150.062891199952,"[0, 0, 0]",1,148.07949239993468,150.07951519999187,,,,,,,,,,,,,,,,,,,6,M,2,19,R,MH,49,49,2022_Aug_17_1136,2020.2.10,distractmap2,60.00168004586376,"['Left Face', 'Right Leg', 'Left Face', 'Right Leg']",
5,"[0, 0]",0,0,29,29,29,,,None,None,"[0, 0, 0]",150.096180499997,152.09619449998718,150.096180499997,151.09606619994156,151.07950309989974,152.07951569999568,"[0, 0, 0]",1,150.096180499997,152.09619449998718,,,,,,,,,,,,,,,,,,,6,M,2,19,R,MH,49,49,2022_Aug_17_1136,2020.2.10,distractmap2,60.00168004586376,"['Left Face', 'Right Leg', 'Left Face', 'Right Leg']",
,,,,,,,,,,,,,,,,,,,,,,152.12954769993667,None,space,152.12954769993667,None,,,,,,,,,,,,,,6,M,2,19,R,MH,49,49,2022_Aug_17_1136,2020.2.10,distractmap2,60.00168004586376,"['Left Face', 'Right Leg', 'Left Face', 'Right Leg']",
3,"[0.2, 0.2]",None,0,0,0,0,304.94741549994797,None,None,None,"[0, 0, 0]",309.94706679997034,311.9474740999285,309.94706679997034,310.94746860000305,310.94746860000305,311.9474740999285,"[0, 0, 0]",1,309.94706679997034,311.9474740999285,,,,,,187.73007900000084,187.73007900000084,None,space,93.93861449998803,187.73007900000084,None,,,,,,,6,M,2,19,R,MH,49,49,2022_Aug_17_1136,2020.2.10,distractmap2,60.00168004586376,"['Left Face', 'Right Leg', 'Left Face', 'Right Leg']",
3,"[0.2, 0.2]",None,0,1,1,1,,,None,None,"[0, 0, 0]",311.9641388999298,313.96415409992915,311.9641388999298,312.96416059997864,312.9474709999049,313.94747299992014,"[0, 0, 0]",1,311.9641388999298,313.96415409992915,,,,,,,,,,,,,,,,,,,6,M,2,19,R,MH,49,49,2022_Aug_17_1136,2020.2.10,distractmap2,60.00168004586376,"['Left Face', 'Right Leg', 'Left Face', 'Right Leg']",
5,"[0, 0]",0,0,2,2,2,,,None,None,"[0, 0, 0]",313.9808295998955,315.98086629994214,313.9808295998955,314.9808396999724,314.96416189998854,315.9641707999399,"[0, 0, 0]",1,313.9808295998955,315.98086629994214,,,,,,,,,,,,,,,,,,,6,M,2,19,R,MH,49,49,2022_Aug_17_1136,2020.2.10,distractmap2,60.00168004586376,"['Left Face', 'Right Leg', 'Left Face', 'Right Leg']",
1,"[-0.2, 0.2]",0,0,3,3,3,,,None,None,"[0, 0, 0]",315.99751119990833,317.9975084000034,315.99751119990833,316.997517199954,316.9808834999567,317.98086939996574,"[0, 0, 0]",1,315.99751119990833,317.9975084000034,,,,,,,,,,,,,,,,,,,6,M,2,19,R,MH,49,49,2022_Aug_17_1136,2020.2.10,distractmap2,60.00168004586376,"['Left Face', 'Right Leg', 'Left Face', 'Right Leg']",
5,"[0, 0]",1,0,4,4,4,,,None,None,"[0, 0, 0]",318.0141825999599,320.01420599990524,318.0141825999599,319.01419819996227,318.9974300999893,319.9975368999876,"[0, 0, 0]",1,318.0141825999599,320.01420599990524,,,,,,,,,,,,,,,,,,,6,M,2,19,R,MH,49,49,2022_Aug_17_1136,2020.2.10,distractmap2,60.00168004586376,"['Left Face', 'Right Leg', 'Left Face', 'Right Leg']",
8,"[0, -0.2]",0,0,5,5,5,,,None,None,"[0, 0, 0]",320.03089099994395,322.03089589998126,320.03089099994395,321.03090179990977,321.0142117999494,322.01422129990533,"[0, 0, 0]",1,320.03089099994395,322.03089589998126,,,,,,,,,,,,,,,,,,,6,M,2,19,R,MH,49,49,2022_Aug_17_1136,2020.2.10,distractmap2,60.00168004586376,"['Left Face', 'Right Leg', 'Left Face', 'Right Leg']",
5,"[0, 0]",1,0,6,6,6,,,None,None,"[0, 0, 0]",322.047543499968,324.0475559999468,322.047543499968,323.04756979993545,323.0309029999189,324.03090439992957,"[0, 0, 0]",1,322.047543499968,324.0475559999468,,,,,,,,,,,,,,,,,,,6,M,2,19,R,MH,49,49,2022_Aug_17_1136,2020.2.10,distractmap2,60.00168004586376,"['Left Face', 'Right Leg', 'Left Face', 'Right Leg']",
7,"[-0.2, -0.2]",0,0,7,7,7,,,None,None,"[0, 0, 0]",324.06425219995435,326.06424649991095,324.06425219995435,325.0642419999931,325.0475698999362,326.0475902999751,"[0, 0, 0]",1,324.06425219995435,326.06424649991095,,,,,,,,,,,,,,,,,,,6,M,2,19,R,MH,49,49,2022_Aug_17_1136,2020.2.10,distractmap2,60.00168004586376,"['Left Face', 'Right Leg', 'Left Face', 'Right Leg']",
5,"[0, 0]",1,0,8,8,8,,,None,None,"[0, 0, 0]",326.08092479989864,328.0809246998979,326.08092479989864,327.0809253999032,327.06426359992474,328.06427209998947,"[0, 0, 0]",1,326.08092479989864,328.0809246998979,,,,,,,,,,,,,,,,,,,6,M,2,19,R,MH,49,49,2022_Aug_17_1136,2020.2.10,distractmap2,60.00168004586376,"['Left Face', 'Right Leg', 'Left Face', 'Right Leg']",
7,"[-0.2, -0.2]",1,0,9,9,9,,,None,None,"[0, 0, 0]",328.0976140999701,330.0976168999914,328.0976140999701,329.0976054999046,329.08094809995964,330.08093749999534,"[0, 0, 0]",1,328.0976140999701,330.0976168999914,,,,,,,,,,,,,,,,,,,6,M,2,19,R,MH,49,49,2022_Aug_17_1136,2020.2.10,distractmap2,60.00168004586376,"['Left Face', 'Right Leg', 'Left Face', 'Right Leg']",
,,,,,,,,,,,,,,,,,,,,,,330.1309615999926,None,,,,,,,,,,,,,,,,,6,M,2,19,R,MH,49,49,2022_Aug_17_1136,2020.2.10,distractmap2,60.00168004586376,"['Left Face', 'Right Leg', 'Left Face', 'Right Leg']",
6,"[0.2, 0]",None,0,0,0,0,340.14771759998985,None,None,None,"[0, 0, 0]",345.1476266999962,347.1477688999148,345.1476266999962,346.14776699990034,346.13107759994455,347.1310782999499,"[0, 0, 0]",1,345.1476266999962,347.1477688999148,,,,,,,,,,,,,,,,,,,6,M,2,19,R,MH,49,49,2022_Aug_17_1136,2020.2.10,distractmap2,60.00168004586376,"['Left Face', 'Right Leg', 'Left Face', 'Right Leg']",
1,"[-0.2, 0.2]",None,0,1,1,1,,,None,None,"[0, 0, 0]",347.1644404999679,349.1644367999397,347.1644404999679,348.16444500000216,348.1477857999271,349.14777629997116,"[0, 0, 0]",1,347.1644404999679,349.1644367999397,,,,,,,,,,,,,,,,,,,6,M,2,19,R,MH,49,49,2022_Aug_17_1136,2020.2.10,distractmap2,60.00168004586376,"['Left Face', 'Right Leg', 'Left Face', 'Right Leg']",
6,"[0.2, 0]",1,0,2,2,2,,,None,None,"[0, 0, 0]",349.18103939993307,351.1811060999753,349.18103939993307,350.18109639990143,350.16444809990935,351.1644610000076,"[0, 0, 0]",1,349.18103939993307,351.1811060999753,,,,,,,,,,,,,,,,,,,6,M,2,19,R,MH,49,49,2022_Aug_17_1136,2020.2.10,distractmap2,60.00168004586376,"['Left Face', 'Right Leg', 'Left Face', 'Right Leg']",
4,"[-0.2, 0]",0,0,3,3,3,,,None,None,"[0, 0, 0]",351.197794699925,353.19781189993955,351.197794699925,352.1977995999623,352.18112299998756,353.18114339991007,"[0, 0, 0]",1,351.197794699925,353.19781189993955,,,,,,,,,,,,,,,,,,,6,M,2,19,R,MH,49,49,2022_Aug_17_1136,2020.2.10,distractmap2,60.00168004586376,"['Left Face', 'Right Leg', 'Left Face', 'Right Leg']",
1,"[-0.2, 0.2]",0,0,4,4,4,,,None,None,"[0, 0, 0]",353.21447329991497,355.2144892999204,353.21447329991497,354.21451729990076,354.19781809998676,355.1978321999777,"[0, 0, 0]",1,353.21447329991497,355.2144892999204,,,,,,,,,,,,,,,,,,,6,M,2,19,R,MH,49,49,2022_Aug_17_1136,2020.2.10,distractmap2,60.00168004586376,"['Left Face', 'Right Leg', 'Left Face', 'Right Leg']",
8,"[0, -0.2]",0,0,5,5,5,,,None,None,"[0, 0, 0]",355.2311579999514,357.2311739999568,355.2311579999514,356.23116789991036,356.2145011998946,357.21450779994484,"[0, 0, 0]",1,355.2311579999514,357.2311739999568,,,,,,,,,,,,,,,,,,,6,M,2,19,R,MH,49,49,2022_Aug_17_1136,2020.2.10,distractmap2,60.00168004586376,"['Left Face', 'Right Leg', 'Left Face', 'Right Leg']",
1,"[-0.2, 0.2]",1,0,6,6,6,,,None,None,"[0, 0, 0]",357.24785219994374,359.24787389999256,357.24785219994374,358.24784879991785,358.23120079992805,359.23123489995487,"[0, 0, 0]",1,357.24785219994374,359.24787389999256,,,,,,,,,,,,,,,,,,,6,M,2,19,R,MH,49,49,2022_Aug_17_1136,2020.2.10,distractmap2,60.00168004586376,"['Left Face', 'Right Leg', 'Left Face', 'Right Leg']",
8,"[0, -0.2]",1,0,7,7,7,,,None,None,"[0, 0, 0]",359.26452319999225,361.2645318999421,359.26452319999225,360.2648409999674,360.24788189993706,361.2478908000048,"[0, 0, 0]",1,359.26452319999225,361.2645318999421,,,,,,,,,,,,,,,,,,,6,M,2,19,R,MH,49,49,2022_Aug_17_1136,2020.2.10,distractmap2,60.00168004586376,"['Left Face', 'Right Leg', 'Left Face', 'Right Leg']",
1,"[-0.2, 0.2]",1,0,8,8,8,,,None,None,"[0, 0, 0]",361.28119969996624,363.2812197000021,361.28119969996624,362.28125349991024,362.26454829995055,363.2645641999552,"[0, 0, 0]",1,361.28119969996624,363.2812197000021,,,,,,,,,,,,,,,,,,,6,M,2,19,R,MH,49,49,2022_Aug_17_1136,2020.2.10,distractmap2,60.00168004586376,"['Left Face', 'Right Leg', 'Left Face', 'Right Leg']",
6,"[0.2, 0]",0,0,9,9,9,,,None,None,"[0, 0, 0]",363.29788229998667,365.2979090999579,363.29788229998667,364.2978971999837,364.28121469996404,365.2812634999864,"[0, 0, 0]",1,363.29788229998667,365.2979090999579,,,,,,,,,,,,,,,,,,,6,M,2,19,R,MH,49,49,2022_Aug_17_1136,2020.2.10,distractmap2,60.00168004586376,"['Left Face', 'Right Leg', 'Left Face', 'Right Leg']",
,,,,,,,,,,,,,,,,,,,,,,365.31456089997664,None,,,,,,,,,,,,,,,,,6,M,2,19,R,MH,49,49,2022_Aug_17_1136,2020.2.10,distractmap2,60.00168004586376,"['Left Face', 'Right Leg', 'Left Face', 'Right Leg']",
7,"[-0.2, -0.2]",None,0,0,0,0,377.33133719989564,None,None,None,"[0, 0, 0]",380.33139279996976,382.33138089999557,380.33139279996976,381.33135579992086,381.31471199996304,382.3147270999616,"[0, 0, 0]",1,380.33139279996976,382.33138089999557,,,,,,,,,,,,,,,,,,,6,M,2,19,R,MH,49,49,2022_Aug_17_1136,2020.2.10,distractmap2,60.00168004586376,"['Left Face', 'Right Leg', 'Left Face', 'Right Leg']",
7,"[-0.2, -0.2]",None,0,1,1,1,,,None,None,"[0, 0, 0]",382.3480393999489,384.34805999998935,382.3480393999489,383.3480551999528,383.33139019994996,384.331436199951,"[0, 0, 0]",1,382.3480393999489,384.34805999998935,,,,,,,,,,,,,,,,,,,6,M,2,19,R,MH,49,49,2022_Aug_17_1136,2020.2.10,distractmap2,60.00168004586376,"['Left Face', 'Right Leg', 'Left Face', 'Right Leg']",
7,"[-0.2, -0.2]",1,0,2,2,2,,,None,None,"[0, 0, 0]",384.3647420000052,386.364758499898,384.3647420000052,385.3646299999673,385.34806949994527,386.3480862999568,"[0, 0, 0]",1,384.3647420000052,386.364758499898,,,,,,,,,,,,,,,,,,,6,M,2,19,R,MH,49,49,2022_Aug_17_1136,2020.2.10,distractmap2,60.00168004586376,"['Left Face', 'Right Leg', 'Left Face', 'Right Leg']",
5,"[0, 0]",0,0,3,3,3,,,None,None,"[0, 0, 0]",386.3814285999397,388.38134719990194,386.3814285999397,387.3814018999692,387.3648436999647,388.36476389993913,"[0, 0, 0]",1,386.3814285999397,388.38134719990194,,,,,,,,,,,,,,,,,,,6,M,2,19,R,MH,49,49,2022_Aug_17_1136,2020.2.10,distractmap2,60.00168004586376,"['Left Face', 'Right Leg', 'Left Face', 'Right Leg']",
1,"[-0.2, 0.2]",0,0,4,4,4,,,None,None,"[0, 0, 0]",388.3980953999562,390.3981047999114,388.3980953999562,389.3981134999776,389.38143569999374,390.3814347999869,"[0, 0, 0]",1,388.3980953999562,390.3981047999114,,,,,,,,,,,,,,,,,,,6,M,2,19,R,MH,49,49,2022_Aug_17_1136,2020.2.10,distractmap2,60.00168004586376,"['Left Face', 'Right Leg', 'Left Face', 'Right Leg']",
6,"[0.2, 0]",0,0,5,5,5,,,None,None,"[0, 0, 0]",390.4147815000033,392.4147917999653,390.4147815000033,391.4148125000065,391.39801979996264,392.39812869997695,"[0, 0, 0]",1,390.4147815000033,392.4147917999653,,,,,,,,,,,,,,,,,,,6,M,2,19,R,MH,49,49,2022_Aug_17_1136,2020.2.10,distractmap2,60.00168004586376,"['Left Face', 'Right Leg', 'Left Face', 'Right Leg']",
1,"[-0.2, 0.2]",1,0,6,6,6,,,None,None,"[0, 0, 0]",392.4314669999294,394.43147309997585,392.4314669999294,393.4314589999849,393.4148015999235,394.41482279996853,"[0, 0, 0]",1,392.4314669999294,394.43147309997585,,,,,,,,,,,,,,,,,,,6,M,2,19,R,MH,49,49,2022_Aug_17_1136,2020.2.10,distractmap2,60.00168004586376,"['Left Face', 'Right Leg', 'Left Face', 'Right Leg']",
7,"[-0.2, -0.2]",0,0,7,7,7,,,None,None,"[0, 0, 0]",394.4481905999128,396.44814899994526,394.4481905999128,395.4481830999721,395.43149220000487,396.431480399915,"[0, 0, 0]",1,394.4481905999128,396.44814899994526,,,,,,,,,,,,,,,,,,,6,M,2,19,R,MH,49,49,2022_Aug_17_1136,2020.2.10,distractmap2,60.00168004586376,"['Left Face', 'Right Leg', 'Left Face', 'Right Leg']",
6,"[0.2, 0]",0,0,8,8,8,,,None,None,"[0, 0, 0]",396.46483169996645,398.46485369990114,396.46483169996645,397.4648475999711,397.44816969998647,398.44817439990584,"[0, 0, 0]",1,396.46483169996645,398.46485369990114,,,,,,,,,,,,,,,,,,,6,M,2,19,R,MH,49,49,2022_Aug_17_1136,2020.2.10,distractmap2,60.00168004586376,"['Left Face', 'Right Leg', 'Left Face', 'Right Leg']",
7,"[-0.2, -0.2]",1,0,9,9,9,,,None,None,"[0, 0, 0]",398.4815297999885,400.4815141999861,398.4815297999885,399.48152579995804,399.46486539999023,400.46487229992636,"[0, 0, 0]",1,398.4815297999885,400.4815141999861,,,,,,,,,,,,,,,,,,,6,M,2,19,R,MH,49,49,2022_Aug_17_1136,2020.2.10,distractmap2,60.00168004586376,"['Left Face', 'Right Leg', 'Left Face', 'Right Leg']",
,,,,,,,,,,,,,,,,,,,,,,400.4981772999745,None,,,,,,,,,,,,,,,,,6,M,2,19,R,MH,49,49,2022_Aug_17_1136,2020.2.10,distractmap2,60.00168004586376,"['Left Face', 'Right Leg', 'Left Face', 'Right Leg']",
4,"[-0.2, 0]",None,0,0,0,0,410.9483480999479,None,None,None,"[0, 0, 0]",415.51498370000627,None,415.51498370000627,416.51498989993706,416.4983153999783,417.49833489989396,"[0, 0, 0]",1,415.51498370000627,None,,,,,,,,,,,,,,,,,,,6,M,2,19,R,MH,49,49,2022_Aug_17_1136,2020.2.10,distractmap2,60.00168004586376,"['Left Face', 'Right Leg', 'Left Face', 'Right Leg']",
5,"[0, 0]",None,0,1,1,1,,,None,None,"[0, 0, 0]",417.5150125999935,419.5150194999296,417.5150125999935,418.5150089999661,418.4983349998947,419.4983528999146,"[0, 0, 0]",1,417.5150125999935,419.5150194999296,,,,,,,,,,,,,,,,,,,6,M,2,19,R,MH,49,49,2022_Aug_17_1136,2020.2.10,distractmap2,60.00168004586376,"['Left Face', 'Right Leg', 'Left Face', 'Right Leg']",
6,"[0.2, 0]",0,0,2,2,2,,,None,None,"[0, 0, 0]",419.5317081999965,421.53170890000183,419.5317081999965,420.53168989997357,420.5145287999185,421.5150388999609,"[0, 0, 0]",1,419.5317081999965,421.53170890000183,,,,,,,,,,,,,,,,,,,6,M,2,19,R,MH,49,49,2022_Aug_17_1136,2020.2.10,distractmap2,60.00168004586376,"['Left Face', 'Right Leg', 'Left Face', 'Right Leg']",
1,"[-0.2, 0.2]",0,0,3,3,3,,,None,None,"[0, 0, 0]",421.5483677999582,423.5483768999111,421.5483677999582,422.54836899996735,422.5317151999334,423.53175490000285,"[0, 0, 0]",1,421.5483677999582,423.5483768999111,,,,,,,,,,,,,,,,,,,6,M,2,19,R,MH,49,49,2022_Aug_17_1136,2020.2.10,distractmap2,60.00168004586376,"['Left Face', 'Right Leg', 'Left Face', 'Right Leg']",
6,"[0.2, 0]",1,0,4,4,4,,,None,None,"[0, 0, 0]",423.59838929993566,None,423.59838929993566,424.5983748999424,424.58179359999485,None,"[0, 0, 0]",1,423.59838929993566,None,,,,,,,,,,,,,,,,,,,6,M,2,19,R,MH,49,49,2022_Aug_17_1136,2020.2.10,distractmap2,60.00168004586376,"['Left Face', 'Right Leg', 'Left Face', 'Right Leg']",
1,"[-0.2, 0.2]",1,0,5,5,5,,,None,None,"[0, 0, 0]",425.58175369992387,427.5817652998958,425.58175369992387,426.5816410999978,426.56503539998084,427.5650771999499,"[0, 0, 0]",1,425.58175369992387,427.5817652998958,,,,,,,,,,,,,,,,,,,6,M,2,19,R,MH,49,49,2022_Aug_17_1136,2020.2.10,distractmap2,60.00168004586376,"['Left Face', 'Right Leg', 'Left Face', 'Right Leg']",
2,"[0, 0.2]",0,0,6,6,6,,,None,None,"[0, 0, 0]",427.5984013999114,429.5984285000013,427.5984013999114,428.5987433999544,428.5820415999042,429.581742499955,"[0, 0, 0]",1,427.5984013999114,429.5984285000013,,,,,,,,,,,,,,,,,,,6,M,2,19,R,MH,49,49,2022_Aug_17_1136,2020.2.10,distractmap2,60.00168004586376,"['Left Face', 'Right Leg', 'Left Face', 'Right Leg']",
3,"[0.2, 0.2]",0,0,7,7,7,,,None,None,"[0, 0, 0]",429.6151005999418,431.61510719999205,429.6151005999418,430.61503449990414,430.5984307999024,431.59844939992763,"[0, 0, 0]",1,429.6151005999418,431.61510719999205,,,,,,,,,,,,,,,,,,,6,M,2,19,R,MH,49,49,2022_Aug_17_1136,2020.2.10,distractmap2,60.00168004586376,"['Left Face', 'Right Leg', 'Left Face', 'Right Leg']",
6,"[0.2, 0]",0,0,8,8,8,,,None,None,"[0, 0, 0]",431.6317984999623,433.6317997999722,431.6317984999623,432.63184889999684,432.6151253998978,433.6151442999253,"[0, 0, 0]",1,431.6317984999623,433.6317997999722,,,,,,,,,,,,,,,,,,,6,M,2,19,R,MH,49,49,2022_Aug_17_1136,2020.2.10,distractmap2,60.00168004586376,"['Left Face', 'Right Leg', 'Left Face', 'Right Leg']",
3,"[0.2, 0.2]",1,0,9,9,9,,,None,None,"[0, 0, 0]",433.6485452000052,435.64847749995533,433.6485452000052,434.6484752999386,434.6317953999387,435.6318127999548,"[0, 0, 0]",1,433.6485452000052,435.64847749995533,,,,,,,,,,,,,,,,,,,6,M,2,19,R,MH,49,49,2022_Aug_17_1136,2020.2.10,distractmap2,60.00168004586376,"['Left Face', 'Right Leg', 'Left Face', 'Right Leg']",
,,,,,,,,,,,,,,,,,,,,,,435.66506879997905,None,,,,,,,,,,,,,,,,,6,M,2,19,R,MH,49,49,2022_Aug_17_1136,2020.2.10,distractmap2,60.00168004586376,"['Left Face', 'Right Leg', 'Left Face', 'Right Leg']",
,,,,,,,,,,,,,,,,,,,,,,,,,,,,,,,,,,23.39506172839506,423.5848515300313,,,,,6,M,2,19,R,MH,49,49,2022_Aug_17_1136,2020.2.10,distractmap2,60.00168004586376,"['Left Face', 'Right Leg', 'Left Face', 'Right Leg']",
2,"[0, 0.2]",None,0,0,0,0,452.9489268999314,None,None,None,"[0, 0, 0]",455.6986580999801,457.6986743999878,455.6986580999801,456.6986549999565,456.6819958999986,457.6819986999035,"[0, 0, 0]",1,455.6986580999801,457.6986743999878,,,,,,,,,,,,,,,0.013611570000648499,5.010176570038311,,,6,M,2,19,R,MH,49,49,2022_Aug_17_1136,2020.2.10,distractmap2,60.00168004586376,"['Left Face', 'Right Leg', 'Left Face', 'Right Leg']",
5,"[0, 0]",None,0,1,1,1,,,None,None,"[0, 0, 0]",457.71533129992895,459.7153422998963,457.71533129992895,458.7153453999199,458.69867189996876,459.6986015998991,"[0, 0, 0]",1,457.71533129992895,459.7153422998963,,,,,,,,,,,,,,,,,,,6,M,2,19,R,MH,49,49,2022_Aug_17_1136,2020.2.10,distractmap2,60.00168004586376,"['Left Face', 'Right Leg', 'Left Face', 'Right Leg']",
6,"[0.2, 0]",0,0,2,2,2,,,None,None,"[0, 0, 0]",459.73201759997755,461.7320398999145,459.73201759997755,460.732031499967,460.71536129992455,461.71537220000755,"[0, 0, 0]",1,459.73201759997755,461.7320398999145,,,,,,,,,,,,,,,,,,,6,M,2,19,R,MH,49,49,2022_Aug_17_1136,2020.2.10,distractmap2,60.00168004586376,"['Left Face', 'Right Leg', 'Left Face', 'Right Leg']",
1,"[-0.2, 0.2]",0,0,3,3,3,,,None,None,"[0, 0, 0]",461.7486962999683,463.74872229993343,461.7486962999683,462.7487148999935,462.73205019999295,463.73194409999996,"[0, 0, 0]",1,461.7486962999683,463.74872229993343,,,,,,,,,,,,,,,,,,,6,M,2,19,R,MH,49,49,2022_Aug_17_1136,2020.2.10,distractmap2,60.00168004586376,"['Left Face', 'Right Leg', 'Left Face', 'Right Leg']",
6,"[0.2, 0]",1,0,4,4,4,,,None,None,"[0, 0, 0]",463.8157242999878,None,463.8157242999878,464.8153893999988,464.7987265998963,None,"[0, 0, 0]",1,463.8157242999878,None,,,,,,,,,,,,,,,,,,,6,M,2,19,R,MH,49,49,2022_Aug_17_1136,2020.2.10,distractmap2,60.00168004586376,"['Left Face', 'Right Leg', 'Left Face', 'Right Leg']",
6,"[0.2, 0]",0,0,5,5,5,,,None,None,"[0, 0, 0]",465.78206379991025,467.7820781999035,465.78206379991025,466.7820731999818,466.7653992999112,467.7654121000087,"[0, 0, 0]",1,465.78206379991025,467.7820781999035,,,,,,,,,,,,,,,,,,,6,M,2,19,R,MH,49,49,2022_Aug_17_1136,2020.2.10,distractmap2,60.00168004586376,"['Left Face', 'Right Leg', 'Left Face', 'Right Leg']",
9,"[0.2, -0.2]",0,0,6,6,6,,,None,None,"[0, 0, 0]",467.79874719993677,469.798768299981,467.79874719993677,468.7987801999552,468.782361999969,469.78209609992336,"[0, 0, 0]",1,467.79874719993677,469.798768299981,,,,,,,,,,,,,,,,,,,6,M,2,19,R,MH,49,49,2022_Aug_17_1136,2020.2.10,distractmap2,60.00168004586376,"['Left Face', 'Right Leg', 'Left Face', 'Right Leg']",
6,"[0.2, 0]",1,0,7,7,7,,,None,None,"[0, 0, 0]",469.8154416999314,471.81545170000754,469.8154416999314,470.8153480999172,470.7987843999872,471.79878109996207,"[0, 0, 0]",1,469.8154416999314,471.81545170000754,,,,,,,,,,,,,,,,,,,6,M,2,19,R,MH,49,49,2022_Aug_17_1136,2020.2.10,distractmap2,60.00168004586376,"['Left Face', 'Right Leg', 'Left Face', 'Right Leg']",
3,"[0.2, 0.2]",0,0,8,8,8,,,None,None,"[0, 0, 0]",471.832121299929,473.832130099996,471.832121299929,472.8321173998993,472.81550289993174,473.8154607999604,"[0, 0, 0]",1,471.832121299929,473.832130099996,,,,,,,,,,,,,,,,,,,6,M,2,19,R,MH,49,49,2022_Aug_17_1136,2020.2.10,distractmap2,60.00168004586376,"['Left Face', 'Right Leg', 'Left Face', 'Right Leg']",
9,"[0.2, -0.2]",0,0,9,9,9,,,None,None,"[0, 0, 0]",473.848811200005,475.8487449999666,473.848811200005,474.84880479995627,474.8321522999322,475.83214719989337,"[0, 0, 0]",1,473.848811200005,475.8487449999666,,,,,,,,,,,,,,,,,,,6,M,2,19,R,MH,49,49,2022_Aug_17_1136,2020.2.10,distractmap2,60.00168004586376,"['Left Face', 'Right Leg', 'Left Face', 'Right Leg']",
,,,,,,,,,,,,,,,,,,,,,,475.8654605000047,None,,,,,,,,,,,,,,,,,6,M,2,19,R,MH,49,49,2022_Aug_17_1136,2020.2.10,distractmap2,60.00168004586376,"['Left Face', 'Right Leg', 'Left Face', 'Right Leg']",
,,,,,,,,,,,,,,,,,,,,,,,,,,,,,,,,,,21.54320987654321,462.9856799299596,,,,,6,M,2,19,R,MH,49,49,2022_Aug_17_1136,2020.2.10,distractmap2,60.00168004586376,"['Left Face', 'Right Leg', 'Left Face', 'Right Leg']",
3,"[0.2, 0.2]",None,0,0,0,0,491.0990078999894,None,None,None,"[0, 0, 0]",495.89897469989955,None,495.89897469989955,496.8989881000016,496.88231969997287,497.8823443999281,"[0, 0, 0]",1,495.89897469989955,None,,,,,,,,,,,,,,,0.01310797012411058,5.009083970100619,,,6,M,2,19,R,MH,49,49,2022_Aug_17_1136,2020.2.10,distractmap2,60.00168004586376,"['Left Face', 'Right Leg', 'Left Face', 'Right Leg']",
9,"[0.2, -0.2]",None,0,1,1,1,,,None,None,"[0, 0, 0]",497.8989963999484,499.89901479997206,497.8989963999484,498.89898949989583,498.882337499992,499.88233890000265,"[0, 0, 0]",1,497.8989963999484,499.89901479997206,,,,,,,,,,,,,,,,,,,6,M,2,19,R,MH,49,49,2022_Aug_17_1136,2020.2.10,distractmap2,60.00168004586376,"['Left Face', 'Right Leg', 'Left Face', 'Right Leg']",
3,"[0.2, 0.2]",1,0,2,2,2,,,None,None,"[0, 0, 0]",499.9156818999909,501.91570109990425,499.9156818999909,500.91556709993165,500.89901459997054,501.89902719995007,"[0, 0, 0]",0,499.9156818999909,501.91570109990425,,,,,,,,,,,,,,,,,,,6,M,2,19,R,MH,49,49,2022_Aug_17_1136,2020.2.10,distractmap2,60.00168004586376,"['Left Face', 'Right Leg', 'Left Face', 'Right Leg']",
7,"[-0.2, -0.2]",0,0,3,3,3,,,None,None,"[0, 0, 0]",501.9323483000044,503.9323815999087,501.9323483000044,502.9323680999223,502.9157153998967,503.91570909996517,"[0, 0, 0]",1,501.9323483000044,503.9323815999087,,,,,,,,,,,,,,,,,,,6,M,2,19,R,MH,49,49,2022_Aug_17_1136,2020.2.10,distractmap2,60.00168004586376,"['Left Face', 'Right Leg', 'Left Face', 'Right Leg']",
8,"[0, -0.2]",0,0,4,4,4,,,None,None,"[0, 0, 0]",504.0157632000046,None,504.0157632000046,505.01605279999785,504.9990517999977,None,"[0, 0, 0]",1,504.0157632000046,None,,,,,,,,,,,,,,,,,,,6,M,2,19,R,MH,49,49,2022_Aug_17_1136,2020.2.10,distractmap2,60.00168004586376,"['Left Face', 'Right Leg', 'Left Face', 'Right Leg']",
4,"[-0.2, 0]",0,0,5,5,5,,,None,None,"[0, 0, 0]",505.9657354999799,507.9657575999154,505.9657354999799,506.9657614999451,506.9490712999832,507.9490732999984,"[0, 0, 0]",1,505.9657354999799,507.9657575999154,,,,,,,,,,,,,,,,,,,6,M,2,19,R,MH,49,49,2022_Aug_17_1136,2020.2.10,distractmap2,60.00168004586376,"['Left Face', 'Right Leg', 'Left Face', 'Right Leg']",
4,"[-0.2, 0]",0,0,6,6,6,,,None,None,"[0, 0, 0]",507.9824120999547,509.9824059999082,507.9824120999547,508.9824321999913,508.9657575999154,509.96576259995345,"[0, 0, 0]",1,507.9824120999547,509.9824059999082,,,,,,,,,,,,,,,,,,,6,M,2,19,R,MH,49,49,2022_Aug_17_1136,2020.2.10,distractmap2,60.00168004586376,"['Left Face', 'Right Leg', 'Left Face', 'Right Leg']",
1,"[-0.2, 0.2]",0,0,7,7,7,,,None,None,"[0, 0, 0]",509.99908370000776,511.9991091999691,509.99908370000776,510.9991013999097,510.9824634999968,511.98244859999977,"[0, 0, 0]",1,509.99908370000776,511.9991091999691,,,,,,,,,,,,,,,,,,,6,M,2,19,R,MH,49,49,2022_Aug_17_1136,2020.2.10,distractmap2,60.00168004586376,"['Left Face', 'Right Leg', 'Left Face', 'Right Leg']",
4,"[-0.2, 0]",1,0,8,8,8,,,None,None,"[0, 0, 0]",512.015762199997,514.0157856999431,512.015762199997,513.015796899912,512.9990993998945,513.999127499992,"[0, 0, 0]",1,512.015762199997,514.0157856999431,,,,,,,,,,,,,,,,,,,6,M,2,19,R,MH,49,49,2022_Aug_17_1136,2020.2.10,distractmap2,60.00168004586376,"['Left Face', 'Right Leg', 'Left Face', 'Right Leg']",
8,"[0, -0.2]",0,0,9,9,9,,,None,None,"[0, 0, 0]",514.032397700008,516.0324885000009,514.032397700008,515.0324657999445,515.0158129999181,516.0158218999859,"[0, 0, 0]",1,514.032397700008,516.0324885000009,,,,,,,,,,,,,,,,,,,6,M,2,19,R,MH,49,49,2022_Aug_17_1136,2020.2.10,distractmap2,60.00168004586376,"['Left Face', 'Right Leg', 'Left Face', 'Right Leg']",
,,,,,,,,,,,,,,,,,,,,,,516.0491320999572,None,,,,,,,,,,,,,,,,,6,M,2,19,R,MH,49,49,2022_Aug_17_1136,2020.2.10,distractmap2,60.00168004586376,"['Left Face', 'Right Leg', 'Left Face', 'Right Leg']",
,,,,,,,,,,,,,,,,,,,,,,,,,,,,,,,,,,19.50617283950617,506.23645543004386,,,,,6,M,2,19,R,MH,49,49,2022_Aug_17_1136,2020.2.10,distractmap2,60.00168004586376,"['Left Face', 'Right Leg', 'Left Face', 'Right Leg']",
,,,,,,,641.0668428000063,None,,,,,,,,,,,,,,,,,,,,,,,,,,27.22222222222222,627.7689990298823,0.012678669998422265,5.00825246993918,621.0666776999133,None,6,M,2,19,R,MH,49,49,2022_Aug_17_1136,2020.2.10,distractmap2,60.00168004586376,"['Left Face', 'Right Leg', 'Left Face', 'Right Leg']",
,,,,,,,676.0838279000018,None,,,,,,,,,,,,,,,,,,,,,,,,,,29.38271604938272,665.2006147300126,0.014469670131802559,5.011603770079091,656.0836433999939,None,6,M,2,19,R,MH,49,49,2022_Aug_17_1136,2020.2.10,distractmap2,60.00168004586376,"['Left Face', 'Right Leg', 'Left Face', 'Right Leg']",
,,,,,,,711.1007712999126,None,,,,,,,,,,,,,,,,,,,,,,,,,,23.271604938271608,701.2342131299665,0.01660147006623447,5.016121870023198,691.1005905999336,None,6,M,2,19,R,MH,49,49,2022_Aug_17_1136,2020.2.10,distractmap2,60.00168004586376,"['Left Face', 'Right Leg', 'Left Face', 'Right Leg']",
2,"[0, 0.2]",None,0,0,0,0,728.417809000006,None,None,None,"[0, 0, 0]",731.1342520999024,None,731.1342520999024,732.1342638999922,732.1176015000092,733.1176290999865,"[0, 0, 0]",1,731.1342520999024,None,,,,,,,,,,,,,,,0.016600770060904324,5.0161061701364815,,,6,M,2,19,R,MH,49,49,2022_Aug_17_1136,2020.2.10,distractmap2,60.00168004586376,"['Left Face', 'Right Leg', 'Left Face', 'Right Leg']",
5,"[0, 0]",None,0,1,1,1,,,None,None,"[0, 0, 0]",733.1342782999855,735.1342968998943,733.1342782999855,734.134290899965,734.1176354999188,735.1176272999728,"[0, 0, 0]",1,733.1342782999855,735.1342968998943,,,,,,,,,,,,,,,,,,,6,M,2,19,R,MH,49,49,2022_Aug_17_1136,2020.2.10,distractmap2,60.00168004586376,"['Left Face', 'Right Leg', 'Left Face', 'Right Leg']",
3,"[0.2, 0.2]",0,0,2,2,2,,,None,None,"[0, 0, 0]",735.1509438999929,737.1508909999393,735.1509438999929,736.1509504999267,736.1343808999518,737.1343149999157,"[0, 0, 0]",1,735.1509438999929,737.1508909999393,,,,,,,,,,,,,,,,,,,6,M,2,19,R,MH,49,49,2022_Aug_17_1136,2020.2.10,distractmap2,60.00168004586376,"['Left Face', 'Right Leg', 'Left Face', 'Right Leg']",
5,"[0, 0]",1,0,3,3,3,,,None,None,"[0, 0, 0]",737.16765139997,739.1676665999694,737.16765139997,738.1676858999999,738.1509749999968,739.1509938999079,"[0, 0, 0]",1,737.16765139997,739.1676665999694,,,,,,,,,,,,,,,,,,,6,M,2,19,R,MH,49,49,2022_Aug_17_1136,2020.2.10,distractmap2,60.00168004586376,"['Left Face', 'Right Leg', 'Left Face', 'Right Leg']",
2,"[0, 0.2]",0,0,4,4,4,,,None,None,"[0, 0, 0]",739.2512451999355,None,739.2512451999355,740.2510163999395,740.2343424999854,None,"[0, 0, 0]",1,739.2512451999355,None,,,,,,,,,,,,,,,,,,,6,M,2,19,R,MH,49,49,2022_Aug_17_1136,2020.2.10,distractmap2,60.00168004586376,"['Left Face', 'Right Leg', 'Left Face', 'Right Leg']",
8,"[0, -0.2]",0,0,5,5,5,,,None,None,"[0, 0, 0]",741.2010145999957,743.2010554999579,741.2010145999957,742.2010487999069,742.1843413999304,743.1843630999792,"[0, 0, 0]",1,741.2010145999957,743.2010554999579,,,,,,,,,,,,,,,,,,,6,M,2,19,R,MH,49,49,2022_Aug_17_1136,2020.2.10,distractmap2,60.00168004586376,"['Left Face', 'Right Leg', 'Left Face', 'Right Leg']",
4,"[-0.2, 0]",0,0,6,6,6,,,None,None,"[0, 0, 0]",743.2176788999932,745.2177104000002,743.2176788999932,744.2177081999835,744.2010244999547,745.201029399992,"[0, 0, 0]",1,743.2176788999932,745.2177104000002,,,,,,,,,,,,,,,,,,,6,M,2,19,R,MH,49,49,2022_Aug_17_1136,2020.2.10,distractmap2,60.00168004586376,"['Left Face', 'Right Leg', 'Left Face', 'Right Leg']",
8,"[0, -0.2]",1,0,7,7,7,,,None,None,"[0, 0, 0]",745.2343854999635,747.2343914998928,745.2343854999635,746.2343989999499,746.2177360999631,747.2177340999478,"[0, 0, 0]",1,745.2343854999635,747.2343914998928,,,,,,,,,,,,,,,,,,,6,M,2,19,R,MH,49,49,2022_Aug_17_1136,2020.2.10,distractmap2,60.00168004586376,"['Left Face', 'Right Leg', 'Left Face', 'Right Leg']",
7,"[-0.2, -0.2]",0,0,8,8,8,,,None,None,"[0, 0, 0]",747.2510770999361,749.2510819999734,747.2510770999361,748.2510699999984,748.2344128999393,749.2343212999403,"[0, 0, 0]",1,747.2510770999361,749.2510819999734,,,,,,,,,,,,,,,,,,,6,M,2,19,R,MH,49,49,2022_Aug_17_1136,2020.2.10,distractmap2,60.00168004586376,"['Left Face', 'Right Leg', 'Left Face', 'Right Leg']",
8,"[0, -0.2]",1,0,9,9,9,,,None,None,"[0, 0, 0]",749.2677500999998,751.2677644999931,749.2677500999998,750.2677744999528,750.251093299943,751.251134699909,"[0, 0, 0]",1,749.2677500999998,751.2677644999931,,,,,,,,,,,,,,,,,,,6,M,2,19,R,MH,49,49,2022_Aug_17_1136,2020.2.10,distractmap2,60.00168004586376,"['Left Face', 'Right Leg', 'Left Face', 'Right Leg']",
,,,,,,,,,,,,,,,,,,,,,,751.2843564999057,None,,,,,,,,,,,,,,,,,6,M,2,19,R,MH,49,49,2022_Aug_17_1136,2020.2.10,distractmap2,60.00168004586376,"['Left Face', 'Right Leg', 'Left Face', 'Right Leg']",
,,,,,,,,,,,,,,,,,,,,,,,,,,,,,,,,,,18.88888888888889,737.9713162300177,,,,,6,M,2,19,R,MH,49,49,2022_Aug_17_1136,2020.2.10,distractmap2,60.00168004586376,"['Left Face', 'Right Leg', 'Left Face', 'Right Leg']",
2,"[0, 0.2]",None,0,0,0,0,767.3342900999123,None,None,None,"[0, 0, 0]",771.31783179997,773.3179648999358,771.31783179997,772.3179393999744,772.3012747999746,773.301199199981,"[0, 0, 0]",1,771.31783179997,773.3179648999358,,,,,,,,,,,,,,,0.01309136999770999,5.009072870016098,,,6,M,2,19,R,MH,49,49,2022_Aug_17_1136,2020.2.10,distractmap2,60.00168004586376,"['Left Face', 'Right Leg', 'Left Face', 'Right Leg']",
2,"[0, 0.2]",None,0,1,1,1,,,None,None,"[0, 0, 0]",773.3346160999499,775.3346386000048,773.3346160999499,774.3846295999829,774.3679720999207,None,"[0, 0, 0]",1,773.3346160999499,775.3346386000048,,,,,,,,,,,,,,,,,,,6,M,2,19,R,MH,49,49,2022_Aug_17_1136,2020.2.10,distractmap2,60.00168004586376,"['Left Face', 'Right Leg', 'Left Face', 'Right Leg']",
2,"[0, 0.2]",1,0,2,2,2,,,None,None,"[0, 0, 0]",775.3512900999049,777.3513137999689,775.3512900999049,776.3513101999415,776.3346373999957,777.3346548998961,"[0, 0, 0]",1,775.3512900999049,777.3513137999689,,,,,,,,,,,,,,,,,,,6,M,2,19,R,MH,49,49,2022_Aug_17_1136,2020.2.10,distractmap2,60.00168004586376,"['Left Face', 'Right Leg', 'Left Face', 'Right Leg']",
8,"[0, -0.2]",0,0,3,3,3,,,None,None,"[0, 0, 0]",777.3679310999578,779.3679969999939,777.3679310999578,778.3679895999376,778.3513050999027,779.3513324999949,"[0, 0, 0]",1,777.3679310999578,779.3679969999939,,,,,,,,,,,,,,,,,,,6,M,2,19,R,MH,49,49,2022_Aug_17_1136,2020.2.10,distractmap2,60.00168004586376,"['Left Face', 'Right Leg', 'Left Face', 'Right Leg']",
2,"[0, 0.2]",1,0,4,4,4,,,None,None,"[0, 0, 0]",779.4183271999937,None,779.4183271999937,780.4180813999847,780.4013439998962,None,"[0, 0, 0]",1,779.4183271999937,None,,,,,,,,,,,,,,,,,,,6,M,2,19,R,MH,49,49,2022_Aug_17_1136,2020.2.10,distractmap2,60.00168004586376,"['Left Face', 'Right Leg', 'Left Face', 'Right Leg']",
5,"[0, 0]",0,0,5,5,5,,,None,None,"[0, 0, 0]",781.4013374999631,783.4013484999305,781.4013374999631,782.4013740000082,782.3846949998988,783.3847022999544,"[0, 0, 0]",1,781.4013374999631,783.4013484999305,,,,,,,,,,,,,,,,,,,6,M,2,19,R,MH,49,49,2022_Aug_17_1136,2020.2.10,distractmap2,60.00168004586376,"['Left Face', 'Right Leg', 'Left Face', 'Right Leg']",
1,"[-0.2, 0.2]",0,0,6,6,6,,,None,None,"[0, 0, 0]",783.4180345999775,785.418050599983,783.4180345999775,784.4180332999676,784.4014097999316,785.4013905999018,"[0, 0, 0]",1,783.4180345999775,785.418050599983,,,,,,,,,,,,,,,,,,,6,M,2,19,R,MH,49,49,2022_Aug_17_1136,2020.2.10,distractmap2,60.00168004586376,"['Left Face', 'Right Leg', 'Left Face', 'Right Leg']",
1,"[-0.2, 0.2]",0,0,7,7,7,,,None,None,"[0, 0, 0]",785.4347267999547,787.4347184000071,785.4347267999547,786.4347245999379,786.4180569999153,787.4180634999648,"[0, 0, 0]",1,785.4347267999547,787.4347184000071,,,,,,,,,,,,,,,,,,,6,M,2,19,R,MH,49,49,2022_Aug_17_1136,2020.2.10,distractmap2,60.00168004586376,"['Left Face', 'Right Leg', 'Left Face', 'Right Leg']",
6,"[0.2, 0]",0,0,8,8,8,,,None,None,"[0, 0, 0]",787.4514038999332,789.4513998999028,787.4514038999332,788.4516595999012,788.4347463999875,789.4347607999807,"[0, 0, 0]",1,787.4514038999332,789.4513998999028,,,,,,,,,,,,,,,,,,,6,M,2,19,R,MH,49,49,2022_Aug_17_1136,2020.2.10,distractmap2,60.00168004586376,"['Left Face', 'Right Leg', 'Left Face', 'Right Leg']",
1,"[-0.2, 0.2]",1,0,9,9,9,,,None,None,"[0, 0, 0]",789.468082599924,791.4681044999743,789.468082599924,790.4680910999887,790.4513062000042,791.4514382999623,"[0, 0, 0]",1,789.468082599924,791.4681044999743,,,,,,,,,,,,,,,,,,,6,M,2,19,R,MH,49,49,2022_Aug_17_1136,2020.2.10,distractmap2,60.00168004586376,"['Left Face', 'Right Leg', 'Left Face', 'Right Leg']",
,,,,,,,,,,,,,,,,,,,,,,791.4846552999225,None,,,,,,,,,,,,,,,,,6,M,2,19,R,MH,49,49,2022_Aug_17_1136,2020.2.10,distractmap2,60.00168004586376,"['Left Face', 'Right Leg', 'Left Face', 'Right Leg']",
,,,,,,,,,,,,,,,,,,,,,,,,,,,,,,,,,,16.728395061728396,781.2216242300346,,,,,6,M,2,19,R,MH,49,49,2022_Aug_17_1136,2020.2.10,distractmap2,60.00168004586376,"['Left Face', 'Right Leg', 'Left Face', 'Right Leg']",
3,"[0.2, 0.2]",None,0,0,0,0,808.7182615000056,None,None,None,"[0, 0, 0]",811.5182656999677,813.5182883999078,811.5182656999677,812.5182801999617,812.5016076999018,813.5016068998957,"[0, 0, 0]",1,811.5182656999677,813.5182883999078,,,,,,,,,,,,,,,0.013121369993314147,5.009166569914669,,,6,M,2,19,R,MH,49,49,2022_Aug_17_1136,2020.2.10,distractmap2,60.00168004586376,"['Left Face', 'Right Leg', 'Left Face', 'Right Leg']",
3,"[0.2, 0.2]",None,0,1,1,1,,,None,None,"[0, 0, 0]",813.5349552999251,815.5348673999542,813.5349552999251,814.5349675999023,814.5182470999425,815.5183030999033,"[0, 0, 0]",1,813.5349552999251,815.5348673999542,,,,,,,,,,,,,,,,,,,6,M,2,19,R,MH,49,49,2022_Aug_17_1136,2020.2.10,distractmap2,60.00168004586376,"['Left Face', 'Right Leg', 'Left Face', 'Right Leg']",
5,"[0, 0]",0,0,2,2,2,,,None,None,"[0, 0, 0]",815.551661400008,817.551652599941,815.551661400008,816.5516544999555,816.5349769999739,817.5349876999389,"[0, 0, 0]",1,815.551661400008,817.551652599941,,,,,,,,,,,,,,,,,,,6,M,2,19,R,MH,49,49,2022_Aug_17_1136,2020.2.10,distractmap2,60.00168004586376,"['Left Face', 'Right Leg', 'Left Face', 'Right Leg']",
1,"[-0.2, 0.2]",0,0,3,3,3,,,None,None,"[0, 0, 0]",817.5683086999925,819.5683428999037,817.5683086999925,818.5683603999205,818.5516802999191,819.5516705999617,"[0, 0, 0]",1,817.5683086999925,819.5683428999037,,,,,,,,,,,,,,,,,,,6,M,2,19,R,MH,49,49,2022_Aug_17_1136,2020.2.10,distractmap2,60.00168004586376,"['Left Face', 'Right Leg', 'Left Face', 'Right Leg']",
5,"[0, 0]",1,0,4,4,4,,,None,None,"[0, 0, 0]",819.6185503999004,None,819.6185503999004,820.6183442999609,820.6016869999003,None,"[0, 0, 0]",1,819.6185503999004,None,,,,,,,,,,,,,,,,,,,6,M,2,19,R,MH,49,49,2022_Aug_17_1136,2020.2.10,distractmap2,60.00168004586376,"['Left Face', 'Right Leg', 'Left Face', 'Right Leg']",
8,"[0, -0.2]",0,0,5,5,5,,,None,None,"[0, 0, 0]",821.6017176999012,823.6017073999392,821.6017176999012,822.6016967999749,822.5850279999431,823.5850491999881,"[0, 0, 0]",1,821.6017176999012,823.6017073999392,,,,,,,,,,,,,,,,,,,6,M,2,19,R,MH,49,49,2022_Aug_17_1136,2020.2.10,distractmap2,60.00168004586376,"['Left Face', 'Right Leg', 'Left Face', 'Right Leg']",
5,"[0, 0]",1,0,6,6,6,,,None,None,"[0, 0, 0]",823.6183667998994,825.6183869999368,823.6183667998994,824.6183929999825,824.6016957999673,825.6017130999826,"[0, 0, 0]",1,823.6183667998994,825.6183869999368,,,,,,,,,,,,,,,,,,,6,M,2,19,R,MH,49,49,2022_Aug_17_1136,2020.2.10,distractmap2,60.00168004586376,"['Left Face', 'Right Leg', 'Left Face', 'Right Leg']",
7,"[-0.2, -0.2]",0,0,7,7,7,,,None,None,"[0, 0, 0]",825.6350619998993,827.635070099961,825.6350619998993,826.6350631999085,826.6184188999468,827.6184141999111,"[0, 0, 0]",1,825.6350619998993,827.635070099961,,,,,,,,,,,,,,,,,,,6,M,2,19,R,MH,49,49,2022_Aug_17_1136,2020.2.10,distractmap2,60.00168004586376,"['Left Face', 'Right Leg', 'Left Face', 'Right Leg']",
5,"[0, 0]",1,0,8,8,8,,,None,None,"[0, 0, 0]",827.6517435999122,829.6517510999693,827.6517435999122,828.6517519999761,828.6351287999423,829.6350894999923,"[0, 0, 0]",1,827.6517435999122,829.6517510999693,,,,,,,,,,,,,,,,,,,6,M,2,19,R,MH,49,49,2022_Aug_17_1136,2020.2.10,distractmap2,60.00168004586376,"['Left Face', 'Right Leg', 'Left Face', 'Right Leg']",
7,"[-0.2, -0.2]",1,0,9,9,9,,,None,None,"[0, 0, 0]",829.6684248999227,831.6684441999532,829.6684248999227,830.668431899976,830.6517491999548,831.6517890999094,"[0, 0, 0]",0,829.6684248999227,831.6684441999532,,,,,,,,,,,,,,,,,,,6,M,2,19,R,MH,49,49,2022_Aug_17_1136,2020.2.10,distractmap2,60.00168004586376,"['Left Face', 'Right Leg', 'Left Face', 'Right Leg']",
,,,,,,,,,,,,,,,,,,,,,,831.6851001000032,None,,,,,,,,,,,,,,,,,6,M,2,19,R,MH,49,49,2022_Aug_17_1136,2020.2.10,distractmap2,60.00168004586376,"['Left Face', 'Right Leg', 'Left Face', 'Right Leg']",
,,,,,,,,,,,,,,,,,,,,,,,,,,,,,,,,,,18.271604938271604,821.6892422300298,,,,,6,M,2,19,R,MH,49,49,2022_Aug_17_1136,2020.2.10,distractmap2,60.00168004586376,"['Left Face', 'Right Leg', 'Left Face', 'Right Leg']",
,,,,,,,866.7020603999263,None,,,,,,,,,,,,,,,,,,,,,,,,,,32.77777777777778,851.7702342299744,0.012540569994598627,5.007993469946086,846.7019013999961,None,6,M,2,19,R,MH,49,49,2022_Aug_17_1136,2020.2.10,distractmap2,60.00168004586376,"['Left Face', 'Right Leg', 'Left Face', 'Right Leg']",
,,,,,,,901.7190157999285,None,,,,,,,,,,,,,,,,,,,,,,,,,,35.24691358024691,890.1856541300658,0.01511537004262209,5.013157970039174,881.7188557999907,None,6,M,2,19,R,MH,49,49,2022_Aug_17_1136,2020.2.10,distractmap2,60.00168004586376,"['Left Face', 'Right Leg', 'Left Face', 'Right Leg']",
,,,,,,,936.7359899999574,None,,,,,,,,,,,,,,,,,,,,,,,,,,31.11111111111111,921.8209553300403,0.016605169977992773,5.016106870025396,916.7358438000083,None,6,M,2,19,R,MH,49,49,2022_Aug_17_1136,2020.2.10,distractmap2,60.00168004586376,"['Left Face', 'Right Leg', 'Left Face', 'Right Leg']",
,,,,,,,1184.3547548999777,None,,,,,,,,,,,,,,,,,,,986.1366580999456,986.1366580999456,None,space,156.21179640002083,986.1366580999456,None,51.97530864197532,1168.9047833301593,0.014997169957496226,5.012930270051584,1164.3545841999585,None,6,M,2,19,R,MH,49,49,2022_Aug_17_1136,2020.2.10,distractmap2,60.00168004586376,"['Left Face', 'Right Leg', 'Left Face', 'Right Leg']",
,,,,,,,1219.371737999958,None,,,,,,,,,,,,,,,,,,,,,,,,,,50.74074074074074,1206.5217677298933,0.01657596987206489,5.016048669931479,1199.3715493999189,None,6,M,2,19,R,MH,49,49,2022_Aug_17_1136,2020.2.10,distractmap2,60.00168004586376,"['Left Face', 'Right Leg', 'Left Face', 'Right Leg']",
,,,,,,,1254.3886839000043,None,,,,,,,,,,,,,,,,,,,,,,,,,,49.629629629629626,1241.2887031300925,0.016591870109550655,5.016101670102216,1234.3884985999903,None,6,M,2,19,R,MH,49,49,2022_Aug_17_1136,2020.2.10,distractmap2,60.00168004586376,"['Left Face', 'Right Leg', 'Left Face', 'Right Leg']",
6,"[0.2, 0]",None,0,0,0,0,1271.4054867000086,None,None,None,"[0, 0, 0]",1274.4055145999882,None,1274.4055145999882,1275.405526299961,1275.3888666999992,1276.388865099987,"[0, 0, 0]",1,1274.4055145999882,None,,,,,,,,,,,,,,,0.016607869998551905,5.0161316700978205,,,6,M,2,19,R,MH,49,49,2022_Aug_17_1136,2020.2.10,distractmap2,60.00168004586376,"['Left Face', 'Right Leg', 'Left Face', 'Right Leg']",
1,"[-0.2, 0.2]",None,0,1,1,1,,,None,None,"[0, 0, 0]",1276.4055306999944,1278.405544499983,1276.4055306999944,1277.4055393999442,1277.3888853999088,1278.388881299994,"[0, 0, 0]",1,1276.4055306999944,1278.405544499983,,,,,,,,,,,,,,,,,,,6,M,2,19,R,MH,49,49,2022_Aug_17_1136,2020.2.10,distractmap2,60.00168004586376,"['Left Face', 'Right Leg', 'Left Face', 'Right Leg']",
6,"[0.2, 0]",1,0,2,2,2,,,None,None,"[0, 0, 0]",1278.4222132998984,1280.4222231999738,1278.4222132998984,1279.422210699995,1279.4055484998971,1280.405558999977,"[0, 0, 0]",1,1278.4222132998984,1280.4222231999738,,,,,,,,,,,,,,,,,,,6,M,2,19,R,MH,49,49,2022_Aug_17_1136,2020.2.10,distractmap2,60.00168004586376,"['Left Face', 'Right Leg', 'Left Face', 'Right Leg']",
4,"[-0.2, 0]",0,0,3,3,3,,,None,None,"[0, 0, 0]",1280.4388935999013,1282.4389156999532,1280.4388935999013,1281.4389142999426,1281.4222424000036,1282.422250899952,"[0, 0, 0]",1,1280.4388935999013,1282.4389156999532,,,,,,,,,,,,,,,,,,,6,M,2,19,R,MH,49,49,2022_Aug_17_1136,2020.2.10,distractmap2,60.00168004586376,"['Left Face', 'Right Leg', 'Left Face', 'Right Leg']",
1,"[-0.2, 0.2]",0,0,4,4,4,,,None,None,"[0, 0, 0]",1282.4555792999454,1284.4555978999706,1282.4555792999454,1283.4555950999493,1283.4389293999411,1284.4389309999533,"[0, 0, 0]",1,1282.4555792999454,1284.4555978999706,,,,,,,,,,,,,,,,,,,6,M,2,19,R,MH,49,49,2022_Aug_17_1136,2020.2.10,distractmap2,60.00168004586376,"['Left Face', 'Right Leg', 'Left Face', 'Right Leg']",
8,"[0, -0.2]",0,0,5,5,5,,,None,None,"[0, 0, 0]",1284.4722631999757,1286.4722904999508,1284.4722631999757,1285.4722694999073,1285.4556087999372,1286.4556064999197,"[0, 0, 0]",1,1284.4722631999757,1286.4722904999508,,,,,,,,,,,,,,,,,,,6,M,2,19,R,MH,49,49,2022_Aug_17_1136,2020.2.10,distractmap2,60.00168004586376,"['Left Face', 'Right Leg', 'Left Face', 'Right Leg']",
1,"[-0.2, 0.2]",1,0,6,6,6,,,None,None,"[0, 0, 0]",1286.488950299914,1288.4889574999688,1286.488950299914,1287.4889568999643,1287.4722915999591,1288.4723000999074,"[0, 0, 0]",1,1286.488950299914,1288.4889574999688,,,,,,,,,,,,,,,,,,,6,M,2,19,R,MH,49,49,2022_Aug_17_1136,2020.2.10,distractmap2,60.00168004586376,"['Left Face', 'Right Leg', 'Left Face', 'Right Leg']",
8,"[0, -0.2]",1,0,7,7,7,,,None,None,"[0, 0, 0]",1288.5056324999314,1290.5056717999978,1288.5056324999314,1289.5056374999695,1289.4889740999788,1290.4889827999286,"[0, 0, 0]",0,1288.5056324999314,1290.5056717999978,,,,,,,,,,,,,,,,,,,6,M,2,19,R,MH,49,49,2022_Aug_17_1136,2020.2.10,distractmap2,60.00168004586376,"['Left Face', 'Right Leg', 'Left Face', 'Right Leg']",
1,"[-0.2, 0.2]",1,0,8,8,8,,,None,None,"[0, 0, 0]",1290.5223165999632,1292.522330399952,1290.5223165999632,1291.522325699916,1291.5056623999262,1292.5056771999225,"[0, 0, 0]",1,1290.5223165999632,1292.522330399952,,,,,,,,,,,,,,,,,,,6,M,2,19,R,MH,49,49,2022_Aug_17_1136,2020.2.10,distractmap2,60.00168004586376,"['Left Face', 'Right Leg', 'Left Face', 'Right Leg']",
6,"[0.2, 0]",0,0,9,9,9,,,None,None,"[0, 0, 0]",1292.5389988999814,1294.5390052999137,1292.5389988999814,1293.5390110999579,1293.522349499981,1294.5223505999893,"[0, 0, 0]",1,1292.5389988999814,1294.5390052999137,,,,,,,,,,,,,,,,,,,6,M,2,19,R,MH,49,49,2022_Aug_17_1136,2020.2.10,distractmap2,60.00168004586376,"['Left Face', 'Right Leg', 'Left Face', 'Right Leg']",
,,,,,,,,,,,,,,,,,,,,,,1294.5556970000034,None,,,,,,,,,,,,,,,,,6,M,2,19,R,MH,49,49,2022_Aug_17_1136,2020.2.10,distractmap2,60.00168004586376,"['Left Face', 'Right Leg', 'Left Face', 'Right Leg']",
7,"[-0.2, -0.2]",None,0,0,0,0,1302.572419299977,None,None,None,"[0, 0, 0]",1309.5724884999217,1311.5724922999507,1309.5724884999217,1310.5724853998981,1310.5558333999943,1311.5558286999585,"[0, 0, 0]",1,1309.5724884999217,1311.5724922999507,,,,,,,,,,,,,,,,,,,6,M,2,19,R,MH,49,49,2022_Aug_17_1136,2020.2.10,distractmap2,60.00168004586376,"['Left Face', 'Right Leg', 'Left Face', 'Right Leg']",
7,"[-0.2, -0.2]",None,0,1,1,1,,,None,None,"[0, 0, 0]",1311.5891613999847,1313.589178299997,1311.5891613999847,1312.589160899981,1312.5725119999843,1313.5725101999706,"[0, 0, 0]",1,1311.5891613999847,1313.589178299997,,,,,,,,,,,,,,,,,,,6,M,2,19,R,MH,49,49,2022_Aug_17_1136,2020.2.10,distractmap2,60.00168004586376,"['Left Face', 'Right Leg', 'Left Face', 'Right Leg']",
7,"[-0.2, -0.2]",1,0,2,2,2,,,None,None,"[0, 0, 0]",1313.6058489999268,1315.6058582999976,1313.6058489999268,1314.6058477999177,1314.5891693999292,1315.5891916999826,"[0, 0, 0]",1,1313.6058489999268,1315.6058582999976,,,,,,,,,,,,,,,,,,,6,M,2,19,R,MH,49,49,2022_Aug_17_1136,2020.2.10,distractmap2,60.00168004586376,"['Left Face', 'Right Leg', 'Left Face', 'Right Leg']",
5,"[0, 0]",0,0,3,3,3,,,None,None,"[0, 0, 0]",1315.6225276999176,1317.6225435999222,1315.6225276999176,1316.622541199904,1316.605870999978,1317.6058798999293,"[0, 0, 0]",1,1315.6225276999176,1317.6225435999222,,,,,,,,,,,,,,,,,,,6,M,2,19,R,MH,49,49,2022_Aug_17_1136,2020.2.10,distractmap2,60.00168004586376,"['Left Face', 'Right Leg', 'Left Face', 'Right Leg']",
1,"[-0.2, 0.2]",0,0,4,4,4,,,None,None,"[0, 0, 0]",1317.6392199998954,1319.6392401999328,1317.6392199998954,1318.6392237999244,1318.6225539000006,1319.6225547000067,"[0, 0, 0]",1,1317.6392199998954,1319.6392401999328,,,,,,,,,,,,,,,,,,,6,M,2,19,R,MH,49,49,2022_Aug_17_1136,2020.2.10,distractmap2,60.00168004586376,"['Left Face', 'Right Leg', 'Left Face', 'Right Leg']",
6,"[0.2, 0]",0,0,5,5,5,,,None,None,"[0, 0, 0]",1319.6558823999949,1321.655919099925,1319.6558823999949,1320.655907999957,1320.6392748999642,1321.6392389999237,"[0, 0, 0]",1,1319.6558823999949,1321.655919099925,,,,,,,,,,,,,,,,,,,6,M,2,19,R,MH,49,49,2022_Aug_17_1136,2020.2.10,distractmap2,60.00168004586376,"['Left Face', 'Right Leg', 'Left Face', 'Right Leg']",
1,"[-0.2, 0.2]",1,0,6,6,6,,,None,None,"[0, 0, 0]",1321.6725778999971,1323.6725920999888,1321.6725778999971,1322.6725863999454,1322.655922099948,1323.6559345999267,"[0, 0, 0]",1,1321.6725778999971,1323.6725920999888,,,,,,,,,,,,,,,,,,,6,M,2,19,R,MH,49,49,2022_Aug_17_1136,2020.2.10,distractmap2,60.00168004586376,"['Left Face', 'Right Leg', 'Left Face', 'Right Leg']",
7,"[-0.2, -0.2]",0,0,7,7,7,,,None,None,"[0, 0, 0]",1323.6892588000046,1325.6892703999765,1323.6892588000046,1324.6892822999507,1324.6726028999547,1325.6726186999585,"[0, 0, 0]",1,1323.6892588000046,1325.6892703999765,,,,,,,,,,,,,,,,,,,6,M,2,19,R,MH,49,49,2022_Aug_17_1136,2020.2.10,distractmap2,60.00168004586376,"['Left Face', 'Right Leg', 'Left Face', 'Right Leg']",
6,"[0.2, 0]",0,0,8,8,8,,,None,None,"[0, 0, 0]",1325.7059534,1327.7059600999346,1325.7059534,1326.7059540000046,1326.6892784999218,1327.6892994999653,"[0, 0, 0]",1,1325.7059534,1327.7059600999346,,,,,,,,,,,,,,,,,,,6,M,2,19,R,MH,49,49,2022_Aug_17_1136,2020.2.10,distractmap2,60.00168004586376,"['Left Face', 'Right Leg', 'Left Face', 'Right Leg']",
7,"[-0.2, -0.2]",1,0,9,9,9,,,None,None,"[0, 0, 0]",1327.722649400006,1329.7226425999543,1327.722649400006,1328.7226424999535,1328.7059728999157,1329.706002999912,"[0, 0, 0]",1,1327.722649400006,1329.7226425999543,,,,,,,,,,,,,,,,,,,6,M,2,19,R,MH,49,49,2022_Aug_17_1136,2020.2.10,distractmap2,60.00168004586376,"['Left Face', 'Right Leg', 'Left Face', 'Right Leg']",
,,,,,,,,,,,,,,,,,,,,,,1329.739308499964,None,,,,,,,,,,,,,,,,,6,M,2,19,R,MH,49,49,2022_Aug_17_1136,2020.2.10,distractmap2,60.00168004586376,"['Left Face', 'Right Leg', 'Left Face', 'Right Leg']",
4,"[-0.2, 0]",None,0,0,0,0,1339.7560755999293,None,None,None,"[0, 0, 0]",1344.7561114999698,None,1344.7561114999698,1345.7561117999721,1345.739447799977,1346.7394731999375,"[0, 0, 0]",1,1344.7561114999698,None,,,,,,,,,,,,,,,,,,,6,M,2,19,R,MH,49,49,2022_Aug_17_1136,2020.2.10,distractmap2,60.00168004586376,"['Left Face', 'Right Leg', 'Left Face', 'Right Leg']",
5,"[0, 0]",None,0,1,1,1,,,None,None,"[0, 0, 0]",1346.7561299999943,1348.7561531999381,1346.7561299999943,1347.7561326998984,1347.7394727999344,1348.739475499955,"[0, 0, 0]",1,1346.7561299999943,1348.7561531999381,,,,,,,,,,,,,,,,,,,6,M,2,19,R,MH,49,49,2022_Aug_17_1136,2020.2.10,distractmap2,60.00168004586376,"['Left Face', 'Right Leg', 'Left Face', 'Right Leg']",
6,"[0.2, 0]",0,0,2,2,2,,,None,None,"[0, 0, 0]",1348.772809099988,1350.7728269000072,1348.772809099988,1349.7728349999525,1349.756156599964,1350.7561564999633,"[0, 0, 0]",1,1348.772809099988,1350.7728269000072,,,,,,,,,,,,,,,,,,,6,M,2,19,R,MH,49,49,2022_Aug_17_1136,2020.2.10,distractmap2,60.00168004586376,"['Left Face', 'Right Leg', 'Left Face', 'Right Leg']",
1,"[-0.2, 0.2]",0,0,3,3,3,,,None,None,"[0, 0, 0]",1350.7894999999553,1352.7895118999295,1350.7894999999553,1351.789488999988,1351.7728485999396,1352.7728597999085,"[0, 0, 0]",1,1350.7894999999553,1352.7895118999295,,,,,,,,,,,,,,,,,,,6,M,2,19,R,MH,49,49,2022_Aug_17_1136,2020.2.10,distractmap2,60.00168004586376,"['Left Face', 'Right Leg', 'Left Face', 'Right Leg']",
6,"[0.2, 0]",1,0,4,4,4,,,None,None,"[0, 0, 0]",1352.8061655999627,1354.8061951999553,1352.8061655999627,1353.806182899978,1353.789529099944,1354.7895151999546,"[0, 0, 0]",1,1352.8061655999627,1354.8061951999553,,,,,,,,,,,,,,,,,,,6,M,2,19,R,MH,49,49,2022_Aug_17_1136,2020.2.10,distractmap2,60.00168004586376,"['Left Face', 'Right Leg', 'Left Face', 'Right Leg']",
1,"[-0.2, 0.2]",1,0,5,5,5,,,None,None,"[0, 0, 0]",1354.8228663000045,1356.8228757999605,1354.8228663000045,1355.8228028999874,1355.8062049999135,1356.8062130999751,"[0, 0, 0]",1,1354.8228663000045,1356.8228757999605,,,,,,,,,,,,,,,,,,,6,M,2,19,R,MH,49,49,2022_Aug_17_1136,2020.2.10,distractmap2,60.00168004586376,"['Left Face', 'Right Leg', 'Left Face', 'Right Leg']",
2,"[0, 0.2]",0,0,6,6,6,,,None,None,"[0, 0, 0]",1356.8395476998994,1358.839558799984,1356.8395476998994,1357.8395436999854,1357.8228917999659,1358.8229080999736,"[0, 0, 0]",1,1356.8395476998994,1358.839558799984,,,,,,,,,,,,,,,,,,,6,M,2,19,R,MH,49,49,2022_Aug_17_1136,2020.2.10,distractmap2,60.00168004586376,"['Left Face', 'Right Leg', 'Left Face', 'Right Leg']",
3,"[0.2, 0.2]",0,0,7,7,7,,,None,None,"[0, 0, 0]",1358.856213199906,1360.856251899968,1358.856213199906,1359.856238599983,1359.8395659999223,1360.8395787999034,"[0, 0, 0]",1,1358.856213199906,1360.856251899968,,,,,,,,,,,,,,,,,,,6,M,2,19,R,MH,49,49,2022_Aug_17_1136,2020.2.10,distractmap2,60.00168004586376,"['Left Face', 'Right Leg', 'Left Face', 'Right Leg']",
6,"[0.2, 0]",0,0,8,8,8,,,None,None,"[0, 0, 0]",1360.8729216000065,1362.8729403999168,1360.8729216000065,1361.8729203999974,1361.8562590999063,1362.8562831999734,"[0, 0, 0]",1,1360.8729216000065,1362.8729403999168,,,,,,,,,,,,,,,,,,,6,M,2,19,R,MH,49,49,2022_Aug_17_1136,2020.2.10,distractmap2,60.00168004586376,"['Left Face', 'Right Leg', 'Left Face', 'Right Leg']",
3,"[0.2, 0.2]",1,0,9,9,9,,,None,None,"[0, 0, 0]",1362.8895980999805,1364.8896117999684,1362.8895980999805,1363.8896038999083,1363.8729408999206,1364.8729466999648,"[0, 0, 0]",1,1362.8895980999805,1364.8896117999684,,,,,,,,,,,,,,,,,,,6,M,2,19,R,MH,49,49,2022_Aug_17_1136,2020.2.10,distractmap2,60.00168004586376,"['Left Face', 'Right Leg', 'Left Face', 'Right Leg']",
,,,,,,,,,,,,,,,,,,,,,,1364.9062554999255,None,,,,,,,,,,,,,,,,,6,M,2,19,R,MH,49,49,2022_Aug_17_1136,2020.2.10,distractmap2,60.00168004586376,"['Left Face', 'Right Leg', 'Left Face', 'Right Leg']",
2,"[0, 0.2]",None,0,0,0,0,1377.1397973999847,None,None,None,"[0, 0, 0]",1379.923083600006,1381.9230988000054,1379.923083600006,1380.9230848998995,1380.9064196998952,1381.9064303999767,"[0, 0, 0]",1,1379.923083600006,1381.9230988000054,,,,,,,,,,,,,,,,,,,6,M,2,19,R,MH,49,49,2022_Aug_17_1136,2020.2.10,distractmap2,60.00168004586376,"['Left Face', 'Right Leg', 'Left Face', 'Right Leg']",
5,"[0, 0]",None,0,1,1,1,,,None,None,"[0, 0, 0]",1381.9397623999976,1383.9397748999763,1381.9397623999976,1382.939786599949,1382.9230986000039,1383.9231150998967,"[0, 0, 0]",1,1381.9397623999976,1383.9397748999763,,,,,,,,,,,,,,,,,,,6,M,2,19,R,MH,49,49,2022_Aug_17_1136,2020.2.10,distractmap2,60.00168004586376,"['Left Face', 'Right Leg', 'Left Face', 'Right Leg']",
6,"[0.2, 0]",0,0,2,2,2,,,None,None,"[0, 0, 0]",1383.956449399935,1385.9564589000074,1383.956449399935,1384.9564516999526,1384.939788299962,1385.9398062999826,"[0, 0, 0]",1,1383.956449399935,1385.9564589000074,,,,,,,,,,,,,,,,,,,6,M,2,19,R,MH,49,49,2022_Aug_17_1136,2020.2.10,distractmap2,60.00168004586376,"['Left Face', 'Right Leg', 'Left Face', 'Right Leg']",
1,"[-0.2, 0.2]",0,0,3,3,3,,,None,None,"[0, 0, 0]",1385.973143799929,1387.973140799906,1385.973143799929,1386.9731366999913,1386.9564720999915,1387.956477599917,"[0, 0, 0]",1,1385.973143799929,1387.973140799906,,,,,,,,,,,,,,,,,,,6,M,2,19,R,MH,49,49,2022_Aug_17_1136,2020.2.10,distractmap2,60.00168004586376,"['Left Face', 'Right Leg', 'Left Face', 'Right Leg']",
6,"[0.2, 0]",1,0,4,4,4,,,None,None,"[0, 0, 0]",1388.0230375999818,None,1388.0230375999818,1389.0231518999208,1389.0231518999208,None,"[0, 0, 0]",1,1388.0230375999818,None,,,,,,,,,,,,,,,,,,,6,M,2,19,R,MH,49,49,2022_Aug_17_1136,2020.2.10,distractmap2,60.00168004586376,"['Left Face', 'Right Leg', 'Left Face', 'Right Leg']",
6,"[0.2, 0]",0,0,5,5,5,,,None,None,"[0, 0, 0]",1390.0064817999955,1392.0065232999623,1390.0064817999955,1391.0065045999363,1390.9898476999952,1391.9897950999439,"[0, 0, 0]",1,1390.0064817999955,1392.0065232999623,,,,,,,,,,,,,,,,,,,6,M,2,19,R,MH,49,49,2022_Aug_17_1136,2020.2.10,distractmap2,60.00168004586376,"['Left Face', 'Right Leg', 'Left Face', 'Right Leg']",
9,"[0.2, -0.2]",0,0,6,6,6,,,None,None,"[0, 0, 0]",1392.023185399943,1394.0231797999004,1392.023185399943,1393.02318499994,1393.006528900005,1394.0065313999075,"[0, 0, 0]",1,1392.023185399943,1394.0231797999004,,,,,,,,,,,,,,,,,,,6,M,2,19,R,MH,49,49,2022_Aug_17_1136,2020.2.10,distractmap2,60.00168004586376,"['Left Face', 'Right Leg', 'Left Face', 'Right Leg']",
6,"[0.2, 0]",1,0,7,7,7,,,None,None,"[0, 0, 0]",1394.0398615999147,1396.0399073999142,1394.0398615999147,1395.0398860999849,1395.0232029999606,1396.0232211999828,"[0, 0, 0]",1,1394.0398615999147,1396.0399073999142,,,,,,,,,,,,,,,,,,,6,M,2,19,R,MH,49,49,2022_Aug_17_1136,2020.2.10,distractmap2,60.00168004586376,"['Left Face', 'Right Leg', 'Left Face', 'Right Leg']",
3,"[0.2, 0.2]",0,0,8,8,8,,,None,None,"[0, 0, 0]",1396.0565430999268,1398.0565611999482,1396.0565430999268,1397.0565621999558,1397.039888600004,1398.0398990999674,"[0, 0, 0]",1,1396.0565430999268,1398.0565611999482,,,,,,,,,,,,,,,,,,,6,M,2,19,R,MH,49,49,2022_Aug_17_1136,2020.2.10,distractmap2,60.00168004586376,"['Left Face', 'Right Leg', 'Left Face', 'Right Leg']",
9,"[0.2, -0.2]",0,0,9,9,9,,,None,None,"[0, 0, 0]",1398.0732337000081,1400.0732365999138,1398.0732337000081,1399.0732382999267,1399.0565623999573,1400.0565766999498,"[0, 0, 0]",0,1398.0732337000081,1400.0732365999138,,,,,,,,,,,,,,,,,,,6,M,2,19,R,MH,49,49,2022_Aug_17_1136,2020.2.10,distractmap2,60.00168004586376,"['Left Face', 'Right Leg', 'Left Face', 'Right Leg']",
,,,,,,,,,,,,,,,,,,,,,,1400.0899137000088,None,,,,,,,,,,,,,,,,,6,M,2,19,R,MH,49,49,2022_Aug_17_1136,2020.2.10,distractmap2,60.00168004586376,"['Left Face', 'Right Leg', 'Left Face', 'Right Leg']",
,,,,,,,,,,,,,,,,,,,,,,,,,,,,,,,,,,36.97530864197531,1385.4768698300468,,,,,6,M,2,19,R,MH,49,49,2022_Aug_17_1136,2020.2.10,distractmap2,60.00168004586376,"['Left Face', 'Right Leg', 'Left Face', 'Right Leg']",
3,"[0.2, 0.2]",None,0,0,0,0,1416.0909861999098,None,None,None,"[0, 0, 0]",1420.1067480999045,None,1420.1067480999045,1421.1067599999951,1421.0900928999763,1422.0900997999124,"[0, 0, 0]",1,1420.1067480999045,None,,,,,,,,,,,,,,,0.013002170016989112,5.0088719699997455,,,6,M,2,19,R,MH,49,49,2022_Aug_17_1136,2020.2.10,distractmap2,60.00168004586376,"['Left Face', 'Right Leg', 'Left Face', 'Right Leg']",
9,"[0.2, -0.2]",None,0,1,1,1,,,None,None,"[0, 0, 0]",1422.106770399958,1424.1067995999474,1422.106770399958,1423.10678989999,1423.0901189999422,1424.0901109999977,"[0, 0, 0]",1,1422.106770399958,1424.1067995999474,,,,,,,,,,,,,,,,,,,6,M,2,19,R,MH,49,49,2022_Aug_17_1136,2020.2.10,distractmap2,60.00168004586376,"['Left Face', 'Right Leg', 'Left Face', 'Right Leg']",
3,"[0.2, 0.2]",1,0,2,2,2,,,None,None,"[0, 0, 0]",1424.1234553999966,1426.1234673999716,1424.1234553999966,1425.1234636999434,1425.10679469991,1426.1068562999135,"[0, 0, 0]",1,1424.1234553999966,1426.1234673999716,,,,,,,,,,,,,,,,,,,6,M,2,19,R,MH,49,49,2022_Aug_17_1136,2020.2.10,distractmap2,60.00168004586376,"['Left Face', 'Right Leg', 'Left Face', 'Right Leg']",
7,"[-0.2, -0.2]",0,0,3,3,3,,,None,None,"[0, 0, 0]",1426.1401298999554,1428.140152799897,1426.1401298999554,1427.1401435999433,1427.1234636999434,1428.1234870000044,"[0, 0, 0]",1,1426.1401298999554,1428.140152799897,,,,,,,,,,,,,,,,,,,6,M,2,19,R,MH,49,49,2022_Aug_17_1136,2020.2.10,distractmap2,60.00168004586376,"['Left Face', 'Right Leg', 'Left Face', 'Right Leg']",
8,"[0, -0.2]",0,0,4,4,4,,,None,None,"[0, 0, 0]",1428.1742227999493,None,1428.1742227999493,1429.1734824999003,1429.156843099976,1430.1568379999371,"[0, 0, 0]",1,1428.1742227999493,None,,,,,,,,,,,,,,,,,,,6,M,2,19,R,MH,49,49,2022_Aug_17_1136,2020.2.10,distractmap2,60.00168004586376,"['Left Face', 'Right Leg', 'Left Face', 'Right Leg']",
4,"[-0.2, 0]",0,0,5,5,5,,,None,None,"[0, 0, 0]",1430.1735423000064,1432.1735227999743,1430.1735423000064,1431.1735109,1431.1568432999775,1432.1568610999966,"[0, 0, 0]",1,1430.1735423000064,1432.1735227999743,,,,,,,,,,,,,,,,,,,6,M,2,19,R,MH,49,49,2022_Aug_17_1136,2020.2.10,distractmap2,60.00168004586376,"['Left Face', 'Right Leg', 'Left Face', 'Right Leg']",
4,"[-0.2, 0]",0,0,6,6,6,,,None,None,"[0, 0, 0]",1432.1901644999161,1434.1901934999041,1432.1901644999161,1433.1901955999201,1433.173527799896,1434.1735490999417,"[0, 0, 0]",1,1432.1901644999161,1434.1901934999041,,,,,,,,,,,,,,,,,,,6,M,2,19,R,MH,49,49,2022_Aug_17_1136,2020.2.10,distractmap2,60.00168004586376,"['Left Face', 'Right Leg', 'Left Face', 'Right Leg']",
1,"[-0.2, 0.2]",0,0,7,7,7,,,None,None,"[0, 0, 0]",1434.2068731999025,1436.2068908999208,1434.2068731999025,1435.2068827999756,1435.1902132999385,1436.1902191999834,"[0, 0, 0]",1,1434.2068731999025,1436.2068908999208,,,,,,,,,,,,,,,,,,,6,M,2,19,R,MH,49,49,2022_Aug_17_1136,2020.2.10,distractmap2,60.00168004586376,"['Left Face', 'Right Leg', 'Left Face', 'Right Leg']",
4,"[-0.2, 0]",1,0,8,8,8,,,None,None,"[0, 0, 0]",1436.2235576999374,1438.2235703999177,1436.2235576999374,1437.223572799936,1437.206894599949,1438.2069246999454,"[0, 0, 0]",1,1436.2235576999374,1438.2235703999177,,,,,,,,,,,,,,,,,,,6,M,2,19,R,MH,49,49,2022_Aug_17_1136,2020.2.10,distractmap2,60.00168004586376,"['Left Face', 'Right Leg', 'Left Face', 'Right Leg']",
8,"[0, -0.2]",0,0,9,9,9,,,None,None,"[0, 0, 0]",1438.2402474998962,1440.2402519999305,1438.2402474998962,1439.2402472998947,1439.2235836999025,1440.2235966000007,"[0, 0, 0]",1,1438.2402474998962,1440.2402519999305,,,,,,,,,,,,,,,,,,,6,M,2,19,R,MH,49,49,2022_Aug_17_1136,2020.2.10,distractmap2,60.00168004586376,"['Left Face', 'Right Leg', 'Left Face', 'Right Leg']",
,,,,,,,,,,,,,,,,,,,,,,1440.2569186999463,None,,,,,,,,,,,,,,,,,6,M,2,19,R,MH,49,49,2022_Aug_17_1136,2020.2.10,distractmap2,60.00168004586376,"['Left Face', 'Right Leg', 'Left Face', 'Right Leg']",
,,,,,,,,,,,,,,,,,,,,,,,,,,,,,,,,,,37.53086419753087,1426.2770377300913,,,,,6,M,2,19,R,MH,49,49,2022_Aug_17_1136,2020.2.10,distractmap2,60.00168004586376,"['Left Face', 'Right Leg', 'Left Face', 'Right Leg']",
2,"[0, 0.2]",None,0,0,0,0,1455.5072062999243,None,None,None,"[0, 0, 0]",1460.2904567999067,None,1460.2904567999067,1461.2904188999673,1461.2737854999723,1462.2737865999807,"[0, 0, 0]",0,1460.2904567999067,None,,,,,,,,,,,,,,,0.013210969977080822,5.00931416999083,,,6,M,2,19,R,MH,49,49,2022_Aug_17_1136,2020.2.10,distractmap2,60.00168004586376,"['Left Face', 'Right Leg', 'Left Face', 'Right Leg']",
5,"[0, 0]",None,0,1,1,1,,,None,None,"[0, 0, 0]",1462.2904642999638,1464.290457499912,1462.2904642999638,1463.290461699944,1463.2737927999115,1464.273777199909,"[0, 0, 0]",1,1462.2904642999638,1464.290457499912,,,,,,,,,,,,,,,,,,,6,M,2,19,R,MH,49,49,2022_Aug_17_1136,2020.2.10,distractmap2,60.00168004586376,"['Left Face', 'Right Leg', 'Left Face', 'Right Leg']",
3,"[0.2, 0.2]",0,0,2,2,2,,,None,None,"[0, 0, 0]",1464.3071180999978,1466.3071442999644,1464.3071180999978,1465.3071330999956,1465.290469700005,1466.2904773999471,"[0, 0, 0]",1,1464.3071180999978,1466.3071442999644,,,,,,,,,,,,,,,,,,,6,M,2,19,R,MH,49,49,2022_Aug_17_1136,2020.2.10,distractmap2,60.00168004586376,"['Left Face', 'Right Leg', 'Left Face', 'Right Leg']",
5,"[0, 0]",1,0,3,3,3,,,None,None,"[0, 0, 0]",1466.3238232999574,1468.3238292000024,1466.3238232999574,1467.3238199999323,1467.3071365999058,1468.307161499979,"[0, 0, 0]",1,1466.3238232999574,1468.3238292000024,,,,,,,,,,,,,,,,,,,6,M,2,19,R,MH,49,49,2022_Aug_17_1136,2020.2.10,distractmap2,60.00168004586376,"['Left Face', 'Right Leg', 'Left Face', 'Right Leg']",
2,"[0, 0.2]",0,0,4,4,4,,,None,None,"[0, 0, 0]",1468.3741410999792,None,1468.3741410999792,1469.3738379999995,1469.3571599998977,None,"[0, 0, 0]",1,1468.3741410999792,None,,,,,,,,,,,,,,,,,,,6,M,2,19,R,MH,49,49,2022_Aug_17_1136,2020.2.10,distractmap2,60.00168004586376,"['Left Face', 'Right Leg', 'Left Face', 'Right Leg']",
8,"[0, -0.2]",0,0,5,5,5,,,None,None,"[0, 0, 0]",1470.3571784999222,1472.3571919999085,1470.3571784999222,1471.3571870999876,1471.3405126999132,1472.3405323999468,"[0, 0, 0]",1,1470.3571784999222,1472.3571919999085,,,,,,,,,,,,,,,,,,,6,M,2,19,R,MH,49,49,2022_Aug_17_1136,2020.2.10,distractmap2,60.00168004586376,"['Left Face', 'Right Leg', 'Left Face', 'Right Leg']",
4,"[-0.2, 0]",0,0,6,6,6,,,None,None,"[0, 0, 0]",1472.3738601999357,1474.3738859998994,1472.3738601999357,1473.373883799999,1473.3571992999641,1474.3571919999085,"[0, 0, 0]",1,1472.3738601999357,1474.3738859998994,,,,,,,,,,,,,,,,,,,6,M,2,19,R,MH,49,49,2022_Aug_17_1136,2020.2.10,distractmap2,60.00168004586376,"['Left Face', 'Right Leg', 'Left Face', 'Right Leg']",
8,"[0, -0.2]",1,0,7,7,7,,,None,None,"[0, 0, 0]",1474.3905450999737,1476.3905699999304,1474.3905450999737,1475.3906265998958,1475.373891199939,1476.3738991999999,"[0, 0, 0]",1,1474.3905450999737,1476.3905699999304,,,,,,,,,,,,,,,,,,,6,M,2,19,R,MH,49,49,2022_Aug_17_1136,2020.2.10,distractmap2,60.00168004586376,"['Left Face', 'Right Leg', 'Left Face', 'Right Leg']",
7,"[-0.2, -0.2]",0,0,8,8,8,,,None,None,"[0, 0, 0]",1476.407232999918,1478.4072368999477,1476.407232999918,1477.4072285000002,1477.3905745999655,1478.3905877999496,"[0, 0, 0]",1,1476.407232999918,1478.4072368999477,,,,,,,,,,,,,,,,,,,6,M,2,19,R,MH,49,49,2022_Aug_17_1136,2020.2.10,distractmap2,60.00168004586376,"['Left Face', 'Right Leg', 'Left Face', 'Right Leg']",
8,"[0, -0.2]",1,0,9,9,9,,,None,None,"[0, 0, 0]",1478.4239089000039,1480.4239288999233,1478.4239089000039,1479.4239166999469,1479.407255499973,1480.4072646999266,"[0, 0, 0]",1,1478.4239089000039,1480.4239288999233,,,,,,,,,,,,,,,,,,,6,M,2,19,R,MH,49,49,2022_Aug_17_1136,2020.2.10,distractmap2,60.00168004586376,"['Left Face', 'Right Leg', 'Left Face', 'Right Leg']",
,,,,,,,,,,,,,,,,,,,,,,1480.440591899911,None,,,,,,,,,,,,,,,,,6,M,2,19,R,MH,49,49,2022_Aug_17_1136,2020.2.10,distractmap2,60.00168004586376,"['Left Face', 'Right Leg', 'Left Face', 'Right Leg']",
,,,,,,,,,,,,,,,,,,,,,,,,,,,,,,,,,,36.04938271604938,1467.2107877300587,,,,,6,M,2,19,R,MH,49,49,2022_Aug_17_1136,2020.2.10,distractmap2,60.00168004586376,"['Left Face', 'Right Leg', 'Left Face', 'Right Leg']",
,,,,,,,1515.4575603998965,None,,,,,,,,,,,,,,,,,,,,,,,,,,48.45679012345679,1503.3593952300726,0.013111070031300187,5.009122870047577,1495.4573900999967,None,6,M,2,19,R,MH,49,49,2022_Aug_17_1136,2020.2.10,distractmap2,60.00168004586376,"['Left Face', 'Right Leg', 'Left Face', 'Right Leg']",
,,,,,,,1550.4745352999307,None,,,,,,,,,,,,,,,,,,,,,,,,,,45.49382716049382,1534.3765373300994,0.01484997000079602,5.0125843699788675,1530.474350299919,None,6,M,2,19,R,MH,49,49,2022_Aug_17_1136,2020.2.10,distractmap2,60.00168004586376,"['Left Face', 'Right Leg', 'Left Face', 'Right Leg']",
,,,,,,,1585.4913992999354,None,,,,,,,,,,,,,,,,,,,,,,,,,,46.666666666666664,1568.99339333002,0.014603369985707104,5.0121369699481875,1565.491323599941,None,6,M,2,19,R,MH,49,49,2022_Aug_17_1136,2020.2.10,distractmap2,60.00168004586376,"['Left Face', 'Right Leg', 'Left Face', 'Right Leg']",
2,"[0, 0.2]",None,0,0,0,0,1688.7423799999524,None,None,None,"[0, 0, 0]",1695.5257686999394,1697.525797399925,1695.5257686999394,1696.5257794999052,1696.5091099999845,1697.5091134998947,"[0, 0, 0]",1,1695.5257686999394,1697.525797399925,,,,,,,,,,,,,,,0.014748870045877993,5.01239417004399,1660.4921332999365,None,6,M,2,19,R,MH,49,49,2022_Aug_17_1136,2020.2.10,distractmap2,60.00168004586376,"['Left Face', 'Right Leg', 'Left Face', 'Right Leg']",
2,"[0, 0.2]",None,0,1,1,1,,,None,None,"[0, 0, 0]",1697.542450799956,1699.5424761999166,1697.542450799956,1698.5424637999386,1698.5257993999403,1699.5258168999571,"[0, 0, 0]",1,1697.542450799956,1699.5424761999166,,,,,,,,,,,,,,,,,,,6,M,2,19,R,MH,49,49,2022_Aug_17_1136,2020.2.10,distractmap2,60.00168004586376,"['Left Face', 'Right Leg', 'Left Face', 'Right Leg']",
2,"[0, 0.2]",1,0,2,2,2,,,None,None,"[0, 0, 0]",1699.5591365,1701.5591411999194,1699.5591365,1700.5591468999628,1700.5424792999402,1701.5424834999721,"[0, 0, 0]",0,1699.5591365,1701.5591411999194,,,,,,,,,,,,,,,,,,,6,M,2,19,R,MH,49,49,2022_Aug_17_1136,2020.2.10,distractmap2,60.00168004586376,"['Left Face', 'Right Leg', 'Left Face', 'Right Leg']",
8,"[0, -0.2]",0,0,3,3,3,,,None,None,"[0, 0, 0]",1701.5758206999162,1703.5758410999551,1701.5758206999162,1702.5758386999369,1702.5591678000055,1703.5591619999614,"[0, 0, 0]",0,1701.5758206999162,1703.5758410999551,,,,,,,,,,,,,,,,,,,6,M,2,19,R,MH,49,49,2022_Aug_17_1136,2020.2.10,distractmap2,60.00168004586376,"['Left Face', 'Right Leg', 'Left Face', 'Right Leg']",
2,"[0, 0.2]",1,0,4,4,4,,,None,None,"[0, 0, 0]",1703.642565199989,None,1703.642565199989,1704.6425095999148,1704.6258783999365,None,"[0, 0, 0]",0,1703.642565199989,None,,,,,,,,,,,,,,,,,,,6,M,2,19,R,MH,49,49,2022_Aug_17_1136,2020.2.10,distractmap2,60.00168004586376,"['Left Face', 'Right Leg', 'Left Face', 'Right Leg']",
5,"[0, 0]",0,0,5,5,5,,,None,None,"[0, 0, 0]",1705.609189699986,1707.6092040999793,1705.609189699986,1706.6091916000005,1706.592531299917,1707.5925260999938,"[0, 0, 0]",0,1705.609189699986,1707.6092040999793,,,,,,,,,,,,,,,,,,,6,M,2,19,R,MH,49,49,2022_Aug_17_1136,2020.2.10,distractmap2,60.00168004586376,"['Left Face', 'Right Leg', 'Left Face', 'Right Leg']",
1,"[-0.2, 0.2]",0,0,6,6,6,,,None,None,"[0, 0, 0]",1707.625872500008,1709.6258887998993,1707.625872500008,1708.6258842999814,1708.609216599958,1709.6092333999695,"[0, 0, 0]",1,1707.625872500008,1709.6258887998993,,,,,,,,,,,,,,,,,,,6,M,2,19,R,MH,49,49,2022_Aug_17_1136,2020.2.10,distractmap2,60.00168004586376,"['Left Face', 'Right Leg', 'Left Face', 'Right Leg']",
1,"[-0.2, 0.2]",0,0,7,7,7,,,None,None,"[0, 0, 0]",1709.6425584999379,1711.6425821000012,1709.6425584999379,1710.6425688999007,1710.6259008999914,1711.6259063999169,"[0, 0, 0]",1,1709.6425584999379,1711.6425821000012,,,,,,,,,,,,,,,,,,,6,M,2,19,R,MH,49,49,2022_Aug_17_1136,2020.2.10,distractmap2,60.00168004586376,"['Left Face', 'Right Leg', 'Left Face', 'Right Leg']",
6,"[0.2, 0]",0,0,8,8,8,,,None,None,"[0, 0, 0]",1711.6592317000031,1713.6592591999797,1711.6592317000031,1712.6595660999883,1712.642587399925,1713.6425984998932,"[0, 0, 0]",1,1711.6592317000031,1713.6592591999797,,,,,,,,,,,,,,,,,,,6,M,2,19,R,MH,49,49,2022_Aug_17_1136,2020.2.10,distractmap2,60.00168004586376,"['Left Face', 'Right Leg', 'Left Face', 'Right Leg']",
1,"[-0.2, 0.2]",1,0,9,9,9,,,None,None,"[0, 0, 0]",1713.6759247999871,1715.6759403999895,1713.6759247999871,1714.6759369999636,1714.659287699964,1715.6591754999245,"[0, 0, 0]",1,1713.6759247999871,1715.6759403999895,,,,,,,,,,,,,,,,,,,6,M,2,19,R,MH,49,49,2022_Aug_17_1136,2020.2.10,distractmap2,60.00168004586376,"['Left Face', 'Right Leg', 'Left Face', 'Right Leg']",
,,,,,,,,,,,,,,,,,,,,,,1715.6925992999459,None,,,,,,,,,,,,,,,,,6,M,2,19,R,MH,49,49,2022_Aug_17_1136,2020.2.10,distractmap2,60.00168004586376,"['Left Face', 'Right Leg', 'Left Face', 'Right Leg']",
,,,,,,,,,,,,,,,,,,,,,,,,,,,,,,,,,,34.75308641975308,1705.645769929979,,,,,6,M,2,19,R,MH,49,49,2022_Aug_17_1136,2020.2.10,distractmap2,60.00168004586376,"['Left Face', 'Right Leg', 'Left Face', 'Right Leg']",
3,"[0.2, 0.2]",None,0,0,0,0,1732.9267012999626,None,None,None,"[0, 0, 0]",1735.7261268999428,1737.7261299999664,1735.7261268999428,1736.7261226999108,1736.7094445999246,1737.7094590999186,"[0, 0, 0]",1,1735.7261268999428,1737.7261299999664,,,,,,,,,,,,,,,0.013523170026019216,5.009940369985998,,,6,M,2,19,R,MH,49,49,2022_Aug_17_1136,2020.2.10,distractmap2,60.00168004586376,"['Left Face', 'Right Leg', 'Left Face', 'Right Leg']",
3,"[0.2, 0.2]",None,0,1,1,1,,,None,None,"[0, 0, 0]",1737.7428106999723,1739.7428117999807,1737.7428106999723,1738.7428113999777,1738.7261503000045,1739.7261977999005,"[0, 0, 0]",1,1737.7428106999723,1739.7428117999807,,,,,,,,,,,,,,,,,,,6,M,2,19,R,MH,49,49,2022_Aug_17_1136,2020.2.10,distractmap2,60.00168004586376,"['Left Face', 'Right Leg', 'Left Face', 'Right Leg']",
5,"[0, 0]",0,0,2,2,2,,,None,None,"[0, 0, 0]",1739.759480999899,1741.759500599932,1739.759480999899,1740.759493199992,1740.7428390999557,1741.742846100009,"[0, 0, 0]",1,1739.759480999899,1741.759500599932,,,,,,,,,,,,,,,,,,,6,M,2,19,R,MH,49,49,2022_Aug_17_1136,2020.2.10,distractmap2,60.00168004586376,"['Left Face', 'Right Leg', 'Left Face', 'Right Leg']",
1,"[-0.2, 0.2]",0,0,3,3,3,,,None,None,"[0, 0, 0]",1741.7761562999804,1743.776183799957,1741.7761562999804,1742.7761781999143,1742.7595078999875,1743.75952219998,"[0, 0, 0]",1,1741.7761562999804,1743.776183799957,,,,,,,,,,,,,,,,,,,6,M,2,19,R,MH,49,49,2022_Aug_17_1136,2020.2.10,distractmap2,60.00168004586376,"['Left Face', 'Right Leg', 'Left Face', 'Right Leg']",
5,"[0, 0]",1,0,4,4,4,,,None,None,"[0, 0, 0]",1743.8427467999281,None,1743.8427467999281,1744.8428740999661,1744.8261936999625,None,"[0, 0, 0]",0,1743.8427467999281,None,,,,,,,,,,,,,,,,,,,6,M,2,19,R,MH,49,49,2022_Aug_17_1136,2020.2.10,distractmap2,60.00168004586376,"['Left Face', 'Right Leg', 'Left Face', 'Right Leg']",
8,"[0, -0.2]",0,0,5,5,5,,,None,None,"[0, 0, 0]",1745.809548499994,1747.8095384999178,1745.809548499994,1746.8095501000062,1746.7928782999516,1747.7928962999722,"[0, 0, 0]",1,1745.809548499994,1747.8095384999178,,,,,,,,,,,,,,,,,,,6,M,2,19,R,MH,49,49,2022_Aug_17_1136,2020.2.10,distractmap2,60.00168004586376,"['Left Face', 'Right Leg', 'Left Face', 'Right Leg']",
5,"[0, 0]",1,0,6,6,6,,,None,None,"[0, 0, 0]",1747.8262239999603,1749.8262265999801,1747.8262239999603,1748.826225399971,1748.8095418999437,1749.809560899972,"[0, 0, 0]",1,1747.8262239999603,1749.8262265999801,,,,,,,,,,,,,,,,,,,6,M,2,19,R,MH,49,49,2022_Aug_17_1136,2020.2.10,distractmap2,60.00168004586376,"['Left Face', 'Right Leg', 'Left Face', 'Right Leg']",
7,"[-0.2, -0.2]",0,0,7,7,7,,,None,None,"[0, 0, 0]",1749.842899399926,1751.8429317999398,1749.842899399926,1750.84292179998,1750.8262294000015,1751.8262672999408,"[0, 0, 0]",1,1749.842899399926,1751.8429317999398,,,,,,,,,,,,,,,,,,,6,M,2,19,R,MH,49,49,2022_Aug_17_1136,2020.2.10,distractmap2,60.00168004586376,"['Left Face', 'Right Leg', 'Left Face', 'Right Leg']",
5,"[0, 0]",1,0,8,8,8,,,None,None,"[0, 0, 0]",1751.859587999992,1753.8596030999906,1751.859587999992,1752.8595993999625,1752.8429292999208,1753.8429906999227,"[0, 0, 0]",1,1751.859587999992,1753.8596030999906,,,,,,,,,,,,,,,,,,,6,M,2,19,R,MH,49,49,2022_Aug_17_1136,2020.2.10,distractmap2,60.00168004586376,"['Left Face', 'Right Leg', 'Left Face', 'Right Leg']",
7,"[-0.2, -0.2]",1,0,9,9,9,,,None,None,"[0, 0, 0]",1753.8762603999348,1755.876284500002,1753.8762603999348,1754.8762791999616,1754.8596142999595,1755.859620000003,"[0, 0, 0]",1,1753.8762603999348,1755.876284500002,,,,,,,,,,,,,,,,,,,6,M,2,19,R,MH,49,49,2022_Aug_17_1136,2020.2.10,distractmap2,60.00168004586376,"['Left Face', 'Right Leg', 'Left Face', 'Right Leg']",
,,,,,,,,,,,,,,,,,,,,,,1755.8929541999241,None,,,,,,,,,,,,,,,,,6,M,2,19,R,MH,49,49,2022_Aug_17_1136,2020.2.10,distractmap2,60.00168004586376,"['Left Face', 'Right Leg', 'Left Face', 'Right Leg']",
,,,,,,,,,,,,,,,,,,,,,,,,,,,,,,,,,,35.06172839506173,1740.0298694301164,,,,,6,M,2,19,R,MH,49,49,2022_Aug_17_1136,2020.2.10,distractmap2,60.00168004586376,"['Left Face', 'Right Leg', 'Left Face', 'Right Leg']",
6,"[0.2, 0]",None,0,0,0,0,1769.1600163999246,None,None,None,"[0, 0, 0]",1775.926471499959,None,1775.926471499959,1776.9264645999065,1776.9098009999143,1777.9098101999843,"[0, 0, 0]",1,1775.926471499959,None,,,,,,,,,,,,,,,0.01304076996166259,5.008939569932409,,,6,M,2,19,R,MH,49,49,2022_Aug_17_1136,2020.2.10,distractmap2,60.00168004586376,"['Left Face', 'Right Leg', 'Left Face', 'Right Leg']",
1,"[-0.2, 0.2]",None,0,1,1,1,,,None,None,"[0, 0, 0]",1777.926476099994,1779.926492700004,1777.926476099994,1778.9264916999964,1778.9098237999715,1779.9098310999107,"[0, 0, 0]",1,1777.926476099994,1779.926492700004,,,,,,,,,,,,,,,,,,,6,M,2,19,R,MH,49,49,2022_Aug_17_1136,2020.2.10,distractmap2,60.00168004586376,"['Left Face', 'Right Leg', 'Left Face', 'Right Leg']",
6,"[0.2, 0]",1,0,2,2,2,,,None,None,"[0, 0, 0]",1779.9431659999536,1781.9431789999362,1779.9431659999536,1780.9431584998965,1780.9265056999866,1781.9265059999889,"[0, 0, 0]",1,1779.9431659999536,1781.9431789999362,,,,,,,,,,,,,,,,,,,6,M,2,19,R,MH,49,49,2022_Aug_17_1136,2020.2.10,distractmap2,60.00168004586376,"['Left Face', 'Right Leg', 'Left Face', 'Right Leg']",
4,"[-0.2, 0]",0,0,3,3,3,,,None,None,"[0, 0, 0]",1781.9598540998995,1783.9598604999483,1781.9598540998995,1782.9598558999132,1782.9431888998952,1783.9431992999744,"[0, 0, 0]",1,1781.9598540998995,1783.9598604999483,,,,,,,,,,,,,,,,,,,6,M,2,19,R,MH,49,49,2022_Aug_17_1136,2020.2.10,distractmap2,60.00168004586376,"['Left Face', 'Right Leg', 'Left Face', 'Right Leg']",
1,"[-0.2, 0.2]",0,0,4,4,4,,,None,None,"[0, 0, 0]",1784.0601971999276,None,1784.0601971999276,1785.0598746999167,1785.0432052999968,None,"[0, 0, 0]",1,1784.0601971999276,None,,,,,,,,,,,,,,,,,,,6,M,2,19,R,MH,49,49,2022_Aug_17_1136,2020.2.10,distractmap2,60.00168004586376,"['Left Face', 'Right Leg', 'Left Face', 'Right Leg']",
8,"[0, -0.2]",0,0,5,5,5,,,None,None,"[0, 0, 0]",1785.9932174999267,1787.9932325999252,1785.9932174999267,1786.993224099977,1786.976560399984,1787.9765920999926,"[0, 0, 0]",1,1785.9932174999267,1787.9932325999252,,,,,,,,,,,,,,,,,,,6,M,2,19,R,MH,49,49,2022_Aug_17_1136,2020.2.10,distractmap2,60.00168004586376,"['Left Face', 'Right Leg', 'Left Face', 'Right Leg']",
1,"[-0.2, 0.2]",1,0,6,6,6,,,None,None,"[0, 0, 0]",1788.0099146999419,1790.0099317999557,1788.0099146999419,1789.0099052999867,1788.9931740999455,1789.9932402999839,"[0, 0, 0]",1,1788.0099146999419,1790.0099317999557,,,,,,,,,,,,,,,,,,,6,M,2,19,R,MH,49,49,2022_Aug_17_1136,2020.2.10,distractmap2,60.00168004586376,"['Left Face', 'Right Leg', 'Left Face', 'Right Leg']",
8,"[0, -0.2]",1,0,7,7,7,,,None,None,"[0, 0, 0]",1790.026572899893,1792.0265926999273,1790.026572899893,1791.0265907999128,1791.009953700006,1792.0099298999412,"[0, 0, 0]",1,1790.026572899893,1792.0265926999273,,,,,,,,,,,,,,,,,,,6,M,2,19,R,MH,49,49,2022_Aug_17_1136,2020.2.10,distractmap2,60.00168004586376,"['Left Face', 'Right Leg', 'Left Face', 'Right Leg']",
1,"[-0.2, 0.2]",1,0,8,8,8,,,None,None,"[0, 0, 0]",1792.0432638999773,1794.043276399956,1792.0432638999773,1793.0433029999258,1793.026607699925,1794.0266183000058,"[0, 0, 0]",1,1792.0432638999773,1794.043276399956,,,,,,,,,,,,,,,,,,,6,M,2,19,R,MH,49,49,2022_Aug_17_1136,2020.2.10,distractmap2,60.00168004586376,"['Left Face', 'Right Leg', 'Left Face', 'Right Leg']",
6,"[0.2, 0]",0,0,9,9,9,,,None,None,"[0, 0, 0]",1794.0599577999674,1796.0599691999378,1794.0599577999674,1795.0599606999895,1795.043281499995,1796.043300399906,"[0, 0, 0]",1,1794.0599577999674,1796.0599691999378,,,,,,,,,,,,,,,,,,,6,M,2,19,R,MH,49,49,2022_Aug_17_1136,2020.2.10,distractmap2,60.00168004586376,"['Left Face', 'Right Leg', 'Left Face', 'Right Leg']",
,,,,,,,,,,,,,,,,,,,,,,1796.0766469999216,None,,,,,,,,,,,,,,,,,6,M,2,19,R,MH,49,49,2022_Aug_17_1136,2020.2.10,distractmap2,60.00168004586376,"['Left Face', 'Right Leg', 'Left Face', 'Right Leg']",
,,,,,,,,,,,,,,,,,,,,,,,,,,,,,,,,,,34.5679012345679,1780.9638679301133,,,,,6,M,2,19,R,MH,49,49,2022_Aug_17_1136,2020.2.10,distractmap2,60.00168004586376,"['Left Face', 'Right Leg', 'Left Face', 'Right Leg']",
7,"[-0.2, -0.2]",None,0,0,0,0,1962.5114251999184,None,None,None,"[0, 0, 0]",1965.511402299977,1967.5114445999498,1965.511402299977,1966.5114208000014,1966.4947741999058,1967.494770099991,"[0, 0, 0]",1,1965.511402299977,1967.5114445999498,,,,,,1840.6103553998983,1840.6103553998983,None,space,94.66653330007102,1840.6103553998983,None,,,0.012715769931674004,5.00832196988631,,,6,M,2,19,R,MH,49,49,2022_Aug_17_1136,2020.2.10,distractmap2,60.00168004586376,"['Left Face', 'Right Leg', 'Left Face', 'Right Leg']",
7,"[-0.2, -0.2]",None,0,1,1,1,,,None,None,"[0, 0, 0]",1967.528106099926,1969.5280253000092,1967.528106099926,1968.5281249999534,1968.5114350999938,1969.511443699943,"[0, 0, 0]",1,1967.528106099926,1969.5280253000092,,,,,,,,,,,,,,,,,,,6,M,2,19,R,MH,49,49,2022_Aug_17_1136,2020.2.10,distractmap2,60.00168004586376,"['Left Face', 'Right Leg', 'Left Face', 'Right Leg']",
7,"[-0.2, -0.2]",1,0,2,2,2,,,None,None,"[0, 0, 0]",1969.5447969000088,1971.544870599988,1969.5447969000088,1970.5447847999167,1970.5281357999193,1971.5281428999733,"[0, 0, 0]",1,1969.5447969000088,1971.544870599988,,,,,,,,,,,,,,,,,,,6,M,2,19,R,MH,49,49,2022_Aug_17_1136,2020.2.10,distractmap2,60.00168004586376,"['Left Face', 'Right Leg', 'Left Face', 'Right Leg']",
5,"[0, 0]",0,0,3,3,3,,,None,None,"[0, 0, 0]",1971.5614799999166,1973.5614799999166,1971.5614799999166,1972.561485299957,1972.544816199923,1973.5448311999207,"[0, 0, 0]",1,1971.5614799999166,1973.5614799999166,,,,,,,,,,,,,,,,,,,6,M,2,19,R,MH,49,49,2022_Aug_17_1136,2020.2.10,distractmap2,60.00168004586376,"['Left Face', 'Right Leg', 'Left Face', 'Right Leg']",
1,"[-0.2, 0.2]",0,0,4,4,4,,,None,None,"[0, 0, 0]",1973.5780605999753,1975.5781641999492,1973.5780605999753,1974.5781538999872,1974.5614799999166,1975.5615563999163,"[0, 0, 0]",1,1973.5780605999753,1975.5781641999492,,,,,,,,,,,,,,,,,,,6,M,2,19,R,MH,49,49,2022_Aug_17_1136,2020.2.10,distractmap2,60.00168004586376,"['Left Face', 'Right Leg', 'Left Face', 'Right Leg']",
6,"[0.2, 0]",0,0,5,5,5,,,None,None,"[0, 0, 0]",1975.5948408999247,1977.5948877999326,1975.5948408999247,1976.5948472999735,1976.5781876998954,1977.578187200008,"[0, 0, 0]",1,1975.5948408999247,1977.5948877999326,,,,,,,,,,,,,,,,,,,6,M,2,19,R,MH,49,49,2022_Aug_17_1136,2020.2.10,distractmap2,60.00168004586376,"['Left Face', 'Right Leg', 'Left Face', 'Right Leg']",
1,"[-0.2, 0.2]",1,0,6,6,6,,,None,None,"[0, 0, 0]",1977.6115478998981,1979.6115590999834,1977.6115478998981,1978.6115211999277,1978.594865399995,1979.5948898999486,"[0, 0, 0]",1,1977.6115478998981,1979.6115590999834,,,,,,,,,,,,,,,,,,,6,M,2,19,R,MH,49,49,2022_Aug_17_1136,2020.2.10,distractmap2,60.00168004586376,"['Left Face', 'Right Leg', 'Left Face', 'Right Leg']",
7,"[-0.2, -0.2]",0,0,7,7,7,,,None,None,"[0, 0, 0]",1979.628205899964,1981.6282239999855,1979.628205899964,1980.6282142999116,1980.6115507999202,1981.6115510999225,"[0, 0, 0]",1,1979.628205899964,1981.6282239999855,,,,,,,,,,,,,,,,,,,6,M,2,19,R,MH,49,49,2022_Aug_17_1136,2020.2.10,distractmap2,60.00168004586376,"['Left Face', 'Right Leg', 'Left Face', 'Right Leg']",
6,"[0.2, 0]",0,0,8,8,8,,,None,None,"[0, 0, 0]",1981.6448992999503,1983.6449140999466,1981.6448992999503,1982.6449026999762,1982.6282442999072,1983.6282946999418,"[0, 0, 0]",1,1981.6448992999503,1983.6449140999466,,,,,,,,,,,,,,,,,,,6,M,2,19,R,MH,49,49,2022_Aug_17_1136,2020.2.10,distractmap2,60.00168004586376,"['Left Face', 'Right Leg', 'Left Face', 'Right Leg']",
7,"[-0.2, -0.2]",1,0,9,9,9,,,None,None,"[0, 0, 0]",1983.6615611999296,1985.66158049996,1983.6615611999296,1984.6615906999214,1984.6449230998987,1985.6449411999201,"[0, 0, 0]",1,1983.6615611999296,1985.66158049996,,,,,,,,,,,,,,,,,,,6,M,2,19,R,MH,49,49,2022_Aug_17_1136,2020.2.10,distractmap2,60.00168004586376,"['Left Face', 'Right Leg', 'Left Face', 'Right Leg']",
,,,,,,,,,,,,,,,,,,,,,,1985.6782552999211,None,,,,,,,,,,,,,,,,,6,M,2,19,R,MH,49,49,2022_Aug_17_1136,2020.2.10,distractmap2,60.00168004586376,"['Left Face', 'Right Leg', 'Left Face', 'Right Leg']",
4,"[-0.2, 0]",None,0,0,0,0,1995.6950201999862,None,None,None,"[0, 0, 0]",2000.6950533000054,2002.6950856999028,2000.6950533000054,2001.6950633999659,2001.6783957999432,2002.6784052998992,"[0, 0, 0]",1,2000.6950533000054,2002.6950856999028,,,,,,,,,,,,,,,,,,,6,M,2,19,R,MH,49,49,2022_Aug_17_1136,2020.2.10,distractmap2,60.00168004586376,"['Left Face', 'Right Leg', 'Left Face', 'Right Leg']",
5,"[0, 0]",None,0,1,1,1,,,None,None,"[0, 0, 0]",2002.7117239999352,2004.711742399959,2002.7117239999352,2003.7117481000023,2003.695078699966,2004.6950933999615,"[0, 0, 0]",1,2002.7117239999352,2004.711742399959,,,,,,,,,,,,,,,,,,,6,M,2,19,R,MH,49,49,2022_Aug_17_1136,2020.2.10,distractmap2,60.00168004586376,"['Left Face', 'Right Leg', 'Left Face', 'Right Leg']",
6,"[0.2, 0]",0,0,2,2,2,,,None,None,"[0, 0, 0]",2004.728424299974,2006.728444200009,2004.728424299974,2005.7284488999285,2005.711651599966,2006.7117634000024,"[0, 0, 0]",1,2004.728424299974,2006.728444200009,,,,,,,,,,,,,,,,,,,6,M,2,19,R,MH,49,49,2022_Aug_17_1136,2020.2.10,distractmap2,60.00168004586376,"['Left Face', 'Right Leg', 'Left Face', 'Right Leg']",
1,"[-0.2, 0.2]",0,0,3,3,3,,,None,None,"[0, 0, 0]",2006.745106699993,2008.7451240000082,2006.745106699993,2007.7451142999344,2007.7284456999041,2008.7284535999643,"[0, 0, 0]",1,2006.745106699993,2008.7451240000082,,,,,,,,,,,,,,,,,,,6,M,2,19,R,MH,49,49,2022_Aug_17_1136,2020.2.10,distractmap2,60.00168004586376,"['Left Face', 'Right Leg', 'Left Face', 'Right Leg']",
6,"[0.2, 0]",1,0,4,4,4,,,None,None,"[0, 0, 0]",2008.7617783999303,2010.7618019999936,2008.7617783999303,2009.7618357999017,2009.7451596999308,2010.7451427999185,"[0, 0, 0]",1,2008.7617783999303,2010.7618019999936,,,,,,,,,,,,,,,,,,,6,M,2,19,R,MH,49,49,2022_Aug_17_1136,2020.2.10,distractmap2,60.00168004586376,"['Left Face', 'Right Leg', 'Left Face', 'Right Leg']",
1,"[-0.2, 0.2]",1,0,5,5,5,,,None,None,"[0, 0, 0]",2010.778475399944,2012.7784949999768,2010.778475399944,2011.7784954999806,2011.7617994999746,2012.761808799929,"[0, 0, 0]",1,2010.778475399944,2012.7784949999768,,,,,,,,,,,,,,,,,,,6,M,2,19,R,MH,49,49,2022_Aug_17_1136,2020.2.10,distractmap2,60.00168004586376,"['Left Face', 'Right Leg', 'Left Face', 'Right Leg']",
2,"[0, 0.2]",0,0,6,6,6,,,None,None,"[0, 0, 0]",2012.795157299959,2014.7951749999775,2012.795157299959,2013.7951817999128,2013.7785126999952,2014.7785317999078,"[0, 0, 0]",1,2012.795157299959,2014.7951749999775,,,,,,,,,,,,,,,,,,,6,M,2,19,R,MH,49,49,2022_Aug_17_1136,2020.2.10,distractmap2,60.00168004586376,"['Left Face', 'Right Leg', 'Left Face', 'Right Leg']",
3,"[0.2, 0.2]",0,0,7,7,7,,,None,None,"[0, 0, 0]",2014.8118871999905,2016.8118535999674,2014.8118871999905,2015.8118540999712,2015.7951863999479,2016.795193900005,"[0, 0, 0]",1,2014.8118871999905,2016.8118535999674,,,,,,,,,,,,,,,,,,,6,M,2,19,R,MH,49,49,2022_Aug_17_1136,2020.2.10,distractmap2,60.00168004586376,"['Left Face', 'Right Leg', 'Left Face', 'Right Leg']",
6,"[0.2, 0]",0,0,8,8,8,,,None,None,"[0, 0, 0]",2016.8285234000068,2018.8285406999057,2016.8285234000068,2017.8285383000039,2017.811889500008,2018.8118876999943,"[0, 0, 0]",1,2016.8285234000068,2018.8285406999057,,,,,,,,,,,,,,,,,,,6,M,2,19,R,MH,49,49,2022_Aug_17_1136,2020.2.10,distractmap2,60.00168004586376,"['Left Face', 'Right Leg', 'Left Face', 'Right Leg']",
3,"[0.2, 0.2]",1,0,9,9,9,,,None,None,"[0, 0, 0]",2018.845219599898,2020.8452204999048,2018.845219599898,2019.845218900009,2019.828637599945,2020.8285618999507,"[0, 0, 0]",1,2018.845219599898,2020.8452204999048,,,,,,,,,,,,,,,,,,,6,M,2,19,R,MH,49,49,2022_Aug_17_1136,2020.2.10,distractmap2,60.00168004586376,"['Left Face', 'Right Leg', 'Left Face', 'Right Leg']",
,,,,,,,,,,,,,,,,,,,,,,2020.861792899901,None,,,,,,,,,,,,,,,,,6,M,2,19,R,MH,49,49,2022_Aug_17_1136,2020.2.10,distractmap2,60.00168004586376,"['Left Face', 'Right Leg', 'Left Face', 'Right Leg']",
2,"[0, 0.2]",None,0,0,0,0,2030.8786597999278,None,None,None,"[0, 0, 0]",2035.8785833999282,2037.8787074999418,2035.8785833999282,2036.878714999999,2036.862037899904,2037.8620315999724,"[0, 0, 0]",1,2035.8785833999282,2037.8787074999418,,,,,,,,,,,,,,,,,,,6,M,2,19,R,MH,49,49,2022_Aug_17_1136,2020.2.10,distractmap2,60.00168004586376,"['Left Face', 'Right Leg', 'Left Face', 'Right Leg']",
5,"[0, 0]",None,0,1,1,1,,,None,None,"[0, 0, 0]",2037.895381799899,2039.8953874999424,2037.895381799899,2038.8953822999028,2038.8787254999625,2039.8787238999503,"[0, 0, 0]",1,2037.895381799899,2039.8953874999424,,,,,,,,,,,,,,,,,,,6,M,2,19,R,MH,49,49,2022_Aug_17_1136,2020.2.10,distractmap2,60.00168004586376,"['Left Face', 'Right Leg', 'Left Face', 'Right Leg']",
6,"[0.2, 0]",0,0,2,2,2,,,None,None,"[0, 0, 0]",2039.9120650999248,2041.9120631999103,2039.9120650999248,2040.912069199956,2040.8954161999281,2041.895406799973,"[0, 0, 0]",1,2039.9120650999248,2041.9120631999103,,,,,,,,,,,,,,,,,,,6,M,2,19,R,MH,49,49,2022_Aug_17_1136,2020.2.10,distractmap2,60.00168004586376,"['Left Face', 'Right Leg', 'Left Face', 'Right Leg']",
1,"[-0.2, 0.2]",0,0,3,3,3,,,None,None,"[0, 0, 0]",2041.9287634999491,2043.928770300001,2041.9287634999491,2042.9290661999257,2042.9123877999373,2043.9120867999736,"[0, 0, 0]",1,2041.9287634999491,2043.928770300001,,,,,,,,,,,,,,,,,,,6,M,2,19,R,MH,49,49,2022_Aug_17_1136,2020.2.10,distractmap2,60.00168004586376,"['Left Face', 'Right Leg', 'Left Face', 'Right Leg']",
6,"[0.2, 0]",1,0,4,4,4,,,None,None,"[0, 0, 0]",2043.9454286999535,2045.9454397999216,2043.9454286999535,2044.945436000009,2044.9287687999895,2045.9287760999287,"[0, 0, 0]",1,2043.9454286999535,2045.9454397999216,,,,,,,,,,,,,,,,,,,6,M,2,19,R,MH,49,49,2022_Aug_17_1136,2020.2.10,distractmap2,60.00168004586376,"['Left Face', 'Right Leg', 'Left Face', 'Right Leg']",
6,"[0.2, 0]",0,0,5,5,5,,,None,None,"[0, 0, 0]",2045.9621048999252,2047.9621279999847,2045.9621048999252,2046.9621217999374,2046.945460799965,2047.9454618999735,"[0, 0, 0]",1,2045.9621048999252,2047.9621279999847,,,,,,,,,,,,,,,,,,,6,M,2,19,R,MH,49,49,2022_Aug_17_1136,2020.2.10,distractmap2,60.00168004586376,"['Left Face', 'Right Leg', 'Left Face', 'Right Leg']",
9,"[0.2, -0.2]",0,0,6,6,6,,,None,None,"[0, 0, 0]",2047.978795700008,2049.9788122999016,2047.978795700008,2048.9788048999617,2048.962146200007,2049.9621516999323,"[0, 0, 0]",1,2047.978795700008,2049.9788122999016,,,,,,,,,,,,,,,,,,,6,M,2,19,R,MH,49,49,2022_Aug_17_1136,2020.2.10,distractmap2,60.00168004586376,"['Left Face', 'Right Leg', 'Left Face', 'Right Leg']",
6,"[0.2, 0]",1,0,7,7,7,,,None,None,"[0, 0, 0]",2049.9954822999425,2051.995496999938,2049.9954822999425,2050.9955001999624,2050.9788301999215,2051.978837199975,"[0, 0, 0]",1,2049.9954822999425,2051.995496999938,,,,,,,,,,,,,,,,,,,6,M,2,19,R,MH,49,49,2022_Aug_17_1136,2020.2.10,distractmap2,60.00168004586376,"['Left Face', 'Right Leg', 'Left Face', 'Right Leg']",
3,"[0.2, 0.2]",0,0,8,8,8,,,None,None,"[0, 0, 0]",2052.0121451999294,2054.0121769999387,2052.0121451999294,2053.012172599905,2052.995516099967,2053.995528099942,"[0, 0, 0]",1,2052.0121451999294,2054.0121769999387,,,,,,,,,,,,,,,,,,,6,M,2,19,R,MH,49,49,2022_Aug_17_1136,2020.2.10,distractmap2,60.00168004586376,"['Left Face', 'Right Leg', 'Left Face', 'Right Leg']",
9,"[0.2, -0.2]",0,0,9,9,9,,,None,None,"[0, 0, 0]",2054.028746399912,2056.0288797999965,2054.028746399912,2055.0288544999203,2055.012195999967,2056.012199699995,"[0, 0, 0]",1,2054.028746399912,2056.0288797999965,,,,,,,,,,,,,,,,,,,6,M,2,19,R,MH,49,49,2022_Aug_17_1136,2020.2.10,distractmap2,60.00168004586376,"['Left Face', 'Right Leg', 'Left Face', 'Right Leg']",
,,,,,,,,,,,,,,,,,,,,,,2056.04547319992,None,,,,,,,,,,,,,,,,,6,M,2,19,R,MH,49,49,2022_Aug_17_1136,2020.2.10,distractmap2,60.00168004586376,"['Left Face', 'Right Leg', 'Left Face', 'Right Leg']",
,,,,,,,2086.062449399964,None,,,,,,,,,,,,,,,,,,,,,,,,,,26.728395061728392,2072.5978666301817,,,2066.0622824999737,None,6,M,2,19,R,MH,49,49,2022_Aug_17_1136,2020.2.10,distractmap2,60.00168004586376,"['Left Face', 'Right Leg', 'Left Face', 'Right Leg']",
,,,,,,,2121.0794079999905,None,,,,,,,,,,,,,,,,,,,,,,,,,,30.555555555555554,2107.164895030088,0.014559169881977141,5.012048369972035,2101.0792503999546,None,6,M,2,19,R,MH,49,49,2022_Aug_17_1136,2020.2.10,distractmap2,60.00168004586376,"['Left Face', 'Right Leg', 'Left Face', 'Right Leg']",
,,,,,,,2156.096390499966,None,,,,,,,,,,,,,,,,,,,,,,,,,,32.46913580246913,2144.0964545301395,0.014476869953796268,5.011873770039529,2136.0962166999234,None,6,M,2,19,R,MH,49,49,2022_Aug_17_1136,2020.2.10,distractmap2,60.00168004586376,"['Left Face', 'Right Leg', 'Left Face', 'Right Leg']",
