	SID	day	sex	session	handedness	scanner	onset	duration	value	body_site	skin_site	temperature	condition	keys	rt	phase	biopac_channel
0	2475	3	M	03	R	MH SP			40.987654320987644	Chest	3	48.0	Threat		5.683702900074422	Control	
1	2475	3	M	03	R	MH SP			36.7283950617284	Chest	3	48.0	Stress		4.883697200100869	Control	
2	2475	3	M	03	R	MH SP			58.45679012345679	Chest	3	48.0	PainAnxiety		3.583707900252193	Control	
3	2475	3	M	03	R	MH SP			14.629629629629628	Chest	3	48.0	OtherAnxiety		5.333696600049734	Control	
4	2475	3	M	03	R	MH SP			66.66666666666666	Chest	3	48.0	PainConfidence		5.483699600212276	Control	
5	2475	3	M	03	R	MH SP	2.774435400031507	4.993280404713005		Chest	3	48.0	Instructions			Control	19
6	2475	3	M	03	R	MH SP	8.318605900276452	5.0128673003055155	42.77777777777778	Chest	3	48.0	Expectancy		4.5003074002452195	Control	51
7	2475	3	M	03	R	MH SP	13.711716200225055	2.0101302000693977		Chest	3	48.0	Cue			Control	6
8	2475	3	M	03	R	MH SP	15.733645200263709	4.01653280062601		Chest	3	48.0	Pre-Jitter			Control	7
9	2475	3	M	03	R	MH SP	19.811150200199336	15.011680550407618		Chest	3	48.0	Control Heat 			Control	17
10	2475	3	M	03	R	MH SP	34.82696139998734	6.99695815006271		Chest	3	48.0	Mid-Jitter			Control	8
11	2475	3	M	03	R	MH SP	41.8460491001606	5.008913400582969	1.0	Chest	3	48.0	PainBinary		2.785888200160116	Control	20
12	2475	3	M	03	R	MH SP	46.878400600049645	5.010972899850458	37.34567901234567	Chest	3	48.0	IntensityRating		2.299995099660009	Control	21
13	2475	3	M	03	R	MH SP	51.896275400184095	7.008726050145924		Chest	3	48.0	Post-Q-Jitter			Control	9
14	2475	3	M	03	R	MH SP	60.06603790028021	5.001995100174099	39.691358024691354	Chest	3	48.0	Expectancy		3.183485799934715	Control	51
15	2475	3	M	03	R	MH SP	65.45715490030125	2.0035923002287745		Chest	3	48.0	Cue			Control	6
16	2475	3	M	03	R	MH SP	67.46362490020692	8.007607750128955		Chest	3	48.0	Pre-Jitter			Control	7
17	2475	3	M	03	R	MH SP	75.51915699988604	15.013449099846184		Chest	3	48.0	Control Heat 			Control	17
18	2475	3	M	03	R	MH SP	90.52791470009834	4.996158050373197		Chest	3	48.0	Mid-Jitter			Control	8
19	2475	3	M	03	R	MH SP	95.54640530003235	5.009269899688661	1.0	Chest	3	48.0	PainBinary		1.5002223001793027	Control	20
20	2475	3	M	03	R	MH SP	100.57918420014903	5.010453900322318	36.66666666666667	Chest	3	48.0	IntensityRating		3.1693973001092672	Control	21
21	2475	3	M	03	R	MH SP	105.59675100026652	5.00876135006547		Chest	3	48.0	Post-Q-Jitter			Control	9
22	2475	3	M	03	R	MH SP	110.90006770007312	5.002150600310415	37.34567901234567	Chest	3	48.0	Expectancy		3.3000273001380265	Control	51
23	2475	3	M	03	R	MH SP	116.28783000027761	2.0099843004718423		Chest	3	48.0	Cue			Control	6
24	2475	3	M	03	R	MH SP	118.29687110008672	4.0087846498936415		Chest	3	48.0	Pre-Jitter			Control	7
25	2475	3	M	03	R	MH SP	122.37220330024138	15.008256350178272		Chest	3	48.0	Control Heat 			Control	17
26	2475	3	M	03	R	MH SP	137.37793310033157	8.997058949898928		Chest	3	48.0	Mid-Jitter			Control	8
27	2475	3	M	03	R	MH SP	146.39715790003538	5.0087552005425096	1.0	Chest	3	48.0	PainBinary		1.8667195998132229	Control	20
28	2475	3	M	03	R	MH SP	151.42839040001854	5.013073800131679	34.93827160493828	Chest	3	48.0	IntensityRating		3.700107700191438	Control	21
29	2475	3	M	03	R	MH SP	156.44854700006545	9.006220950279385		Chest	3	48.0	Post-Q-Jitter			Control	9
30	2475	3	M	03	R	MH SP	166.56025109998882	4.999033650383353	35.123456790123456	Chest	3	48.0	Expectancy		3.119806700386107	Control	51
31	2475	3	M	03	R	MH SP	171.949779599905	2.0037923003546894		Chest	3	48.0	Cue			Control	6
32	2475	3	M	03	R	MH SP	173.96505030011758	6.006874550133944		Chest	3	48.0	Pre-Jitter			Control	7
33	2475	3	M	03	R	MH SP	180.01224370021373	14.996032749768347		Chest	3	48.0	Control Heat 			Control	17
34	2475	3	M	03	R	MH SP	195.01237630005926	4.995920550543815		Chest	3	48.0	Mid-Jitter			Control	8
35	2475	3	M	03	R	MH SP	200.0316763999872	5.007419100031257	1.0	Chest	3	48.0	PainBinary		1.4023816999979317	Control	20
36	2475	3	M	03	R	MH SP	205.06223600031808	5.013092800043523	36.97530864197531	Chest	3	48.0	IntensityRating		2.6166655998677015	Control	21
37	2475	3	M	03	R	MH SP	210.08177910000086	5.007415949832648		Chest	3	48.0	Post-Q-Jitter			Control	9
38	2475	3	M	03	R	MH SP	216.3116339002736	5.01388330059126	38.45679012345679	Chest	3	48.0	Expectancy		2.9187284000217915	Control	51
39	2475	3	M	03	R	MH SP	221.70353450020775	2.0139424004592		Chest	3	48.0	Cue			Control	6
40	2475	3	M	03	R	MH SP	223.7153007001616	6.007367849815637		Chest	3	48.0	Pre-Jitter			Control	7
41	2475	3	M	03	R	MH SP	229.80014559999108	15.00451504997909		Chest	3	48.0	Control Heat 			Control	17
42	2475	3	M	03	R	MH SP	244.8121736003086	4.997318650595844		Chest	3	48.0	Mid-Jitter			Control	8
43	2475	3	M	03	R	MH SP	249.8305494002998	5.010687899775803	1.0	Chest	3	48.0	PainBinary		1.1000677002593875	Control	20
44	2475	3	M	03	R	MH SP	254.86331450007856	5.0119207999669015	40.06172839506172	Chest	3	48.0	IntensityRating		2.5334840998984873	Control	21
45	2475	3	M	03	R	MH SP	259.88167610019445	5.008595149964094		Chest	3	48.0	Post-Q-Jitter			Control	9
46	2475	3	M	03	R	MH SP	265.9759983001277	5.002836599946022	43.20987654320987	Chest	3	48.0	Expectancy		2.8336637001484632	Control	51
47	2475	3	M	03	R	MH SP	271.3458771002479	1.9968845499679446		Chest	3	48.0	Cue			Control	6
48	2475	3	M	03	R	MH SP	273.3491380000487	4.007349749561399		Chest	3	48.0	Pre-Jitter			Control	7
49	2475	3	M	03	R	MH SP	277.4091807003133	15.00410810066387		Chest	3	48.0	Control Heat 			Control	17
50	2475	3	M	03	R	MH SP	292.41306490032	8.996537749655545		Chest	3	48.0	Mid-Jitter			Control	8
51	2475	3	M	03	R	MH SP	301.43113650009036	5.010534199886024	1.0	Chest	3	48.0	PainBinary		2.300032800063491	Control	20
52	2475	3	M	03	R	MH SP	306.46393690025434	5.011697999667376	40.80246913580247	Chest	3	48.0	IntensityRating		2.1172119001857936	Control	21
53	2475	3	M	03	R	MH SP	311.48233189992607	9.008381749968976		Chest	3	48.0	Post-Q-Jitter			Control	9
54	2475	3	M	03	R	MH SP	320.5220464002341	7.729188950266689	-11.975308641975303	Chest	3	48.0	ComfortRating		7.700349899940193	Control	26
55	2475	3	M	03	R	MH SP	328.2693654000759	3.7347527998499572	66.97530864197532	Chest	3	48.0	ValenceRating		3.7170233000069857	Control	24
56	2475	3	M	03	R	MH SP	332.0290969000198	2.0820434000343084	68.5185185185185	Chest	3	48.0	IntensityRating		2.0670958003029227	Control	26
57	2475	3	M	03	R	MH SP	334.1309470003471	2.5949927996844053	61.358024691358025	Chest	3	48.0	AvoidanceRating		2.5667735999450088	Control	27
58	2475	3	M	03	R	MH SP	336.74406510032713	4.602138100657612	29.38271604938272	Chest	3	48.0	RelaxationRating		4.569663700181991	Control	28
59	2475	3	M	03	R	MH SP	341.36467509996146	7.994413000065833	85.24691358024691	Chest	3	48.0	AttentionRating		7.966756199952215	Control	29
60	2475	3	M	03	R	MH SP	349.37776440009475	3.218310800381005	29.444444444444446	Chest	3	48.0	BoredomRating		3.200351200066507	Control	30
61	2475	3	M	03	R	MH SP	352.6127114002593	3.315332700498402	100.0	Chest	3	48.0	AlertnessRating		3.3005773997865617	Control	31
62	2475	3	M	03	R	MH SP	355.94929660018533	4.625527199823409	-17.90123456790124	Chest	3	48.0	PosThxRating		4.599972300231457	Control	32
63	2475	3	M	03	R	MH SP	360.59578850027174	3.915899499785155	22.71604938271605	Chest	3	48.0	NegThxRating		3.9004994998686016	Control	33
64	2475	3	M	03	R	MH SP	364.52798889996484	3.1682086996734142	49.50617283950615	Chest	3	48.0	SelfRating		3.150351599790156	Control	34
65	2475	3	M	03	R	MH SP	367.713097400032	3.981383199803531	-49.01234567901235	Chest	3	48.0	OtherRating		3.9677164000459015	Control	35
66	2475	3	M	03	R	MH SP	371.71349700028077	3.830678700003773	2.716049382716051	Chest	3	48.0	ImageryRating		3.8030383000150323	Control	32
67	2475	3	M	03	R	MH SP	375.5649703000672	4.211149800103158	100.0	Chest	3	48.0	PresentRating		4.183291499968618	Control	37
