	SID	day	sex	session	handedness	scanner	onset	duration	value	body_site	skin_site	temperature	condition	keys	rt	phase	biopac_channel
0	2475	3	M	03	R	MH SP	2.7740536998026073	5.007378755602986		Left Leg	2	48.0	Instructions			Control	19
1	2475	3	M	03	R	MH SP	8.071713699959219	5.0059834998101	45.864197530864196	Left Leg	2	48.0	Expectancy		2.5857211998663843	Control	51
2	2475	3	M	03	R	MH SP	13.466075500007719	2.0006178999319673		Left Leg	2	48.0	Cue			Control	6
3	2475	3	M	03	R	MH SP	15.469730000011623	5.993570549879223		Left Leg	2	48.0	Pre-Jitter			Control	7
4	2475	3	M	03	R	MH SP	21.517569200135767	14.998091999907047		Left Leg	2	48.0	Control Heat 			Control	15
5	2475	3	M	03	R	MH SP	36.518250700086355	8.997003349941224		Left Leg	2	48.0	Mid-Jitter			Control	8
6	2475	3	M	03	R	MH SP	45.536971900146455	5.009724900126457	1.0	Left Leg	2	48.0	PainBinary		0.7333435001783073	Control	20
7	2475	3	M	03	R	MH SP	50.568023399915546	5.014426799956709	36.79012345679012	Left Leg	2	48.0	IntensityRating		4.13591740000993	Control	21
8	2475	3	M	03	R	MH SP	55.5877140997909	9.008513850159943		Left Leg	2	48.0	Post-Q-Jitter			Control	9
9	2475	3	M	03	R	MH SP	64.91465870011598	5.004620300605893	41.2962962962963	Left Leg	2	48.0	Expectancy		2.300332000013441	Control	51
10	2475	3	M	03	R	MH SP	70.31001049978659	2.0139267505146563		Left Leg	2	48.0	Cue			Control	6
11	2475	3	M	03	R	MH SP	72.320497199893	3.9932407503947616		Left Leg	2	48.0	Pre-Jitter			Control	7
12	2475	3	M	03	R	MH SP	76.34545559994876	15.010139550082386		Left Leg	2	48.0	Control Heat 			Control	15
13	2475	3	M	03	R	MH SP	91.3518865997903	8.997544650454074		Left Leg	2	48.0	Mid-Jitter			Control	8
14	2475	3	M	03	R	MH SP	100.37226939992979	5.006963599938899	1.0	Left Leg	2	48.0	PainBinary		1.6666840999387205	Control	20
15	2475	3	M	03	R	MH SP	105.40233720000833	5.0135809001512825	35.49382716049383	Left Leg	2	48.0	IntensityRating		2.2000477998517454	Control	21
16	2475	3	M	03	R	MH SP	110.42152820015326	9.00870055006817		Left Leg	2	48.0	Post-Q-Jitter			Control	9
17	2475	3	M	03	R	MH SP	119.74680909980088	5.00814890069887	35.8641975308642	Left Leg	2	48.0	Expectancy		2.6670252000913024	Control	51
18	2475	3	M	03	R	MH SP	125.12662649992853	2.015238599386066		Left Leg	2	48.0	Cue			Control	6
19	2475	3	M	03	R	MH SP	127.13874289998785	4.007914050016552		Left Leg	2	48.0	Pre-Jitter			Control	7
20	2475	3	M	03	R	MH SP	131.18802009988576	15.00954075017944		Left Leg	2	48.0	Control Heat 			Control	15
21	2475	3	M	03	R	MH SP	146.2018889999017	6.998739850241691		Left Leg	2	48.0	Mid-Jitter			Control	8
22	2475	3	M	03	R	MH SP	153.2214445997961	5.0097504002042115	1.0	Left Leg	2	48.0	PainBinary		1.5667956001125276	Control	20
23	2475	3	M	03	R	MH SP	158.25289190001786	5.01365019986406	37.592592592592595	Left Leg	2	48.0	IntensityRating		2.4500080002471805	Control	21
24	2475	3	M	03	R	MH SP	163.27148510003462	6.993305049836636		Left Leg	2	48.0	Post-Q-Jitter			Control	9
25	2475	3	M	03	R	MH SP	170.5425864001736	5.001074550673366	43.888888888888886	Left Leg	2	48.0	Expectancy		1.2333797998726368	Control	51
26	2475	3	M	03	R	MH SP	175.93321799999103	2.0030853003263474		Left Leg	2	48.0	Cue			Control	6
27	2475	3	M	03	R	MH SP	177.9381250999868	6.010242749471217		Left Leg	2	48.0	Pre-Jitter			Control	7
28	2475	3	M	03	R	MH SP	183.98085199994966	15.008406149689108		Left Leg	2	48.0	Control Heat 			Control	15
29	2475	3	M	03	R	MH SP	198.98618069989607	8.998035950120538		Left Leg	2	48.0	Mid-Jitter			Control	8
30	2475	3	M	03	R	MH SP	208.0042143999599	4.995353499893099	1.0	Left Leg	2	48.0	PainBinary		1.0177829996682703	Control	20
31	2475	3	M	03	R	MH SP	213.01960039976984	5.014721099752933	36.91358024691358	Left Leg	2	48.0	IntensityRating		2.166847599670291	Control	21
32	2475	3	M	03	R	MH SP	218.03941339999437	9.008618450257927		Left Leg	2	48.0	Post-Q-Jitter			Control	9
33	2475	3	M	03	R	MH SP	227.3361860997975	4.998440300114453	41.419753086419746	Left Leg	2	48.0	Expectancy		1.900407999753952	Control	51
34	2475	3	M	03	R	MH SP	232.70363509980962	2.013578850310296		Left Leg	2	48.0	Cue			Control	6
35	2475	3	M	03	R	MH SP	234.7229709001258	4.00848325015977		Left Leg	2	48.0	Pre-Jitter			Control	7
36	2475	3	M	03	R	MH SP	238.75646649999544	15.00838360004127		Left Leg	2	48.0	Control Heat 			Control	15
37	2475	3	M	03	R	MH SP	253.77027540002018	4.997629949823022		Left Leg	2	48.0	Mid-Jitter			Control	8
38	2475	3	M	03	R	MH SP	258.7885539997369	5.011118399910629	1.0	Left Leg	2	48.0	PainBinary		1.5529877999797463	Control	20
39	2475	3	M	03	R	MH SP	263.8212588997558	5.01247200043872	32.03703703703704	Left Leg	2	48.0	IntensityRating		2.750030600000173	Control	21
40	2475	3	M	03	R	MH SP	268.8402497000061	5.007925550453365		Left Leg	2	48.0	Post-Q-Jitter			Control	9
41	2475	3	M	03	R	MH SP	274.14392750011757	5.000540600158274	43.14814814814815	Left Leg	2	48.0	Expectancy		2.750323800370097	Control	51
42	2475	3	M	03	R	MH SP	279.52825490012765	2.0152247003279626		Left Leg	2	48.0	Cue			Control	6
43	2475	3	M	03	R	MH SP	281.539284999948	8.010238050017506		Left Leg	2	48.0	Pre-Jitter			Control	7
44	2475	3	M	03	R	MH SP	289.5997039000504	15.006307100411505		Left Leg	2	48.0	Control Heat 			Control	15
45	2475	3	M	03	R	MH SP	304.6043079998344	8.997365749906749		Left Leg	2	48.0	Mid-Jitter			Control	8
46	2475	3	M	03	R	MH SP	313.6223295000382	5.011458499822766	1.0	Left Leg	2	48.0	PainBinary		0.9667862001806498	Control	20
47	2475	3	M	03	R	MH SP	318.6619092999026	5.015668550040573	38.7037037037037	Left Leg	2	48.0	IntensityRating		2.450370099861175	Control	21
48	2475	3	M	03	R	MH SP	323.6745323999785	9.00724365003407		Left Leg	2	48.0	Post-Q-Jitter			Control	9
49	2475	3	M	03	R	MH SP	332.71330459974706	2.66326625039801	-13.580246913580254	Left Leg	2	48.0	ComfortRating		2.63365689991042	Control	26
50	2475	3	M	03	R	MH SP	335.3935209000483	2.5862387004308403	72.77777777777779	Left Leg	2	48.0	ValenceRating		2.5666863000951707	Control	24
51	2475	3	M	03	R	MH SP	338.00245299981907	1.5350772999227047	74.5679012345679	Left Leg	2	48.0	IntensityRating		1.517029299866408	Control	26
52	2475	3	M	03	R	MH SP	339.5548716997728	2.0136301000602543	65.06172839506172	Left Leg	2	48.0	AvoidanceRating		2.0008018002845347	Control	27
53	2475	3	M	03	R	MH SP	341.5839899000712	3.7221010997891426	29.506172839506174	Left Leg	2	48.0	RelaxationRating		3.700336799956858	Control	28
54	2475	3	M	03	R	MH SP	345.32063029985875	4.015564499888569	75.12345679012346	Left Leg	2	48.0	AttentionRating		4.000467200297862	Control	29
55	2475	3	M	03	R	MH SP	349.3514037998393	4.370782100129873	52.22222222222223	Left Leg	2	48.0	BoredomRating		4.350420200265944	Control	30
56	2475	3	M	03	R	MH SP	353.73609869973734	3.034816099796444	100.0	Left Leg	2	48.0	AlertnessRating		3.017053199931979	Control	31
57	2475	3	M	03	R	MH SP	356.78672759979963	2.0336398002691567	-63.333333333333336	Left Leg	2	48.0	PosThxRating		2.0171786001883447	Control	32
58	2475	3	M	03	R	MH SP	358.83660080004483	1.950563800521195	50.12345679012347	Left Leg	2	48.0	NegThxRating		1.9196471003815532	Control	33
59	2475	3	M	03	R	MH SP	360.8028845000081	3.968050899915397	81.60493827160494	Left Leg	2	48.0	SelfRating		3.950364100281149	Control	34
60	2475	3	M	03	R	MH SP	364.7856303998269	1.8692681002430618	-87.1604938271605	Left Leg	2	48.0	OtherRating		1.8503725999034941	Control	35
61	2475	3	M	03	R	MH SP	366.67270490014926	2.94516329979524	18.518518518518505	Left Leg	2	48.0	ImageryRating		2.916654299944639	Control	32
62	2475	3	M	03	R	MH SP	369.6383385001682	2.4140229001641273	69.25925925925924	Left Leg	2	48.0	PresentRating		2.3692546002566814	Control	37
