BodySiteInstructionText.started,BodySiteImg.started,BodySiteImg.stopped,BodySiteInstructionRead.keys,BodySiteInstructionRead.rt,BodySiteInstructionRead.started,BodySiteInstructionRead.stopped,fixation.started,fixation.stopped,IntensityRating.response,IntensityRating.rt,IntensityRating.started,IntensityRating.stopped,ComfortRating.response,ComfortRating.rt,ComfortRating.started,ComfortRating.stopped,ValenceRating.response,ValenceRating.rt,ValenceRating.started,ValenceRating.stopped,AvoidRating.response,AvoidRating.rt,AvoidRating.started,AvoidRating.stopped,RelaxRating.response,RelaxRating.rt,RelaxRating.started,RelaxRating.stopped,TaskAttentionRating.response,TaskAttentionRating.rt,TaskAttentionRating.started,TaskAttentionRating.stopped,BoredomRating.response,BoredomRating.rt,BoredomRating.started,BoredomRating.stopped,AlertnessRating.response,AlertnessRating.rt,AlertnessRating.started,AlertnessRating.stopped,PosThxRating.response,PosThxRating.rt,PosThxRating.started,PosThxRating.stopped,NegThxRating.response,NegThxRating.rt,NegThxRating.started,NegThxRating.stopped,SelfRating.response,SelfRating.rt,SelfRating.started,SelfRating.stopped,OtherRating.response,OtherRating.rt,OtherRating.started,OtherRating.stopped,ImageryRating.response,ImageryRating.rt,ImageryRating.started,ImageryRating.stopped,PresentRating.response,PresentRating.rt,PresentRating.started,PresentRating.stopped,subject number,gender,session,handedness,scanner,run,experience(1) or regulate(2),date,psychopyVersion,expName,body_site_order,frameRate,
24.922791799996048,24.922791799996048,None,space,5.864521499956027,24.922791799996048,None,99.4568711000029,None,37.28395061728395,92.72890844009817,,,,,,,,,,,,,,,,,,,,,,,,,,,,,,,,,,,,,,,,,,,,,,,,,,,,,,,9,F,17,R,MS MK,,1,2023_May_22_1404,2020.2.10,acceptmap-experience,"['Abdomen', 'Left Face', 'Abdomen', 'Left Face']",59.97947502097618,
,,,,,,,127.47379399999045,None,30.308641975308642,114.86440524016507,0.016274459892883897,5.0157181597314775,,,,,,,,,,,,,,,,,,,,,,,,,,,,,,,,,,,,,,,,,,,,,,,,,,,,,9,F,17,R,MS MK,,1,2023_May_22_1404,2020.2.10,acceptmap-experience,"['Abdomen', 'Left Face', 'Abdomen', 'Left Face']",59.97947502097618,
,,,,,,,155.49074780009687,None,37.28395061728395,142.3306900402531,0.014318859903141856,5.011673159897327,,,,,,,,,,,,,,,,,,,,,,,,,,,,,,,,,,,,,,,,,,,,,,,,,,,,,9,F,17,R,MS MK,,1,2023_May_22_1404,2020.2.10,acceptmap-experience,"['Abdomen', 'Left Face', 'Abdomen', 'Left Face']",59.97947502097618,
,,,,,,,183.50771789997816,None,37.96296296296296,170.3811840401031,0.0150011598598212,5.0130125598516315,,,,,,,,,,,,,,,,,,,,,,,,,,,,,,,,,,,,,,,,,,,,,,,,,,,,,9,F,17,R,MS MK,,1,2023_May_22_1404,2020.2.10,acceptmap-experience,"['Abdomen', 'Left Face', 'Abdomen', 'Left Face']",59.97947502097618,
,,,,,,,211.52467740001157,None,36.54320987654321,198.1484164397698,0.014815760077908635,5.012616660213098,,,,,,,,,,,,,,,,,,,,,,,,,,,,,,,,,,,,,,,,,,,,,,,,,,,,,9,F,17,R,MS MK,,1,2023_May_22_1404,2020.2.10,acceptmap-experience,"['Abdomen', 'Left Face', 'Abdomen', 'Left Face']",59.97947502097618,
,,,,,,,239.54165369994007,None,41.23456790123456,227.3815776403062,0.014620960224419832,5.012267260113731,,,,,,,,,,,,,,,,,,,,,,,,,,,,,,,,,,,,,,,,,,,,,,,,,,,,,9,F,17,R,MS MK,,1,2023_May_22_1404,2020.2.10,acceptmap-experience,"['Abdomen', 'Left Face', 'Abdomen', 'Left Face']",59.97947502097618,
,,,,,,,267.55859489995055,None,42.160493827160494,259.9328160400037,0.01507335971109569,5.01314515969716,,,,,,,,,,,,,,,,,,,,,,,,,,,,,,,,,,,,,,,,,,,,,,,,,,,,,9,F,17,R,MS MK,,1,2023_May_22_1404,2020.2.10,acceptmap-experience,"['Abdomen', 'Left Face', 'Abdomen', 'Left Face']",59.97947502097618,
,,,,,,,295.57555910013616,None,41.85185185185185,284.0659483401105,0.014110660180449486,5.01125006005168,,,,,,,,,,,,,,,,,,,,,,,,,,,,,,,,,,,,,,,,,,,,,,,,,,,,,9,F,17,R,MS MK,,1,2023_May_22_1404,2020.2.10,acceptmap-experience,"['Abdomen', 'Left Face', 'Abdomen', 'Left Face']",59.97947502097618,
,,,,,,,323.592506499961,None,41.66666666666667,311.6977765399497,0.014586759964004159,5.012225959915668,,,,,,,,,,,,,,,,,,,,,,,,,,,,,,,,,,,,,,,,,,,,,,,,,,,,,9,F,17,R,MS MK,,1,2023_May_22_1404,2020.2.10,acceptmap-experience,"['Abdomen', 'Left Face', 'Abdomen', 'Left Face']",59.97947502097618,
,,,,,,,351.6094778999686,None,44.567901234567906,343.1996557400562,0.01637816010043025,5.015720759984106,,,,,,,,,,,,,,,,,,,,,,,,,,,,,,,,,,,,,,,,,,,,,,,,,,,,,9,F,17,R,MS MK,,1,2023_May_22_1404,2020.2.10,acceptmap-experience,"['Abdomen', 'Left Face', 'Abdomen', 'Left Face']",59.97947502097618,
,,,,,,,379.62642730004154,None,44.19753086419753,370.1840675403364,0.014821660006418824,5.012677459977567,,,,,,,,,,,,,,,,,,,,,,,,,,,,,,,,,,,,,,,,,,,,,,,,,,,,,9,F,17,R,MS MK,,1,2023_May_22_1404,2020.2.10,acceptmap-experience,"['Abdomen', 'Left Face', 'Abdomen', 'Left Face']",59.97947502097618,
,,,,,,,407.6434244001284,None,44.629629629629626,399.33397934003733,0.014009059872478247,5.0111411600373685,,,,,,,,,,,,,,,,,,,,,,,,,,,,,,,,,,,,,,,,,,,,,,,,,,,,,9,F,17,R,MS MK,,1,2023_May_22_1404,2020.2.10,acceptmap-experience,"['Abdomen', 'Left Face', 'Abdomen', 'Left Face']",59.97947502097618,
,,,,,,,435.6603421000764,None,44.50617283950618,425.6989349401556,0.01449346006847918,5.012081060092896,,,,,,,,,,,,,,,,,,,,,,,,,,,,,,,,,,,,,,,,,,,,,,,,,,,,,9,F,17,R,MS MK,,1,2023_May_22_1404,2020.2.10,acceptmap-experience,"['Abdomen', 'Left Face', 'Abdomen', 'Left Face']",59.97947502097618,
,,,,,,,463.67731639998965,None,45.06172839506173,450.2178656400647,0.016413260018453002,5.015909560024738,,,,,,,,,,,,,,,,,,,,,,,,,,,,,,,,,,,,,,,,,,,,,,,,,,,,,9,F,17,R,MS MK,,1,2023_May_22_1404,2020.2.10,acceptmap-experience,"['Abdomen', 'Left Face', 'Abdomen', 'Left Face']",59.97947502097618,
,,,,,,,491.69429400004447,None,45.925925925925924,482.6847221401986,0.014414059929549694,5.011863659834489,,,,,,,,,,,,,,,,,,,,,,,,,,,,,,,,,,,,,,,,,,,,,,,,,,,,,9,F,17,R,MS MK,,1,2023_May_22_1404,2020.2.10,acceptmap-experience,"['Abdomen', 'Left Face', 'Abdomen', 'Left Face']",59.97947502097618,
,,,,,,,519.7112509000581,None,47.34567901234568,508.2355024400167,0.014637259999290109,5.01229486009106,,,,,,,,,,,,,,,,,,,,,,,,,,,,,,,,,,,,,,,,,,,,,,,,,,,,,9,F,17,R,MS MK,,1,2023_May_22_1404,2020.2.10,acceptmap-experience,"['Abdomen', 'Left Face', 'Abdomen', 'Left Face']",59.97947502097618,
,,,,,,,,,,,0.01410706015303731,5.01124526001513,-5.061728395061721,530.4692784403451,,,,,,,,,,,,,,,,,,,,,,,,,,,,,,,,,,,,,,,,,,,,,,,,,,,9,F,17,R,MS MK,,1,2023_May_22_1404,2020.2.10,acceptmap-experience,"['Abdomen', 'Left Face', 'Abdomen', 'Left Face']",59.97947502097618,
,,,,,,,,,,,,,,,0.013885859865695238,None,0.0,534.836345640244,,,,,,,,,,,,,,,,,,,,,,,,,,,,,,,,,,,,,,,,,,,,,,,9,F,17,R,MS MK,,1,2023_May_22_1404,2020.2.10,acceptmap-experience,"['Abdomen', 'Left Face', 'Abdomen', 'Left Face']",59.97947502097618,
,,,,,,,,,51.66666666666667,542.7916028799955,,,,,,,,,0.013552859891206026,None,,,,,,,,,,,,,,,,,,,,,,,,,,,,,,,,,,,,,,,,,,,,,9,F,17,R,MS MK,,1,2023_May_22_1404,2020.2.10,acceptmap-experience,"['Abdomen', 'Left Face', 'Abdomen', 'Left Face']",59.97947502097618,
,,,,,,,,,,,0.008317920146510005,None,,,,,,,,,90.80246913580247,552.0203650400508,,,,,,,,,,,,,,,,,,,,,,,,,,,,,,,,,,,,,,,,,,,9,F,17,R,MS MK,,1,2023_May_22_1404,2020.2.10,acceptmap-experience,"['Abdomen', 'Left Face', 'Abdomen', 'Left Face']",59.97947502097618,
,,,,,,,,,,,,,,,,,,,,,,,0.013018860016018152,None,48.39506172839506,557.0697359400801,,,,,,,,,,,,,,,,,,,,,,,,,,,,,,,,,,,,,,,9,F,17,R,MS MK,,1,2023_May_22_1404,2020.2.10,acceptmap-experience,"['Abdomen', 'Left Face', 'Abdomen', 'Left Face']",59.97947502097618,
,,,,,,,,,,,,,,,,,,,,,,,,,,,0.013715360080823302,None,60.55555555555555,567.2536414400674,,,,,,,,,,,,,,,,,,,,,,,,,,,,,,,,,,,9,F,17,R,MS MK,,1,2023_May_22_1404,2020.2.10,acceptmap-experience,"['Abdomen', 'Left Face', 'Abdomen', 'Left Face']",59.97947502097618,
,,,,,,,,,,,,,,,,,,,,,,,,,,,,,,,0.01325496006757021,None,34.5679012345679,572.8038619400468,,,,,,,,,,,,,,,,,,,,,,,,,,,,,,,9,F,17,R,MS MK,,1,2023_May_22_1404,2020.2.10,acceptmap-experience,"['Abdomen', 'Left Face', 'Abdomen', 'Left Face']",59.97947502097618,
,,,,,,,,,,,,,,,,,,,,,,,,,,,,,,,,,,,0.013078860007226467,None,-15.308641975308646,580.3207419400569,,,,,,,,,,,,,,,,,,,,,,,,,,,9,F,17,R,MS MK,,1,2023_May_22_1404,2020.2.10,acceptmap-experience,"['Abdomen', 'Left Face', 'Abdomen', 'Left Face']",59.97947502097618,
,,,,,,,,,,,,,,,,,,,,,,,,,,,,,,,,,,,,,,,0.01299395994283259,None,9.012345679012341,587.720710339956,,,,,,,,,,,,,,,,,,,,,,,9,F,17,R,MS MK,,1,2023_May_22_1404,2020.2.10,acceptmap-experience,"['Abdomen', 'Left Face', 'Abdomen', 'Left Face']",59.97947502097618,
,,,,,,,,,,,,,,,,,,,,,,,,,,,,,,,,,,,,,,,,,,,0.013060060096904635,None,-74.07407407407408,593.0044894402381,,,,,,,,,,,,,,,,,,,9,F,17,R,MS MK,,1,2023_May_22_1404,2020.2.10,acceptmap-experience,"['Abdomen', 'Left Face', 'Abdomen', 'Left Face']",59.97947502097618,
,,,,,,,,,,,,,,,,,,,,,,,,,,,,,,,,,,,,,,,,,,,,,,,0.01270775985904038,None,37.16049382716048,599.5039731401484,,,,,,,,,,,,,,,9,F,17,R,MS MK,,1,2023_May_22_1404,2020.2.10,acceptmap-experience,"['Abdomen', 'Left Face', 'Abdomen', 'Left Face']",59.97947502097618,
,,,,,,,,,,,,,,,,,,,,,,,,,,,,,,,,,,,,,,,,,,,,,,,,,,,0.01325465994887054,None,-100.0,603.6540333398152,,,,,,,,,,,9,F,17,R,MS MK,,1,2023_May_22_1404,2020.2.10,acceptmap-experience,"['Abdomen', 'Left Face', 'Abdomen', 'Left Face']",59.97947502097618,
,,,,,,,,,,,,,,,,,,,,,,,,,,,,,,,,,,,,,,,,,,,,,,,,,,,,,,,0.013239360181614757,None,15.432098765432102,610.9207849402446,,,,,,,9,F,17,R,MS MK,,1,2023_May_22_1404,2020.2.10,acceptmap-experience,"['Abdomen', 'Left Face', 'Abdomen', 'Left Face']",59.97947502097618,
,,,,,,,,,,,,,,,,,,,,,,,,,,,,,,,,,,,,,,,,,,,,,,,,,,,,,,,,,,,0.013239359948784113,None,-17.90123456790124,620.187570740236,,,9,F,17,R,MS MK,,1,2023_May_22_1404,2020.2.10,acceptmap-experience,"['Abdomen', 'Left Face', 'Abdomen', 'Left Face']",59.97947502097618,
689.5464065000415,689.5464065000415,None,space,74.92960959998891,689.5464065000415,None,808.3309859000146,None,45.74074074074074,795.5375324401539,,,,,,,,,,,,,,,,,,,,,,,,,,,,,,,,,,,,,,,,,,,,,,,,,,,,,0.013271759962663054,None,9,F,17,R,MS MK,,1,2023_May_22_1404,2020.2.10,acceptmap-experience,"['Abdomen', 'Left Face', 'Abdomen', 'Left Face']",59.97947502097618,
,,,,,,,836.3479647999629,None,42.160493827160494,823.355119739892,0.014983259839937091,5.01294925971888,,,,,,,,,,,,,,,,,,,,,,,,,,,,,,,,,,,,,,,,,,,,,,,,,,,,,9,F,17,R,MS MK,,1,2023_May_22_1404,2020.2.10,acceptmap-experience,"['Abdomen', 'Left Face', 'Abdomen', 'Left Face']",59.97947502097618,
,,,,,,,864.3649208999705,None,44.567901234567906,850.2889367402531,0.014446760294958949,5.011888860259205,,,,,,,,,,,,,,,,,,,,,,,,,,,,,,,,,,,,,,,,,,,,,,,,,,,,,9,F,17,R,MS MK,,1,2023_May_22_1404,2020.2.10,acceptmap-experience,"['Abdomen', 'Left Face', 'Abdomen', 'Left Face']",59.97947502097618,
,,,,,,,892.3818930999842,None,47.901234567901234,880.9549880402628,0.014271759893745184,5.011518859770149,,,,,,,,,,,,,,,,,,,,,,,,,,,,,,,,,,,,,,,,,,,,,,,,,,,,,9,F,17,R,MS MK,,1,2023_May_22_1404,2020.2.10,acceptmap-experience,"['Abdomen', 'Left Face', 'Abdomen', 'Left Face']",59.97947502097618,
,,,,,,,920.3988298000768,None,45.864197530864196,906.0559778399765,0.015207759803161025,5.0134495596867055,,,,,,,,,,,,,,,,,,,,,,,,,,,,,,,,,,,,,,,,,,,,,,,,,,,,,9,F,17,R,MS MK,,1,2023_May_22_1404,2020.2.10,acceptmap-experience,"['Abdomen', 'Left Face', 'Abdomen', 'Left Face']",59.97947502097618,
,,,,,,,948.4157949001528,None,42.59259259259259,938.6877782400697,0.01445956015959382,5.0119713600724936,,,,,,,,,,,,,,,,,,,,,,,,,,,,,,,,,,,,,,,,,,,,,,,,,,,,,9,F,17,R,MS MK,,1,2023_May_22_1404,2020.2.10,acceptmap-experience,"['Abdomen', 'Left Face', 'Abdomen', 'Left Face']",59.97947502097618,
,,,,,,,976.4327879999764,None,44.07407407407407,964.8047511400655,0.016366860130801797,5.015754560008645,,,,,,,,,,,,,,,,,,,,,,,,,,,,,,,,,,,,,,,,,,,,,,,,,,,,,9,F,17,R,MS MK,,1,2023_May_22_1404,2020.2.10,acceptmap-experience,"['Abdomen', 'Left Face', 'Abdomen', 'Left Face']",59.97947502097618,
,,,,,,,1004.4497358000372,None,43.51851851851852,990.3063082403969,0.016324260039255023,5.015665560029447,,,,,,,,,,,,,,,,,,,,,,,,,,,,,,,,,,,,,,,,,,,,,,,,,,,,,9,F,17,R,MS MK,,1,2023_May_22_1404,2020.2.10,acceptmap-experience,"['Abdomen', 'Left Face', 'Abdomen', 'Left Face']",59.97947502097618,
,,,,,,,1032.46670920006,None,43.76543209876543,1022.3552858403418,0.015019159764051437,5.013061159756035,,,,,,,,,,,,,,,,,,,,,,,,,,,,,,,,,,,,,,,,,,,,,,,,,,,,,9,F,17,R,MS MK,,1,2023_May_22_1404,2020.2.10,acceptmap-experience,"['Abdomen', 'Left Face', 'Abdomen', 'Left Face']",59.97947502097618,
,,,,,,,1060.4836608001497,None,47.22222222222223,1046.5574556400534,0.016414859797805548,5.015819959808141,,,,,,,,,,,,,,,,,,,,,,,,,,,,,,,,,,,,,,,,,,,,,,,,,,,,,9,F,17,R,MS MK,,1,2023_May_22_1404,2020.2.10,acceptmap-experience,"['Abdomen', 'Left Face', 'Abdomen', 'Left Face']",59.97947502097618,
,,,,,,,1088.500619099941,None,44.938271604938265,1078.939227240393,0.014503160025924444,5.01204435992986,,,,,,,,,,,,,,,,,,,,,,,,,,,,,,,,,,,,,,,,,,,,,,,,,,,,,9,F,17,R,MS MK,,1,2023_May_22_1404,2020.2.10,acceptmap-experience,"['Abdomen', 'Left Face', 'Abdomen', 'Left Face']",59.97947502097618,
,,,,,,,1116.5175930000842,None,46.666666666666664,1103.7751101404428,0.016402159817516804,5.01585405995138,,,,,,,,,,,,,,,,,,,,,,,,,,,,,,,,,,,,,,,,,,,,,,,,,,,,,9,F,17,R,MS MK,,1,2023_May_22_1404,2020.2.10,acceptmap-experience,"['Abdomen', 'Left Face', 'Abdomen', 'Left Face']",59.97947502097618,
,,,,,,,1144.534588499926,None,47.34567901234568,1130.0915698402096,0.014096159720793366,5.01122355973348,,,,,,,,,,,,,,,,,,,,,,,,,,,,,,,,,,,,,,,,,,,,,,,,,,,,,9,F,17,R,MS MK,,1,2023_May_22_1404,2020.2.10,acceptmap-experience,"['Abdomen', 'Left Face', 'Abdomen', 'Left Face']",59.97947502097618,
,,,,,,,1172.5515286000445,None,47.28395061728395,1160.1584049400408,0.014594859909266233,5.012225059792399,,,,,,,,,,,,,,,,,,,,,,,,,,,,,,,,,,,,,,,,,,,,,,,,,,,,,9,F,17,R,MS MK,,1,2023_May_22_1404,2020.2.10,acceptmap-experience,"['Abdomen', 'Left Face', 'Abdomen', 'Left Face']",59.97947502097618,
,,,,,,,1200.5685032999609,None,47.901234567901234,1186.6928859399632,0.014751260168850422,5.012527860002592,,,,,,,,,,,,,,,,,,,,,,,,,,,,,,,,,,,,,,,,,,,,,,,,,,,,,9,F,17,R,MS MK,,1,2023_May_22_1404,2020.2.10,acceptmap-experience,"['Abdomen', 'Left Face', 'Abdomen', 'Left Face']",59.97947502097618,
,,,,,,,1228.5854508001357,None,48.02469135802469,1217.3259339400101,0.01388906012289226,5.010785260004923,,,,,,,,,,,,,,,,,,,,,,,,,,,,,,,,,,,,,,,,,,,,,,,,,,,,,9,F,17,R,MS MK,,1,2023_May_22_1404,2020.2.10,acceptmap-experience,"['Abdomen', 'Left Face', 'Abdomen', 'Left Face']",59.97947502097618,
,,,,,,,,,,,0.01450536004267633,5.012034259969369,-11.23456790123457,1225.2099819399882,,,,,,,,,,,,,,,,,,,,,,,,,,,,,,,,,,,,,,,,,,,,,,,,,,,9,F,17,R,MS MK,,1,2023_May_22_1404,2020.2.10,acceptmap-experience,"['Abdomen', 'Left Face', 'Abdomen', 'Left Face']",59.97947502097618,
,,,,,,,,,,,,,,,0.013882560189813375,None,40.987654320987644,1230.094428740209,,,,,,,,,,,,,,,,,,,,,,,,,,,,,,,,,,,,,,,,,,,,,,,9,F,17,R,MS MK,,1,2023_May_22_1404,2020.2.10,acceptmap-experience,"['Abdomen', 'Left Face', 'Abdomen', 'Left Face']",59.97947502097618,
,,,,,,,,,69.38271604938272,1234.5702745402232,,,,,,,,,0.012926759896799922,None,,,,,,,,,,,,,,,,,,,,,,,,,,,,,,,,,,,,,,,,,,,,,9,F,17,R,MS MK,,1,2023_May_22_1404,2020.2.10,acceptmap-experience,"['Abdomen', 'Left Face', 'Abdomen', 'Left Face']",59.97947502097618,
,,,,,,,,,,,0.003677759785205126,None,,,,,,,,,88.76543209876543,1240.176611340139,,,,,,,,,,,,,,,,,,,,,,,,,,,,,,,,,,,,,,,,,,,9,F,17,R,MS MK,,1,2023_May_22_1404,2020.2.10,acceptmap-experience,"['Abdomen', 'Left Face', 'Abdomen', 'Left Face']",59.97947502097618,
,,,,,,,,,,,,,,,,,,,,,,,0.01410376001149416,None,46.85185185185185,1243.9935420402326,,,,,,,,,,,,,,,,,,,,,,,,,,,,,,,,,,,,,,,9,F,17,R,MS MK,,1,2023_May_22_1404,2020.2.10,acceptmap-experience,"['Abdomen', 'Left Face', 'Abdomen', 'Left Face']",59.97947502097618,
,,,,,,,,,,,,,,,,,,,,,,,,,,,0.013875559903681278,None,39.81481481481482,1251.9607701401692,,,,,,,,,,,,,,,,,,,,,,,,,,,,,,,,,,,9,F,17,R,MS MK,,1,2023_May_22_1404,2020.2.10,acceptmap-experience,"['Abdomen', 'Left Face', 'Abdomen', 'Left Face']",59.97947502097618,
,,,,,,,,,,,,,,,,,,,,,,,,,,,,,,,0.013423759955912828,None,24.444444444444443,1260.2778691400308,,,,,,,,,,,,,,,,,,,,,,,,,,,,,,,9,F,17,R,MS MK,,1,2023_May_22_1404,2020.2.10,acceptmap-experience,"['Abdomen', 'Left Face', 'Abdomen', 'Left Face']",59.97947502097618,
,,,,,,,,,,,,,,,,,,,,,,,,,,,,,,,,,,,0.013057759962975979,None,-8.395061728395063,1263.8103515401017,,,,,,,,,,,,,,,,,,,,,,,,,,,9,F,17,R,MS MK,,1,2023_May_22_1404,2020.2.10,acceptmap-experience,"['Abdomen', 'Left Face', 'Abdomen', 'Left Face']",59.97947502097618,
,,,,,,,,,,,,,,,,,,,,,,,,,,,,,,,,,,,,,,,0.013950360007584095,None,46.666666666666686,1269.8277758401819,,,,,,,,,,,,,,,,,,,,,,,9,F,17,R,MS MK,,1,2023_May_22_1404,2020.2.10,acceptmap-experience,"['Abdomen', 'Left Face', 'Abdomen', 'Left Face']",59.97947502097618,
,,,,,,,,,,,,,,,,,,,,,,,,,,,,,,,,,,,,,,,,,,,0.013264060020446777,None,-33.703703703703695,1271.8112776400521,,,,,,,,,,,,,,,,,,,9,F,17,R,MS MK,,1,2023_May_22_1404,2020.2.10,acceptmap-experience,"['Abdomen', 'Left Face', 'Abdomen', 'Left Face']",59.97947502097618,
,,,,,,,,,,,,,,,,,,,,,,,,,,,,,,,,,,,,,,,,,,,,,,,0.013116060057654977,None,45.30864197530863,1276.5443546401802,,,,,,,,,,,,,,,9,F,17,R,MS MK,,1,2023_May_22_1404,2020.2.10,acceptmap-experience,"['Abdomen', 'Left Face', 'Abdomen', 'Left Face']",59.97947502097618,
,,,,,,,,,,,,,,,,,,,,,,,,,,,,,,,,,,,,,,,,,,,,,,,,,,,0.013411959866061807,None,-100.0,1280.8605623401236,,,,,,,,,,,9,F,17,R,MS MK,,1,2023_May_22_1404,2020.2.10,acceptmap-experience,"['Abdomen', 'Left Face', 'Abdomen', 'Left Face']",59.97947502097618,
,,,,,,,,,,,,,,,,,,,,,,,,,,,,,,,,,,,,,,,,,,,,,,,,,,,,,,,0.01393626001663506,None,13.086419753086417,1287.5111258402467,,,,,,,9,F,17,R,MS MK,,1,2023_May_22_1404,2020.2.10,acceptmap-experience,"['Abdomen', 'Left Face', 'Abdomen', 'Left Face']",59.97947502097618,
,,,,,,,,,,,,,,,,,,,,,,,,,,,,,,,,,,,,,,,,,,,,,,,,,,,,,,,,,,,0.01343525992706418,None,25.061728395061735,1290.3609497400466,,,9,F,17,R,MS MK,,1,2023_May_22_1404,2020.2.10,acceptmap-experience,"['Abdomen', 'Left Face', 'Abdomen', 'Left Face']",59.97947502097618,
1381.2037484999746,1381.2037484999746,None,space,78.89712530001998,1381.2037484999746,None,1501.1050507000182,None,50.0,1486.5450188403483,,,,,,,,,,,,,,,,,,,,,,,,,,,,,,,,,,,,,,,,,,,,,,,,,,,,,0.01365465996786952,None,9,F,17,R,MS MK,,1,2023_May_22_1404,2020.2.10,acceptmap-experience,"['Abdomen', 'Left Face', 'Abdomen', 'Left Face']",59.97947502097618,
,,,,,,,1529.1220253000502,None,50.0,1514.3287641401403,0.01496715983375907,5.012855659937486,,,,,,,,,,,,,,,,,,,,,,,,,,,,,,,,,,,,,,,,,,,,,,,,,,,,,9,F,17,R,MS MK,,1,2023_May_22_1404,2020.2.10,acceptmap-experience,"['Abdomen', 'Left Face', 'Abdomen', 'Left Face']",59.97947502097618,
,,,,,,,1557.1389920001384,None,58.45679012345679,1547.3775783400051,0.014748459914699197,5.012528659775853,,,,,,,,,,,,,,,,,,,,,,,,,,,,,,,,,,,,,,,,,,,,,,,,,,,,,9,F,17,R,MS MK,,1,2023_May_22_1404,2020.2.10,acceptmap-experience,"['Abdomen', 'Left Face', 'Abdomen', 'Left Face']",59.97947502097618,
,,,,,,,1585.1559471001383,None,59.50617283950618,1570.9128664399032,0.016395060112699866,5.015842360211536,,,,,,,,,,,,,,,,,,,,,,,,,,,,,,,,,,,,,,,,,,,,,,,,,,,,,9,F,17,R,MS MK,,1,2023_May_22_1404,2020.2.10,acceptmap-experience,"['Abdomen', 'Left Face', 'Abdomen', 'Left Face']",59.97947502097618,
,,,,,,,1613.1729180000257,None,58.0246913580247,1601.6969655400608,0.014708960196003318,5.012424760265276,,,,,,,,,,,,,,,,,,,,,,,,,,,,,,,,,,,,,,,,,,,,,,,,,,,,,9,F,17,R,MS MK,,1,2023_May_22_1404,2020.2.10,acceptmap-experience,"['Abdomen', 'Left Face', 'Abdomen', 'Left Face']",59.97947502097618,
,,,,,,,1641.1898759999312,None,52.59259259259259,1627.0301174402703,0.014265459962189198,5.011597859906033,,,,,,,,,,,,,,,,,,,,,,,,,,,,,,,,,,,,,,,,,,,,,,,,,,,,,9,F,17,R,MS MK,,1,2023_May_22_1404,2020.2.10,acceptmap-experience,"['Abdomen', 'Left Face', 'Abdomen', 'Left Face']",59.97947502097618,
,,,,,,,1669.2068402001169,None,65.37037037037038,1660.5121006399859,0.01470465981401503,5.012420559767634,,,,,,,,,,,,,,,,,,,,,,,,,,,,,,,,,,,,,,,,,,,,,,,,,,,,,9,F,17,R,MS MK,,1,2023_May_22_1404,2020.2.10,acceptmap-experience,"['Abdomen', 'Left Face', 'Abdomen', 'Left Face']",59.97947502097618,
,,,,,,,1697.223796500126,None,61.419753086419746,1685.230753440177,0.016405560076236725,5.015851259930059,,,,,,,,,,,,,,,,,,,,,,,,,,,,,,,,,,,,,,,,,,,,,,,,,,,,,9,F,17,R,MS MK,,1,2023_May_22_1404,2020.2.10,acceptmap-experience,"['Abdomen', 'Left Face', 'Abdomen', 'Left Face']",59.97947502097618,
,,,,,,,1725.2407631999813,None,63.703703703703695,1715.464603640372,0.014693359844386578,5.012395960045978,,,,,,,,,,,,,,,,,,,,,,,,,,,,,,,,,,,,,,,,,,,,,,,,,,,,,9,F,17,R,MS MK,,1,2023_May_22_1404,2020.2.10,acceptmap-experience,"['Abdomen', 'Left Face', 'Abdomen', 'Left Face']",59.97947502097618,
,,,,,,,1753.257750299992,None,54.81481481481482,1740.9488406402525,0.014487459789961576,5.012000959832221,,,,,,,,,,,,,,,,,,,,,,,,,,,,,,,,,,,,,,,,,,,,,,,,,,,,,9,F,17,R,MS MK,,1,2023_May_22_1404,2020.2.10,acceptmap-experience,"['Abdomen', 'Left Face', 'Abdomen', 'Left Face']",59.97947502097618,
,,,,,,,1781.274714600062,None,59.01234567901235,1769.0652437401004,0.013862259918823838,5.010723460000008,,,,,,,,,,,,,,,,,,,,,,,,,,,,,,,,,,,,,,,,,,,,,,,,,,,,,9,F,17,R,MS MK,,1,2023_May_22_1404,2020.2.10,acceptmap-experience,"['Abdomen', 'Left Face', 'Abdomen', 'Left Face']",59.97947502097618,
,,,,,,,1809.2916713999584,None,62.098765432098766,1795.1969095401,0.01441936008632183,5.0118518602102995,,,,,,,,,,,,,,,,,,,,,,,,,,,,,,,,,,,,,,,,,,,,,,,,,,,,,9,F,17,R,MS MK,,1,2023_May_22_1404,2020.2.10,acceptmap-experience,"['Abdomen', 'Left Face', 'Abdomen', 'Left Face']",59.97947502097618,
,,,,,,,1837.3086425999645,None,64.01234567901236,1827.3139152398799,0.016408960102126002,5.015859560109675,,,,,,,,,,,,,,,,,,,,,,,,,,,,,,,,,,,,,,,,,,,,,,,,,,,,,9,F,17,R,MS MK,,1,2023_May_22_1404,2020.2.10,acceptmap-experience,"['Abdomen', 'Left Face', 'Abdomen', 'Left Face']",59.97947502097618,
,,,,,,,1865.3256612000987,None,60.80246913580246,1853.6974948400166,0.016411360120400786,5.015844959998503,,,,,,,,,,,,,,,,,,,,,,,,,,,,,,,,,,,,,,,,,,,,,,,,,,,,,9,F,17,R,MS MK,,1,2023_May_22_1404,2020.2.10,acceptmap-experience,"['Abdomen', 'Left Face', 'Abdomen', 'Left Face']",59.97947502097618,
,,,,,,,1893.3425795000512,None,60.98765432098765,1881.2328220403288,0.016423159977421165,5.015858359867707,,,,,,,,,,,,,,,,,,,,,,,,,,,,,,,,,,,,,,,,,,,,,,,,,,,,,9,F,17,R,MS MK,,1,2023_May_22_1404,2020.2.10,acceptmap-experience,"['Abdomen', 'Left Face', 'Abdomen', 'Left Face']",59.97947502097618,
,,,,,,,1921.3595666999463,None,57.654320987654316,1909.9163135401905,0.01471485965885222,5.012468159664422,,,,,,,,,,,,,,,,,,,,,,,,,,,,,,,,,,,,,,,,,,,,,,,,,,,,,9,F,17,R,MS MK,,1,2023_May_22_1404,2020.2.10,acceptmap-experience,"['Abdomen', 'Left Face', 'Abdomen', 'Left Face']",59.97947502097618,
,,,,,,,,,,,0.014882860006764531,5.012776860035956,-19.506172839506164,1921.3346230401658,,,,,,,,,,,,,,,,,,,,,,,,,,,,,,,,,,,,,,,,,,,,,,,,,,,9,F,17,R,MS MK,,1,2023_May_22_1404,2020.2.10,acceptmap-experience,"['Abdomen', 'Left Face', 'Abdomen', 'Left Face']",59.97947502097618,
,,,,,,,,,,,,,,,0.013396359980106354,None,100.0,1925.984499140177,,,,,,,,,,,,,,,,,,,,,,,,,,,,,,,,,,,,,,,,,,,,,,,9,F,17,R,MS MK,,1,2023_May_22_1404,2020.2.10,acceptmap-experience,"['Abdomen', 'Left Face', 'Abdomen', 'Left Face']",59.97947502097618,
,,,,,,,,,100.0,1930.4944562402088,,,,,,,,,0.013595259981229901,None,,,,,,,,,,,,,,,,,,,,,,,,,,,,,,,,,,,,,,,,,,,,,9,F,17,R,MS MK,,1,2023_May_22_1404,2020.2.10,acceptmap-experience,"['Abdomen', 'Left Face', 'Abdomen', 'Left Face']",59.97947502097618,
,,,,,,,,,,,0.0036140598822385073,None,,,,,,,,,100.0,1935.1346174399368,,,,,,,,,,,,,,,,,,,,,,,,,,,,,,,,,,,,,,,,,,,9,F,17,R,MS MK,,1,2023_May_22_1404,2020.2.10,acceptmap-experience,"['Abdomen', 'Left Face', 'Abdomen', 'Left Face']",59.97947502097618,
,,,,,,,,,,,,,,,,,,,,,,,0.013591560069471598,None,16.60493827160494,1940.4845485403202,,,,,,,,,,,,,,,,,,,,,,,,,,,,,,,,,,,,,,,9,F,17,R,MS MK,,1,2023_May_22_1404,2020.2.10,acceptmap-experience,"['Abdomen', 'Left Face', 'Abdomen', 'Left Face']",59.97947502097618,
,,,,,,,,,,,,,,,,,,,,,,,,,,,0.01366055989637971,None,9.938271604938269,1944.851475540083,,,,,,,,,,,,,,,,,,,,,,,,,,,,,,,,,,,9,F,17,R,MS MK,,1,2023_May_22_1404,2020.2.10,acceptmap-experience,"['Abdomen', 'Left Face', 'Abdomen', 'Left Face']",59.97947502097618,
,,,,,,,,,,,,,,,,,,,,,,,,,,,,,,,0.01349636004306376,None,18.08641975308642,1948.8352064399514,,,,,,,,,,,,,,,,,,,,,,,,,,,,,,,9,F,17,R,MS MK,,1,2023_May_22_1404,2020.2.10,acceptmap-experience,"['Abdomen', 'Left Face', 'Abdomen', 'Left Face']",59.97947502097618,
,,,,,,,,,,,,,,,,,,,,,,,,,,,,,,,,,,,0.013110560132190585,None,100.0,1951.8347049402073,,,,,,,,,,,,,,,,,,,,,,,,,,,9,F,17,R,MS MK,,1,2023_May_22_1404,2020.2.10,acceptmap-experience,"['Abdomen', 'Left Face', 'Abdomen', 'Left Face']",59.97947502097618,
,,,,,,,,,,,,,,,,,,,,,,,,,,,,,,,,,,,,,,,0.013684059958904982,None,38.39506172839506,1960.0179398402106,,,,,,,,,,,,,,,,,,,,,,,9,F,17,R,MS MK,,1,2023_May_22_1404,2020.2.10,acceptmap-experience,"['Abdomen', 'Left Face', 'Abdomen', 'Left Face']",59.97947502097618,
,,,,,,,,,,,,,,,,,,,,,,,,,,,,,,,,,,,,,,,,,,,0.013838659971952438,None,-35.80246913580247,1962.1187602400314,,,,,,,,,,,,,,,,,,,9,F,17,R,MS MK,,1,2023_May_22_1404,2020.2.10,acceptmap-experience,"['Abdomen', 'Left Face', 'Abdomen', 'Left Face']",59.97947502097618,
,,,,,,,,,,,,,,,,,,,,,,,,,,,,,,,,,,,,,,,,,,,,,,,0.013017860008403659,None,100.0,1966.2687324401923,,,,,,,,,,,,,,,9,F,17,R,MS MK,,1,2023_May_22_1404,2020.2.10,acceptmap-experience,"['Abdomen', 'Left Face', 'Abdomen', 'Left Face']",59.97947502097618,
,,,,,,,,,,,,,,,,,,,,,,,,,,,,,,,,,,,,,,,,,,,,,,,,,,,0.013105659978464246,None,-98.76543209876543,1974.3021634400357,,,,,,,,,,,9,F,17,R,MS MK,,1,2023_May_22_1404,2020.2.10,acceptmap-experience,"['Abdomen', 'Left Face', 'Abdomen', 'Left Face']",59.97947502097618,
,,,,,,,,,,,,,,,,,,,,,,,,,,,,,,,,,,,,,,,,,,,,,,,,,,,,,,,0.013088559964671731,None,47.90123456790124,1983.3521443400532,,,,,,,9,F,17,R,MS MK,,1,2023_May_22_1404,2020.2.10,acceptmap-experience,"['Abdomen', 'Left Face', 'Abdomen', 'Left Face']",59.97947502097618,
,,,,,,,,,,,,,,,,,,,,,,,,,,,,,,,,,,,,,,,,,,,,,,,,,,,,,,,,,,,0.013224760070443153,None,50.24691358024691,1988.3018408401404,,,9,F,17,R,MS MK,,1,2023_May_22_1404,2020.2.10,acceptmap-experience,"['Abdomen', 'Left Face', 'Abdomen', 'Left Face']",59.97947502097618,
2071.6445088000037,2071.6445088000037,None,space,105.72932740021497,2071.6445088000037,None,2214.612708200002,None,54.012345679012356,2202.786053440068,,,,,,,,,,,,,,,,,,,,,,,,,,,,,,,,,,,,,,,,,,,,,,,,,,,,,0.013585659908130765,None,9,F,17,R,MS MK,,1,2023_May_22_1404,2020.2.10,acceptmap-experience,"['Abdomen', 'Left Face', 'Abdomen', 'Left Face']",59.97947502097618,
,,,,,,,2242.6296848000493,None,56.172839506172835,2232.837400940014,0.01496616005897522,5.012946860166267,,,,,,,,,,,,,,,,,,,,,,,,,,,,,,,,,,,,,,,,,,,,,,,,,,,,,9,F,17,R,MS MK,,1,2023_May_22_1404,2020.2.10,acceptmap-experience,"['Abdomen', 'Left Face', 'Abdomen', 'Left Face']",59.97947502097618,
,,,,,,,2270.6466904000845,None,59.44444444444444,2258.903602740029,0.013941660057753325,5.010927660157904,,,,,,,,,,,,,,,,,,,,,,,,,,,,,,,,,,,,,,,,,,,,,,,,,,,,,9,F,17,R,MS MK,,1,2023_May_22_1404,2020.2.10,acceptmap-experience,"['Abdomen', 'Left Face', 'Abdomen', 'Left Face']",59.97947502097618,
,,,,,,,2298.6636489999946,None,55.49382716049382,2286.487865539966,0.014689560048282146,5.012413460062817,,,,,,,,,,,,,,,,,,,,,,,,,,,,,,,,,,,,,,,,,,,,,,,,,,,,,9,F,17,R,MS MK,,1,2023_May_22_1404,2020.2.10,acceptmap-experience,"['Abdomen', 'Left Face', 'Abdomen', 'Left Face']",59.97947502097618,
,,,,,,,2326.680586799979,None,54.69135802469136,2313.988017739961,0.01411416009068489,5.01125006005168,,,,,,,,,,,,,,,,,,,,,,,,,,,,,,,,,,,,,,,,,,,,,,,,,,,,,9,F,17,R,MS MK,,1,2023_May_22_1404,2020.2.10,acceptmap-experience,"['Abdomen', 'Left Face', 'Abdomen', 'Left Face']",59.97947502097618,
,,,,,,,2354.697546500014,None,61.23456790123457,2345.7528544403613,0.014191860100254416,5.011400760151446,,,,,,,,,,,,,,,,,,,,,,,,,,,,,,,,,,,,,,,,,,,,,,,,,,,,,9,F,17,R,MS MK,,1,2023_May_22_1404,2020.2.10,acceptmap-experience,"['Abdomen', 'Left Face', 'Abdomen', 'Left Face']",59.97947502097618,
,,,,,,,2382.7145237999503,None,59.75308641975309,2369.088663439965,0.016373959835618734,5.01576906000264,,,,,,,,,,,,,,,,,,,,,,,,,,,,,,,,,,,,,,,,,,,,,,,,,,,,,9,F,17,R,MS MK,,1,2023_May_22_1404,2020.2.10,acceptmap-experience,"['Abdomen', 'Left Face', 'Abdomen', 'Left Face']",59.97947502097618,
,,,,,,,2410.7314846999943,None,67.90123456790124,2401.353459940059,0.014157860074192286,5.011353960027918,,,,,,,,,,,,,,,,,,,,,,,,,,,,,,,,,,,,,,,,,,,,,,,,,,,,,9,F,17,R,MS MK,,1,2023_May_22_1404,2020.2.10,acceptmap-experience,"['Abdomen', 'Left Face', 'Abdomen', 'Left Face']",59.97947502097618,
,,,,,,,2438.7484444000293,None,62.77777777777778,2426.7056599399075,0.016365260118618608,5.015766060212627,,,,,,,,,,,,,,,,,,,,,,,,,,,,,,,,,,,,,,,,,,,,,,,,,,,,,9,F,17,R,MS MK,,1,2023_May_22_1404,2020.2.10,acceptmap-experience,"['Abdomen', 'Left Face', 'Abdomen', 'Left Face']",59.97947502097618,
,,,,,,,2466.7654615000356,None,58.333333333333336,2455.420665240148,0.014416060177609324,5.01188816013746,,,,,,,,,,,,,,,,,,,,,,,,,,,,,,,,,,,,,,,,,,,,,,,,,,,,,9,F,17,R,MS MK,,1,2023_May_22_1404,2020.2.10,acceptmap-experience,"['Abdomen', 'Left Face', 'Abdomen', 'Left Face']",59.97947502097618,
,,,,,,,2494.782399600139,None,55.06172839506173,2485.504361840198,0.01640625996515155,5.015848759794608,,,,,,,,,,,,,,,,,,,,,,,,,,,,,,,,,,,,,,,,,,,,,,,,,,,,,9,F,17,R,MS MK,,1,2023_May_22_1404,2020.2.10,acceptmap-experience,"['Abdomen', 'Left Face', 'Abdomen', 'Left Face']",59.97947502097618,
,,,,,,,2522.799369200133,None,53.51851851851852,2513.2400841403287,0.016381660010665655,5.015699659939855,,,,,,,,,,,,,,,,,,,,,,,,,,,,,,,,,,,,,,,,,,,,,,,,,,,,,9,F,17,R,MS MK,,1,2023_May_22_1404,2020.2.10,acceptmap-experience,"['Abdomen', 'Left Face', 'Abdomen', 'Left Face']",59.97947502097618,
,,,,,,,2550.8163501000963,None,57.839506172839506,2538.9232587399893,0.014272359665483236,5.011596659664065,,,,,,,,,,,,,,,,,,,,,,,,,,,,,,,,,,,,,,,,,,,,,,,,,,,,,9,F,17,R,MS MK,,1,2023_May_22_1404,2020.2.10,acceptmap-experience,"['Abdomen', 'Left Face', 'Abdomen', 'Left Face']",59.97947502097618,
,,,,,,,2578.833300600061,None,53.95061728395062,2566.9570035401266,0.014720960054546595,5.012465459993109,,,,,,,,,,,,,,,,,,,,,,,,,,,,,,,,,,,,,,,,,,,,,,,,,,,,,9,F,17,R,MS MK,,1,2023_May_22_1404,2020.2.10,acceptmap-experience,"['Abdomen', 'Left Face', 'Abdomen', 'Left Face']",59.97947502097618,
,,,,,,,2606.850267100148,None,63.95061728395062,2592.8738293403294,0.014608159894123673,5.012237759772688,,,,,,,,,,,,,,,,,,,,,,,,,,,,,,,,,,,,,,,,,,,,,,,,,,,,,9,F,17,R,MS MK,,1,2023_May_22_1404,2020.2.10,acceptmap-experience,"['Abdomen', 'Left Face', 'Abdomen', 'Left Face']",59.97947502097618,
,,,,,,,2634.867252000142,None,54.25925925925926,2622.8084484401625,0.014788059750571847,5.012412759708241,,,,,,,,,,,,,,,,,,,,,,,,,,,,,,,,,,,,,,,,,,,,,,,,,,,,,9,F,17,R,MS MK,,1,2023_May_22_1404,2020.2.10,acceptmap-experience,"['Abdomen', 'Left Face', 'Abdomen', 'Left Face']",59.97947502097618,
,,,,,,,,,,,0.013787559932097793,5.010580859845504,-19.75308641975309,2629.4920801399276,,,,,,,,,,,,,,,,,,,,,,,,,,,,,,,,,,,,,,,,,,,,,,,,,,,9,F,17,R,MS MK,,1,2023_May_22_1404,2020.2.10,acceptmap-experience,"['Abdomen', 'Left Face', 'Abdomen', 'Left Face']",59.97947502097618,
,,,,,,,,,,,,,,,0.013578760204836726,None,57.03703703703704,2633.4587233401835,,,,,,,,,,,,,,,,,,,,,,,,,,,,,,,,,,,,,,,,,,,,,,,9,F,17,R,MS MK,,1,2023_May_22_1404,2020.2.10,acceptmap-experience,"['Abdomen', 'Left Face', 'Abdomen', 'Left Face']",59.97947502097618,
,,,,,,,,,73.4567901234568,2637.05224794033,,,,,,,,,0.01364596001803875,None,,,,,,,,,,,,,,,,,,,,,,,,,,,,,,,,,,,,,,,,,,,,,9,F,17,R,MS MK,,1,2023_May_22_1404,2020.2.10,acceptmap-experience,"['Abdomen', 'Left Face', 'Abdomen', 'Left Face']",59.97947502097618,
,,,,,,,,,,,0.0034661598037928343,None,,,,,,,,,98.64197530864196,2640.2754378402606,,,,,,,,,,,,,,,,,,,,,,,,,,,,,,,,,,,,,,,,,,,9,F,17,R,MS MK,,1,2023_May_22_1404,2020.2.10,acceptmap-experience,"['Abdomen', 'Left Face', 'Abdomen', 'Left Face']",59.97947502097618,
,,,,,,,,,,,,,,,,,,,,,,,0.013672759756445885,None,28.580246913580247,2643.5594926401973,,,,,,,,,,,,,,,,,,,,,,,,,,,,,,,,,,,,,,,9,F,17,R,MS MK,,1,2023_May_22_1404,2020.2.10,acceptmap-experience,"['Abdomen', 'Left Face', 'Abdomen', 'Left Face']",59.97947502097618,
,,,,,,,,,,,,,,,,,,,,,,,,,,,0.012998159974813461,None,35.06172839506173,2647.825563640101,,,,,,,,,,,,,,,,,,,,,,,,,,,,,,,,,,,9,F,17,R,MS MK,,1,2023_May_22_1404,2020.2.10,acceptmap-experience,"['Abdomen', 'Left Face', 'Abdomen', 'Left Face']",59.97947502097618,
,,,,,,,,,,,,,,,,,,,,,,,,,,,,,,,0.013633359922096133,None,22.530864197530864,2651.1928351405077,,,,,,,,,,,,,,,,,,,,,,,,,,,,,,,9,F,17,R,MS MK,,1,2023_May_22_1404,2020.2.10,acceptmap-experience,"['Abdomen', 'Left Face', 'Abdomen', 'Left Face']",59.97947502097618,
,,,,,,,,,,,,,,,,,,,,,,,,,,,,,,,,,,,0.013043959625065327,None,93.45679012345681,2654.2096976400353,,,,,,,,,,,,,,,,,,,,,,,,,,,9,F,17,R,MS MK,,1,2023_May_22_1404,2020.2.10,acceptmap-experience,"['Abdomen', 'Left Face', 'Abdomen', 'Left Face']",59.97947502097618,
,,,,,,,,,,,,,,,,,,,,,,,,,,,,,,,,,,,,,,,0.012894259998574853,None,32.22222222222223,2657.9588637400884,,,,,,,,,,,,,,,,,,,,,,,9,F,17,R,MS MK,,1,2023_May_22_1404,2020.2.10,acceptmap-experience,"['Abdomen', 'Left Face', 'Abdomen', 'Left Face']",59.97947502097618,
,,,,,,,,,,,,,,,,,,,,,,,,,,,,,,,,,,,,,,,,,,,0.013783060014247894,None,-35.55555555555556,2659.4587637400255,,,,,,,,,,,,,,,,,,,9,F,17,R,MS MK,,1,2023_May_22_1404,2020.2.10,acceptmap-experience,"['Abdomen', 'Left Face', 'Abdomen', 'Left Face']",59.97947502097618,
,,,,,,,,,,,,,,,,,,,,,,,,,,,,,,,,,,,,,,,,,,,,,,,0.013885260093957186,None,38.641975308641975,2662.6256498401053,,,,,,,,,,,,,,,9,F,17,R,MS MK,,1,2023_May_22_1404,2020.2.10,acceptmap-experience,"['Abdomen', 'Left Face', 'Abdomen', 'Left Face']",59.97947502097618,
,,,,,,,,,,,,,,,,,,,,,,,,,,,,,,,,,,,,,,,,,,,,,,,,,,,0.013726860051974654,None,-100.0,2671.076184440404,,,,,,,,,,,9,F,17,R,MS MK,,1,2023_May_22_1404,2020.2.10,acceptmap-experience,"['Abdomen', 'Left Face', 'Abdomen', 'Left Face']",59.97947502097618,
,,,,,,,,,,,,,,,,,,,,,,,,,,,,,,,,,,,,,,,,,,,,,,,,,,,,,,,0.01325135980732739,None,27.160493827160508,2674.87603484001,,,,,,,9,F,17,R,MS MK,,1,2023_May_22_1404,2020.2.10,acceptmap-experience,"['Abdomen', 'Left Face', 'Abdomen', 'Left Face']",59.97947502097618,
,,,,,,,,,,,,,,,,,,,,,,,,,,,,,,,,,,,,,,,,,,,,,,,,,,,,,,,,,,,0.013442459981888533,None,29.75308641975306,2676.7091973400675,,,9,F,17,R,MS MK,,1,2023_May_22_1404,2020.2.10,acceptmap-experience,"['Abdomen', 'Left Face', 'Abdomen', 'Left Face']",59.97947502097618,
,,,,,,,,,,,,,,,,,,,,,,,,,,,,,,,,,,,,,,,,,,,,,,,,,,,,,,,,,,,,,,,0.013624659972265363,None,,,,,,,,,,,,,
