	SID	date	sex	session	handedness	scanner	onset	duration	repetition	rating	body_site	keys	temperature	conditionrt	mouseclick	biopac_channel	condition	rt	value	skin_site
0	2943	2024_May_23_2028	m	3	r	SS MRS	2.799192800070159	5.006691516377032			Chest					41	Regulation Instruction			2
1	2943	2024_May_23_2028	m	3	r	SS MRS	8.244903600076213	4.99988704000134			Chest					7	Pre-Trial Jitter			2
2	2943	2024_May_23_2028	m	3	r	SS MRS	13.305987500003539	13.011337199946865			Chest		48.5			17	Heat-Stimulation			2
3	2943	2024_May_23_2028	m	3	r	SS MRS	26.360635000048205	5.002234180108644			Chest					8	Post-Trial Jitter			2
4	2943	2024_May_23_2028	m	3	r	SS MRS	31.39282270008698	5.004630259936675			Chest					20	PainBinary	1.3337581000523642	1.0	2
5	2943	2024_May_23_2028	m	3	r	SS MRS	36.426962300087325	5.003124059876427			Chest					21	IntensityRating	2.783817900111899	23.333333333333332	2
6	2943	2024_May_23_2028	m	3	r	SS MRS	41.45395070000086	5.015918159857392			Chest					52	AcceptBinary	1.3837604000000283	1.0	2
7	2943	2024_May_23_2028	m	3	r	SS MRS	46.473452100064605	7.010375839890912			Chest					9	Post-Q-Jitter			2
8	2943	2024_May_23_2028	m	3	r	SS MRS	53.93412370001897	9.005874259863049			Chest					7	Pre-Trial Jitter			2
9	2943	2024_May_23_2028	m	3	r	SS MRS	62.99874800001271	13.010268680052832			Chest		48.5			17	Heat-Stimulation			2
10	2943	2024_May_23_2028	m	3	r	SS MRS	76.06492640008219	9.011484479997307			Chest					8	Post-Trial Jitter			2
11	2943	2024_May_23_2028	m	3	r	SS MRS	85.11119820002932	5.002449560095556			Chest					20	PainBinary	1.850460100104101	1.0	2
12	2943	2024_May_23_2028	m	3	r	SS MRS	90.14304440002888	5.005561160040088			Chest					21	IntensityRating	1.6170369000174105	23.827160493827158	2
13	2943	2024_May_23_2028	m	3	r	SS MRS	95.170386300073	5.000931340036914			Chest					52	AcceptBinary	2.0697681000456214	1.0	2
14	2943	2024_May_23_2028	m	3	r	SS MRS	100.19107679999433	5.00965603988152			Chest					9	Post-Q-Jitter			2
15	2943	2024_May_23_2028	m	3	r	SS MRS	105.63338810007554	5.008533939952031			Chest					7	Pre-Trial Jitter			2
16	2943	2024_May_23_2028	m	3	r	SS MRS	110.71251790004317	13.000524500152096			Chest		48.5			17	Heat-Stimulation			2
17	2943	2024_May_23_2028	m	3	r	SS MRS	123.7643337000627	6.997124880086631			Chest					8	Post-Trial Jitter			2
18	2943	2024_May_23_2028	m	3	r	SS MRS	130.79426090000197	5.004063759930432			Chest					20	PainBinary	1.7170264000305906	-1.0	2
19	2943	2024_May_23_2028	m	3	r	SS MRS	135.82723160006572	5.004891359945759			Chest					21	IntensityRating	1.886907499982044	25.74074074074074	2
20	2943	2024_May_23_2028	m	3	r	SS MRS	140.85451420000754	5.000471239793114			Chest					52	AcceptBinary	1.3170872000046074	1.0	2
21	2943	2024_May_23_2028	m	3	r	SS MRS	145.87367710005492	7.012286439887248			Chest					9	Post-Q-Jitter			2
22	2943	2024_May_23_2028	m	3	r	SS MRS	153.33356430009007	7.009317159885541			Chest					7	Pre-Trial Jitter			2
23	2943	2024_May_23_2028	m	3	r	SS MRS	160.3921515000984	13.009055480011739			Chest		48.5			17	Heat-Stimulation			2
24	2943	2024_May_23_2028	m	3	r	SS MRS	173.44830170006026	8.997023180010729			Chest					8	Post-Trial Jitter			2
25	2943	2024_May_23_2028	m	3	r	SS MRS	182.4783984000096	5.0036844599526376			Chest					20	PainBinary	1.2338062999770045	1.0	2
26	2943	2024_May_23_2028	m	3	r	SS MRS	187.5110823001014	5.005088159930892			Chest					21	IntensityRating	1.7034193999134004	23.024691358024693	2
27	2943	2024_May_23_2028	m	3	r	SS MRS	192.53789190005045	5.001573540037498			Chest					52	AcceptBinary	1.1866716999793425	1.0	2
28	2943	2024_May_23_2028	m	3	r	SS MRS	197.55977620009799	7.007941439980641			Chest					9	Post-Q-Jitter			2
29	2943	2024_May_23_2028	m	3	r	SS MRS	205.04042890004348	5.013435399974696			Chest					7	Pre-Trial Jitter			2
30	2943	2024_May_23_2028	m	3	r	SS MRS	210.10458690009546	13.002029479946941			Chest		48.5			17	Heat-Stimulation			2
31	2943	2024_May_23_2028	m	3	r	SS MRS	223.16477940010373	8.998564479989			Chest					8	Post-Trial Jitter			2
32	2943	2024_May_23_2028	m	3	r	SS MRS	232.19567650009412	5.003617860027589			Chest					20	PainBinary	1.6172663000179455	1.0	2
33	2943	2024_May_23_2028	m	3	r	SS MRS	237.229145099991	5.003443659981713			Chest					21	IntensityRating	1.6504644000669941	23.641975308641975	2
34	2943	2024_May_23_2028	m	3	r	SS MRS	242.2561313000042	5.016245759907179			Chest					52	AcceptBinary	1.63367449992802	1.0	2
35	2943	2024_May_23_2028	m	3	r	SS MRS	247.275524900062	9.010968639981002			Chest					9	Post-Q-Jitter			2
36	2943	2024_May_23_2028	m	3	r	SS MRS	256.7614024000941	5.006052099866793			Chest					7	Pre-Trial Jitter			2
37	2943	2024_May_23_2028	m	3	r	SS MRS	261.82557119999547	13.011280999751762			Chest		48.5			17	Heat-Stimulation			2
38	2943	2024_May_23_2028	m	3	r	SS MRS	274.88167220004834	6.9992687799967825			Chest					8	Post-Trial Jitter			2
39	2943	2024_May_23_2028	m	3	r	SS MRS	281.9132682000054	5.0029207598418			Chest					20	PainBinary	1.8337687000166625	1.0	2
40	2943	2024_May_23_2028	m	3	r	SS MRS	286.9454766000854	5.005312459892593			Chest					21	IntensityRating	2.117105499957688	25.246913580246915	2
41	2943	2024_May_23_2028	m	3	r	SS MRS	291.97401190001983	5.015006360015832			Chest					52	AcceptBinary	1.7193263000808656	1.0	2
42	2943	2024_May_23_2028	m	3	r	SS MRS	296.9929054999957	5.010649139876477			Chest					9	Post-Q-Jitter			2
43	2943	2024_May_23_2028	m	3	r	SS MRS	302.45049540000036	7.0122607599478215			Chest					7	Pre-Trial Jitter			2
44	2943	2024_May_23_2028	m	3	r	SS MRS	309.49439720006194	13.008050960022956			Chest		48.5			17	Heat-Stimulation			2
45	2943	2024_May_23_2028	m	3	r	SS MRS	322.5485861999914	8.999987579882145			Chest					8	Post-Trial Jitter			2
46	2943	2024_May_23_2028	m	3	r	SS MRS	331.5811192000983	5.001761159859598			Chest					20	PainBinary	3.1004718999611214	-1.0	2
47	2943	2024_May_23_2028	m	3	r	SS MRS	336.6128344000317	5.005068560014479			Chest					21	IntensityRating	1.883807999896817	26.358024691358022	2
48	2943	2024_May_23_2028	m	3	r	SS MRS	341.64189060009085	5.0137065598974			Chest					52	AcceptBinary	1.6003489000722766	1.0	2
49	2943	2024_May_23_2028	m	3	r	SS MRS	346.66060990002006	5.009749939898029			Chest					9	Post-Q-Jitter			2
50	2943	2024_May_23_2028	m	3	r	SS MRS	352.1433789000148	5.010978199774399			Chest					7	Pre-Trial Jitter			2
51	2943	2024_May_23_2028	m	3	r	SS MRS	357.20020160009153	12.997565979952924			Chest		48.5			17	Heat-Stimulation			2
52	2943	2024_May_23_2028	m	3	r	SS MRS	370.2494533000281	6.999292280059308			Chest					8	Post-Trial Jitter			2
53	2943	2024_May_23_2028	m	3	r	SS MRS	377.280800400069	5.003431860008277			Chest					20	PainBinary	2.653507300070487	-1.0	2
54	2943	2024_May_23_2028	m	3	r	SS MRS	382.3137820000993	5.004270459874533			Chest					21	IntensityRating	2.2004452999681234	24.320987654320987	2
55	2943	2024_May_23_2028	m	3	r	SS MRS	387.34257860004436	5.013464160030708			Chest					52	AcceptBinary	1.7504587000003085	1.0	2
56	2943	2024_May_23_2028	m	3	r	SS MRS	392.3608195000561	9.01045784004964			Chest					9	Post-Q-Jitter			2
57	2943	2024_May_23_2028	m	3	r	SS MRS	401.8379752000328	7.0063236800488085			Chest					7	Pre-Trial Jitter			2
58	2943	2024_May_23_2028	m	3	r	SS MRS	408.9124851000961	13.007562899962068			Chest		48.5			17	Heat-Stimulation			2
59	2943	2024_May_23_2028	m	3	r	SS MRS	421.96984220005106	9.009757380001247			Chest					8	Post-Trial Jitter			2
60	2943	2024_May_23_2028	m	3	r	SS MRS	431.0144295000937	5.004074559896253			Chest					20	PainBinary	2.8004551000194624	-1.0	2
61	2943	2024_May_23_2028	m	3	r	SS MRS	436.04787850007415	5.003986259922385			Chest					21	IntensityRating	2.350303800078109	17.530864197530864	2
62	2943	2024_May_23_2028	m	3	r	SS MRS	441.0752347999951	5.016056959866546			Chest					52	AcceptBinary	1.750423000077717	1.0	2
63	2943	2024_May_23_2028	m	3	r	SS MRS	446.09461790008936	9.010775939910673			Chest					9	Post-Q-Jitter			2
64	2943	2024_May_23_2028	m	3	r	SS MRS	455.55037960002664	4.999368660035543			Chest					7	Pre-Trial Jitter			2
65	2943	2024_May_23_2028	m	3	r	SS MRS	460.58672940009274	13.010252259904519			Chest		48.5			17	Heat-Stimulation			2
66	2943	2024_May_23_2028	m	3	r	SS MRS	473.650578700006	4.999448079965077			Chest					8	Post-Trial Jitter			2
67	2943	2024_May_23_2028	m	3	r	SS MRS	478.68231890001334	5.002777759800665			Chest					20	PainBinary	3.119774700026028	1.0	2
68	2943	2024_May_23_2028	m	3	r	SS MRS	483.7150629000971	5.004083859967068			Chest					21	IntensityRating	1.4034354001050815	23.76543209876543	2
69	2943	2024_May_23_2028	m	3	r	SS MRS	488.7418835000135	5.000561239896342			Chest					52	AcceptBinary	2.2338130000280216	1.0	2
70	2943	2024_May_23_2028	m	3	r	SS MRS	493.7620872000698	9.010302539914846			Chest					9	Post-Q-Jitter			2
71	2943	2024_May_23_2028	m	3	r	SS MRS	503.22752950002905	9.012922779889777			Chest					7	Pre-Trial Jitter			2
72	2943	2024_May_23_2028	m	3	r	SS MRS	512.2683434000937	12.998260259861127			Chest		48.5			17	Heat-Stimulation			2
73	2943	2024_May_23_2028	m	3	r	SS MRS	525.3196203000844	4.995931579964235			Chest					8	Post-Trial Jitter			2
74	2943	2024_May_23_2028	m	3	r	SS MRS	530.3503953000763	5.0011924599530175			Chest					20	PainBinary	2.8863188999239355	-1.0	2
75	2943	2024_May_23_2028	m	3	r	SS MRS	535.3827058000024	5.003329559927806			Chest					21	IntensityRating	1.950414500082843	26.60493827160494	2
76	2943	2024_May_23_2028	m	3	r	SS MRS	540.4098150000209	5.015898559940979			Chest					52	AcceptBinary	1.8007178000407293	1.0	2
77	2943	2024_May_23_2028	m	3	r	SS MRS	545.4286951000104	9.011634239926934			Chest					9	Post-Q-Jitter			2
78	2943	2024_May_23_2028	m	3	r	SS MRS	554.9128618000541	9.01014729985036			Chest					7	Pre-Trial Jitter			2
79	2943	2024_May_23_2028	m	3	r	SS MRS	563.9595586000942	13.000377360032871			Chest		48.5			17	Heat-Stimulation			2
80	2943	2024_May_23_2028	m	3	r	SS MRS	577.0182705000043	4.999829580076039			Chest					8	Post-Trial Jitter			2
81	2943	2024_May_23_2028	m	3	r	SS MRS	582.0499463001033	5.003255059942603			Chest					20	PainBinary	3.4671432999894023	-1.0	2
82	2943	2024_May_23_2028	m	3	r	SS MRS	587.0818968000822	5.006138159893453			Chest					21	IntensityRating	1.4369425000622869	26.04938271604938	2
83	2943	2024_May_23_2028	m	3	r	SS MRS	592.1113963000244	5.013958559953608			Chest					52	AcceptBinary	1.4003312999848276	1.0	2
84	2943	2024_May_23_2028	m	3	r	SS MRS	597.1296791000059	9.01084894000087			Chest					9	Post-Q-Jitter			2
85	2943	2024_May_23_2028	m	3	r	SS MRS	606.5847618000116	9.000879159895703			Chest					7	Pre-Trial Jitter			2
86	2943	2024_May_23_2028	m	3	r	SS MRS	615.6499354999978	13.00410850008484			Chest		48.5			17	Heat-Stimulation			2
87	2943	2024_May_23_2028	m	3	r	SS MRS	628.7018076000968	5.000613279989921			Chest					8	Post-Trial Jitter			2
88	2943	2024_May_23_2028	m	3	r	SS MRS	633.7338705000002	5.003308559884317			Chest					20	PainBinary	1.9004621000494808	-1.0	2
89	2943	2024_May_23_2028	m	3	r	SS MRS	638.7662569000386	5.005321760079823			Chest					21	IntensityRating	2.050435099983588	25.74074074074074	2
90	2943	2024_May_23_2028	m	3	r	SS MRS	643.7932862000307	5.001390040037222			Chest					52	AcceptBinary	1.3837274999823421	1.0	2
91	2943	2024_May_23_2028	m	3	r	SS MRS	648.8133683000924	5.011293439893052			Chest					9	Post-Q-Jitter			2
92	2943	2024_May_23_2028	m	3	r	SS MRS	654.307020700071	9.00746429990977			Chest					7	Pre-Trial Jitter			2
93	2943	2024_May_23_2028	m	3	r	SS MRS	663.3577436000342	13.00634136016015			Chest		48.5			17	Heat-Stimulation			2
94	2943	2024_May_23_2028	m	3	r	SS MRS	676.4204145000549	8.997925280127674			Chest					8	Post-Trial Jitter			2
95	2943	2024_May_23_2028	m	3	r	SS MRS	685.4509860000107	5.003614359884523			Chest					20	PainBinary	1.4171397000318393	1.0	2
96	2943	2024_May_23_2028	m	3	r	SS MRS	690.4837142000906	5.004910959862173			Chest					21	IntensityRating	1.6171386000933126	17.654320987654323	2
97	2943	2024_May_23_2028	m	3	r	SS MRS	695.5109669000376	5.00054173998069			Chest					52	AcceptBinary	1.2503940000897273	1.0	2
98	2943	2024_May_23_2028	m	3	r	SS MRS	700.5313927000389	7.009847939945757			Chest					9	Post-Q-Jitter			2
99	2943	2024_May_23_2028	m	3	r	SS MRS	708.627169799991	5.001711419667117			Chest					7	Pre-Trial Jitter			2
100	2943	2024_May_23_2028	m	3	r	SS MRS	713.6700420000125	12.99956916004885			Chest		48.5			17	Heat-Stimulation			2
101	2943	2024_May_23_2028	m	3	r	SS MRS	726.7215316999936	8.996859779930674			Chest					8	Post-Trial Jitter			2
102	2943	2024_May_23_2028	m	3	r	SS MRS	735.7512758000521	5.00422325998079			Chest					20	PainBinary	3.317083999980241	1.0	2
103	2943	2024_May_23_2028	m	3	r	SS MRS	740.7842288000975	5.00510075991042			Chest					21	IntensityRating	1.6004930000053719	15.246913580246915	2
104	2943	2024_May_23_2028	m	3	r	SS MRS	745.8124803000828	5.015383559977636			Chest					52	AcceptBinary	1.9362835999345407	1.0	2
105	2943	2024_May_23_2028	m	3	r	SS MRS	750.8318632000592	9.010123639949597			Chest					9	Post-Q-Jitter			2
106	2943	2024_May_23_2028	m	3	r	SS MRS	760.3157698001014	5.009104699827731			Chest					7	Pre-Trial Jitter			2
107	2943	2024_May_23_2028	m	3	r	SS MRS	765.3554663000396	12.99658316001296			Chest		48.5			17	Heat-Stimulation			2
108	2943	2024_May_23_2028	m	3	r	SS MRS	778.4050926000345	6.997552780085243			Chest					8	Post-Trial Jitter			2
109	2943	2024_May_23_2028	m	3	r	SS MRS	785.4356307000853	5.00323995994404			Chest					20	PainBinary	2.853243099991232	-1.0	2
110	2943	2024_May_23_2028	m	3	r	SS MRS	790.4689818000188	5.003348059952259			Chest					21	IntensityRating	1.5671833000378683	19.876543209876544	2
111	2943	2024_May_23_2028	m	3	r	SS MRS	795.4958245001035	5.016524059930816			Chest					52	AcceptBinary	1.2170556000201032	1.0	2
112	2943	2024_May_23_2028	m	3	r	SS MRS	800.5153237000341	7.010980340070091			Chest					9	Post-Q-Jitter			2
113	2943	2024_May_23_2028	m	3	r	SS MRS	807.5634315999923	2.5650221799733117			Chest					26	ComfortRating	2.5338456999743357	26.049382716049394	2
114	2943	2024_May_23_2028	m	3	r	SS MRS	810.1598232000833	1.2389578599249944			Chest					24	ValenceRating	1.2171734999865294	41.04938271604938	2
115	2943	2024_May_23_2028	m	3	r	SS MRS	811.4328820999945	1.0595444599166512			Chest					26	IntensityRating	1.033670200034976	43.888888888888886	2
116	2943	2024_May_23_2028	m	3	r	SS MRS	812.5204164000461	2.201193160028197			Chest					27	AvoidanceRating	2.1837686001090333	-5.308641975308646	2
117	2943	2024_May_23_2028	m	3	r	SS MRS	814.7471452000318	1.4311305601149797			Chest					28	RelaxationRating	1.4004483999451622	64.44444444444444	2
118	2943	2024_May_23_2028	m	3	r	SS MRS	816.2050527000101	1.8320162598975003			Chest					29	AttentionRating	1.8003766000038013	65.80246913580247	2
119	2943	2024_May_23_2028	m	3	r	SS MRS	818.0646220000926	1.6295788600109518			Chest					30	BoredomRating	1.6004123999737203	28.641975308641975	2
120	2943	2024_May_23_2028	m	3	r	SS MRS	819.717048700084	1.4414471599739045			Chest					31	AlertnessRating	1.4170637000352144	65.67901234567898	2
121	2943	2024_May_23_2028	m	3	r	SS MRS	821.1844438000116	1.6567087598377839			Chest					32	PosThxRating	1.6204740001121536	56.419753086419774	2
122	2943	2024_May_23_2028	m	3	r	SS MRS	822.8671682000859	1.1412396599771455			Chest					33	NegThxRating	1.1170352000044659	-36.04938271604938	2
123	2943	2024_May_23_2028	m	3	r	SS MRS	824.0336352000013	1.7250109598971903			Chest					34	SelfRating	1.7003727999981493	47.77777777777777	2
124	2943	2024_May_23_2028	m	3	r	SS MRS	825.7854590000352	1.3880743599729612			Chest					35	OtherRating	1.36711390002165	100.0	2
125	2943	2024_May_23_2028	m	3	r	SS MRS	827.2036619000137	2.2184369598980993			Chest					32	ImageryRating	2.2005537999793887	100.0	2
126	2943	2024_May_23_2028	m	3	r	SS MRS	829.4570582000306	1.9616715600714087			Chest					37	PresentRating	1.9337194999679923	-15.06172839506172	2
