square,location,corrAns,trials_2.thisRepN,trials_2.thisTrialN,trials_2.thisN,trials_2.thisIndex,fixation_1.started,fixation_1.stopped,response_2.x,response_2.y,response_2.leftButton,grid_lines_2.started,grid_lines_2.stopped,target_square_2.started,target_square_2.stopped,fixation_3.started,fixation_3.stopped,response_2.click,response_2.corr,response_2.started,response_2.stopped,ScoreReportText.started,ScoreReportText.stopped,ScoreReportResponse.keys,ScoreReportResponse.started,ScoreReportResponse.stopped,BodySiteInstructionText.started,BodySiteImg.started,BodySiteImg.stopped,BodySiteInstructionRead.keys,BodySiteInstructionRead.rt,BodySiteInstructionRead.started,BodySiteInstructionRead.stopped,IntensityRating.response,IntensityRating.rt,IntensityRating.started,IntensityRating.stopped,fixation_rest.started,fixation_rest.stopped,subject number,gender,distractMap first- or second-half (1 or 2),session,handedness,scanner,bodysite1 temp,bodysite2 temp,date,psychopyVersion,expName,frameRate,body_site_order,
6,"[0.2, 0]",None,0,0,0,0,314.42400060000364,None,None,None,"[0, 0, 0]",315.45734719990287,None,315.45734719990287,316.45734309998807,316.4406641999958,None,"[0, 0, 0]",1,315.45734719990287,None,,,,,,,,,,,,,,,,,,,9,F,2,13,R,MS MH,49,49,2022_Dec_15_1245,2020.2.10,distractmap2,59.9743669558746,"['Left Face', 'Abdomen', 'Left Face', 'Abdomen']",
7,"[-0.2, -0.2]",None,0,1,1,1,,,None,None,"[0, 0, 0]",317.4406805000035,319.4406808000058,317.4406805000035,318.44068479991984,318.4240047999192,319.4240857999539,"[0, 0, 0]",1,317.4406805000035,319.4406808000058,,,,,,,,,,,,,,,,,,,9,F,2,13,R,MS MH,49,49,2022_Dec_15_1245,2020.2.10,distractmap2,59.9743669558746,"['Left Face', 'Abdomen', 'Left Face', 'Abdomen']",
6,"[0.2, 0]",1.0,0,2,2,2,,,None,None,"[0, 0, 0]",319.4572063999949,321.45737989991903,319.4572063999949,320.45735609997064,320.4406690999167,321.44069869990926,"[0, 0, 0]",1,319.4572063999949,321.45737989991903,,,,,,,,,,,,,,,,,,,9,F,2,13,R,MS MH,49,49,2022_Dec_15_1245,2020.2.10,distractmap2,59.9743669558746,"['Left Face', 'Abdomen', 'Left Face', 'Abdomen']",
2,"[0, 0.2]",0.0,0,3,3,3,,,None,None,"[0, 0, 0]",321.47401409992017,323.47405889991205,321.47401409992017,322.4740532999858,322.4573924000142,323.4573807999259,"[0, 0, 0]",1,321.47401409992017,323.47405889991205,,,,,,,,,,,,,,,,,,,9,F,2,13,R,MS MH,49,49,2022_Dec_15_1245,2020.2.10,distractmap2,59.9743669558746,"['Left Face', 'Abdomen', 'Left Face', 'Abdomen']",
5,"[0, 0]",0.0,0,4,4,4,,,None,None,"[0, 0, 0]",323.4907021999825,325.49081300001126,323.4907021999825,324.4907341999933,324.4740807999624,325.47407369990833,"[0, 0, 0]",1,323.4907021999825,325.49081300001126,,,,,,,,,,,,,,,,,,,9,F,2,13,R,MS MH,49,49,2022_Dec_15_1245,2020.2.10,distractmap2,59.9743669558746,"['Left Face', 'Abdomen', 'Left Face', 'Abdomen']",
4,"[-0.2, 0]",0.0,0,5,5,5,,,None,None,"[0, 0, 0]",325.50744680000935,327.50743279990274,325.50744680000935,326.50743229989894,326.4907463999698,327.4907845999114,"[0, 0, 0]",1,325.50744680000935,327.50743279990274,,,,,,,,,,,,,,,,,,,9,F,2,13,R,MS MH,49,49,2022_Dec_15_1245,2020.2.10,distractmap2,59.9743669558746,"['Left Face', 'Abdomen', 'Left Face', 'Abdomen']",
4,"[-0.2, 0]",0.0,0,6,6,6,,,None,None,"[0, 0, 0]",327.52409449999686,329.5240793999983,327.52409449999686,328.5241102,328.5073174999561,329.5074592999881,"[0, 0, 0]",0,327.52409449999686,329.5240793999983,,,,,,,,,,,,,,,,,,,9,F,2,13,R,MS MH,49,49,2022_Dec_15_1245,2020.2.10,distractmap2,59.9743669558746,"['Left Face', 'Abdomen', 'Left Face', 'Abdomen']",
7,"[-0.2, -0.2]",0.0,0,7,7,7,,,None,None,"[0, 0, 0]",329.5407547999639,331.5407989999512,329.5407547999639,330.54079020000063,330.52413379994687,331.5241095999954,"[0, 0, 0]",1,329.5407547999639,331.5407989999512,,,,,,,,,,,,,,,,,,,9,F,2,13,R,MS MH,49,49,2022_Dec_15_1245,2020.2.10,distractmap2,59.9743669558746,"['Left Face', 'Abdomen', 'Left Face', 'Abdomen']",
4,"[-0.2, 0]",1.0,0,8,8,8,,,None,None,"[0, 0, 0]",331.5574736999115,333.55750150000677,331.5574736999115,332.55747080000583,332.5408055000007,333.5408095999155,"[0, 0, 0]",1,331.5574736999115,333.55750150000677,,,,,,,,,,,,,,,,,,,9,F,2,13,R,MS MH,49,49,2022_Dec_15_1245,2020.2.10,distractmap2,59.9743669558746,"['Left Face', 'Abdomen', 'Left Face', 'Abdomen']",
3,"[0.2, 0.2]",0.0,0,9,9,9,,,None,None,"[0, 0, 0]",333.57413660001475,335.5741630999837,333.57413660001475,334.5741555999266,334.5573908999795,335.55751289997716,"[0, 0, 0]",1,333.57413660001475,335.5741630999837,,,,,,,,,,,,,,,,,,,9,F,2,13,R,MS MH,49,49,2022_Dec_15_1245,2020.2.10,distractmap2,59.9743669558746,"['Left Face', 'Abdomen', 'Left Face', 'Abdomen']",
5,"[0, 0]",0.0,0,10,10,10,,,None,None,"[0, 0, 0]",335.5908187999157,337.59084509999957,335.5908187999157,336.5908449999988,336.5741649999982,337.5741768999724,"[0, 0, 0]",1,335.5908187999157,337.59084509999957,,,,,,,,,,,,,,,,,,,9,F,2,13,R,MS MH,49,49,2022_Dec_15_1245,2020.2.10,distractmap2,59.9743669558746,"['Left Face', 'Abdomen', 'Left Face', 'Abdomen']",
3,"[0.2, 0.2]",1.0,0,11,11,11,,,None,None,"[0, 0, 0]",337.60752859991044,339.6075414000079,337.60752859991044,338.60753629996907,338.59084979991894,339.5908682999434,"[0, 0, 0]",1,337.60752859991044,339.6075414000079,,,,,,,,,,,,,,,,,,,9,F,2,13,R,MS MH,49,49,2022_Dec_15_1245,2020.2.10,distractmap2,59.9743669558746,"['Left Face', 'Abdomen', 'Left Face', 'Abdomen']",
1,"[-0.2, 0.2]",0.0,0,12,12,12,,,None,None,"[0, 0, 0]",339.6241994999582,341.6242126999423,339.6241994999582,340.624208199908,340.60757029999513,341.6075574000133,"[0, 0, 0]",1,339.6241994999582,341.6242126999423,,,,,,,,,,,,,,,,,,,9,F,2,13,R,MS MH,49,49,2022_Dec_15_1245,2020.2.10,distractmap2,59.9743669558746,"['Left Face', 'Abdomen', 'Left Face', 'Abdomen']",
9,"[0.2, -0.2]",0.0,0,13,13,13,,,None,None,"[0, 0, 0]",341.64085999992676,343.64090939995367,341.64085999992676,342.6408868000144,342.62421279994305,343.62422749993857,"[0, 0, 0]",1,341.64085999992676,343.64090939995367,,,,,,,,,,,,,,,,,,,9,F,2,13,R,MS MH,49,49,2022_Dec_15_1245,2020.2.10,distractmap2,59.9743669558746,"['Left Face', 'Abdomen', 'Left Face', 'Abdomen']",
9,"[0.2, -0.2]",0.0,0,14,14,14,,,None,None,"[0, 0, 0]",343.6575798999984,345.65758819994517,343.6575798999984,344.657613499905,344.64090629993007,345.6409397999523,"[0, 0, 0]",1,343.6575798999984,345.65758819994517,,,,,,,,,,,,,,,,,,,9,F,2,13,R,MS MH,49,49,2022_Dec_15_1245,2020.2.10,distractmap2,59.9743669558746,"['Left Face', 'Abdomen', 'Left Face', 'Abdomen']",
8,"[0, -0.2]",0.0,0,15,15,15,,,None,None,"[0, 0, 0]",345.67426090000663,347.6742567999754,345.67426090000663,346.67426499992143,346.6575970000122,347.6576061999658,"[0, 0, 0]",1,345.67426090000663,347.6742567999754,,,,,,,,,,,,,,,,,,,9,F,2,13,R,MS MH,49,49,2022_Dec_15_1245,2020.2.10,distractmap2,59.9743669558746,"['Left Face', 'Abdomen', 'Left Face', 'Abdomen']",
6,"[0.2, 0]",0.0,0,16,16,16,,,None,None,"[0, 0, 0]",347.6909724000143,349.69097609992605,347.6909724000143,348.6909691999899,348.67428589996416,349.6742898999946,"[0, 0, 0]",1,347.6909724000143,349.69097609992605,,,,,,,,,,,,,,,,,,,9,F,2,13,R,MS MH,49,49,2022_Dec_15_1245,2020.2.10,distractmap2,59.9743669558746,"['Left Face', 'Abdomen', 'Left Face', 'Abdomen']",
3,"[0.2, 0.2]",0.0,0,17,17,17,,,None,None,"[0, 0, 0]",349.70763580000494,351.7076260999311,349.70763580000494,350.7077059999574,350.6910338999005,351.6909852999961,"[0, 0, 0]",1,349.70763580000494,351.7076260999311,,,,,,,,,,,,,,,,,,,9,F,2,13,R,MS MH,49,49,2022_Dec_15_1245,2020.2.10,distractmap2,59.9743669558746,"['Left Face', 'Abdomen', 'Left Face', 'Abdomen']",
6,"[0.2, 0]",1.0,0,18,18,18,,,None,None,"[0, 0, 0]",351.72429129993543,353.7243035999127,351.72429129993543,352.7243184999097,352.70764999999665,353.70766959991306,"[0, 0, 0]",1,351.72429129993543,353.7243035999127,,,,,,,,,,,,,,,,,,,9,F,2,13,R,MS MH,49,49,2022_Dec_15_1245,2020.2.10,distractmap2,59.9743669558746,"['Left Face', 'Abdomen', 'Left Face', 'Abdomen']",
5,"[0, 0]",0.0,0,19,19,19,,,None,None,"[0, 0, 0]",353.7409924999811,355.7410221999744,353.7409924999811,354.74100679997355,354.724245899939,355.7243621000089,"[0, 0, 0]",1,353.7409924999811,355.7410221999744,,,,,,,,,,,,,,,,,,,9,F,2,13,R,MS MH,49,49,2022_Dec_15_1245,2020.2.10,distractmap2,59.9743669558746,"['Left Face', 'Abdomen', 'Left Face', 'Abdomen']",
7,"[-0.2, -0.2]",0.0,0,20,20,20,,,None,None,"[0, 0, 0]",355.7576326999115,357.75755959993694,355.7576326999115,356.7576827999437,356.7410114000086,357.74105259997305,"[0, 0, 0]",1,355.7576326999115,357.75755959993694,,,,,,,,,,,,,,,,,,,9,F,2,13,R,MS MH,49,49,2022_Dec_15_1245,2020.2.10,distractmap2,59.9743669558746,"['Left Face', 'Abdomen', 'Left Face', 'Abdomen']",
5,"[0, 0]",1.0,0,21,21,21,,,None,None,"[0, 0, 0]",357.77431649994105,359.77436699997634,357.77431649994105,358.7743776999414,358.7577560999198,359.75770829990506,"[0, 0, 0]",1,357.77431649994105,359.77436699997634,,,,,,,,,,,,,,,,,,,9,F,2,13,R,MS MH,49,49,2022_Dec_15_1245,2020.2.10,distractmap2,59.9743669558746,"['Left Face', 'Abdomen', 'Left Face', 'Abdomen']",
1,"[-0.2, 0.2]",0.0,0,22,22,22,,,None,None,"[0, 0, 0]",359.791035000002,361.79108250001445,359.791035000002,360.7910087999189,360.77439519995824,361.7743988999864,"[0, 0, 0]",1,359.791035000002,361.79108250001445,,,,,,,,,,,,,,,,,,,9,F,2,13,R,MS MH,49,49,2022_Dec_15_1245,2020.2.10,distractmap2,59.9743669558746,"['Left Face', 'Abdomen', 'Left Face', 'Abdomen']",
7,"[-0.2, -0.2]",0.0,0,23,23,23,,,None,None,"[0, 0, 0]",361.80775249993894,363.8078020999674,361.80775249993894,362.80778769997414,362.7911179999355,363.79110839997884,"[0, 0, 0]",0,361.80775249993894,363.8078020999674,,,,,,,,,,,,,,,,,,,9,F,2,13,R,MS MH,49,49,2022_Dec_15_1245,2020.2.10,distractmap2,59.9743669558746,"['Left Face', 'Abdomen', 'Left Face', 'Abdomen']",
9,"[0.2, -0.2]",0.0,0,24,24,24,,,None,None,"[0, 0, 0]",363.8244142999174,365.82443519996013,363.8244142999174,364.8244593999116,364.8077481999062,365.8077523999382,"[0, 0, 0]",1,363.8244142999174,365.82443519996013,,,,,,,,,,,,,,,,,,,9,F,2,13,R,MS MH,49,49,2022_Dec_15_1245,2020.2.10,distractmap2,59.9743669558746,"['Left Face', 'Abdomen', 'Left Face', 'Abdomen']",
3,"[0.2, 0.2]",0.0,0,25,25,25,,,None,None,"[0, 0, 0]",365.8411031999858,367.8411406999221,365.8411031999858,366.8411567999283,366.8244763999246,367.82448999991175,"[0, 0, 0]",1,365.8411031999858,367.8411406999221,,,,,,,,,,,,,,,,,,,9,F,2,13,R,MS MH,49,49,2022_Dec_15_1245,2020.2.10,distractmap2,59.9743669558746,"['Left Face', 'Abdomen', 'Left Face', 'Abdomen']",
9,"[0.2, -0.2]",1.0,0,26,26,26,,,None,None,"[0, 0, 0]",367.85781909991056,369.85780849994626,367.85781909991056,368.8577896999195,368.8411368000088,369.8411492999876,"[0, 0, 0]",1,367.85781909991056,369.85780849994626,,,,,,,,,,,,,,,,,,,9,F,2,13,R,MS MH,49,49,2022_Dec_15_1245,2020.2.10,distractmap2,59.9743669558746,"['Left Face', 'Abdomen', 'Left Face', 'Abdomen']",
6,"[0.2, 0]",0.0,0,27,27,27,,,None,None,"[0, 0, 0]",369.8744643999962,371.87449019995984,369.8744643999962,370.8744592999574,370.85778729990125,371.8578007000033,"[0, 0, 0]",1,369.8744643999962,371.87449019995984,,,,,,,,,,,,,,,,,,,9,F,2,13,R,MS MH,49,49,2022_Dec_15_1245,2020.2.10,distractmap2,59.9743669558746,"['Left Face', 'Abdomen', 'Left Face', 'Abdomen']",
2,"[0, 0.2]",0.0,0,28,28,28,,,None,None,"[0, 0, 0]",371.89116040000226,373.89119739993475,371.89116040000226,372.8911866999697,372.8745173999341,373.8745068999706,"[0, 0, 0]",1,371.89116040000226,373.89119739993475,,,,,,,,,,,,,,,,,,,9,F,2,13,R,MS MH,49,49,2022_Dec_15_1245,2020.2.10,distractmap2,59.9743669558746,"['Left Face', 'Abdomen', 'Left Face', 'Abdomen']",
5,"[0, 0]",0.0,0,29,29,29,,,None,None,"[0, 0, 0]",373.90784389991313,375.90783949999604,373.90784389991313,374.9078214999754,374.89118919998873,375.8912081999006,"[0, 0, 0]",1,373.90784389991313,375.90783949999604,,,,,,,,,,,,,,,,,,,9,F,2,13,R,MS MH,49,49,2022_Dec_15_1245,2020.2.10,distractmap2,59.9743669558746,"['Left Face', 'Abdomen', 'Left Face', 'Abdomen']",
,,,,,,,,,,,,,,,,,,,,,,375.9412072999403,None,space,375.9412072999403,None,,,,,,,,,,,,,,9,F,2,13,R,MS MH,49,49,2022_Dec_15_1245,2020.2.10,distractmap2,59.9743669558746,"['Left Face', 'Abdomen', 'Left Face', 'Abdomen']",
3,"[0.2, 0.2]",None,0,0,0,0,561.6095488999272,None,None,None,"[0, 0, 0]",568.1929620999144,None,568.1929620999144,569.1929485999281,569.159636599943,570.1596572999842,"[0, 0, 0]",1,568.1929620999144,None,,,,,,407.6417654999532,407.6417654999532,None,space,127.24860299995635,407.6417654999532,None,,,,,,,9,F,2,13,R,MS MH,49,49,2022_Dec_15_1245,2020.2.10,distractmap2,59.9743669558746,"['Left Face', 'Abdomen', 'Left Face', 'Abdomen']",
3,"[0.2, 0.2]",None,0,1,1,1,,,None,None,"[0, 0, 0]",570.1929308999097,572.1930242999224,570.1929308999097,571.1929592000088,571.1762877999572,572.1763572999043,"[0, 0, 0]",1,570.1929308999097,572.1930242999224,,,,,,,,,,,,,,,,,,,9,F,2,13,R,MS MH,49,49,2022_Dec_15_1245,2020.2.10,distractmap2,59.9743669558746,"['Left Face', 'Abdomen', 'Left Face', 'Abdomen']",
5,"[0, 0]",0.0,0,2,2,2,,,None,None,"[0, 0, 0]",572.2096850000089,574.2096550000133,572.2096850000089,573.2096443999326,573.1929746000096,574.1930201000068,"[0, 0, 0]",1,572.2096850000089,574.2096550000133,,,,,,,,,,,,,,,,,,,9,F,2,13,R,MS MH,49,49,2022_Dec_15_1245,2020.2.10,distractmap2,59.9743669558746,"['Left Face', 'Abdomen', 'Left Face', 'Abdomen']",
1,"[-0.2, 0.2]",0.0,0,3,3,3,,,None,None,"[0, 0, 0]",574.2263121999567,576.2263696999289,574.2263121999567,575.2263221999165,575.2096643999685,576.2096710999031,"[0, 0, 0]",1,574.2263121999567,576.2263696999289,,,,,,,,,,,,,,,,,,,9,F,2,13,R,MS MH,49,49,2022_Dec_15_1245,2020.2.10,distractmap2,59.9743669558746,"['Left Face', 'Abdomen', 'Left Face', 'Abdomen']",
5,"[0, 0]",1.0,0,4,4,4,,,None,None,"[0, 0, 0]",576.3096313999267,None,576.3096313999267,577.3096523999702,577.2930115999188,None,"[0, 0, 0]",1,576.3096313999267,None,,,,,,,,,,,,,,,,,,,9,F,2,13,R,MS MH,49,49,2022_Dec_15_1245,2020.2.10,distractmap2,59.9743669558746,"['Left Face', 'Abdomen', 'Left Face', 'Abdomen']",
8,"[0, -0.2]",0.0,0,5,5,5,,,None,None,"[0, 0, 0]",578.25967639999,580.2597180999583,578.25967639999,579.2597050999757,579.2430344999302,580.2430647999281,"[0, 0, 0]",1,578.25967639999,580.2597180999583,,,,,,,,,,,,,,,,,,,9,F,2,13,R,MS MH,49,49,2022_Dec_15_1245,2020.2.10,distractmap2,59.9743669558746,"['Left Face', 'Abdomen', 'Left Face', 'Abdomen']",
5,"[0, 0]",1.0,0,6,6,6,,,None,None,"[0, 0, 0]",580.2763782999245,582.2763989999657,580.2763782999245,581.2764308999758,581.2597603999311,582.2596800999017,"[0, 0, 0]",0,580.2763782999245,582.2763989999657,,,,,,,,,,,,,,,,,,,9,F,2,13,R,MS MH,49,49,2022_Dec_15_1245,2020.2.10,distractmap2,59.9743669558746,"['Left Face', 'Abdomen', 'Left Face', 'Abdomen']",
7,"[-0.2, -0.2]",0.0,0,7,7,7,,,None,None,"[0, 0, 0]",582.2930592999328,584.2930808999809,582.2930592999328,583.2930917999474,583.27640959993,584.2764174999902,"[0, 0, 0]",1,582.2930592999328,584.2930808999809,,,,,,,,,,,,,,,,,,,9,F,2,13,R,MS MH,49,49,2022_Dec_15_1245,2020.2.10,distractmap2,59.9743669558746,"['Left Face', 'Abdomen', 'Left Face', 'Abdomen']",
5,"[0, 0]",1.0,0,8,8,8,,,None,None,"[0, 0, 0]",584.3097379999235,586.3098125999095,584.3097379999235,585.3097669999115,585.293155399966,586.2931411999743,"[0, 0, 0]",1,584.3097379999235,586.3098125999095,,,,,,,,,,,,,,,,,,,9,F,2,13,R,MS MH,49,49,2022_Dec_15_1245,2020.2.10,distractmap2,59.9743669558746,"['Left Face', 'Abdomen', 'Left Face', 'Abdomen']",
7,"[-0.2, -0.2]",1.0,0,9,9,9,,,None,None,"[0, 0, 0]",586.3264748000074,588.3264473999152,586.3264748000074,587.3264415999874,587.3098317999393,588.3097628999967,"[0, 0, 0]",0,586.3264748000074,588.3264473999152,,,,,,,,,,,,,,,,,,,9,F,2,13,R,MS MH,49,49,2022_Dec_15_1245,2020.2.10,distractmap2,59.9743669558746,"['Left Face', 'Abdomen', 'Left Face', 'Abdomen']",
,,,,,,,,,,,,,,,,,,,,,,588.3764393999008,None,,,,,,,,,,,,,,,,,9,F,2,13,R,MS MH,49,49,2022_Dec_15_1245,2020.2.10,distractmap2,59.9743669558746,"['Left Face', 'Abdomen', 'Left Face', 'Abdomen']",
,,,,,,,,,,,,,,,,,,,,,,,,,,,,,,,,,,37.160493827160494,357.23979339993093,,,,,9,F,2,13,R,MS MH,49,49,2022_Dec_15_1245,2020.2.10,distractmap2,59.9743669558746,"['Left Face', 'Abdomen', 'Left Face', 'Abdomen']",
6,"[0.2, 0]",None,0,0,0,0,606.4099469999783,None,None,None,"[0, 0, 0]",608.4433676999761,None,608.4433676999761,609.4432994999224,609.4266372999409,610.4266554999631,"[0, 0, 0]",1,608.4433676999761,None,,,,,,,,,,,,,,,0.01236580009572208,5.0076518000569195,,,9,F,2,13,R,MS MH,49,49,2022_Dec_15_1245,2020.2.10,distractmap2,59.9743669558746,"['Left Face', 'Abdomen', 'Left Face', 'Abdomen']",
1,"[-0.2, 0.2]",None,0,1,1,1,,,None,None,"[0, 0, 0]",610.4433134999126,612.4433414000086,610.4433134999126,611.4433292999165,611.4266587999882,612.4266859999625,"[0, 0, 0]",1,610.4433134999126,612.4433414000086,,,,,,,,,,,,,,,,,,,9,F,2,13,R,MS MH,49,49,2022_Dec_15_1245,2020.2.10,distractmap2,59.9743669558746,"['Left Face', 'Abdomen', 'Left Face', 'Abdomen']",
6,"[0.2, 0]",1.0,0,2,2,2,,,None,None,"[0, 0, 0]",612.4599934999133,614.4600158999674,612.4599934999133,613.4600216000108,613.4433735999046,614.4433395999949,"[0, 0, 0]",1,612.4599934999133,614.4600158999674,,,,,,,,,,,,,,,,,,,9,F,2,13,R,MS MH,49,49,2022_Dec_15_1245,2020.2.10,distractmap2,59.9743669558746,"['Left Face', 'Abdomen', 'Left Face', 'Abdomen']",
4,"[-0.2, 0]",0.0,0,3,3,3,,,None,None,"[0, 0, 0]",614.4766658999724,616.4766880999086,614.4766658999724,615.4766989999916,615.4600426999386,616.4600505999988,"[0, 0, 0]",0,614.4766658999724,616.4766880999086,,,,,,,,,,,,,,,,,,,9,F,2,13,R,MS MH,49,49,2022_Dec_15_1245,2020.2.10,distractmap2,59.9743669558746,"['Left Face', 'Abdomen', 'Left Face', 'Abdomen']",
1,"[-0.2, 0.2]",0.0,0,4,4,4,,,None,None,"[0, 0, 0]",616.559960899991,None,616.559960899991,617.5600474999519,617.5600474999519,None,"[0, 0, 0]",1,616.559960899991,None,,,,,,,,,,,,,,,,,,,9,F,2,13,R,MS MH,49,49,2022_Dec_15_1245,2020.2.10,distractmap2,59.9743669558746,"['Left Face', 'Abdomen', 'Left Face', 'Abdomen']",
8,"[0, -0.2]",0.0,0,5,5,5,,,None,None,"[0, 0, 0]",618.5100545999594,620.5100556999678,618.5100545999594,619.5100589999929,619.4933999999193,620.4934084999841,"[0, 0, 0]",1,618.5100545999594,620.5100556999678,,,,,,,,,,,,,,,,,,,9,F,2,13,R,MS MH,49,49,2022_Dec_15_1245,2020.2.10,distractmap2,59.9743669558746,"['Left Face', 'Abdomen', 'Left Face', 'Abdomen']",
1,"[-0.2, 0.2]",1.0,0,6,6,6,,,None,None,"[0, 0, 0]",620.5267288999166,622.5267908999231,620.5267288999166,621.5267452999251,621.5100883999839,622.5100830999436,"[0, 0, 0]",1,620.5267288999166,622.5267908999231,,,,,,,,,,,,,,,,,,,9,F,2,13,R,MS MH,49,49,2022_Dec_15_1245,2020.2.10,distractmap2,59.9743669558746,"['Left Face', 'Abdomen', 'Left Face', 'Abdomen']",
8,"[0, -0.2]",1.0,0,7,7,7,,,None,None,"[0, 0, 0]",622.5434634999838,624.5434548999183,622.5434634999838,623.543458799948,623.5267715000082,624.5267928999383,"[0, 0, 0]",1,622.5434634999838,624.5434548999183,,,,,,,,,,,,,,,,,,,9,F,2,13,R,MS MH,49,49,2022_Dec_15_1245,2020.2.10,distractmap2,59.9743669558746,"['Left Face', 'Abdomen', 'Left Face', 'Abdomen']",
1,"[-0.2, 0.2]",1.0,0,8,8,8,,,None,None,"[0, 0, 0]",624.5601197999204,626.5601333999075,624.5601197999204,625.5601781998994,625.5434479999822,626.5434685999062,"[0, 0, 0]",1,624.5601197999204,626.5601333999075,,,,,,,,,,,,,,,,,,,9,F,2,13,R,MS MH,49,49,2022_Dec_15_1245,2020.2.10,distractmap2,59.9743669558746,"['Left Face', 'Abdomen', 'Left Face', 'Abdomen']",
6,"[0.2, 0]",0.0,0,9,9,9,,,None,None,"[0, 0, 0]",626.5767858999316,628.5767975999042,626.5767858999316,627.5768076999811,627.5601479999023,628.5601343999151,"[0, 0, 0]",1,626.5767858999316,628.5767975999042,,,,,,,,,,,,,,,,,,,9,F,2,13,R,MS MH,49,49,2022_Dec_15_1245,2020.2.10,distractmap2,59.9743669558746,"['Left Face', 'Abdomen', 'Left Face', 'Abdomen']",
,,,,,,,,,,,,,,,,,,,,,,628.6101668999763,None,,,,,,,,,,,,,,,,,9,F,2,13,R,MS MH,49,49,2022_Dec_15_1245,2020.2.10,distractmap2,59.9743669558746,"['Left Face', 'Abdomen', 'Left Face', 'Abdomen']",
,,,,,,,,,,,,,,,,,,,,,,,,,,,,,,,,,,22.592592592592595,393.2403789999662,,,,,9,F,2,13,R,MS MH,49,49,2022_Dec_15_1245,2020.2.10,distractmap2,59.9743669558746,"['Left Face', 'Abdomen', 'Left Face', 'Abdomen']",
7,"[-0.2, -0.2]",None,0,0,0,0,641.8936415999196,None,None,None,"[0, 0, 0]",648.6770398999797,None,648.6770398999797,649.6769935999764,649.6603464999935,650.6602435999084,"[0, 0, 0]",1,648.6770398999797,None,,,,,,,,,,,,,,,0.012115400051698089,5.007255000062287,,,9,F,2,13,R,MS MH,49,49,2022_Dec_15_1245,2020.2.10,distractmap2,59.9743669558746,"['Left Face', 'Abdomen', 'Left Face', 'Abdomen']",
7,"[-0.2, -0.2]",None,0,1,1,1,,,None,None,"[0, 0, 0]",650.6770018999232,652.6770293998998,650.6770018999232,651.6770230999682,651.6603458999889,652.6603656999068,"[0, 0, 0]",1,650.6770018999232,652.6770293998998,,,,,,,,,,,,,,,,,,,9,F,2,13,R,MS MH,49,49,2022_Dec_15_1245,2020.2.10,distractmap2,59.9743669558746,"['Left Face', 'Abdomen', 'Left Face', 'Abdomen']",
7,"[-0.2, -0.2]",1.0,0,2,2,2,,,None,None,"[0, 0, 0]",652.6936836999375,654.6937109999126,652.6936836999375,653.6936994999414,653.67703599995,654.6770382999675,"[0, 0, 0]",1,652.6936836999375,654.6937109999126,,,,,,,,,,,,,,,,,,,9,F,2,13,R,MS MH,49,49,2022_Dec_15_1245,2020.2.10,distractmap2,59.9743669558746,"['Left Face', 'Abdomen', 'Left Face', 'Abdomen']",
5,"[0, 0]",0.0,0,3,3,3,,,None,None,"[0, 0, 0]",654.7103726000059,656.7104087999323,654.7103726000059,655.7103912999155,655.693736199988,656.6937109999126,"[0, 0, 0]",1,654.7103726000059,656.7104087999323,,,,,,,,,,,,,,,,,,,9,F,2,13,R,MS MH,49,49,2022_Dec_15_1245,2020.2.10,distractmap2,59.9743669558746,"['Left Face', 'Abdomen', 'Left Face', 'Abdomen']",
1,"[-0.2, 0.2]",0.0,0,4,4,4,,,None,None,"[0, 0, 0]",656.7770775000099,None,656.7770775000099,657.7773672000039,657.7604104999918,None,"[0, 0, 0]",1,656.7770775000099,None,,,,,,,,,,,,,,,,,,,9,F,2,13,R,MS MH,49,49,2022_Dec_15_1245,2020.2.10,distractmap2,59.9743669558746,"['Left Face', 'Abdomen', 'Left Face', 'Abdomen']",
6,"[0.2, 0]",0.0,0,5,5,5,,,None,None,"[0, 0, 0]",658.7437911999878,660.7437467999989,658.7437911999878,659.7437626000028,659.7270984000061,660.7270679000067,"[0, 0, 0]",1,658.7437911999878,660.7437467999989,,,,,,,,,,,,,,,,,,,9,F,2,13,R,MS MH,49,49,2022_Dec_15_1245,2020.2.10,distractmap2,59.9743669558746,"['Left Face', 'Abdomen', 'Left Face', 'Abdomen']",
1,"[-0.2, 0.2]",1.0,0,6,6,6,,,None,None,"[0, 0, 0]",660.7604279000079,662.7604772999184,660.7604279000079,661.7604344999418,661.7437478000065,662.7438300999347,"[0, 0, 0]",1,660.7604279000079,662.7604772999184,,,,,,,,,,,,,,,,,,,9,F,2,13,R,MS MH,49,49,2022_Dec_15_1245,2020.2.10,distractmap2,59.9743669558746,"['Left Face', 'Abdomen', 'Left Face', 'Abdomen']",
7,"[-0.2, -0.2]",0.0,0,7,7,7,,,None,None,"[0, 0, 0]",662.7771259999136,664.7771351999836,662.7771259999136,663.7771361999912,663.7604527999647,664.7604642999358,"[0, 0, 0]",1,662.7771259999136,664.7771351999836,,,,,,,,,,,,,,,,,,,9,F,2,13,R,MS MH,49,49,2022_Dec_15_1245,2020.2.10,distractmap2,59.9743669558746,"['Left Face', 'Abdomen', 'Left Face', 'Abdomen']",
6,"[0.2, 0]",0.0,0,8,8,8,,,None,None,"[0, 0, 0]",664.7938075999264,666.7938183000078,664.7938075999264,665.7937962999567,665.7771459999494,666.777192599955,"[0, 0, 0]",0,664.7938075999264,666.7938183000078,,,,,,,,,,,,,,,,,,,9,F,2,13,R,MS MH,49,49,2022_Dec_15_1245,2020.2.10,distractmap2,59.9743669558746,"['Left Face', 'Abdomen', 'Left Face', 'Abdomen']",
7,"[-0.2, -0.2]",1.0,0,9,9,9,,,None,None,"[0, 0, 0]",666.8104934999719,668.8106086999178,666.8104934999719,667.8105181999272,667.7938561999472,668.793902699952,"[0, 0, 0]",1,666.8104934999719,668.8106086999178,,,,,,,,,,,,,,,,,,,9,F,2,13,R,MS MH,49,49,2022_Dec_15_1245,2020.2.10,distractmap2,59.9743669558746,"['Left Face', 'Abdomen', 'Left Face', 'Abdomen']",
,,,,,,,,,,,,,,,,,,,,,,668.8272364999866,None,,,,,,,,,,,,,,,,,9,F,2,13,R,MS MH,49,49,2022_Dec_15_1245,2020.2.10,distractmap2,59.9743669558746,"['Left Face', 'Abdomen', 'Left Face', 'Abdomen']",
,,,,,,,,,,,,,,,,,,,,,,,,,,,,,,,,,,14.629629629629628,433.4738633999368,,,,,9,F,2,13,R,MS MH,49,49,2022_Dec_15_1245,2020.2.10,distractmap2,59.9743669558746,"['Left Face', 'Abdomen', 'Left Face', 'Abdomen']",
,,,,,,,703.8441612999886,None,,,,,,,,,,,,,,,,,,,,,,,,,,50.0,471.1202027000254,0.012282000039704144,5.007602300145663,683.8439819999039,None,9,F,2,13,R,MS MH,49,49,2022_Dec_15_1245,2020.2.10,distractmap2,59.9743669558746,"['Left Face', 'Abdomen', 'Left Face', 'Abdomen']",
,,,,,,,738.8611773999874,None,,,,,,,,,,,,,,,,,,,,,,,,,,52.83950617283951,506.40383769990876,0.01629599998705089,5.015524100046605,718.8609710999299,None,9,F,2,13,R,MS MH,49,49,2022_Dec_15_1245,2020.2.10,distractmap2,59.9743669558746,"['Left Face', 'Abdomen', 'Left Face', 'Abdomen']",
,,,,,,,773.8781883999472,None,,,,,,,,,,,,,,,,,,,,,,,,,,57.90123456790123,540.9230130999349,0.01633460004813969,5.015589699964039,753.8779841999058,None,9,F,2,13,R,MS MH,49,49,2022_Dec_15_1245,2020.2.10,distractmap2,59.9743669558746,"['Left Face', 'Abdomen', 'Left Face', 'Abdomen']",
4,"[-0.2, 0]",None,0,0,0,0,791.8949896999402,None,None,None,"[0, 0, 0]",793.945022800006,None,793.945022800006,794.9450460999506,794.9283687999705,795.9283532999689,"[0, 0, 0]",1,793.945022800006,None,,,,,,,,,,,,,,,0.014132500044070184,5.0112770000705495,,,9,F,2,13,R,MS MH,49,49,2022_Dec_15_1245,2020.2.10,distractmap2,59.9743669558746,"['Left Face', 'Abdomen', 'Left Face', 'Abdomen']",
5,"[0, 0]",None,0,1,1,1,,,None,None,"[0, 0, 0]",795.9450365999946,797.945037700003,795.9450365999946,796.9450768999523,796.9283600999042,797.9283936999273,"[0, 0, 0]",1,795.9450365999946,797.945037700003,,,,,,,,,,,,,,,,,,,9,F,2,13,R,MS MH,49,49,2022_Dec_15_1245,2020.2.10,distractmap2,59.9743669558746,"['Left Face', 'Abdomen', 'Left Face', 'Abdomen']",
6,"[0.2, 0]",0.0,0,2,2,2,,,None,None,"[0, 0, 0]",797.9617042999016,799.9617544999346,797.9617042999016,798.9617009999929,798.9450767999515,799.9450546998996,"[0, 0, 0]",1,797.9617042999016,799.9617544999346,,,,,,,,,,,,,,,,,,,9,F,2,13,R,MS MH,49,49,2022_Dec_15_1245,2020.2.10,distractmap2,59.9743669558746,"['Left Face', 'Abdomen', 'Left Face', 'Abdomen']",
1,"[-0.2, 0.2]",0.0,0,3,3,3,,,None,None,"[0, 0, 0]",799.9783801999874,801.9784264999907,799.9783801999874,800.9784167999169,800.9617423999589,801.9617421999574,"[0, 0, 0]",1,799.9783801999874,801.9784264999907,,,,,,,,,,,,,,,,,,,9,F,2,13,R,MS MH,49,49,2022_Dec_15_1245,2020.2.10,distractmap2,59.9743669558746,"['Left Face', 'Abdomen', 'Left Face', 'Abdomen']",
6,"[0.2, 0]",1.0,0,4,4,4,,,None,None,"[0, 0, 0]",802.0617676000111,None,802.0617676000111,803.0618118999992,803.0450869000051,None,"[0, 0, 0]",1,802.0617676000111,None,,,,,,,,,,,,,,,,,,,9,F,2,13,R,MS MH,49,49,2022_Dec_15_1245,2020.2.10,distractmap2,59.9743669558746,"['Left Face', 'Abdomen', 'Left Face', 'Abdomen']",
1,"[-0.2, 0.2]",1.0,0,5,5,5,,,None,None,"[0, 0, 0]",804.0117471999256,806.011774100014,804.0117471999256,805.0117473999271,804.9950972999213,805.9951337999664,"[0, 0, 0]",1,804.0117471999256,806.011774100014,,,,,,,,,,,,,,,,,,,9,F,2,13,R,MS MH,49,49,2022_Dec_15_1245,2020.2.10,distractmap2,59.9743669558746,"['Left Face', 'Abdomen', 'Left Face', 'Abdomen']",
2,"[0, 0.2]",0.0,0,6,6,6,,,None,None,"[0, 0, 0]",806.0285003999015,808.0284651999827,806.0285003999015,807.0284499999834,807.0117930999259,808.0118042000104,"[0, 0, 0]",1,806.0285003999015,808.0284651999827,,,,,,,,,,,,,,,,,,,9,F,2,13,R,MS MH,49,49,2022_Dec_15_1245,2020.2.10,distractmap2,59.9743669558746,"['Left Face', 'Abdomen', 'Left Face', 'Abdomen']",
3,"[0.2, 0.2]",0.0,0,7,7,7,,,None,None,"[0, 0, 0]",808.0451494998997,810.0451421999605,808.0451494998997,809.0451402999461,809.0284839000087,810.0284947999753,"[0, 0, 0]",1,808.0451494998997,810.0451421999605,,,,,,,,,,,,,,,,,,,9,F,2,13,R,MS MH,49,49,2022_Dec_15_1245,2020.2.10,distractmap2,59.9743669558746,"['Left Face', 'Abdomen', 'Left Face', 'Abdomen']",
6,"[0.2, 0]",0.0,0,8,8,8,,,None,None,"[0, 0, 0]",810.0617980000097,812.0618216999574,810.0617980000097,811.061791599961,811.045052899979,812.0450492999516,"[0, 0, 0]",1,810.0617980000097,812.0618216999574,,,,,,,,,,,,,,,,,,,9,F,2,13,R,MS MH,49,49,2022_Dec_15_1245,2020.2.10,distractmap2,59.9743669558746,"['Left Face', 'Abdomen', 'Left Face', 'Abdomen']",
3,"[0.2, 0.2]",1.0,0,9,9,9,,,None,None,"[0, 0, 0]",812.078497099923,814.078531099949,812.078497099923,813.0785498999758,813.0618426000001,814.061856299988,"[0, 0, 0]",1,812.078497099923,814.078531099949,,,,,,,,,,,,,,,,,,,9,F,2,13,R,MS MH,49,49,2022_Dec_15_1245,2020.2.10,distractmap2,59.9743669558746,"['Left Face', 'Abdomen', 'Left Face', 'Abdomen']",
,,,,,,,,,,,,,,,,,,,,,,814.1285532999318,None,,,,,,,,,,,,,,,,,9,F,2,13,R,MS MH,49,49,2022_Dec_15_1245,2020.2.10,distractmap2,59.9743669558746,"['Left Face', 'Abdomen', 'Left Face', 'Abdomen']",
,,,,,,,,,,,,,,,,,,,,,,,,,,,,,,,,,,14.814814814814813,581.441875099903,,,,,9,F,2,13,R,MS MH,49,49,2022_Dec_15_1245,2020.2.10,distractmap2,59.9743669558746,"['Left Face', 'Abdomen', 'Left Face', 'Abdomen']",
2,"[0, 0.2]",None,0,0,0,0,832.2122440999374,None,None,None,"[0, 0, 0]",834.1953868999844,None,834.1953868999844,835.1954064999009,835.1787098000059,836.1787301999284,"[0, 0, 0]",1,834.1953868999844,None,,,,,,,,,,,,,,,0.012377800070680678,5.007663300028071,,,9,F,2,13,R,MS MH,49,49,2022_Dec_15_1245,2020.2.10,distractmap2,59.9743669558746,"['Left Face', 'Abdomen', 'Left Face', 'Abdomen']",
5,"[0, 0]",None,0,1,1,1,,,None,None,"[0, 0, 0]",836.1953766999068,838.195428899955,836.1953766999068,837.1954345999984,837.1786617999896,838.1787320999429,"[0, 0, 0]",1,836.1953766999068,838.195428899955,,,,,,,,,,,,,,,,,,,9,F,2,13,R,MS MH,49,49,2022_Dec_15_1245,2020.2.10,distractmap2,59.9743669558746,"['Left Face', 'Abdomen', 'Left Face', 'Abdomen']",
6,"[0.2, 0]",0.0,0,2,2,2,,,None,None,"[0, 0, 0]",838.2120740999235,840.2120716999052,838.2120740999235,839.21207889996,839.1954421999399,840.1954401999246,"[0, 0, 0]",1,838.2120740999235,840.2120716999052,,,,,,,,,,,,,,,,,,,9,F,2,13,R,MS MH,49,49,2022_Dec_15_1245,2020.2.10,distractmap2,59.9743669558746,"['Left Face', 'Abdomen', 'Left Face', 'Abdomen']",
1,"[-0.2, 0.2]",0.0,0,3,3,3,,,None,None,"[0, 0, 0]",840.2287546999287,842.2287406999385,840.2287546999287,841.2288111000089,841.2121511999285,842.2121200999245,"[0, 0, 0]",1,840.2287546999287,842.2287406999385,,,,,,,,,,,,,,,,,,,9,F,2,13,R,MS MH,49,49,2022_Dec_15_1245,2020.2.10,distractmap2,59.9743669558746,"['Left Face', 'Abdomen', 'Left Face', 'Abdomen']",
6,"[0.2, 0]",1.0,0,4,4,4,,,None,None,"[0, 0, 0]",842.2953165000072,None,842.2953165000072,843.2954853000119,843.2954853000119,None,"[0, 0, 0]",1,842.2953165000072,None,,,,,,,,,,,,,,,,,,,9,F,2,13,R,MS MH,49,49,2022_Dec_15_1245,2020.2.10,distractmap2,59.9743669558746,"['Left Face', 'Abdomen', 'Left Face', 'Abdomen']",
6,"[0.2, 0]",0.0,0,5,5,5,,,None,None,"[0, 0, 0]",844.2620531999273,846.262156899902,844.2620531999273,845.2621124999132,845.2454727999866,846.2455741999438,"[0, 0, 0]",1,844.2620531999273,846.262156899902,,,,,,,,,,,,,,,,,,,9,F,2,13,R,MS MH,49,49,2022_Dec_15_1245,2020.2.10,distractmap2,59.9743669558746,"['Left Face', 'Abdomen', 'Left Face', 'Abdomen']",
9,"[0.2, -0.2]",0.0,0,6,6,6,,,None,None,"[0, 0, 0]",846.2787864999846,848.2788231999148,846.2787864999846,847.2788108999375,847.2621591999196,848.262150799972,"[0, 0, 0]",1,846.2787864999846,848.2788231999148,,,,,,,,,,,,,,,,,,,9,F,2,13,R,MS MH,49,49,2022_Dec_15_1245,2020.2.10,distractmap2,59.9743669558746,"['Left Face', 'Abdomen', 'Left Face', 'Abdomen']",
6,"[0.2, 0]",1.0,0,7,7,7,,,None,None,"[0, 0, 0]",848.295507999952,850.2955640999135,848.295507999952,849.295575600001,849.2788863999303,850.2788403999293,"[0, 0, 0]",1,848.295507999952,850.2955640999135,,,,,,,,,,,,,,,,,,,9,F,2,13,R,MS MH,49,49,2022_Dec_15_1245,2020.2.10,distractmap2,59.9743669558746,"['Left Face', 'Abdomen', 'Left Face', 'Abdomen']",
3,"[0.2, 0.2]",0.0,0,8,8,8,,,None,None,"[0, 0, 0]",850.3122222999809,852.3121955000097,850.3122222999809,851.3122542999918,851.2955469998997,852.2955578999827,"[0, 0, 0]",1,850.3122222999809,852.3121955000097,,,,,,,,,,,,,,,,,,,9,F,2,13,R,MS MH,49,49,2022_Dec_15_1245,2020.2.10,distractmap2,59.9743669558746,"['Left Face', 'Abdomen', 'Left Face', 'Abdomen']",
9,"[0.2, -0.2]",0.0,0,9,9,9,,,None,None,"[0, 0, 0]",852.3288597000064,854.3289360000053,852.3288597000064,853.3288695999654,853.3122248,854.312249999959,"[0, 0, 0]",1,852.3288597000064,854.3289360000053,,,,,,,,,,,,,,,,,,,9,F,2,13,R,MS MH,49,49,2022_Dec_15_1245,2020.2.10,distractmap2,59.9743669558746,"['Left Face', 'Abdomen', 'Left Face', 'Abdomen']",
,,,,,,,,,,,,,,,,,,,,,,854.3622215999058,None,,,,,,,,,,,,,,,,,9,F,2,13,R,MS MH,49,49,2022_Dec_15_1245,2020.2.10,distractmap2,59.9743669558746,"['Left Face', 'Abdomen', 'Left Face', 'Abdomen']",
,,,,,,,,,,,,,,,,,,,,,,,,,,,,,,,,,,22.839506172839506,618.5259305997752,,,,,9,F,2,13,R,MS MH,49,49,2022_Dec_15_1245,2020.2.10,distractmap2,59.9743669558746,"['Left Face', 'Abdomen', 'Left Face', 'Abdomen']",
3,"[0.2, 0.2]",None,0,0,0,0,868.4290243999567,None,None,None,"[0, 0, 0]",874.4291358999908,None,874.4291358999908,875.429095099913,875.412409099983,None,"[0, 0, 0]",1,874.4291358999908,None,,,,,,,,,,,,,,,0.011962300166487694,5.006943500135094,,,9,F,2,13,R,MS MH,49,49,2022_Dec_15_1245,2020.2.10,distractmap2,59.9743669558746,"['Left Face', 'Abdomen', 'Left Face', 'Abdomen']",
9,"[0.2, -0.2]",None,0,1,1,1,,,None,None,"[0, 0, 0]",876.4124755999073,878.4124469999224,876.4124755999073,877.4125106999418,877.3958076999988,878.3957670999225,"[0, 0, 0]",1,876.4124755999073,878.4124469999224,,,,,,,,,,,,,,,,,,,9,F,2,13,R,MS MH,49,49,2022_Dec_15_1245,2020.2.10,distractmap2,59.9743669558746,"['Left Face', 'Abdomen', 'Left Face', 'Abdomen']",
3,"[0.2, 0.2]",1.0,0,2,2,2,,,None,None,"[0, 0, 0]",878.4291098999092,880.4291611999506,878.4291098999092,879.4291370999999,879.4124556999886,880.4124757999089,"[0, 0, 0]",1,878.4291098999092,880.4291611999506,,,,,,,,,,,,,,,,,,,9,F,2,13,R,MS MH,49,49,2022_Dec_15_1245,2020.2.10,distractmap2,59.9743669558746,"['Left Face', 'Abdomen', 'Left Face', 'Abdomen']",
7,"[-0.2, -0.2]",0.0,0,3,3,3,,,None,None,"[0, 0, 0]",880.4457948999479,882.4458355999086,880.4457948999479,881.4458102999488,881.4291620999575,882.4291658999864,"[0, 0, 0]",1,880.4457948999479,882.4458355999086,,,,,,,,,,,,,,,,,,,9,F,2,13,R,MS MH,49,49,2022_Dec_15_1245,2020.2.10,distractmap2,59.9743669558746,"['Left Face', 'Abdomen', 'Left Face', 'Abdomen']",
8,"[0, -0.2]",0.0,0,4,4,4,,,None,None,"[0, 0, 0]",882.4957817000104,None,882.4957817000104,883.4958321999293,883.4791633000132,None,"[0, 0, 0]",1,882.4957817000104,None,,,,,,,,,,,,,,,,,,,9,F,2,13,R,MS MH,49,49,2022_Dec_15_1245,2020.2.10,distractmap2,59.9743669558746,"['Left Face', 'Abdomen', 'Left Face', 'Abdomen']",
4,"[-0.2, 0]",0.0,0,5,5,5,,,None,None,"[0, 0, 0]",884.4791675999295,886.4791691999417,884.4791675999295,885.4791799999075,885.4625147999031,886.4625238999724,"[0, 0, 0]",1,884.4791675999295,886.4791691999417,,,,,,,,,,,,,,,,,,,9,F,2,13,R,MS MH,49,49,2022_Dec_15_1245,2020.2.10,distractmap2,59.9743669558746,"['Left Face', 'Abdomen', 'Left Face', 'Abdomen']",
4,"[-0.2, 0]",0.0,0,6,6,6,,,None,None,"[0, 0, 0]",886.4958327999339,888.4958982999669,886.4958327999339,887.495836099959,887.4792060999898,888.479217599961,"[0, 0, 0]",1,886.4958327999339,888.4958982999669,,,,,,,,,,,,,,,,,,,9,F,2,13,R,MS MH,49,49,2022_Dec_15_1245,2020.2.10,distractmap2,59.9743669558746,"['Left Face', 'Abdomen', 'Left Face', 'Abdomen']",
1,"[-0.2, 0.2]",0.0,0,7,7,7,,,None,None,"[0, 0, 0]",888.5125645999797,890.5126140000066,888.5125645999797,889.5126246999716,889.4959352998994,890.4959424999543,"[0, 0, 0]",1,888.5125645999797,890.5126140000066,,,,,,,,,,,,,,,,,,,9,F,2,13,R,MS MH,49,49,2022_Dec_15_1245,2020.2.10,distractmap2,59.9743669558746,"['Left Face', 'Abdomen', 'Left Face', 'Abdomen']",
4,"[-0.2, 0]",1.0,0,8,8,8,,,None,None,"[0, 0, 0]",890.5292861999478,892.5292572999606,890.5292861999478,891.5292468999978,891.5126242999686,892.5125017999671,"[0, 0, 0]",1,890.5292861999478,892.5292572999606,,,,,,,,,,,,,,,,,,,9,F,2,13,R,MS MH,49,49,2022_Dec_15_1245,2020.2.10,distractmap2,59.9743669558746,"['Left Face', 'Abdomen', 'Left Face', 'Abdomen']",
8,"[0, -0.2]",0.0,0,9,9,9,,,None,None,"[0, 0, 0]",892.5459102999885,894.5459774999181,892.5459102999885,893.5459467999171,893.5292550999438,894.5293057999806,"[0, 0, 0]",1,892.5459102999885,894.5459774999181,,,,,,,,,,,,,,,,,,,9,F,2,13,R,MS MH,49,49,2022_Dec_15_1245,2020.2.10,distractmap2,59.9743669558746,"['Left Face', 'Abdomen', 'Left Face', 'Abdomen']",
,,,,,,,,,,,,,,,,,,,,,,894.5793203999056,None,,,,,,,,,,,,,,,,,9,F,2,13,R,MS MH,49,49,2022_Dec_15_1245,2020.2.10,distractmap2,59.9743669558746,"['Left Face', 'Abdomen', 'Left Face', 'Abdomen']",
,,,,,,,,,,,,,,,,,,,,,,,,,,,,,,,,,,21.85185185185185,658.7096415999113,,,,,9,F,2,13,R,MS MH,49,49,2022_Dec_15_1245,2020.2.10,distractmap2,59.9743669558746,"['Left Face', 'Abdomen', 'Left Face', 'Abdomen']",
,,,,,,,1019.597053400008,None,,,,,,,,,,,,,,,,,,,,,,,,,,63.641975308641975,783.2564920999575,0.011918400065042078,5.006809600046836,999.5969394999556,None,9,F,2,13,R,MS MH,49,49,2022_Dec_15_1245,2020.2.10,distractmap2,59.9743669558746,"['Left Face', 'Abdomen', 'Left Face', 'Abdomen']",
,,,,,,,1054.6141373999417,None,,,,,,,,,,,,,,,,,,,,,,,,,,69.87654320987656,819.8258914999897,0.016206100000999868,5.015174099942669,1034.613888099906,None,9,F,2,13,R,MS MH,49,49,2022_Dec_15_1245,2020.2.10,distractmap2,59.9743669558746,"['Left Face', 'Abdomen', 'Left Face', 'Abdomen']",
,,,,,,,1089.6310887999134,None,,,,,,,,,,,,,,,,,,,,,,,,,,71.23456790123456,857.4595868999604,0.01379220001399517,5.0105601999675855,1069.6308951999526,None,9,F,2,13,R,MS MH,49,49,2022_Dec_15_1245,2020.2.10,distractmap2,59.9743669558746,"['Left Face', 'Abdomen', 'Left Face', 'Abdomen']",
2,"[0, 0.2]",None,0,0,0,0,1104.6645745999413,None,None,None,"[0, 0, 0]",1109.6812903999817,None,1109.6812903999817,1110.6812489998993,1110.6646296000108,1111.6646288000047,"[0, 0, 0]",1,1109.6812903999817,None,,,,,,,,,,,,,,,0.013819299987517297,5.010860200040042,,,9,F,2,13,R,MS MH,49,49,2022_Dec_15_1245,2020.2.10,distractmap2,59.9743669558746,"['Left Face', 'Abdomen', 'Left Face', 'Abdomen']",
5,"[0, 0]",None,0,1,1,1,,,None,None,"[0, 0, 0]",1111.6812492999015,1113.681359799928,1111.6812492999015,1112.6813188999658,1112.6646808999358,1113.6646858999738,"[0, 0, 0]",1,1111.6812492999015,1113.681359799928,,,,,,,,,,,,,,,,,,,9,F,2,13,R,MS MH,49,49,2022_Dec_15_1245,2020.2.10,distractmap2,59.9743669558746,"['Left Face', 'Abdomen', 'Left Face', 'Abdomen']",
3,"[0.2, 0.2]",0.0,0,2,2,2,,,None,None,"[0, 0, 0]",1113.6980005999794,1115.6979883000022,1113.6980005999794,1114.6980186,1114.6813748999266,1115.68133079994,"[0, 0, 0]",1,1113.6980005999794,1115.6979883000022,,,,,,,,,,,,,,,,,,,9,F,2,13,R,MS MH,49,49,2022_Dec_15_1245,2020.2.10,distractmap2,59.9743669558746,"['Left Face', 'Abdomen', 'Left Face', 'Abdomen']",
5,"[0, 0]",1.0,0,3,3,3,,,None,None,"[0, 0, 0]",1115.7146298999432,1117.7146543000126,1115.7146298999432,1116.7146432999289,1116.6979848999763,1117.6980172999902,"[0, 0, 0]",0,1115.7146298999432,1117.7146543000126,,,,,,,,,,,,,,,,,,,9,F,2,13,R,MS MH,49,49,2022_Dec_15_1245,2020.2.10,distractmap2,59.9743669558746,"['Left Face', 'Abdomen', 'Left Face', 'Abdomen']",
2,"[0, 0.2]",0.0,0,4,4,4,,,None,None,"[0, 0, 0]",1117.7313496000133,1119.731362999999,1117.7313496000133,1118.731354599935,1118.7149476999184,1119.7146740999306,"[0, 0, 0]",1,1117.7313496000133,1119.731362999999,,,,,,,,,,,,,,,,,,,9,F,2,13,R,MS MH,49,49,2022_Dec_15_1245,2020.2.10,distractmap2,59.9743669558746,"['Left Face', 'Abdomen', 'Left Face', 'Abdomen']",
8,"[0, -0.2]",0.0,0,5,5,5,,,None,None,"[0, 0, 0]",1119.748021999956,1121.7480706999777,1119.748021999956,1120.7481420999393,1120.731359599973,1121.7313773999922,"[0, 0, 0]",1,1119.748021999956,1121.7480706999777,,,,,,,,,,,,,,,,,,,9,F,2,13,R,MS MH,49,49,2022_Dec_15_1245,2020.2.10,distractmap2,59.9743669558746,"['Left Face', 'Abdomen', 'Left Face', 'Abdomen']",
4,"[-0.2, 0]",0.0,0,6,6,6,,,None,None,"[0, 0, 0]",1121.764710899908,1123.764743699925,1121.764710899908,1122.7647107999073,1122.7480605999008,1123.7480943999253,"[0, 0, 0]",1,1121.764710899908,1123.764743699925,,,,,,,,,,,,,,,,,,,9,F,2,13,R,MS MH,49,49,2022_Dec_15_1245,2020.2.10,distractmap2,59.9743669558746,"['Left Face', 'Abdomen', 'Left Face', 'Abdomen']",
8,"[0, -0.2]",1.0,0,7,7,7,,,None,None,"[0, 0, 0]",1123.7813874999993,1125.7814557999372,1123.7813874999993,1124.7814043000108,1124.764723500004,1125.7647475999547,"[0, 0, 0]",1,1123.7813874999993,1125.7814557999372,,,,,,,,,,,,,,,,,,,9,F,2,13,R,MS MH,49,49,2022_Dec_15_1245,2020.2.10,distractmap2,59.9743669558746,"['Left Face', 'Abdomen', 'Left Face', 'Abdomen']",
7,"[-0.2, -0.2]",0.0,0,8,8,8,,,None,None,"[0, 0, 0]",1125.7980954999803,1127.7981160999043,1125.7980954999803,1126.7981023999164,1126.7814930999884,1127.7814357999014,"[0, 0, 0]",1,1125.7980954999803,1127.7981160999043,,,,,,,,,,,,,,,,,,,9,F,2,13,R,MS MH,49,49,2022_Dec_15_1245,2020.2.10,distractmap2,59.9743669558746,"['Left Face', 'Abdomen', 'Left Face', 'Abdomen']",
8,"[0, -0.2]",1.0,0,9,9,9,,,None,None,"[0, 0, 0]",1127.8147729999619,1129.8148007999407,1127.8147729999619,1128.8147885999642,1128.7981069999514,1129.7981214999454,"[0, 0, 0]",1,1127.8147729999619,1129.8148007999407,,,,,,,,,,,,,,,,,,,9,F,2,13,R,MS MH,49,49,2022_Dec_15_1245,2020.2.10,distractmap2,59.9743669558746,"['Left Face', 'Abdomen', 'Left Face', 'Abdomen']",
,,,,,,,,,,,,,,,,,,,,,,1129.8481683999998,None,,,,,,,,,,,,,,,,,9,F,2,13,R,MS MH,49,49,2022_Dec_15_1245,2020.2.10,distractmap2,59.9743669558746,"['Left Face', 'Abdomen', 'Left Face', 'Abdomen']",
2,"[0, 0.2]",None,0,0,0,0,1139.881591699901,None,None,None,"[0, 0, 0]",1144.8983483999036,None,1144.8983483999036,1145.8982913999353,1145.881627799943,1146.881626599934,"[0, 0, 0]",1,1144.8983483999036,None,,,,,,,,,,,,,,,,,,,9,F,2,13,R,MS MH,49,49,2022_Dec_15_1245,2020.2.10,distractmap2,59.9743669558746,"['Left Face', 'Abdomen', 'Left Face', 'Abdomen']",
2,"[0, 0.2]",None,0,1,1,1,,,None,None,"[0, 0, 0]",1146.8981805999065,1148.8982820999809,1146.8981805999065,1147.8982946999604,1147.881675099954,1148.8816480999812,"[0, 0, 0]",1,1146.8981805999065,1148.8982820999809,,,,,,,,,,,,,,,,,,,9,F,2,13,R,MS MH,49,49,2022_Dec_15_1245,2020.2.10,distractmap2,59.9743669558746,"['Left Face', 'Abdomen', 'Left Face', 'Abdomen']",
2,"[0, 0.2]",1.0,0,2,2,2,,,None,None,"[0, 0, 0]",1148.9149772999808,1150.914990499965,1148.9149772999808,1149.9149710999336,1149.8983371999348,1150.8983134999871,"[0, 0, 0]",1,1148.9149772999808,1150.914990499965,,,,,,,,,,,,,,,,,,,9,F,2,13,R,MS MH,49,49,2022_Dec_15_1245,2020.2.10,distractmap2,59.9743669558746,"['Left Face', 'Abdomen', 'Left Face', 'Abdomen']",
8,"[0, -0.2]",0.0,0,3,3,3,,,None,None,"[0, 0, 0]",1150.9316496999236,1152.9316755000036,1150.9316496999236,1151.9316686999518,1151.9150063999696,1152.914995500003,"[0, 0, 0]",1,1150.9316496999236,1152.9316755000036,,,,,,,,,,,,,,,,,,,9,F,2,13,R,MS MH,49,49,2022_Dec_15_1245,2020.2.10,distractmap2,59.9743669558746,"['Left Face', 'Abdomen', 'Left Face', 'Abdomen']",
2,"[0, 0.2]",1.0,0,4,4,4,,,None,None,"[0, 0, 0]",1152.9483532999875,1154.9483996999916,1152.9483532999875,1153.9484010000015,1153.931670699967,1154.9317319999682,"[0, 0, 0]",1,1152.9483532999875,1154.9483996999916,,,,,,,,,,,,,,,,,,,9,F,2,13,R,MS MH,49,49,2022_Dec_15_1245,2020.2.10,distractmap2,59.9743669558746,"['Left Face', 'Abdomen', 'Left Face', 'Abdomen']",
5,"[0, 0]",0.0,0,5,5,5,,,None,None,"[0, 0, 0]",1154.9650720999343,1156.9650703999214,1154.9650720999343,1155.9650903999573,1155.9484492999036,1156.9484501999104,"[0, 0, 0]",1,1154.9650720999343,1156.9650703999214,,,,,,,,,,,,,,,,,,,9,F,2,13,R,MS MH,49,49,2022_Dec_15_1245,2020.2.10,distractmap2,59.9743669558746,"['Left Face', 'Abdomen', 'Left Face', 'Abdomen']",
1,"[-0.2, 0.2]",0.0,0,6,6,6,,,None,None,"[0, 0, 0]",1156.9817466000095,1158.9815895999782,1156.9817466000095,1157.9817729999777,1157.9651001999155,1158.965056499932,"[0, 0, 0]",1,1156.9817466000095,1158.9815895999782,,,,,,,,,,,,,,,,,,,9,F,2,13,R,MS MH,49,49,2022_Dec_15_1245,2020.2.10,distractmap2,59.9743669558746,"['Left Face', 'Abdomen', 'Left Face', 'Abdomen']",
1,"[-0.2, 0.2]",0.0,0,7,7,7,,,None,None,"[0, 0, 0]",1158.9983859999338,1160.9984268000117,1158.9983859999338,1159.9983845999232,1159.981725199963,1160.9817426999798,"[0, 0, 0]",1,1158.9983859999338,1160.9984268000117,,,,,,,,,,,,,,,,,,,9,F,2,13,R,MS MH,49,49,2022_Dec_15_1245,2020.2.10,distractmap2,59.9743669558746,"['Left Face', 'Abdomen', 'Left Face', 'Abdomen']",
6,"[0.2, 0]",0.0,0,8,8,8,,,None,None,"[0, 0, 0]",1161.0150941999163,1163.0151412999257,1161.0150941999163,1162.0150628999108,1161.9983930999879,1162.9984602999175,"[0, 0, 0]",1,1161.0150941999163,1163.0151412999257,,,,,,,,,,,,,,,,,,,9,F,2,13,R,MS MH,49,49,2022_Dec_15_1245,2020.2.10,distractmap2,59.9743669558746,"['Left Face', 'Abdomen', 'Left Face', 'Abdomen']",
1,"[-0.2, 0.2]",1.0,0,9,9,9,,,None,None,"[0, 0, 0]",1163.0318044999149,1165.031777099939,1163.0318044999149,1164.0317891999148,1164.0151303999592,1165.0151278999401,"[0, 0, 0]",1,1163.0318044999149,1165.031777099939,,,,,,,,,,,,,,,,,,,9,F,2,13,R,MS MH,49,49,2022_Dec_15_1245,2020.2.10,distractmap2,59.9743669558746,"['Left Face', 'Abdomen', 'Left Face', 'Abdomen']",
,,,,,,,,,,,,,,,,,,,,,,1165.0651163998991,None,,,,,,,,,,,,,,,,,9,F,2,13,R,MS MH,49,49,2022_Dec_15_1245,2020.2.10,distractmap2,59.9743669558746,"['Left Face', 'Abdomen', 'Left Face', 'Abdomen']",
3,"[0.2, 0.2]",None,0,0,0,0,1177.0985774999717,None,None,None,"[0, 0, 0]",1180.115298599936,None,1180.115298599936,1181.1152652999153,1181.0986253999872,1182.0986143999035,"[0, 0, 0]",1,1180.115298599936,None,,,,,,,,,,,,,,,,,,,9,F,2,13,R,MS MH,49,49,2022_Dec_15_1245,2020.2.10,distractmap2,59.9743669558746,"['Left Face', 'Abdomen', 'Left Face', 'Abdomen']",
3,"[0.2, 0.2]",None,0,1,1,1,,,None,None,"[0, 0, 0]",1182.1152705999557,1184.1152823999291,1182.1152705999557,1183.1152932000114,1183.0986480999272,1184.0986292999005,"[0, 0, 0]",1,1182.1152705999557,1184.1152823999291,,,,,,,,,,,,,,,,,,,9,F,2,13,R,MS MH,49,49,2022_Dec_15_1245,2020.2.10,distractmap2,59.9743669558746,"['Left Face', 'Abdomen', 'Left Face', 'Abdomen']",
5,"[0, 0]",0.0,0,2,2,2,,,None,None,"[0, 0, 0]",1184.131960599916,1186.132031199988,1184.131960599916,1185.131975999917,1185.1152975999285,1186.1153810999822,"[0, 0, 0]",1,1184.131960599916,1186.132031199988,,,,,,,,,,,,,,,,,,,9,F,2,13,R,MS MH,49,49,2022_Dec_15_1245,2020.2.10,distractmap2,59.9743669558746,"['Left Face', 'Abdomen', 'Left Face', 'Abdomen']",
1,"[-0.2, 0.2]",0.0,0,3,3,3,,,None,None,"[0, 0, 0]",1186.1486804999877,1188.1486436999403,1186.1486804999877,1187.1486472999677,1187.1319907999132,1188.1319906999124,"[0, 0, 0]",1,1186.1486804999877,1188.1486436999403,,,,,,,,,,,,,,,,,,,9,F,2,13,R,MS MH,49,49,2022_Dec_15_1245,2020.2.10,distractmap2,59.9743669558746,"['Left Face', 'Abdomen', 'Left Face', 'Abdomen']",
5,"[0, 0]",1.0,0,4,4,4,,,None,None,"[0, 0, 0]",1188.165323699941,1190.1653468000004,1188.165323699941,1189.1653366999235,1189.1486516000004,1190.148679899983,"[0, 0, 0]",1,1188.165323699941,1190.1653468000004,,,,,,,,,,,,,,,,,,,9,F,2,13,R,MS MH,49,49,2022_Dec_15_1245,2020.2.10,distractmap2,59.9743669558746,"['Left Face', 'Abdomen', 'Left Face', 'Abdomen']",
8,"[0, -0.2]",0.0,0,5,5,5,,,None,None,"[0, 0, 0]",1190.1819990999065,1192.1820330999326,1190.1819990999065,1191.1820384999737,1191.1654050999787,1192.1653657999123,"[0, 0, 0]",1,1190.1819990999065,1192.1820330999326,,,,,,,,,,,,,,,,,,,9,F,2,13,R,MS MH,49,49,2022_Dec_15_1245,2020.2.10,distractmap2,59.9743669558746,"['Left Face', 'Abdomen', 'Left Face', 'Abdomen']",
5,"[0, 0]",1.0,0,6,6,6,,,None,None,"[0, 0, 0]",1192.1986985999392,1194.1987006999552,1192.1986985999392,1193.1987730999244,1193.1820512999548,1194.1820779999252,"[0, 0, 0]",1,1192.1986985999392,1194.1987006999552,,,,,,,,,,,,,,,,,,,9,F,2,13,R,MS MH,49,49,2022_Dec_15_1245,2020.2.10,distractmap2,59.9743669558746,"['Left Face', 'Abdomen', 'Left Face', 'Abdomen']",
7,"[-0.2, -0.2]",0.0,0,7,7,7,,,None,None,"[0, 0, 0]",1194.2153979999712,1196.215383599978,1194.2153979999712,1195.2153754999163,1195.1987411999144,1196.1987332999706,"[0, 0, 0]",1,1194.2153979999712,1196.215383599978,,,,,,,,,,,,,,,,,,,9,F,2,13,R,MS MH,49,49,2022_Dec_15_1245,2020.2.10,distractmap2,59.9743669558746,"['Left Face', 'Abdomen', 'Left Face', 'Abdomen']",
5,"[0, 0]",1.0,0,8,8,8,,,None,None,"[0, 0, 0]",1196.2320534999017,1198.2320998999057,1196.2320534999017,1197.2320855999133,1197.215439499938,1198.2154267999576,"[0, 0, 0]",0,1196.2320534999017,1198.2320998999057,,,,,,,,,,,,,,,,,,,9,F,2,13,R,MS MH,49,49,2022_Dec_15_1245,2020.2.10,distractmap2,59.9743669558746,"['Left Face', 'Abdomen', 'Left Face', 'Abdomen']",
7,"[-0.2, -0.2]",1.0,0,9,9,9,,,None,None,"[0, 0, 0]",1198.2487621000037,1200.248745399993,1198.2487621000037,1199.2487486999016,1199.2321074999636,1200.232115999912,"[0, 0, 0]",1,1198.2487621000037,1200.248745399993,,,,,,,,,,,,,,,,,,,9,F,2,13,R,MS MH,49,49,2022_Dec_15_1245,2020.2.10,distractmap2,59.9743669558746,"['Left Face', 'Abdomen', 'Left Face', 'Abdomen']",
,,,,,,,,,,,,,,,,,,,,,,1200.2821248999098,None,,,,,,,,,,,,,,,,,9,F,2,13,R,MS MH,49,49,2022_Dec_15_1245,2020.2.10,distractmap2,59.9743669558746,"['Left Face', 'Abdomen', 'Left Face', 'Abdomen']",
6,"[0.2, 0]",None,0,0,0,0,1408.3007440000074,None,None,None,"[0, 0, 0]",1415.3174754999345,None,1415.3174754999345,1416.3174912999384,1416.300805100007,1417.3006985000102,"[0, 0, 0]",1,1415.3174754999345,None,,,,,,1245.1661826999625,1245.1661826999625,None,space,128.7887295000255,1245.1661826999625,None,,,,,,,9,F,2,13,R,MS MH,49,49,2022_Dec_15_1245,2020.2.10,distractmap2,59.9743669558746,"['Left Face', 'Abdomen', 'Left Face', 'Abdomen']",
1,"[-0.2, 0.2]",None,0,1,1,1,,,None,None,"[0, 0, 0]",1417.3175142999971,1419.317497799988,1417.3175142999971,1418.3175108999712,1418.3007938999217,1419.3008026999887,"[0, 0, 0]",1,1417.3175142999971,1419.317497799988,,,,,,,,,,,,,,,,,,,9,F,2,13,R,MS MH,49,49,2022_Dec_15_1245,2020.2.10,distractmap2,59.9743669558746,"['Left Face', 'Abdomen', 'Left Face', 'Abdomen']",
6,"[0.2, 0]",1.0,0,2,2,2,,,None,None,"[0, 0, 0]",1419.3341599999694,1421.3342030999484,1419.3341599999694,1420.3342003999278,1420.3175679999404,1421.3175206999294,"[0, 0, 0]",1,1419.3341599999694,1421.3342030999484,,,,,,,,,,,,,,,,,,,9,F,2,13,R,MS MH,49,49,2022_Dec_15_1245,2020.2.10,distractmap2,59.9743669558746,"['Left Face', 'Abdomen', 'Left Face', 'Abdomen']",
4,"[-0.2, 0]",0.0,0,3,3,3,,,None,None,"[0, 0, 0]",1421.3508443000028,1423.3509063000092,1421.3508443000028,1422.3508638999192,1422.334202799946,1423.3342119998997,"[0, 0, 0]",1,1421.3508443000028,1423.3509063000092,,,,,,,,,,,,,,,,,,,9,F,2,13,R,MS MH,49,49,2022_Dec_15_1245,2020.2.10,distractmap2,59.9743669558746,"['Left Face', 'Abdomen', 'Left Face', 'Abdomen']",
1,"[-0.2, 0.2]",0.0,0,4,4,4,,,None,None,"[0, 0, 0]",1423.3674624999985,1425.3676985999336,1423.3674624999985,1424.367625099956,1424.350923699909,1425.3509289999492,"[0, 0, 0]",0,1423.3674624999985,1425.3676985999336,,,,,,,,,,,,,,,,,,,9,F,2,13,R,MS MH,49,49,2022_Dec_15_1245,2020.2.10,distractmap2,59.9743669558746,"['Left Face', 'Abdomen', 'Left Face', 'Abdomen']",
8,"[0, -0.2]",0.0,0,5,5,5,,,None,None,"[0, 0, 0]",1425.3842637999915,1427.3842361000134,1425.3842637999915,1426.3842471999815,1426.3676001999993,1427.3674391999375,"[0, 0, 0]",1,1425.3842637999915,1427.3842361000134,,,,,,,,,,,,,,,,,,,9,F,2,13,R,MS MH,49,49,2022_Dec_15_1245,2020.2.10,distractmap2,59.9743669558746,"['Left Face', 'Abdomen', 'Left Face', 'Abdomen']",
1,"[-0.2, 0.2]",1.0,0,6,6,6,,,None,None,"[0, 0, 0]",1427.4009087999584,1429.4009496999206,1427.4009087999584,1428.4009046999272,1428.3842619999778,1429.384257299942,"[0, 0, 0]",0,1427.4009087999584,1429.4009496999206,,,,,,,,,,,,,,,,,,,9,F,2,13,R,MS MH,49,49,2022_Dec_15_1245,2020.2.10,distractmap2,59.9743669558746,"['Left Face', 'Abdomen', 'Left Face', 'Abdomen']",
8,"[0, -0.2]",1.0,0,7,7,7,,,None,None,"[0, 0, 0]",1429.417596199899,1431.4176325999433,1429.417596199899,1430.4176187999547,1430.4009428999852,1431.4009456000058,"[0, 0, 0]",1,1429.417596199899,1431.4176325999433,,,,,,,,,,,,,,,,,,,9,F,2,13,R,MS MH,49,49,2022_Dec_15_1245,2020.2.10,distractmap2,59.9743669558746,"['Left Face', 'Abdomen', 'Left Face', 'Abdomen']",
1,"[-0.2, 0.2]",1.0,0,8,8,8,,,None,None,"[0, 0, 0]",1431.4342759000137,1433.4343138999538,1431.4342759000137,1432.4342941999203,1432.4176092999987,1433.4176558000036,"[0, 0, 0]",1,1431.4342759000137,1433.4343138999538,,,,,,,,,,,,,,,,,,,9,F,2,13,R,MS MH,49,49,2022_Dec_15_1245,2020.2.10,distractmap2,59.9743669558746,"['Left Face', 'Abdomen', 'Left Face', 'Abdomen']",
6,"[0.2, 0]",0.0,0,9,9,9,,,None,None,"[0, 0, 0]",1433.4509477999527,1435.4509872999042,1433.4509477999527,1434.4509769999422,1434.4343010999728,1435.4343297999585,"[0, 0, 0]",1,1433.4509477999527,1435.4509872999042,,,,,,,,,,,,,,,,,,,9,F,2,13,R,MS MH,49,49,2022_Dec_15_1245,2020.2.10,distractmap2,59.9743669558746,"['Left Face', 'Abdomen', 'Left Face', 'Abdomen']",
,,,,,,,,,,,,,,,,,,,,,,1435.484383599949,None,,,,,,,,,,,,,,,,,9,F,2,13,R,MS MH,49,49,2022_Dec_15_1245,2020.2.10,distractmap2,59.9743669558746,"['Left Face', 'Abdomen', 'Left Face', 'Abdomen']",
7,"[-0.2, -0.2]",None,0,0,0,0,1447.5177816000069,None,None,None,"[0, 0, 0]",1450.5345320999622,None,1450.5345320999622,1451.5344910999993,1451.5177797999931,1452.5178200999508,"[0, 0, 0]",1,1450.5345320999622,None,,,,,,,,,,,,,,,,,,,9,F,2,13,R,MS MH,49,49,2022_Dec_15_1245,2020.2.10,distractmap2,59.9743669558746,"['Left Face', 'Abdomen', 'Left Face', 'Abdomen']",
7,"[-0.2, -0.2]",None,0,1,1,1,,,None,None,"[0, 0, 0]",1452.534502799972,1454.534508499899,1452.534502799972,1453.5345043999841,1453.517826299998,1454.5178222999675,"[0, 0, 0]",1,1452.534502799972,1454.534508499899,,,,,,,,,,,,,,,,,,,9,F,2,13,R,MS MH,49,49,2022_Dec_15_1245,2020.2.10,distractmap2,59.9743669558746,"['Left Face', 'Abdomen', 'Left Face', 'Abdomen']",
7,"[-0.2, -0.2]",1.0,0,2,2,2,,,None,None,"[0, 0, 0]",1454.5511669999687,1456.5511799999513,1454.5511669999687,1455.5511802999536,1455.534562899964,1456.534538900014,"[0, 0, 0]",1,1454.5511669999687,1456.5511799999513,,,,,,,,,,,,,,,,,,,9,F,2,13,R,MS MH,49,49,2022_Dec_15_1245,2020.2.10,distractmap2,59.9743669558746,"['Left Face', 'Abdomen', 'Left Face', 'Abdomen']",
5,"[0, 0]",0.0,0,3,3,3,,,None,None,"[0, 0, 0]",1456.56785449991,1458.5678690999048,1456.56785449991,1457.5678534999024,1457.5511936999392,1458.5512009999948,"[0, 0, 0]",1,1456.56785449991,1458.5678690999048,,,,,,,,,,,,,,,,,,,9,F,2,13,R,MS MH,49,49,2022_Dec_15_1245,2020.2.10,distractmap2,59.9743669558746,"['Left Face', 'Abdomen', 'Left Face', 'Abdomen']",
1,"[-0.2, 0.2]",0.0,0,4,4,4,,,None,None,"[0, 0, 0]",1458.5845537999412,1460.5845585999778,1458.5845537999412,1459.584563799901,1459.5678631999763,1460.5678958999924,"[0, 0, 0]",1,1458.5845537999412,1460.5845585999778,,,,,,,,,,,,,,,,,,,9,F,2,13,R,MS MH,49,49,2022_Dec_15_1245,2020.2.10,distractmap2,59.9743669558746,"['Left Face', 'Abdomen', 'Left Face', 'Abdomen']",
6,"[0.2, 0]",0.0,0,5,5,5,,,None,None,"[0, 0, 0]",1460.6012222999707,1462.6012228999753,1460.6012222999707,1461.6012396999868,1461.5845864999574,1462.584589599981,"[0, 0, 0]",1,1460.6012222999707,1462.6012228999753,,,,,,,,,,,,,,,,,,,9,F,2,13,R,MS MH,49,49,2022_Dec_15_1245,2020.2.10,distractmap2,59.9743669558746,"['Left Face', 'Abdomen', 'Left Face', 'Abdomen']",
1,"[-0.2, 0.2]",1.0,0,6,6,6,,,None,None,"[0, 0, 0]",1462.6179121999303,1464.617911099922,1462.6179121999303,1463.61791479995,1463.6012610999169,1464.6012696999824,"[0, 0, 0]",1,1462.6179121999303,1464.617911099922,,,,,,,,,,,,,,,,,,,9,F,2,13,R,MS MH,49,49,2022_Dec_15_1245,2020.2.10,distractmap2,59.9743669558746,"['Left Face', 'Abdomen', 'Left Face', 'Abdomen']",
7,"[-0.2, -0.2]",0.0,0,7,7,7,,,None,None,"[0, 0, 0]",1464.6345874000108,1466.6346391999396,1464.6345874000108,1465.6346707999473,1465.617946299957,1466.6179643999785,"[0, 0, 0]",1,1464.6345874000108,1466.6346391999396,,,,,,,,,,,,,,,,,,,9,F,2,13,R,MS MH,49,49,2022_Dec_15_1245,2020.2.10,distractmap2,59.9743669558746,"['Left Face', 'Abdomen', 'Left Face', 'Abdomen']",
6,"[0.2, 0]",0.0,0,8,8,8,,,None,None,"[0, 0, 0]",1466.6512768999673,1468.6513231999706,1466.6512768999673,1467.6513269999996,1467.6347105999012,1468.6346237999387,"[0, 0, 0]",0,1466.6512768999673,1468.6513231999706,,,,,,,,,,,,,,,,,,,9,F,2,13,R,MS MH,49,49,2022_Dec_15_1245,2020.2.10,distractmap2,59.9743669558746,"['Left Face', 'Abdomen', 'Left Face', 'Abdomen']",
7,"[-0.2, -0.2]",1.0,0,9,9,9,,,None,None,"[0, 0, 0]",1468.6679670999292,1470.6680031999713,1468.6679670999292,1469.667959399987,1469.6513216999592,1470.6513249999844,"[0, 0, 0]",1,1468.6679670999292,1470.6680031999713,,,,,,,,,,,,,,,,,,,9,F,2,13,R,MS MH,49,49,2022_Dec_15_1245,2020.2.10,distractmap2,59.9743669558746,"['Left Face', 'Abdomen', 'Left Face', 'Abdomen']",
,,,,,,,,,,,,,,,,,,,,,,1470.7013391999062,None,,,,,,,,,,,,,,,,,9,F,2,13,R,MS MH,49,49,2022_Dec_15_1245,2020.2.10,distractmap2,59.9743669558746,"['Left Face', 'Abdomen', 'Left Face', 'Abdomen']",
4,"[-0.2, 0]",None,0,0,0,0,1480.7347386999754,None,None,None,"[0, 0, 0]",1485.7515503999311,None,1485.7515503999311,1486.7514597999398,1486.7347898000153,1487.7348122999538,"[0, 0, 0]",1,1485.7515503999311,None,,,,,,,,,,,,,,,,,,,9,F,2,13,R,MS MH,49,49,2022_Dec_15_1245,2020.2.10,distractmap2,59.9743669558746,"['Left Face', 'Abdomen', 'Left Face', 'Abdomen']",
5,"[0, 0]",None,0,1,1,1,,,None,None,"[0, 0, 0]",1487.7514561999124,1489.751531799906,1487.7514561999124,1488.751505299937,1488.7348225999158,1489.7346923999721,"[0, 0, 0]",1,1487.7514561999124,1489.751531799906,,,,,,,,,,,,,,,,,,,9,F,2,13,R,MS MH,49,49,2022_Dec_15_1245,2020.2.10,distractmap2,59.9743669558746,"['Left Face', 'Abdomen', 'Left Face', 'Abdomen']",
6,"[0.2, 0]",0.0,0,2,2,2,,,None,None,"[0, 0, 0]",1489.7681683999253,1491.76818299992,1489.7681683999253,1490.7681733999634,1490.7515262999805,1491.7515124999918,"[0, 0, 0]",1,1489.7681683999253,1491.76818299992,,,,,,,,,,,,,,,,,,,9,F,2,13,R,MS MH,49,49,2022_Dec_15_1245,2020.2.10,distractmap2,59.9743669558746,"['Left Face', 'Abdomen', 'Left Face', 'Abdomen']",
1,"[-0.2, 0.2]",0.0,0,3,3,3,,,None,None,"[0, 0, 0]",1491.784701699973,1493.784928799956,1491.784701699973,1492.7848689999664,1492.768185099936,1493.768244399922,"[0, 0, 0]",1,1491.784701699973,1493.784928799956,,,,,,,,,,,,,,,,,,,9,F,2,13,R,MS MH,49,49,2022_Dec_15_1245,2020.2.10,distractmap2,59.9743669558746,"['Left Face', 'Abdomen', 'Left Face', 'Abdomen']",
6,"[0.2, 0]",1.0,0,4,4,4,,,None,None,"[0, 0, 0]",1493.801600900013,1495.801480999915,1493.801600900013,1494.8015859000152,1494.7849247999256,1495.784935100004,"[0, 0, 0]",1,1493.801600900013,1495.801480999915,,,,,,,,,,,,,,,,,,,9,F,2,13,R,MS MH,49,49,2022_Dec_15_1245,2020.2.10,distractmap2,59.9743669558746,"['Left Face', 'Abdomen', 'Left Face', 'Abdomen']",
1,"[-0.2, 0.2]",1.0,0,5,5,5,,,None,None,"[0, 0, 0]",1495.8182637999998,1497.8182127999607,1495.8182637999998,1496.8182333000004,1496.8015835999977,1497.801652999944,"[0, 0, 0]",1,1495.8182637999998,1497.8182127999607,,,,,,,,,,,,,,,,,,,9,F,2,13,R,MS MH,49,49,2022_Dec_15_1245,2020.2.10,distractmap2,59.9743669558746,"['Left Face', 'Abdomen', 'Left Face', 'Abdomen']",
2,"[0, 0.2]",0.0,0,6,6,6,,,None,None,"[0, 0, 0]",1497.8349377999548,1499.8349611999001,1497.8349377999548,1498.8349476999138,1498.8182397999335,1499.818254899932,"[0, 0, 0]",1,1497.8349377999548,1499.8349611999001,,,,,,,,,,,,,,,,,,,9,F,2,13,R,MS MH,49,49,2022_Dec_15_1245,2020.2.10,distractmap2,59.9743669558746,"['Left Face', 'Abdomen', 'Left Face', 'Abdomen']",
3,"[0.2, 0.2]",0.0,0,7,7,7,,,None,None,"[0, 0, 0]",1499.851619199966,1501.8515909999842,1499.851619199966,1500.8516252000118,1500.8349558999762,1501.8349622999085,"[0, 0, 0]",1,1499.851619199966,1501.8515909999842,,,,,,,,,,,,,,,,,,,9,F,2,13,R,MS MH,49,49,2022_Dec_15_1245,2020.2.10,distractmap2,59.9743669558746,"['Left Face', 'Abdomen', 'Left Face', 'Abdomen']",
6,"[0.2, 0]",0.0,0,8,8,8,,,None,None,"[0, 0, 0]",1501.868270499981,1503.8682321999222,1501.868270499981,1502.8682850999758,1502.8516844999976,1503.851704499917,"[0, 0, 0]",1,1501.868270499981,1503.8682321999222,,,,,,,,,,,,,,,,,,,9,F,2,13,R,MS MH,49,49,2022_Dec_15_1245,2020.2.10,distractmap2,59.9743669558746,"['Left Face', 'Abdomen', 'Left Face', 'Abdomen']",
3,"[0.2, 0.2]",1.0,0,9,9,9,,,None,None,"[0, 0, 0]",1503.885011699982,1505.8849777999567,1503.885011699982,1504.8849777999567,1504.8683060999028,1505.8683012999827,"[0, 0, 0]",1,1503.885011699982,1505.8849777999567,,,,,,,,,,,,,,,,,,,9,F,2,13,R,MS MH,49,49,2022_Dec_15_1245,2020.2.10,distractmap2,59.9743669558746,"['Left Face', 'Abdomen', 'Left Face', 'Abdomen']",
,,,,,,,,,,,,,,,,,,,,,,1505.9183047999395,None,,,,,,,,,,,,,,,,,9,F,2,13,R,MS MH,49,49,2022_Dec_15_1245,2020.2.10,distractmap2,59.9743669558746,"['Left Face', 'Abdomen', 'Left Face', 'Abdomen']",
2,"[0, 0.2]",None,0,0,0,0,1514.2186578999972,None,None,None,"[0, 0, 0]",1520.9851749999216,None,1520.9851749999216,1521.9851347999647,1521.968504199991,1522.968505900004,"[0, 0, 0]",1,1520.9851749999216,None,,,,,,,,,,,,,,,,,,,9,F,2,13,R,MS MH,49,49,2022_Dec_15_1245,2020.2.10,distractmap2,59.9743669558746,"['Left Face', 'Abdomen', 'Left Face', 'Abdomen']",
5,"[0, 0]",None,0,1,1,1,,,None,None,"[0, 0, 0]",1522.9851486999542,1524.9851620999398,1522.9851486999542,1523.9851448999252,1523.9685126999393,1524.9685420999303,"[0, 0, 0]",1,1522.9851486999542,1524.9851620999398,,,,,,,,,,,,,,,,,,,9,F,2,13,R,MS MH,49,49,2022_Dec_15_1245,2020.2.10,distractmap2,59.9743669558746,"['Left Face', 'Abdomen', 'Left Face', 'Abdomen']",
6,"[0.2, 0]",0.0,0,2,2,2,,,None,None,"[0, 0, 0]",1525.0018213000149,1527.0018421999412,1525.0018213000149,1526.001844799961,1525.9851824999787,1526.9851867000107,"[0, 0, 0]",1,1525.0018213000149,1527.0018421999412,,,,,,,,,,,,,,,,,,,9,F,2,13,R,MS MH,49,49,2022_Dec_15_1245,2020.2.10,distractmap2,59.9743669558746,"['Left Face', 'Abdomen', 'Left Face', 'Abdomen']",
1,"[-0.2, 0.2]",0.0,0,3,3,3,,,None,None,"[0, 0, 0]",1527.018507199944,1529.0185246999608,1527.018507199944,1528.0185709999641,1528.0018473999808,1529.0018501000013,"[0, 0, 0]",1,1527.018507199944,1529.0185246999608,,,,,,,,,,,,,,,,,,,9,F,2,13,R,MS MH,49,49,2022_Dec_15_1245,2020.2.10,distractmap2,59.9743669558746,"['Left Face', 'Abdomen', 'Left Face', 'Abdomen']",
6,"[0.2, 0]",1.0,0,4,4,4,,,None,None,"[0, 0, 0]",1529.0684862999478,None,1529.0684862999478,1530.0685274999123,1530.051882199943,None,"[0, 0, 0]",1,1529.0684862999478,None,,,,,,,,,,,,,,,,,,,9,F,2,13,R,MS MH,49,49,2022_Dec_15_1245,2020.2.10,distractmap2,59.9743669558746,"['Left Face', 'Abdomen', 'Left Face', 'Abdomen']",
6,"[0.2, 0]",0.0,0,5,5,5,,,None,None,"[0, 0, 0]",1531.0519423999358,1533.0519027999835,1531.0519423999358,1532.0518953999272,1532.035224799998,1533.0352171999402,"[0, 0, 0]",1,1531.0519423999358,1533.0519027999835,,,,,,,,,,,,,,,,,,,9,F,2,13,R,MS MH,49,49,2022_Dec_15_1245,2020.2.10,distractmap2,59.9743669558746,"['Left Face', 'Abdomen', 'Left Face', 'Abdomen']",
9,"[0.2, -0.2]",0.0,0,6,6,6,,,None,None,"[0, 0, 0]",1533.0685400000075,1535.0685782999499,1533.0685400000075,1534.0685754999286,1534.0519177999813,1535.0519216000102,"[0, 0, 0]",1,1533.0685400000075,1535.0685782999499,,,,,,,,,,,,,,,,,,,9,F,2,13,R,MS MH,49,49,2022_Dec_15_1245,2020.2.10,distractmap2,59.9743669558746,"['Left Face', 'Abdomen', 'Left Face', 'Abdomen']",
6,"[0.2, 0]",1.0,0,7,7,7,,,None,None,"[0, 0, 0]",1535.0852633999893,1537.0852770999772,1535.0852633999893,1536.0852655000053,1536.0686282999814,1537.068612699979,"[0, 0, 0]",1,1535.0852633999893,1537.0852770999772,,,,,,,,,,,,,,,,,,,9,F,2,13,R,MS MH,49,49,2022_Dec_15_1245,2020.2.10,distractmap2,59.9743669558746,"['Left Face', 'Abdomen', 'Left Face', 'Abdomen']",
3,"[0.2, 0.2]",0.0,0,8,8,8,,,None,None,"[0, 0, 0]",1537.1019444999984,1539.1020084999036,1537.1019444999984,1538.1019920000108,1538.0853325999342,1539.0853466999251,"[0, 0, 0]",1,1537.1019444999984,1539.1020084999036,,,,,,,,,,,,,,,,,,,9,F,2,13,R,MS MH,49,49,2022_Dec_15_1245,2020.2.10,distractmap2,59.9743669558746,"['Left Face', 'Abdomen', 'Left Face', 'Abdomen']",
9,"[0.2, -0.2]",0.0,0,9,9,9,,,None,None,"[0, 0, 0]",1539.1187004999956,1541.1186541999923,1539.1187004999956,1540.118657899904,1540.1019908000017,1541.1019991999492,"[0, 0, 0]",0,1539.1187004999956,1541.1186541999923,,,,,,,,,,,,,,,,,,,9,F,2,13,R,MS MH,49,49,2022_Dec_15_1245,2020.2.10,distractmap2,59.9743669558746,"['Left Face', 'Abdomen', 'Left Face', 'Abdomen']",
,,,,,,,,,,,,,,,,,,,,,,1541.1520049999235,None,,,,,,,,,,,,,,,,,9,F,2,13,R,MS MH,49,49,2022_Dec_15_1245,2020.2.10,distractmap2,59.9743669558746,"['Left Face', 'Abdomen', 'Left Face', 'Abdomen']",
,,,,,,,,,,,,,,,,,,,,,,,,,,,,,,,,,,22.962962962962962,1305.2481317999773,,,,,9,F,2,13,R,MS MH,49,49,2022_Dec_15_1245,2020.2.10,distractmap2,59.9743669558746,"['Left Face', 'Abdomen', 'Left Face', 'Abdomen']",
3,"[0.2, 0.2]",None,0,0,0,0,1554.4687671000138,None,None,None,"[0, 0, 0]",1561.2188784999307,None,1561.2188784999307,1562.2188511999557,1562.2021777000045,None,"[0, 0, 0]",1,1561.2188784999307,None,,,,,,,,,,,,,,,0.012877300032414496,5.008772200089879,,,9,F,2,13,R,MS MH,49,49,2022_Dec_15_1245,2020.2.10,distractmap2,59.9743669558746,"['Left Face', 'Abdomen', 'Left Face', 'Abdomen']",
9,"[0.2, -0.2]",None,0,1,1,1,,,None,None,"[0, 0, 0]",1563.2022136999294,1565.202195999911,1563.2022136999294,1564.202245399938,1564.1855387999676,1565.1855510999449,"[0, 0, 0]",1,1563.2022136999294,1565.202195999911,,,,,,,,,,,,,,,,,,,9,F,2,13,R,MS MH,49,49,2022_Dec_15_1245,2020.2.10,distractmap2,59.9743669558746,"['Left Face', 'Abdomen', 'Left Face', 'Abdomen']",
3,"[0.2, 0.2]",1.0,0,2,2,2,,,None,None,"[0, 0, 0]",1565.2188695999794,1567.2189029,1565.2188695999794,1566.2189232999226,1566.2022327999584,1567.20228759991,"[0, 0, 0]",1,1565.2188695999794,1567.2189029,,,,,,,,,,,,,,,,,,,9,F,2,13,R,MS MH,49,49,2022_Dec_15_1245,2020.2.10,distractmap2,59.9743669558746,"['Left Face', 'Abdomen', 'Left Face', 'Abdomen']",
7,"[-0.2, -0.2]",0.0,0,3,3,3,,,None,None,"[0, 0, 0]",1567.2355662999908,1569.2355857999064,1567.2355662999908,1568.2356087999651,1568.2188801999437,1569.218906999915,"[0, 0, 0]",1,1567.2355662999908,1569.2355857999064,,,,,,,,,,,,,,,,,,,9,F,2,13,R,MS MH,49,49,2022_Dec_15_1245,2020.2.10,distractmap2,59.9743669558746,"['Left Face', 'Abdomen', 'Left Face', 'Abdomen']",
8,"[0, -0.2]",0.0,0,4,4,4,,,None,None,"[0, 0, 0]",1569.3022471999284,None,1569.3022471999284,1570.3022862999933,1570.2856655999785,None,"[0, 0, 0]",1,1569.3022471999284,None,,,,,,,,,,,,,,,,,,,9,F,2,13,R,MS MH,49,49,2022_Dec_15_1245,2020.2.10,distractmap2,59.9743669558746,"['Left Face', 'Abdomen', 'Left Face', 'Abdomen']",
4,"[-0.2, 0]",0.0,0,5,5,5,,,None,None,"[0, 0, 0]",1571.2689246999798,1573.268936599954,1571.2689246999798,1572.2688881999347,1572.2522763999877,1573.252291599987,"[0, 0, 0]",1,1571.2689246999798,1573.268936599954,,,,,,,,,,,,,,,,,,,9,F,2,13,R,MS MH,49,49,2022_Dec_15_1245,2020.2.10,distractmap2,59.9743669558746,"['Left Face', 'Abdomen', 'Left Face', 'Abdomen']",
4,"[-0.2, 0]",0.0,0,6,6,6,,,None,None,"[0, 0, 0]",1573.2855924000032,1575.2856698000105,1573.2855924000032,1574.2857001000084,1574.268968499964,1575.268974000006,"[0, 0, 0]",1,1573.2855924000032,1575.2856698000105,,,,,,,,,,,,,,,,,,,9,F,2,13,R,MS MH,49,49,2022_Dec_15_1245,2020.2.10,distractmap2,59.9743669558746,"['Left Face', 'Abdomen', 'Left Face', 'Abdomen']",
1,"[-0.2, 0.2]",0.0,0,7,7,7,,,None,None,"[0, 0, 0]",1575.3023104999447,1577.302323199925,1575.3023104999447,1576.3023019999964,1576.2856260999106,1577.285652999999,"[0, 0, 0]",1,1575.3023104999447,1577.302323199925,,,,,,,,,,,,,,,,,,,9,F,2,13,R,MS MH,49,49,2022_Dec_15_1245,2020.2.10,distractmap2,59.9743669558746,"['Left Face', 'Abdomen', 'Left Face', 'Abdomen']",
4,"[-0.2, 0]",1.0,0,8,8,8,,,None,None,"[0, 0, 0]",1577.3190028999234,1579.3190083999652,1577.3190028999234,1578.31902299996,1578.3023406999419,1579.3023504999,"[0, 0, 0]",1,1577.3190028999234,1579.3190083999652,,,,,,,,,,,,,,,,,,,9,F,2,13,R,MS MH,49,49,2022_Dec_15_1245,2020.2.10,distractmap2,59.9743669558746,"['Left Face', 'Abdomen', 'Left Face', 'Abdomen']",
8,"[0, -0.2]",0.0,0,9,9,9,,,None,None,"[0, 0, 0]",1579.335665899911,1581.3357255999,1579.335665899911,1580.3356716999551,1580.319029300008,1581.31903959997,"[0, 0, 0]",1,1579.335665899911,1581.3357255999,,,,,,,,,,,,,,,,,,,9,F,2,13,R,MS MH,49,49,2022_Dec_15_1245,2020.2.10,distractmap2,59.9743669558746,"['Left Face', 'Abdomen', 'Left Face', 'Abdomen']",
,,,,,,,,,,,,,,,,,,,,,,1581.3857570999535,None,,,,,,,,,,,,,,,,,9,F,2,13,R,MS MH,49,49,2022_Dec_15_1245,2020.2.10,distractmap2,59.9743669558746,"['Left Face', 'Abdomen', 'Left Face', 'Abdomen']",
,,,,,,,,,,,,,,,,,,,,,,,,,,,,,,,,,,15.246913580246915,1346.5654732999392,,,,,9,F,2,13,R,MS MH,49,49,2022_Dec_15_1245,2020.2.10,distractmap2,59.9743669558746,"['Left Face', 'Abdomen', 'Left Face', 'Abdomen']",
2,"[0, 0.2]",None,0,0,0,0,1597.4024965999415,None,None,None,"[0, 0, 0]",1601.4525662999367,None,1601.4525662999367,1602.4525779999094,1602.4359009999316,1603.435901699937,"[0, 0, 0]",1,1601.4525662999367,None,,,,,,,,,,,,,,,0.012550000101327896,5.008093800046481,,,9,F,2,13,R,MS MH,49,49,2022_Dec_15_1245,2020.2.10,distractmap2,59.9743669558746,"['Left Face', 'Abdomen', 'Left Face', 'Abdomen']",
5,"[0, 0]",None,0,1,1,1,,,None,None,"[0, 0, 0]",1603.4526533999015,1605.4525940999156,1603.4526533999015,1604.452581899939,1604.4359185999492,1605.4359115000116,"[0, 0, 0]",1,1603.4526533999015,1605.4525940999156,,,,,,,,,,,,,,,,,,,9,F,2,13,R,MS MH,49,49,2022_Dec_15_1245,2020.2.10,distractmap2,59.9743669558746,"['Left Face', 'Abdomen', 'Left Face', 'Abdomen']",
3,"[0.2, 0.2]",0.0,0,2,2,2,,,None,None,"[0, 0, 0]",1605.4692330999533,1607.469282199978,1605.4692330999533,1606.4692624999443,1606.452629599953,1607.4526284999447,"[0, 0, 0]",1,1605.4692330999533,1607.469282199978,,,,,,,,,,,,,,,,,,,9,F,2,13,R,MS MH,49,49,2022_Dec_15_1245,2020.2.10,distractmap2,59.9743669558746,"['Left Face', 'Abdomen', 'Left Face', 'Abdomen']",
5,"[0, 0]",1.0,0,3,3,3,,,None,None,"[0, 0, 0]",1607.4859346000012,1609.4859433999518,1607.4859346000012,1608.4859385999152,1608.4692624999443,1609.4692865000106,"[0, 0, 0]",1,1607.4859346000012,1609.4859433999518,,,,,,,,,,,,,,,,,,,9,F,2,13,R,MS MH,49,49,2022_Dec_15_1245,2020.2.10,distractmap2,59.9743669558746,"['Left Face', 'Abdomen', 'Left Face', 'Abdomen']",
2,"[0, 0.2]",0.0,0,4,4,4,,,None,None,"[0, 0, 0]",1609.5191847999813,None,1609.5191847999813,1610.5192959000124,1610.502624799963,1611.5026765000075,"[0, 0, 0]",1,1609.5191847999813,None,,,,,,,,,,,,,,,,,,,9,F,2,13,R,MS MH,49,49,2022_Dec_15_1245,2020.2.10,distractmap2,59.9743669558746,"['Left Face', 'Abdomen', 'Left Face', 'Abdomen']",
8,"[0, -0.2]",0.0,0,5,5,5,,,None,None,"[0, 0, 0]",1611.5192992999218,1613.5193098000018,1611.5192992999218,1612.5193279999075,1612.5026505999267,1613.502653799951,"[0, 0, 0]",1,1611.5192992999218,1613.5193098000018,,,,,,,,,,,,,,,,,,,9,F,2,13,R,MS MH,49,49,2022_Dec_15_1245,2020.2.10,distractmap2,59.9743669558746,"['Left Face', 'Abdomen', 'Left Face', 'Abdomen']",
4,"[-0.2, 0]",0.0,0,6,6,6,,,None,None,"[0, 0, 0]",1613.5359940999188,1615.5360209000064,1613.5359940999188,1614.536047099973,1614.5193989999825,1615.5193420000141,"[0, 0, 0]",1,1613.5359940999188,1615.5360209000064,,,,,,,,,,,,,,,,,,,9,F,2,13,R,MS MH,49,49,2022_Dec_15_1245,2020.2.10,distractmap2,59.9743669558746,"['Left Face', 'Abdomen', 'Left Face', 'Abdomen']",
8,"[0, -0.2]",1.0,0,7,7,7,,,None,None,"[0, 0, 0]",1615.5526649999665,1617.5526865000138,1615.5526649999665,1616.5526926999446,1616.5360310999677,1617.536056599929,"[0, 0, 0]",1,1615.5526649999665,1617.5526865000138,,,,,,,,,,,,,,,,,,,9,F,2,13,R,MS MH,49,49,2022_Dec_15_1245,2020.2.10,distractmap2,59.9743669558746,"['Left Face', 'Abdomen', 'Left Face', 'Abdomen']",
7,"[-0.2, -0.2]",0.0,0,8,8,8,,,None,None,"[0, 0, 0]",1617.5693564999383,1619.5693779999856,1617.5693564999383,1618.5693741999567,1618.5527011000086,1619.5527042999165,"[0, 0, 0]",1,1617.5693564999383,1619.5693779999856,,,,,,,,,,,,,,,,,,,9,F,2,13,R,MS MH,49,49,2022_Dec_15_1245,2020.2.10,distractmap2,59.9743669558746,"['Left Face', 'Abdomen', 'Left Face', 'Abdomen']",
8,"[0, -0.2]",1.0,0,9,9,9,,,None,None,"[0, 0, 0]",1619.5860634999117,1621.5860771998996,1619.5860634999117,1620.586062099901,1620.5694099999964,1621.5693959000055,"[0, 0, 0]",1,1619.5860634999117,1621.5860771998996,,,,,,,,,,,,,,,,,,,9,F,2,13,R,MS MH,49,49,2022_Dec_15_1245,2020.2.10,distractmap2,59.9743669558746,"['Left Face', 'Abdomen', 'Left Face', 'Abdomen']",
,,,,,,,,,,,,,,,,,,,,,,1621.6193924999097,None,,,,,,,,,,,,,,,,,9,F,2,13,R,MS MH,49,49,2022_Dec_15_1245,2020.2.10,distractmap2,59.9743669558746,"['Left Face', 'Abdomen', 'Left Face', 'Abdomen']",
,,,,,,,,,,,,,,,,,,,,,,,,,,,,,,,,,,15.92592592592593,1387.6662148999749,,,,,9,F,2,13,R,MS MH,49,49,2022_Dec_15_1245,2020.2.10,distractmap2,59.9743669558746,"['Left Face', 'Abdomen', 'Left Face', 'Abdomen']",
,,,,,,,1746.637257299968,None,,,,,,,,,,,,,,,,,,,,,,,,,,53.02469135802469,1516.465545599931,0.012209500069729984,5.007476300001144,1726.6370610999875,None,9,F,2,13,R,MS MH,49,49,2022_Dec_15_1245,2020.2.10,distractmap2,59.9743669558746,"['Left Face', 'Abdomen', 'Left Face', 'Abdomen']",
,,,,,,,1781.65431969997,None,,,,,,,,,,,,,,,,,,,,,,,,,,58.14814814814815,1551.4826268999605,0.014023100025951862,5.011271900031716,1761.6540449999738,None,9,F,2,13,R,MS MH,49,49,2022_Dec_15_1245,2020.2.10,distractmap2,59.9743669558746,"['Left Face', 'Abdomen', 'Left Face', 'Abdomen']",
,,,,,,,1816.671244499972,None,,,,,,,,,,,,,,,,,,,,,,,,,,57.53086419753086,1581.8973000998376,0.014001999981701374,5.011322400067002,1796.6710662000114,None,9,F,2,13,R,MS MH,49,49,2022_Dec_15_1245,2020.2.10,distractmap2,59.9743669558746,"['Left Face', 'Abdomen', 'Left Face', 'Abdomen']",
2,"[0, 0.2]",None,0,0,0,0,1832.8547651999397,None,None,None,"[0, 0, 0]",1836.7382352999412,None,1836.7382352999412,1837.7381331999786,1837.721400899929,1838.7214603999164,"[0, 0, 0]",1,1836.7382352999412,None,,,,,,,,,,,,,,,0.01629930012859404,5.015522300149314,,,9,F,2,13,R,MS MH,49,49,2022_Dec_15_1245,2020.2.10,distractmap2,59.9743669558746,"['Left Face', 'Abdomen', 'Left Face', 'Abdomen']",
2,"[0, 0.2]",None,0,1,1,1,,,None,None,"[0, 0, 0]",1838.7381251999177,1840.7381585999392,1838.7381251999177,1839.73812679993,1839.7213537999196,1840.7214898999082,"[0, 0, 0]",1,1838.7381251999177,1840.7381585999392,,,,,,,,,,,,,,,,,,,9,F,2,13,R,MS MH,49,49,2022_Dec_15_1245,2020.2.10,distractmap2,59.9743669558746,"['Left Face', 'Abdomen', 'Left Face', 'Abdomen']",
2,"[0, 0.2]",1.0,0,2,2,2,,,None,None,"[0, 0, 0]",1840.7547927999403,1842.7548399999505,1840.7547927999403,1841.7548341999063,1841.7381554999156,1842.7381606999552,"[0, 0, 0]",1,1840.7547927999403,1842.7548399999505,,,,,,,,,,,,,,,,,,,9,F,2,13,R,MS MH,49,49,2022_Dec_15_1245,2020.2.10,distractmap2,59.9743669558746,"['Left Face', 'Abdomen', 'Left Face', 'Abdomen']",
8,"[0, -0.2]",0.0,0,3,3,3,,,None,None,"[0, 0, 0]",1842.7714789999882,1844.7715253999922,1842.7714789999882,1843.7714894999517,1843.7548152999952,1844.7548452999908,"[0, 0, 0]",1,1842.7714789999882,1844.7715253999922,,,,,,,,,,,,,,,,,,,9,F,2,13,R,MS MH,49,49,2022_Dec_15_1245,2020.2.10,distractmap2,59.9743669558746,"['Left Face', 'Abdomen', 'Left Face', 'Abdomen']",
2,"[0, 0.2]",1.0,0,4,4,4,,,None,None,"[0, 0, 0]",1844.8382416999666,None,1844.8382416999666,1845.838201400009,1845.8215541999089,None,"[0, 0, 0]",1,1844.8382416999666,None,,,,,,,,,,,,,,,,,,,9,F,2,13,R,MS MH,49,49,2022_Dec_15_1245,2020.2.10,distractmap2,59.9743669558746,"['Left Face', 'Abdomen', 'Left Face', 'Abdomen']",
5,"[0, 0]",0.0,0,5,5,5,,,None,None,"[0, 0, 0]",1846.8048985999776,1848.8048977999715,1846.8048985999776,1847.804880199954,1847.7882182999747,1848.7882212999975,"[0, 0, 0]",1,1846.8048985999776,1848.8048977999715,,,,,,,,,,,,,,,,,,,9,F,2,13,R,MS MH,49,49,2022_Dec_15_1245,2020.2.10,distractmap2,59.9743669558746,"['Left Face', 'Abdomen', 'Left Face', 'Abdomen']",
1,"[-0.2, 0.2]",0.0,0,6,6,6,,,None,None,"[0, 0, 0]",1848.8214750000043,1850.8215353999985,1848.8214750000043,1849.8215805999935,1849.804763299995,1850.8049151999876,"[0, 0, 0]",1,1848.8214750000043,1850.8215353999985,,,,,,,,,,,,,,,,,,,9,F,2,13,R,MS MH,49,49,2022_Dec_15_1245,2020.2.10,distractmap2,59.9743669558746,"['Left Face', 'Abdomen', 'Left Face', 'Abdomen']",
1,"[-0.2, 0.2]",0.0,0,7,7,7,,,None,None,"[0, 0, 0]",1850.8382292999886,1852.8382769000018,1850.8382292999886,1851.8382624000078,1851.8215943999821,1852.821626799996,"[0, 0, 0]",1,1850.8382292999886,1852.8382769000018,,,,,,,,,,,,,,,,,,,9,F,2,13,R,MS MH,49,49,2022_Dec_15_1245,2020.2.10,distractmap2,59.9743669558746,"['Left Face', 'Abdomen', 'Left Face', 'Abdomen']",
6,"[0.2, 0]",0.0,0,8,8,8,,,None,None,"[0, 0, 0]",1852.8549353999551,1854.8549257999985,1852.8549353999551,1853.8549283999018,1853.838255599956,1854.8382753999904,"[0, 0, 0]",1,1852.8549353999551,1854.8549257999985,,,,,,,,,,,,,,,,,,,9,F,2,13,R,MS MH,49,49,2022_Dec_15_1245,2020.2.10,distractmap2,59.9743669558746,"['Left Face', 'Abdomen', 'Left Face', 'Abdomen']",
1,"[-0.2, 0.2]",1.0,0,9,9,9,,,None,None,"[0, 0, 0]",1854.8715859999647,1856.87166840001,1854.8715859999647,1855.871635699994,1855.854970699991,1856.8550119999563,"[0, 0, 0]",1,1854.8715859999647,1856.87166840001,,,,,,,,,,,,,,,,,,,9,F,2,13,R,MS MH,49,49,2022_Dec_15_1245,2020.2.10,distractmap2,59.9743669558746,"['Left Face', 'Abdomen', 'Left Face', 'Abdomen']",
,,,,,,,,,,,,,,,,,,,,,,1856.9050194999436,None,,,,,,,,,,,,,,,,,9,F,2,13,R,MS MH,49,49,2022_Dec_15_1245,2020.2.10,distractmap2,59.9743669558746,"['Left Face', 'Abdomen', 'Left Face', 'Abdomen']",
,,,,,,,,,,,,,,,,,,,,,,,,,,,,,,,,,,11.851851851851853,1621.7180072999327,,,,,9,F,2,13,R,MS MH,49,49,2022_Dec_15_1245,2020.2.10,distractmap2,59.9743669558746,"['Left Face', 'Abdomen', 'Left Face', 'Abdomen']",
3,"[0.2, 0.2]",None,0,0,0,0,1870.2219725999748,None,None,None,"[0, 0, 0]",1876.971825699904,None,1876.971825699904,1877.9718308999436,1877.9551480999216,1878.9550407999195,"[0, 0, 0]",1,1876.971825699904,None,,,,,,,,,,,,,,,0.01259220007341355,5.008120700134896,,,9,F,2,13,R,MS MH,49,49,2022_Dec_15_1245,2020.2.10,distractmap2,59.9743669558746,"['Left Face', 'Abdomen', 'Left Face', 'Abdomen']",
3,"[0.2, 0.2]",None,0,1,1,1,,,None,None,"[0, 0, 0]",1878.9718190999702,1880.9718420999125,1878.9718190999702,1879.9718522999901,1879.9551980999531,1880.9551901000086,"[0, 0, 0]",1,1878.9718190999702,1880.9718420999125,,,,,,,,,,,,,,,,,,,9,F,2,13,R,MS MH,49,49,2022_Dec_15_1245,2020.2.10,distractmap2,59.9743669558746,"['Left Face', 'Abdomen', 'Left Face', 'Abdomen']",
5,"[0, 0]",0.0,0,2,2,2,,,None,None,"[0, 0, 0]",1880.9885104999412,1882.9885633999947,1880.9885104999412,1881.9885800000047,1881.9717616999988,1882.9718537000008,"[0, 0, 0]",1,1880.9885104999412,1882.9885633999947,,,,,,,,,,,,,,,,,,,9,F,2,13,R,MS MH,49,49,2022_Dec_15_1245,2020.2.10,distractmap2,59.9743669558746,"['Left Face', 'Abdomen', 'Left Face', 'Abdomen']",
1,"[-0.2, 0.2]",0.0,0,3,3,3,,,None,None,"[0, 0, 0]",1883.0052244999679,1885.0051980999997,1883.0052244999679,1884.0052914000116,1883.9885716999415,1884.9885605999734,"[0, 0, 0]",1,1883.0052244999679,1885.0051980999997,,,,,,,,,,,,,,,,,,,9,F,2,13,R,MS MH,49,49,2022_Dec_15_1245,2020.2.10,distractmap2,59.9743669558746,"['Left Face', 'Abdomen', 'Left Face', 'Abdomen']",
5,"[0, 0]",1.0,0,4,4,4,,,None,None,"[0, 0, 0]",1885.1055699000135,None,1885.1055699000135,1886.1052917999914,1886.088584000012,None,"[0, 0, 0]",1,1885.1055699000135,None,,,,,,,,,,,,,,,,,,,9,F,2,13,R,MS MH,49,49,2022_Dec_15_1245,2020.2.10,distractmap2,59.9743669558746,"['Left Face', 'Abdomen', 'Left Face', 'Abdomen']",
8,"[0, -0.2]",0.0,0,5,5,5,,,None,None,"[0, 0, 0]",1887.0386010999791,1889.0385955999373,1887.0386010999791,1888.0386709999293,1888.0219348999672,1889.0219218999846,"[0, 0, 0]",1,1887.0386010999791,1889.0385955999373,,,,,,,,,,,,,,,,,,,9,F,2,13,R,MS MH,49,49,2022_Dec_15_1245,2020.2.10,distractmap2,59.9743669558746,"['Left Face', 'Abdomen', 'Left Face', 'Abdomen']",
5,"[0, 0]",1.0,0,6,6,6,,,None,None,"[0, 0, 0]",1889.0552716999082,1891.0553050999297,1889.0552716999082,1890.055270899902,1890.0386051000096,1891.0386282999534,"[0, 0, 0]",0,1889.0552716999082,1891.0553050999297,,,,,,,,,,,,,,,,,,,9,F,2,13,R,MS MH,49,49,2022_Dec_15_1245,2020.2.10,distractmap2,59.9743669558746,"['Left Face', 'Abdomen', 'Left Face', 'Abdomen']",
7,"[-0.2, -0.2]",0.0,0,7,7,7,,,None,None,"[0, 0, 0]",1891.071966099902,1893.0719562999438,1891.071966099902,1892.071947199991,1892.0552876999136,1893.0553256999701,"[0, 0, 0]",1,1891.071966099902,1893.0719562999438,,,,,,,,,,,,,,,,,,,9,F,2,13,R,MS MH,49,49,2022_Dec_15_1245,2020.2.10,distractmap2,59.9743669558746,"['Left Face', 'Abdomen', 'Left Face', 'Abdomen']",
5,"[0, 0]",1.0,0,8,8,8,,,None,None,"[0, 0, 0]",1893.0886195999337,1895.0885390999028,1893.0886195999337,1894.088655999978,1894.071991499979,1895.0719724999508,"[0, 0, 0]",0,1893.0886195999337,1895.0885390999028,,,,,,,,,,,,,,,,,,,9,F,2,13,R,MS MH,49,49,2022_Dec_15_1245,2020.2.10,distractmap2,59.9743669558746,"['Left Face', 'Abdomen', 'Left Face', 'Abdomen']",
7,"[-0.2, -0.2]",1.0,0,9,9,9,,,None,None,"[0, 0, 0]",1895.1053343999665,1897.1053745999234,1895.1053343999665,1896.105628099991,1896.0886699999683,1897.0886959999334,"[0, 0, 0]",0,1895.1053343999665,1897.1053745999234,,,,,,,,,,,,,,,,,,,9,F,2,13,R,MS MH,49,49,2022_Dec_15_1245,2020.2.10,distractmap2,59.9743669558746,"['Left Face', 'Abdomen', 'Left Face', 'Abdomen']",
,,,,,,,,,,,,,,,,,,,,,,1897.1386916999472,None,,,,,,,,,,,,,,,,,9,F,2,13,R,MS MH,49,49,2022_Dec_15_1245,2020.2.10,distractmap2,59.9743669558746,"['Left Face', 'Abdomen', 'Left Face', 'Abdomen']",
,,,,,,,,,,,,,,,,,,,,,,,,,,,,,,,,,,23.209876543209877,1663.4522784999572,,,,,9,F,2,13,R,MS MH,49,49,2022_Dec_15_1245,2020.2.10,distractmap2,59.9743669558746,"['Left Face', 'Abdomen', 'Left Face', 'Abdomen']",
6,"[0.2, 0]",None,0,0,0,0,1912.4224229999818,None,None,None,"[0, 0, 0]",1917.2055738999043,None,1917.2055738999043,1918.205567099969,1918.188905099989,1919.188894599909,"[0, 0, 0]",1,1917.2055738999043,None,,,,,,,,,,,,,,,0.012059300090186298,5.0071344000753015,,,9,F,2,13,R,MS MH,49,49,2022_Dec_15_1245,2020.2.10,distractmap2,59.9743669558746,"['Left Face', 'Abdomen', 'Left Face', 'Abdomen']",
1,"[-0.2, 0.2]",None,0,1,1,1,,,None,None,"[0, 0, 0]",1919.205583699979,1921.205595599953,1919.205583699979,1920.2055889999028,1920.1889463999541,1921.1889463999541,"[0, 0, 0]",1,1919.205583699979,1921.205595599953,,,,,,,,,,,,,,,,,,,9,F,2,13,R,MS MH,49,49,2022_Dec_15_1245,2020.2.10,distractmap2,59.9743669558746,"['Left Face', 'Abdomen', 'Left Face', 'Abdomen']",
6,"[0.2, 0]",1.0,0,2,2,2,,,None,None,"[0, 0, 0]",1921.2222321999725,1923.2223154999083,1921.2222321999725,1922.222243099939,1922.2056136999745,1923.205663700006,"[0, 0, 0]",1,1921.2222321999725,1923.2223154999083,,,,,,,,,,,,,,,,,,,9,F,2,13,R,MS MH,49,49,2022_Dec_15_1245,2020.2.10,distractmap2,59.9743669558746,"['Left Face', 'Abdomen', 'Left Face', 'Abdomen']",
4,"[-0.2, 0]",0.0,0,3,3,3,,,None,None,"[0, 0, 0]",1923.238973599975,1925.238956599962,1923.238973599975,1924.238965599914,1924.2222723999294,1925.2222930999706,"[0, 0, 0]",1,1923.238973599975,1925.238956599962,,,,,,,,,,,,,,,,,,,9,F,2,13,R,MS MH,49,49,2022_Dec_15_1245,2020.2.10,distractmap2,59.9743669558746,"['Left Face', 'Abdomen', 'Left Face', 'Abdomen']",
1,"[-0.2, 0.2]",0.0,0,4,4,4,,,None,None,"[0, 0, 0]",1925.3388308999129,None,1925.3388308999129,1926.3389625999844,1926.32257869991,None,"[0, 0, 0]",1,1925.3388308999129,None,,,,,,,,,,,,,,,,,,,9,F,2,13,R,MS MH,49,49,2022_Dec_15_1245,2020.2.10,distractmap2,59.9743669558746,"['Left Face', 'Abdomen', 'Left Face', 'Abdomen']",
8,"[0, -0.2]",0.0,0,5,5,5,,,None,None,"[0, 0, 0]",1927.272293399903,1929.2723569999216,1927.272293399903,1928.2723309999565,1928.255680299946,1929.2556845999788,"[0, 0, 0]",1,1927.272293399903,1929.2723569999216,,,,,,,,,,,,,,,,,,,9,F,2,13,R,MS MH,49,49,2022_Dec_15_1245,2020.2.10,distractmap2,59.9743669558746,"['Left Face', 'Abdomen', 'Left Face', 'Abdomen']",
1,"[-0.2, 0.2]",1.0,0,6,6,6,,,None,None,"[0, 0, 0]",1929.2890492000151,1931.289016099996,1929.2890492000151,1930.28903059999,1930.272319199983,1931.27233539999,"[0, 0, 0]",1,1929.2890492000151,1931.289016099996,,,,,,,,,,,,,,,,,,,9,F,2,13,R,MS MH,49,49,2022_Dec_15_1245,2020.2.10,distractmap2,59.9743669558746,"['Left Face', 'Abdomen', 'Left Face', 'Abdomen']",
8,"[0, -0.2]",1.0,0,7,7,7,,,None,None,"[0, 0, 0]",1931.3056706999196,1933.3057226999663,1931.3056706999196,1932.3057047999464,1932.2890359999146,1933.2890870999545,"[0, 0, 0]",1,1931.3056706999196,1933.3057226999663,,,,,,,,,,,,,,,,,,,9,F,2,13,R,MS MH,49,49,2022_Dec_15_1245,2020.2.10,distractmap2,59.9743669558746,"['Left Face', 'Abdomen', 'Left Face', 'Abdomen']",
1,"[-0.2, 0.2]",1.0,0,8,8,8,,,None,None,"[0, 0, 0]",1933.3224143999396,1935.3223720999667,1933.3224143999396,1934.3223390999483,1934.3057008999167,1935.3057101999875,"[0, 0, 0]",1,1933.3224143999396,1935.3223720999667,,,,,,,,,,,,,,,,,,,9,F,2,13,R,MS MH,49,49,2022_Dec_15_1245,2020.2.10,distractmap2,59.9743669558746,"['Left Face', 'Abdomen', 'Left Face', 'Abdomen']",
6,"[0.2, 0]",0.0,0,9,9,9,,,None,None,"[0, 0, 0]",1935.3390334999422,1937.3390684999758,1935.3390334999422,1936.3390533999773,1936.3223684999393,1937.3223870999645,"[0, 0, 0]",1,1935.3390334999422,1937.3390684999758,,,,,,,,,,,,,,,,,,,9,F,2,13,R,MS MH,49,49,2022_Dec_15_1245,2020.2.10,distractmap2,59.9743669558746,"['Left Face', 'Abdomen', 'Left Face', 'Abdomen']",
,,,,,,,,,,,,,,,,,,,,,,1937.3723019999452,None,,,,,,,,,,,,,,,,,9,F,2,13,R,MS MH,49,49,2022_Dec_15_1245,2020.2.10,distractmap2,59.9743669558746,"['Left Face', 'Abdomen', 'Left Face', 'Abdomen']",
,,,,,,,,,,,,,,,,,,,,,,,,,,,,,,,,,,24.074074074074073,1704.66944889992,,,,,9,F,2,13,R,MS MH,49,49,2022_Dec_15_1245,2020.2.10,distractmap2,59.9743669558746,"['Left Face', 'Abdomen', 'Left Face', 'Abdomen']",
,,,,,,,1972.3893770999275,None,,,,,,,,,,,,,,,,,,,,,,,,,,17.40740740740741,1742.2178339998936,0.011996300076134503,5.007027600076981,1952.3892288999632,None,9,F,2,13,R,MS MH,49,49,2022_Dec_15_1245,2020.2.10,distractmap2,59.9743669558746,"['Left Face', 'Abdomen', 'Left Face', 'Abdomen']",
,,,,,,,2007.4064361999044,None,,,,,,,,,,,,,,,,,,,,,,,,,,59.75308641975309,1770.7681309999898,0.013954600086435676,5.011262800078839,1987.4062060000142,None,9,F,2,13,R,MS MH,49,49,2022_Dec_15_1245,2020.2.10,distractmap2,59.9743669558746,"['Left Face', 'Abdomen', 'Left Face', 'Abdomen']",
,,,,,,,2042.4233818999492,None,,,,,,,,,,,,,,,,,,,,,,,,,,60.12345679012346,1807.166081000003,0.013895399984903634,5.010635799961165,2022.4232216000091,None,9,F,2,13,R,MS MH,49,49,2022_Dec_15_1245,2020.2.10,distractmap2,59.9743669558746,"['Left Face', 'Abdomen', 'Left Face', 'Abdomen']",
,,,,,,,2318.6593880999135,None,,,,,,,,,,,,,,,,,,,2094.273898599902,2094.273898599902,None,space,171.23368659999687,2094.273898599902,None,49.75308641975309,2088.4854541000677,0.016342899994924664,5.01562640001066,2298.659181099967,None,9,F,2,13,R,MS MH,49,49,2022_Dec_15_1245,2020.2.10,distractmap2,59.9743669558746,"['Left Face', 'Abdomen', 'Left Face', 'Abdomen']",
,,,,,,,2353.676418799907,None,,,,,,,,,,,,,,,,,,,,,,,,,,44.75308641975309,2121.2041947998805,0.01627679995726794,5.015705100027844,2333.6761823999695,None,9,F,2,13,R,MS MH,49,49,2022_Dec_15_1245,2020.2.10,distractmap2,59.9743669558746,"['Left Face', 'Abdomen', 'Left Face', 'Abdomen']",
,,,,,,,2388.693434299901,None,,,,,,,,,,,,,,,,,,,,,,,,,,56.604938271604944,2152.8048015999375,0.014456400065682828,5.011933200061321,2368.6931634999346,None,9,F,2,13,R,MS MH,49,49,2022_Dec_15_1245,2020.2.10,distractmap2,59.9743669558746,"['Left Face', 'Abdomen', 'Left Face', 'Abdomen']",
7,"[-0.2, -0.2]",None,0,0,0,0,2401.7267855999526,None,None,None,"[0, 0, 0]",2408.74359139998,None,2408.74359139998,2409.743594600004,2409.7269020999083,2410.7269036999205,"[0, 0, 0]",1,2408.74359139998,None,,,,,,,,,,,,,,,0.014182400074787438,5.011378400027752,,,9,F,2,13,R,MS MH,49,49,2022_Dec_15_1245,2020.2.10,distractmap2,59.9743669558746,"['Left Face', 'Abdomen', 'Left Face', 'Abdomen']",
7,"[-0.2, -0.2]",None,0,1,1,1,,,None,None,"[0, 0, 0]",2410.743427600013,2412.7436461999314,2410.743427600013,2411.7435803000117,2411.7269266999792,2412.7269186999183,"[0, 0, 0]",1,2410.743427600013,2412.7436461999314,,,,,,,,,,,,,,,,,,,9,F,2,13,R,MS MH,49,49,2022_Dec_15_1245,2020.2.10,distractmap2,59.9743669558746,"['Left Face', 'Abdomen', 'Left Face', 'Abdomen']",
7,"[-0.2, -0.2]",1.0,0,2,2,2,,,None,None,"[0, 0, 0]",2412.7602722999873,2414.7602616999066,2412.7602722999873,2413.760275999899,2413.74357479997,2414.7436085999943,"[0, 0, 0]",1,2412.7602722999873,2414.7602616999066,,,,,,,,,,,,,,,,,,,9,F,2,13,R,MS MH,49,49,2022_Dec_15_1245,2020.2.10,distractmap2,59.9743669558746,"['Left Face', 'Abdomen', 'Left Face', 'Abdomen']",
5,"[0, 0]",0.0,0,3,3,3,,,None,None,"[0, 0, 0]",2414.7769899999257,2416.777010599966,2414.7769899999257,2415.7770145999966,2415.760281899944,2416.76028269995,"[0, 0, 0]",1,2414.7769899999257,2416.777010599966,,,,,,,,,,,,,,,,,,,9,F,2,13,R,MS MH,49,49,2022_Dec_15_1245,2020.2.10,distractmap2,59.9743669558746,"['Left Face', 'Abdomen', 'Left Face', 'Abdomen']",
1,"[-0.2, 0.2]",0.0,0,4,4,4,,,None,None,"[0, 0, 0]",2416.793620100012,2418.7936459999764,2416.793620100012,2417.7936430999544,2417.7769664999796,2418.7769866999006,"[0, 0, 0]",1,2416.793620100012,2418.7936459999764,,,,,,,,,,,,,,,,,,,9,F,2,13,R,MS MH,49,49,2022_Dec_15_1245,2020.2.10,distractmap2,59.9743669558746,"['Left Face', 'Abdomen', 'Left Face', 'Abdomen']",
6,"[0.2, 0]",0.0,0,5,5,5,,,None,None,"[0, 0, 0]",2418.810375900008,2420.810316299903,2418.810375900008,2419.810323099955,2419.793705899967,2420.793670099927,"[0, 0, 0]",1,2418.810375900008,2420.810316299903,,,,,,,,,,,,,,,,,,,9,F,2,13,R,MS MH,49,49,2022_Dec_15_1245,2020.2.10,distractmap2,59.9743669558746,"['Left Face', 'Abdomen', 'Left Face', 'Abdomen']",
1,"[-0.2, 0.2]",1.0,0,6,6,6,,,None,None,"[0, 0, 0]",2420.827021999983,2422.827044399921,2420.827021999983,2421.8269984999206,2421.8103322999086,2422.8103718999773,"[0, 0, 0]",1,2420.827021999983,2422.827044399921,,,,,,,,,,,,,,,,,,,9,F,2,13,R,MS MH,49,49,2022_Dec_15_1245,2020.2.10,distractmap2,59.9743669558746,"['Left Face', 'Abdomen', 'Left Face', 'Abdomen']",
7,"[-0.2, -0.2]",0.0,0,7,7,7,,,None,None,"[0, 0, 0]",2422.8436867999844,2424.8436909999,2422.8436867999844,2423.843694299925,2423.8270332999527,2424.827033099951,"[0, 0, 0]",1,2422.8436867999844,2424.8436909999,,,,,,,,,,,,,,,,,,,9,F,2,13,R,MS MH,49,49,2022_Dec_15_1245,2020.2.10,distractmap2,59.9743669558746,"['Left Face', 'Abdomen', 'Left Face', 'Abdomen']",
6,"[0.2, 0]",0.0,0,8,8,8,,,None,None,"[0, 0, 0]",2424.860244199983,2426.8604059999343,2424.860244199983,2425.860383399995,2425.843691799906,2426.8437098999275,"[0, 0, 0]",1,2424.860244199983,2426.8604059999343,,,,,,,,,,,,,,,,,,,9,F,2,13,R,MS MH,49,49,2022_Dec_15_1245,2020.2.10,distractmap2,59.9743669558746,"['Left Face', 'Abdomen', 'Left Face', 'Abdomen']",
7,"[-0.2, -0.2]",1.0,0,9,9,9,,,None,None,"[0, 0, 0]",2426.8770160999848,2428.8770824999083,2426.8770160999848,2427.877081100014,2427.8603857000126,2428.860423999955,"[0, 0, 0]",1,2426.8770160999848,2428.8770824999083,,,,,,,,,,,,,,,,,,,9,F,2,13,R,MS MH,49,49,2022_Dec_15_1245,2020.2.10,distractmap2,59.9743669558746,"['Left Face', 'Abdomen', 'Left Face', 'Abdomen']",
,,,,,,,,,,,,,,,,,,,,,,2428.910417999956,None,,,,,,,,,,,,,,,,,9,F,2,13,R,MS MH,49,49,2022_Dec_15_1245,2020.2.10,distractmap2,59.9743669558746,"['Left Face', 'Abdomen', 'Left Face', 'Abdomen']",
4,"[-0.2, 0]",None,0,0,0,0,2440.9438560999697,None,None,None,"[0, 0, 0]",2443.960457099951,None,2443.960457099951,2444.960589599912,2444.9439218000043,2445.9439358999953,"[0, 0, 0]",1,2443.960457099951,None,,,,,,,,,,,,,,,,,,,9,F,2,13,R,MS MH,49,49,2022_Dec_15_1245,2020.2.10,distractmap2,59.9743669558746,"['Left Face', 'Abdomen', 'Left Face', 'Abdomen']",
5,"[0, 0]",None,0,1,1,1,,,None,None,"[0, 0, 0]",2445.960602600011,2447.960594199947,2445.960602600011,2446.9606195999077,2446.9439299999503,2447.9439583999338,"[0, 0, 0]",1,2445.960602600011,2447.960594199947,,,,,,,,,,,,,,,,,,,9,F,2,13,R,MS MH,49,49,2022_Dec_15_1245,2020.2.10,distractmap2,59.9743669558746,"['Left Face', 'Abdomen', 'Left Face', 'Abdomen']",
6,"[0.2, 0]",0.0,0,2,2,2,,,None,None,"[0, 0, 0]",2447.9772402999224,2449.9772844999097,2447.9772402999224,2448.9773120000027,2448.960681699915,2449.9606471000006,"[0, 0, 0]",1,2447.9772402999224,2449.9772844999097,,,,,,,,,,,,,,,,,,,9,F,2,13,R,MS MH,49,49,2022_Dec_15_1245,2020.2.10,distractmap2,59.9743669558746,"['Left Face', 'Abdomen', 'Left Face', 'Abdomen']",
1,"[-0.2, 0.2]",0.0,0,3,3,3,,,None,None,"[0, 0, 0]",2449.9939366999315,2451.993961100001,2449.9939366999315,2450.9939959999174,2450.9773014999228,2451.977300999919,"[0, 0, 0]",1,2449.9939366999315,2451.993961100001,,,,,,,,,,,,,,,,,,,9,F,2,13,R,MS MH,49,49,2022_Dec_15_1245,2020.2.10,distractmap2,59.9743669558746,"['Left Face', 'Abdomen', 'Left Face', 'Abdomen']",
6,"[0.2, 0]",1.0,0,4,4,4,,,None,None,"[0, 0, 0]",2452.0106302999193,2454.010693799937,2452.0106302999193,2453.0106442999095,2452.993999499944,2453.993890899932,"[0, 0, 0]",1,2452.0106302999193,2454.010693799937,,,,,,,,,,,,,,,,,,,9,F,2,13,R,MS MH,49,49,2022_Dec_15_1245,2020.2.10,distractmap2,59.9743669558746,"['Left Face', 'Abdomen', 'Left Face', 'Abdomen']",
1,"[-0.2, 0.2]",1.0,0,5,5,5,,,None,None,"[0, 0, 0]",2454.0273197999923,2456.027346399962,2454.0273197999923,2455.02733479999,2455.010651599965,2456.0106894999044,"[0, 0, 0]",1,2454.0273197999923,2456.027346399962,,,,,,,,,,,,,,,,,,,9,F,2,13,R,MS MH,49,49,2022_Dec_15_1245,2020.2.10,distractmap2,59.9743669558746,"['Left Face', 'Abdomen', 'Left Face', 'Abdomen']",
2,"[0, 0.2]",0.0,0,6,6,6,,,None,None,"[0, 0, 0]",2456.043902799953,2458.0440346999094,2456.043902799953,2457.0440256999573,2457.027323599905,2458.0273534000153,"[0, 0, 0]",1,2456.043902799953,2458.0440346999094,,,,,,,,,,,,,,,,,,,9,F,2,13,R,MS MH,49,49,2022_Dec_15_1245,2020.2.10,distractmap2,59.9743669558746,"['Left Face', 'Abdomen', 'Left Face', 'Abdomen']",
3,"[0.2, 0.2]",0.0,0,7,7,7,,,None,None,"[0, 0, 0]",2458.0606827999,2460.0606990999077,2458.0606827999,2459.0606854999205,2459.044027899974,2460.043921799981,"[0, 0, 0]",1,2458.0606827999,2460.0606990999077,,,,,,,,,,,,,,,,,,,9,F,2,13,R,MS MH,49,49,2022_Dec_15_1245,2020.2.10,distractmap2,59.9743669558746,"['Left Face', 'Abdomen', 'Left Face', 'Abdomen']",
6,"[0.2, 0]",0.0,0,8,8,8,,,None,None,"[0, 0, 0]",2460.0773781999014,2462.0774142999435,2460.0773781999014,2461.07738849998,2461.060733399936,2462.060737499967,"[0, 0, 0]",1,2460.0773781999014,2462.0774142999435,,,,,,,,,,,,,,,,,,,9,F,2,13,R,MS MH,49,49,2022_Dec_15_1245,2020.2.10,distractmap2,59.9743669558746,"['Left Face', 'Abdomen', 'Left Face', 'Abdomen']",
3,"[0.2, 0.2]",1.0,0,9,9,9,,,None,None,"[0, 0, 0]",2462.094053699984,2464.0940842999844,2462.094053699984,2463.0940808999585,2463.07741119992,2464.077415799955,"[0, 0, 0]",1,2462.094053699984,2464.0940842999844,,,,,,,,,,,,,,,,,,,9,F,2,13,R,MS MH,49,49,2022_Dec_15_1245,2020.2.10,distractmap2,59.9743669558746,"['Left Face', 'Abdomen', 'Left Face', 'Abdomen']",
,,,,,,,,,,,,,,,,,,,,,,2464.127403399907,None,,,,,,,,,,,,,,,,,9,F,2,13,R,MS MH,49,49,2022_Dec_15_1245,2020.2.10,distractmap2,59.9743669558746,"['Left Face', 'Abdomen', 'Left Face', 'Abdomen']",
2,"[0, 0.2]",None,0,0,0,0,2476.160865099984,None,None,None,"[0, 0, 0]",2479.177614999935,None,2479.177614999935,2480.177625400014,2480.1609304999,2481.1609473999124,"[0, 0, 0]",1,2479.177614999935,None,,,,,,,,,,,,,,,,,,,9,F,2,13,R,MS MH,49,49,2022_Dec_15_1245,2020.2.10,distractmap2,59.9743669558746,"['Left Face', 'Abdomen', 'Left Face', 'Abdomen']",
5,"[0, 0]",None,0,1,1,1,,,None,None,"[0, 0, 0]",2481.1775691999355,2483.1775941000087,2481.1775691999355,2482.1776173999533,2482.1609153999016,2483.160919799935,"[0, 0, 0]",1,2481.1775691999355,2483.1775941000087,,,,,,,,,,,,,,,,,,,9,F,2,13,R,MS MH,49,49,2022_Dec_15_1245,2020.2.10,distractmap2,59.9743669558746,"['Left Face', 'Abdomen', 'Left Face', 'Abdomen']",
6,"[0.2, 0]",0.0,0,2,2,2,,,None,None,"[0, 0, 0]",2483.1942741000094,2485.194270099979,2483.1942741000094,2484.1942076999694,2484.1775934000034,2485.1776283999206,"[0, 0, 0]",1,2483.1942741000094,2485.194270099979,,,,,,,,,,,,,,,,,,,9,F,2,13,R,MS MH,49,49,2022_Dec_15_1245,2020.2.10,distractmap2,59.9743669558746,"['Left Face', 'Abdomen', 'Left Face', 'Abdomen']",
1,"[-0.2, 0.2]",0.0,0,3,3,3,,,None,None,"[0, 0, 0]",2485.210943699931,2487.2109684000025,2485.210943699931,2486.210958099924,2486.1942929999204,2487.194298599963,"[0, 0, 0]",1,2485.210943699931,2487.2109684000025,,,,,,,,,,,,,,,,,,,9,F,2,13,R,MS MH,49,49,2022_Dec_15_1245,2020.2.10,distractmap2,59.9743669558746,"['Left Face', 'Abdomen', 'Left Face', 'Abdomen']",
6,"[0.2, 0]",1.0,0,4,4,4,,,None,None,"[0, 0, 0]",2487.2276333000045,2489.2277045999654,2487.2276333000045,2488.227644699975,2488.2109549999004,2489.211033899919,"[0, 0, 0]",1,2487.2276333000045,2489.2277045999654,,,,,,,,,,,,,,,,,,,9,F,2,13,R,MS MH,49,49,2022_Dec_15_1245,2020.2.10,distractmap2,59.9743669558746,"['Left Face', 'Abdomen', 'Left Face', 'Abdomen']",
6,"[0.2, 0]",0.0,0,5,5,5,,,None,None,"[0, 0, 0]",2489.2443554999772,2491.2443502999377,2489.2443554999772,2490.24434059998,2490.227668599924,2491.227677499992,"[0, 0, 0]",0,2489.2443554999772,2491.2443502999377,,,,,,,,,,,,,,,,,,,9,F,2,13,R,MS MH,49,49,2022_Dec_15_1245,2020.2.10,distractmap2,59.9743669558746,"['Left Face', 'Abdomen', 'Left Face', 'Abdomen']",
9,"[0.2, -0.2]",0.0,0,6,6,6,,,None,None,"[0, 0, 0]",2491.2609946999,2493.2610385000007,2491.2609946999,2492.261026299908,2492.2443759999005,2493.24435189995,"[0, 0, 0]",1,2491.2609946999,2493.2610385000007,,,,,,,,,,,,,,,,,,,9,F,2,13,R,MS MH,49,49,2022_Dec_15_1245,2020.2.10,distractmap2,59.9743669558746,"['Left Face', 'Abdomen', 'Left Face', 'Abdomen']",
6,"[0.2, 0]",1.0,0,7,7,7,,,None,None,"[0, 0, 0]",2493.2777051999,2495.277695699944,2493.2777051999,2494.277684599976,2494.261008100002,2495.2610480999574,"[0, 0, 0]",1,2493.2777051999,2495.277695699944,,,,,,,,,,,,,,,,,,,9,F,2,13,R,MS MH,49,49,2022_Dec_15_1245,2020.2.10,distractmap2,59.9743669558746,"['Left Face', 'Abdomen', 'Left Face', 'Abdomen']",
3,"[0.2, 0.2]",0.0,0,8,8,8,,,None,None,"[0, 0, 0]",2495.2943890999304,2497.294399400009,2495.2943890999304,2496.2946770999115,2496.2777320999885,2497.2777210999047,"[0, 0, 0]",1,2495.2943890999304,2497.294399400009,,,,,,,,,,,,,,,,,,,9,F,2,13,R,MS MH,49,49,2022_Dec_15_1245,2020.2.10,distractmap2,59.9743669558746,"['Left Face', 'Abdomen', 'Left Face', 'Abdomen']",
9,"[0.2, -0.2]",0.0,0,9,9,9,,,None,None,"[0, 0, 0]",2497.3110356999096,2499.311079600011,2497.3110356999096,2498.311117999954,2498.2944814999355,2499.294421199942,"[0, 0, 0]",0,2497.3110356999096,2499.311079600011,,,,,,,,,,,,,,,,,,,9,F,2,13,R,MS MH,49,49,2022_Dec_15_1245,2020.2.10,distractmap2,59.9743669558746,"['Left Face', 'Abdomen', 'Left Face', 'Abdomen']",
,,,,,,,,,,,,,,,,,,,,,,2499.344418999972,None,,,,,,,,,,,,,,,,,9,F,2,13,R,MS MH,49,49,2022_Dec_15_1245,2020.2.10,distractmap2,59.9743669558746,"['Left Face', 'Abdomen', 'Left Face', 'Abdomen']",
3,"[0.2, 0.2]",None,0,0,0,0,2507.6278601000085,None,None,None,"[0, 0, 0]",2514.3946148999967,None,2514.3946148999967,2515.394646300003,2515.3779381999047,2516.377912899945,"[0, 0, 0]",1,2514.3946148999967,None,,,,,,,,,,,,,,,,,,,9,F,2,13,R,MS MH,49,49,2022_Dec_15_1245,2020.2.10,distractmap2,59.9743669558746,"['Left Face', 'Abdomen', 'Left Face', 'Abdomen']",
9,"[0.2, -0.2]",None,0,1,1,1,,,None,None,"[0, 0, 0]",2516.3945886999136,2518.3946013000095,2516.3945886999136,2517.394582399982,2517.3778944999212,2518.3779280999443,"[0, 0, 0]",1,2516.3945886999136,2518.3946013000095,,,,,,,,,,,,,,,,,,,9,F,2,13,R,MS MH,49,49,2022_Dec_15_1245,2020.2.10,distractmap2,59.9743669558746,"['Left Face', 'Abdomen', 'Left Face', 'Abdomen']",
