square,location,corrAns,trials.thisRepN,trials.thisTrialN,trials.thisN,trials.thisIndex,trials_2.thisRepN,trials_2.thisTrialN,trials_2.thisN,trials_2.thisIndex,fixation_1.started,fixation_1.stopped,grid_lines.started,grid_lines.stopped,target_square.started,target_square.stopped,fixation_2.started,fixation_2.stopped,response.corr,response.x,response.y,response.leftButton,response.click_left,response.click_right,response.started,response.stopped,ScoreReportText.started,ScoreReportText.stopped,ScoreReportResponse.keys,ScoreReportResponse.started,ScoreReportResponse.stopped,response_2.x,response_2.y,response_2.leftButton,grid_lines_2.started,grid_lines_2.stopped,target_square_2.started,target_square_2.stopped,fixation_3.started,fixation_3.stopped,response_2.click,response_2.corr,response_2.started,response_2.stopped,BodySiteInstructionText.started,BodySiteImg.started,BodySiteImg.stopped,BodySiteInstructionRead.keys,BodySiteInstructionRead.rt,BodySiteInstructionRead.started,BodySiteInstructionRead.stopped,response.click,IntensityRating.response,IntensityRating.rt,IntensityRating.started,IntensityRating.stopped,subject number,gender,bodymap first- or second-half (1 or 2),session,handedness,scanner,date,expName,psychopyVersion,frameRate,body_site_order,
6,"[0.2, 0]",None,0,0,0,0,,,,,22.51044650003314,None,23.54280319996178,None,23.54280319996178,24.54410930001177,24.52747079997789,None,1,0.09583333333333334,0.30833333333333335,"[0, 0, 0]",0,0,23.54280319996178,None,,,,,,,,,,,,,,,,,,,,,,,,,,,,,,,999,m,2,99,r,TEST,2021_Aug_20_1304,distractmap,2020.2.10,59.982353169052,['Abdomen'],
6,"[0.2, 0]",1,0,1,1,1,,,,,,,25.510777299990878,None,25.510777299990878,26.510701999999583,26.49416909995489,27.49410610005725,0,0.09583333333333334,0.30833333333333335,"[0, 0, 0]",0,0,25.510777299990878,None,,,,,,,,,,,,,,,,,,,,,,,,,,,,,,,999,m,2,99,r,TEST,2021_Aug_20_1304,distractmap,2020.2.10,59.982353169052,['Abdomen'],
2,"[0, 0.2]",0,0,2,2,2,,,,,,,27.51083100005053,None,27.51083100005053,28.510785600054078,28.494114800007083,29.494131700019352,0,0.09583333333333334,0.30833333333333335,"[0, 0, 0]",0,0,27.51083100005053,None,,,,,,,,,,,,,,,,,,,,,,,,,,,,,,,999,m,2,99,r,TEST,2021_Aug_20_1304,distractmap,2020.2.10,59.982353169052,['Abdomen'],
9,"[0.2, -0.2]",0,0,3,3,3,,,,,,,29.510859100031666,None,29.510859100031666,30.510798800038174,30.494192800018936,31.494208100019023,0,0.09583333333333334,0.30833333333333335,"[0, 0, 0]",0,0,29.510859100031666,None,,,,,,,,,,,,,,,,,,,,,,,,,,,,,,,999,m,2,99,r,TEST,2021_Aug_20_1304,distractmap,2020.2.10,59.982353169052,['Abdomen'],
9,"[0.2, -0.2]",1,0,4,4,4,,,,,,,31.510879199951887,None,31.510879199951887,32.51086120004766,32.494217599974945,33.49421669996809,0,0.09583333333333334,0.30833333333333335,"[0, 0, 0]",0,0,31.510879199951887,None,,,,,,,,,,,,,,,,,,,,,,,,,,,,,,,999,m,2,99,r,TEST,2021_Aug_20_1304,distractmap,2020.2.10,59.982353169052,['Abdomen'],
6,"[0.2, 0]",0,0,5,5,5,,,,,,,33.51088129996788,None,33.51088129996788,34.51087030000053,34.494151600054465,35.494232499971986,0,0.09583333333333334,0.30833333333333335,"[0, 0, 0]",0,0,33.51088129996788,None,,,,,,,,,,,,,,,,,,,,,,,,,,,,,,,999,m,2,99,r,TEST,2021_Aug_20_1304,distractmap,2020.2.10,59.982353169052,['Abdomen'],
4,"[-0.2, 0]",0,0,6,6,6,,,,,,,35.51086060004309,None,35.51086060004309,36.51091740000993,36.49426309997216,37.494225900038145,0,0.09583333333333334,0.30833333333333335,"[0, 0, 0]",0,0,35.51086060004309,None,,,,,,,,,,,,,,,,,,,,,,,,,,,,,,,999,m,2,99,r,TEST,2021_Aug_20_1304,distractmap,2020.2.10,59.982353169052,['Abdomen'],
3,"[0.2, 0.2]",0,0,7,7,7,,,,,,,37.51091890002135,None,37.51091890002135,38.51083779998589,38.49421869998332,39.49426379997749,0,0.09583333333333334,0.30833333333333335,"[0, 0, 0]",0,0,37.51091890002135,None,,,,,,,,,,,,,,,,,,,,,,,,,,,,,,,999,m,2,99,r,TEST,2021_Aug_20_1304,distractmap,2020.2.10,59.982353169052,['Abdomen'],
3,"[0.2, 0.2]",1,0,8,8,8,,,,,,,39.51093230000697,None,39.51093230000697,40.510975799988955,40.494264899985865,41.49425720004365,0,0.09583333333333334,0.30833333333333335,"[0, 0, 0]",0,0,39.51093230000697,None,,,,,,,,,,,,,,,,,,,,,,,,,,,,,,,999,m,2,99,r,TEST,2021_Aug_20_1304,distractmap,2020.2.10,59.982353169052,['Abdomen'],
8,"[0, -0.2]",0,0,9,9,9,,,,,,,41.51098170003388,None,41.51098170003388,42.51098020002246,42.494260799954645,43.494271100033075,0,0.09583333333333334,0.30833333333333335,"[0, 0, 0]",0,0,41.51098170003388,None,,,,,,,,,,,,,,,,,,,,,,,,,,,,,,,999,m,2,99,r,TEST,2021_Aug_20_1304,distractmap,2020.2.10,59.982353169052,['Abdomen'],
1,"[-0.2, 0.2]",0,0,10,10,10,,,,,,,43.510979900020175,None,43.510979900020175,44.5109880999662,44.49425750004593,45.494260799954645,0,0.09583333333333334,0.30833333333333335,"[0, 0, 0]",0,0,43.510979900020175,None,,,,,,,,,,,,,,,,,,,,,,,,,,,,,,,999,m,2,99,r,TEST,2021_Aug_20_1304,distractmap,2020.2.10,59.982353169052,['Abdomen'],
2,"[0, 0.2]",0,0,11,11,11,,,,,,,45.51096630003303,None,45.51096630003303,46.510979200014845,46.494329100009054,47.49422230001073,0,0.09583333333333334,0.30833333333333335,"[0, 0, 0]",0,0,45.51096630003303,None,,,,,,,,,,,,,,,,,,,,,,,,,,,,,,,999,m,2,99,r,TEST,2021_Aug_20_1304,distractmap,2020.2.10,59.982353169052,['Abdomen'],
4,"[-0.2, 0]",0,0,12,12,12,,,,,,,47.511014500050806,None,47.511014500050806,48.511003499967046,48.49433440004941,49.49431420001201,0,0.09583333333333334,0.30833333333333335,"[0, 0, 0]",0,0,47.511014500050806,None,,,,,,,,,,,,,,,,,,,,,,,,,,,,,,,999,m,2,99,r,TEST,2021_Aug_20_1304,distractmap,2020.2.10,59.982353169052,['Abdomen'],
4,"[-0.2, 0]",1,0,13,13,13,,,,,,,49.51100990001578,None,49.51100990001578,50.511003499967046,50.494354799971916,51.49429910001345,0,0.09583333333333334,0.30833333333333335,"[0, 0, 0]",0,0,49.51100990001578,None,,,,,,,,,,,,,,,,,,,,,,,,,,,,,,,999,m,2,99,r,TEST,2021_Aug_20_1304,distractmap,2020.2.10,59.982353169052,['Abdomen'],
8,"[0, -0.2]",0,0,14,14,14,,,,,,,51.51101120002568,None,51.51101120002568,52.51104610005859,52.4943726999918,53.49438679998275,0,0.09583333333333334,0.30833333333333335,"[0, 0, 0]",0,0,51.51101120002568,None,,,,,,,,,,,,,,,,,,,,,,,,,,,,,,,999,m,2,99,r,TEST,2021_Aug_20_1304,distractmap,2020.2.10,59.982353169052,['Abdomen'],
5,"[0, 0]",0,0,15,15,15,,,,,,,53.51099219999742,None,53.51099219999742,54.51105710002594,54.49438170006033,55.494338599964976,0,0.09583333333333334,0.30833333333333335,"[0, 0, 0]",0,0,53.51099219999742,None,,,,,,,,,,,,,,,,,,,,,,,,,,,,,,,999,m,2,99,r,TEST,2021_Aug_20_1304,distractmap,2020.2.10,59.982353169052,['Abdomen'],
5,"[0, 0]",1,0,16,16,16,,,,,,,55.51108570001088,None,55.51108570001088,56.51104819995817,56.4944008999737,57.494393400033005,0,0.09583333333333334,0.30833333333333335,"[0, 0, 0]",0,0,55.51108570001088,None,,,,,,,,,,,,,,,,,,,,,,,,,,,,,,,999,m,2,99,r,TEST,2021_Aug_20_1304,distractmap,2020.2.10,59.982353169052,['Abdomen'],
1,"[-0.2, 0.2]",0,0,17,17,17,,,,,,,57.51112589996774,None,57.51112589996774,58.511096699978225,58.49439170002006,59.49442480003927,0,0.09583333333333334,0.30833333333333335,"[0, 0, 0]",0,0,57.51112589996774,None,,,,,,,,,,,,,,,,,,,,,,,,,,,,,,,999,m,2,99,r,TEST,2021_Aug_20_1304,distractmap,2020.2.10,59.982353169052,['Abdomen'],
3,"[0.2, 0.2]",0,0,18,18,18,,,,,,,59.51107080001384,None,59.51107080001384,60.51110440003686,60.49439630005509,61.494431099970825,0,0.09583333333333334,0.30833333333333335,"[0, 0, 0]",0,0,59.51107080001384,None,,,,,,,,,,,,,,,,,,,,,,,,,,,,,,,999,m,2,99,r,TEST,2021_Aug_20_1304,distractmap,2020.2.10,59.982353169052,['Abdomen'],
6,"[0.2, 0]",0,0,19,19,19,,,,,,,61.51109569997061,None,61.51109569997061,62.511111599975266,62.49433769995812,63.4944053000072,0,0.09583333333333334,0.30833333333333335,"[0, 0, 0]",0,0,61.51109569997061,None,,,,,,,,,,,,,,,,,,,,,,,,,,,,,,,999,m,2,99,r,TEST,2021_Aug_20_1304,distractmap,2020.2.10,59.982353169052,['Abdomen'],
1,"[-0.2, 0.2]",0,0,20,20,20,,,,,,,63.511130400002,None,63.511130400002,64.51114910002798,64.49445989995729,65.49447529995814,0,0.09583333333333334,0.30833333333333335,"[0, 0, 0]",0,0,63.511130400002,None,,,,,,,,,,,,,,,,,,,,,,,,,,,,,,,999,m,2,99,r,TEST,2021_Aug_20_1304,distractmap,2020.2.10,59.982353169052,['Abdomen'],
1,"[-0.2, 0.2]",1,0,21,21,21,,,,,,,65.51111059996765,None,65.51111059996765,66.51117389998399,66.49439110001549,67.49443510000128,0,0.09583333333333334,0.30833333333333335,"[0, 0, 0]",0,0,65.51111059996765,None,,,,,,,,,,,,,,,,,,,,,,,,,,,,,,,999,m,2,99,r,TEST,2021_Aug_20_1304,distractmap,2020.2.10,59.982353169052,['Abdomen'],
1,"[-0.2, 0.2]",1,0,22,22,22,,,,,,,67.51116730005015,None,67.51116730005015,68.51115519995801,68.49442999996245,69.4946493000025,0,0.09583333333333334,0.30833333333333335,"[0, 0, 0]",0,0,67.51116730005015,None,,,,,,,,,,,,,,,,,,,,,,,,,,,,,,,999,m,2,99,r,TEST,2021_Aug_20_1304,distractmap,2020.2.10,59.982353169052,['Abdomen'],
3,"[0.2, 0.2]",0,0,23,23,23,,,,,,,69.51134209998418,None,69.51134209998418,70.51117129996419,70.49447270005476,71.49451940006111,0,0.09583333333333334,0.30833333333333335,"[0, 0, 0]",0,0,69.51134209998418,None,,,,,,,,,,,,,,,,,,,,,,,,,,,,,,,999,m,2,99,r,TEST,2021_Aug_20_1304,distractmap,2020.2.10,59.982353169052,['Abdomen'],
2,"[0, 0.2]",0,0,24,24,24,,,,,,,71.51110570004676,None,71.51110570004676,72.51107929996215,72.49444549996406,73.49439310003072,0,0.09583333333333334,0.30833333333333335,"[0, 0, 0]",0,0,71.51110570004676,None,,,,,,,,,,,,,,,,,,,,,,,,,,,,,,,999,m,2,99,r,TEST,2021_Aug_20_1304,distractmap,2020.2.10,59.982353169052,['Abdomen'],
1,"[-0.2, 0.2]",0,0,25,25,25,,,,,,,73.51120449998416,None,73.51120449998416,74.5112154999515,74.49454560002778,75.49450739996973,0,0.09583333333333334,0.30833333333333335,"[0, 0, 0]",0,0,73.51120449998416,None,,,,,,,,,,,,,,,,,,,,,,,,,,,,,,,999,m,2,99,r,TEST,2021_Aug_20_1304,distractmap,2020.2.10,59.982353169052,['Abdomen'],
7,"[-0.2, -0.2]",0,0,26,26,26,,,,,,,75.51122159999795,None,75.51122159999795,76.51118250004947,76.49455179995857,77.49455920001492,0,0.09583333333333334,0.30833333333333335,"[0, 0, 0]",0,0,75.51122159999795,None,,,,,,,,,,,,,,,,,,,,,,,,,,,,,,,999,m,2,99,r,TEST,2021_Aug_20_1304,distractmap,2020.2.10,59.982353169052,['Abdomen'],
7,"[-0.2, -0.2]",1,0,27,27,27,,,,,,,77.5111793000251,None,77.5111793000251,78.51116979995277,78.49456590006594,79.4945616000332,0,0.09583333333333334,0.30833333333333335,"[0, 0, 0]",0,0,77.5111793000251,None,,,,,,,,,,,,,,,,,,,,,,,,,,,,,,,999,m,2,99,r,TEST,2021_Aug_20_1304,distractmap,2020.2.10,59.982353169052,['Abdomen'],
2,"[0, 0.2]",0,0,28,28,28,,,,,,,79.51120459998492,None,79.51120459998492,80.51129180006683,80.49461040005554,81.49457860004622,0,0.09583333333333334,0.30833333333333335,"[0, 0, 0]",0,0,79.51120459998492,None,,,,,,,,,,,,,,,,,,,,,,,,,,,,,,,999,m,2,99,r,TEST,2021_Aug_20_1304,distractmap,2020.2.10,59.982353169052,['Abdomen'],
6,"[0.2, 0]",0,0,29,29,29,,,,,,,81.51119520002976,None,81.51119520002976,82.51126249996014,82.49459020001814,83.49454470002092,0,0.09583333333333334,0.30833333333333335,"[0, 0, 0]",0,0,81.51119520002976,None,,,,,,,,,,,,,,,,,,,,,,,,,,,,,,,999,m,2,99,r,TEST,2021_Aug_20_1304,distractmap,2020.2.10,59.982353169052,['Abdomen'],
,,,,,,,,,,,,,,,,,,,,,,,,,,,83.54295829997864,None,space,83.54295829997864,None,,,,,,,,,,,,,,,,,,,,,,,,,,999,m,2,99,r,TEST,2021_Aug_20_1304,distractmap,2020.2.10,59.982353169052,['Abdomen'],
6,"[0.2, 0]",None,,,,,0,0,0,0,113.27780459995847,None,,,,,,,,,,,,,,,,,,,,None,None,"[0, 0, 0]",114.29349279997405,None,114.29349279997405,115.29484620003495,115.27808289998211,116.27813840005547,"[0, 0, 0]",1,114.29349279997405,None,,,,,,,,,,,,,999,m,2,99,r,TEST,2021_Aug_20_1304,distractmap,2020.2.10,59.982353169052,['Abdomen'],
7,"[-0.2, -0.2]",None,,,,,0,1,1,1,,,,,,,,,,,,,,,,,,,,,,None,None,"[0, 0, 0]",116.29485599999316,118.29449400003068,116.29485599999316,117.29493720002938,117.27819800004363,118.2781171000097,"[0, 0, 0]",1,116.29485599999316,118.29449400003068,,,,,,,,,,,,,999,m,2,99,r,TEST,2021_Aug_20_1304,distractmap,2020.2.10,59.982353169052,['Abdomen'],
6,"[0.2, 0]",1,,,,,0,2,2,2,,,,,,,,,,,,,,,,,,,,,,None,None,"[0, 0, 0]",118.31152190000284,120.31112440000288,118.31152190000284,119.31165479996707,119.2949122999562,120.29484980006237,"[0, 0, 0]",0,118.31152190000284,120.31112440000288,,,,,,,,,,,,,999,m,2,99,r,TEST,2021_Aug_20_1304,distractmap,2020.2.10,59.982353169052,['Abdomen'],
2,"[0, 0.2]",0,,,,,0,3,3,3,,,,,,,,,,,,,,,,,,,,,,None,None,"[0, 0, 0]",120.32825619995128,122.32786890002899,120.32825619995128,121.32820810005069,121.31155790004414,122.31153369997628,"[0, 0, 0]",0,120.32825619995128,122.32786890002899,,,,,,,,,,,,,999,m,2,99,r,TEST,2021_Aug_20_1304,distractmap,2020.2.10,59.982353169052,['Abdomen'],
5,"[0, 0]",0,,,,,0,4,4,4,,,,,,,,,,,,,,,,,,,,,,None,None,"[0, 0, 0]",122.34488099999726,124.34450720006134,122.34488099999726,123.34492689999752,123.32823870005086,124.3282479000045,"[0, 0, 0]",0,122.34488099999726,124.34450720006134,,,,,,,,,,,,,999,m,2,99,r,TEST,2021_Aug_20_1304,distractmap,2020.2.10,59.982353169052,['Abdomen'],
4,"[-0.2, 0]",0,,,,,0,5,5,5,,,,,,,,,,,,,,,,,,,,,,None,None,"[0, 0, 0]",124.36156130000018,126.36123100004625,124.36156130000018,125.36156860005576,125.34481819998473,126.34498529997654,"[0, 0, 0]",0,124.36156130000018,126.36123100004625,,,,,,,,,,,,,999,m,2,99,r,TEST,2021_Aug_20_1304,distractmap,2020.2.10,59.982353169052,['Abdomen'],
4,"[-0.2, 0]",0,,,,,0,6,6,6,,,,,,,,,,,,,,,,,,,,,,None,None,"[0, 0, 0]",126.37832470005378,128.37791729997844,126.37832470005378,127.37828469998203,127.36160069995094,128.36156740004662,"[0, 0, 0]",0,126.37832470005378,128.37791729997844,,,,,,,,,,,,,999,m,2,99,r,TEST,2021_Aug_20_1304,distractmap,2020.2.10,59.982353169052,['Abdomen'],
7,"[-0.2, -0.2]",0,,,,,0,7,7,7,,,,,,,,,,,,,,,,,,,,,,None,None,"[0, 0, 0]",128.3949737000512,130.39453489996959,128.3949737000512,129.39498670003377,129.3782597000245,130.37833880004473,"[0, 0, 0]",0,128.3949737000512,130.39453489996959,,,,,,,,,,,,,999,m,2,99,r,TEST,2021_Aug_20_1304,distractmap,2020.2.10,59.982353169052,['Abdomen'],
4,"[-0.2, 0]",1,,,,,0,8,8,8,,,,,,,,,,,,,,,,,,,,,,None,None,"[0, 0, 0]",130.41169089998584,132.41131260001566,130.41169089998584,131.4116917999927,131.39498620002996,132.39499159995466,"[0, 0, 0]",0,130.41169089998584,132.41131260001566,,,,,,,,,,,,,999,m,2,99,r,TEST,2021_Aug_20_1304,distractmap,2020.2.10,59.982353169052,['Abdomen'],
3,"[0.2, 0.2]",0,,,,,0,9,9,9,,,,,,,,,,,,,,,,,,,,,,None,None,"[0, 0, 0]",132.4283354000654,134.42784699995536,132.4283354000654,133.4284284999594,133.41173599998,134.4116033000173,"[0, 0, 0]",0,132.4283354000654,134.42784699995536,,,,,,,,,,,,,999,m,2,99,r,TEST,2021_Aug_20_1304,distractmap,2020.2.10,59.982353169052,['Abdomen'],
5,"[0, 0]",0,,,,,0,10,10,10,,,,,,,,,,,,,,,,,,,,,,None,None,"[0, 0, 0]",134.44503319996875,136.44461010000668,134.44503319996875,135.44501609995496,135.42834620003123,136.42835760000162,"[0, 0, 0]",0,134.44503319996875,136.44461010000668,,,,,,,,,,,,,999,m,2,99,r,TEST,2021_Aug_20_1304,distractmap,2020.2.10,59.982353169052,['Abdomen'],
3,"[0.2, 0.2]",1,,,,,0,11,11,11,,,,,,,,,,,,,,,,,,,,,,None,None,"[0, 0, 0]",136.46167790004984,138.46126730006654,136.46167790004984,137.46171379997395,137.44500990002416,138.4450022999663,"[0, 0, 0]",0,136.46167790004984,138.46126730006654,,,,,,,,,,,,,999,m,2,99,r,TEST,2021_Aug_20_1304,distractmap,2020.2.10,59.982353169052,['Abdomen'],
1,"[-0.2, 0.2]",0,,,,,0,12,12,12,,,,,,,,,,,,,,,,,,,,,,None,None,"[0, 0, 0]",138.47836900001857,140.47795490000863,138.47836900001857,139.47828469995875,139.46163799997885,140.46169939998072,"[0, 0, 0]",0,138.47836900001857,140.47795490000863,,,,,,,,,,,,,999,m,2,99,r,TEST,2021_Aug_20_1304,distractmap,2020.2.10,59.982353169052,['Abdomen'],
9,"[0.2, -0.2]",0,,,,,0,13,13,13,,,,,,,,,,,,,,,,,,,,,,None,None,"[0, 0, 0]",140.49504079995677,142.4946203000145,140.49504079995677,141.49504349997733,141.47831779997796,142.47835980006494,"[0, 0, 0]",0,140.49504079995677,142.4946203000145,,,,,,,,,,,,,999,m,2,99,r,TEST,2021_Aug_20_1304,distractmap,2020.2.10,59.982353169052,['Abdomen'],
9,"[0.2, -0.2]",0,,,,,0,14,14,14,,,,,,,,,,,,,,,,,,,,,,None,None,"[0, 0, 0]",142.51169279997703,144.51132249995135,142.51169279997703,143.5117961000651,143.49505799997132,144.49507319997065,"[0, 0, 0]",0,142.51169279997703,144.51132249995135,,,,,,,,,,,,,999,m,2,99,r,TEST,2021_Aug_20_1304,distractmap,2020.2.10,59.982353169052,['Abdomen'],
8,"[0, -0.2]",0,,,,,0,15,15,15,,,,,,,,,,,,,,,,,,,,,,None,None,"[0, 0, 0]",144.52840830001514,146.52804610005114,144.52840830001514,145.52841160004027,145.51169059996027,146.51176570006646,"[0, 0, 0]",0,144.52840830001514,146.52804610005114,,,,,,,,,,,,,999,m,2,99,r,TEST,2021_Aug_20_1304,distractmap,2020.2.10,59.982353169052,['Abdomen'],
6,"[0.2, 0]",0,,,,,0,16,16,16,,,,,,,,,,,,,,,,,,,,,,None,None,"[0, 0, 0]",146.54506589996163,148.5447187999962,146.54506589996163,147.5450487000635,147.52842560003046,148.52838519995566,"[0, 0, 0]",0,146.54506589996163,148.5447187999962,,,,,,,,,,,,,999,m,2,99,r,TEST,2021_Aug_20_1304,distractmap,2020.2.10,59.982353169052,['Abdomen'],
3,"[0.2, 0.2]",0,,,,,0,17,17,17,,,,,,,,,,,,,,,,,,,,,,None,None,"[0, 0, 0]",148.5617365000071,150.56134570005815,148.5617365000071,149.56178039999213,149.54505740001332,150.54516890004743,"[0, 0, 0]",0,148.5617365000071,150.56134570005815,,,,,,,,,,,,,999,m,2,99,r,TEST,2021_Aug_20_1304,distractmap,2020.2.10,59.982353169052,['Abdomen'],
6,"[0.2, 0]",1,,,,,0,18,18,18,,,,,,,,,,,,,,,,,,,,,,None,None,"[0, 0, 0]",150.57837510004174,152.5780854000477,150.57837510004174,151.5784579999745,151.56165669998154,152.56180060002953,"[0, 0, 0]",0,150.57837510004174,152.5780854000477,,,,,,,,,,,,,999,m,2,99,r,TEST,2021_Aug_20_1304,distractmap,2020.2.10,59.982353169052,['Abdomen'],
5,"[0, 0]",0,,,,,0,19,19,19,,,,,,,,,,,,,,,,,,,,,,None,None,"[0, 0, 0]",152.59513749997132,154.59475070005283,152.59513749997132,153.59513559995685,153.57845609996002,154.57848819997162,"[0, 0, 0]",0,152.59513749997132,154.59475070005283,,,,,,,,,,,,,999,m,2,99,r,TEST,2021_Aug_20_1304,distractmap,2020.2.10,59.982353169052,['Abdomen'],
7,"[-0.2, -0.2]",0,,,,,0,20,20,20,,,,,,,,,,,,,,,,,,,,,,None,None,"[0, 0, 0]",154.61184230004437,156.61146389995702,154.61184230004437,155.61185780004598,155.5951645000605,156.59514900005888,"[0, 0, 0]",0,154.61184230004437,156.61146389995702,,,,,,,,,,,,,999,m,2,99,r,TEST,2021_Aug_20_1304,distractmap,2020.2.10,59.982353169052,['Abdomen'],
5,"[0, 0]",1,,,,,0,21,21,21,,,,,,,,,,,,,,,,,,,,,,None,None,"[0, 0, 0]",156.62837699998636,158.62813219998498,156.62837699998636,157.62851599999703,157.6118312999606,158.61185810004827,"[0, 0, 0]",0,156.62837699998636,158.62813219998498,,,,,,,,,,,,,999,m,2,99,r,TEST,2021_Aug_20_1304,distractmap,2020.2.10,59.982353169052,['Abdomen'],
1,"[-0.2, 0.2]",0,,,,,0,22,22,22,,,,,,,,,,,,,,,,,,,,,,None,None,"[0, 0, 0]",158.64516419998836,160.64477590005845,158.64516419998836,159.64525649999268,159.62854710000101,160.6285218000412,"[0, 0, 0]",0,158.64516419998836,160.64477590005845,,,,,,,,,,,,,999,m,2,99,r,TEST,2021_Aug_20_1304,distractmap,2020.2.10,59.982353169052,['Abdomen'],
7,"[-0.2, -0.2]",0,,,,,0,23,23,23,,,,,,,,,,,,,,,,,,,,,,None,None,"[0, 0, 0]",160.66187249997165,162.66148270003032,160.66187249997165,161.66180440003518,161.64521270000841,162.6452301000245,"[0, 0, 0]",0,160.66187249997165,162.66148270003032,,,,,,,,,,,,,999,m,2,99,r,TEST,2021_Aug_20_1304,distractmap,2020.2.10,59.982353169052,['Abdomen'],
9,"[0.2, -0.2]",0,,,,,0,24,24,24,,,,,,,,,,,,,,,,,,,,,,None,None,"[0, 0, 0]",162.678548600059,164.678177600028,162.678548600059,163.67850599996746,163.66190639999695,164.6619051999878,"[0, 0, 0]",0,162.678548600059,164.678177600028,,,,,,,,,,,,,999,m,2,99,r,TEST,2021_Aug_20_1304,distractmap,2020.2.10,59.982353169052,['Abdomen'],
3,"[0.2, 0.2]",0,,,,,0,25,25,25,,,,,,,,,,,,,,,,,,,,,,None,None,"[0, 0, 0]",164.6952225000132,166.69486549997237,164.6952225000132,165.69526089995634,165.6785310000414,166.67859060002957,"[0, 0, 0]",0,164.6952225000132,166.69486549997237,,,,,,,,,,,,,999,m,2,99,r,TEST,2021_Aug_20_1304,distractmap,2020.2.10,59.982353169052,['Abdomen'],
9,"[0.2, -0.2]",1,,,,,0,26,26,26,,,,,,,,,,,,,,,,,,,,,,None,None,"[0, 0, 0]",166.71198649995495,168.71141650003847,166.71198649995495,167.71196810004767,167.69521709997207,168.69525570003316,"[0, 0, 0]",0,166.71198649995495,168.71141650003847,,,,,,,,,,,,,999,m,2,99,r,TEST,2021_Aug_20_1304,distractmap,2020.2.10,59.982353169052,['Abdomen'],
6,"[0.2, 0]",0,,,,,0,27,27,27,,,,,,,,,,,,,,,,,,,,,,None,None,"[0, 0, 0]",168.72857320006005,170.72821039997507,168.72857320006005,169.72860320005566,169.7119934000075,170.71191039995756,"[0, 0, 0]",0,168.72857320006005,170.72821039997507,,,,,,,,,,,,,999,m,2,99,r,TEST,2021_Aug_20_1304,distractmap,2020.2.10,59.982353169052,['Abdomen'],
2,"[0, 0.2]",0,,,,,0,28,28,28,,,,,,,,,,,,,,,,,,,,,,None,None,"[0, 0, 0]",170.74531709996518,172.74490920000244,170.74531709996518,171.74527499999385,171.7285974000115,172.72858880006243,"[0, 0, 0]",0,170.74531709996518,172.74490920000244,,,,,,,,,,,,,999,m,2,99,r,TEST,2021_Aug_20_1304,distractmap,2020.2.10,59.982353169052,['Abdomen'],
5,"[0, 0]",0,,,,,0,29,29,29,,,,,,,,,,,,,,,,,,,,,,None,None,"[0, 0, 0]",172.7619868000038,174.76161110005341,172.7619868000038,173.76198179996572,173.7452735999832,174.74527920002583,"[0, 0, 0]",0,172.7619868000038,174.76161110005341,,,,,,,,,,,,,999,m,2,99,r,TEST,2021_Aug_20_1304,distractmap,2020.2.10,59.982353169052,['Abdomen'],
,,,,,,,,,,,,,,,,,,,,,,,,,,,174.810369099956,None,space,174.810369099956,None,,,,,,,,,,,,,,,,,,,,,,,,,,999,m,2,99,r,TEST,2021_Aug_20_1304,distractmap,2020.2.10,59.982353169052,['Abdomen'],
5,"[0, 0]",None,0,0,0,0,,,,,201.46233630005736,None,211.46096980001312,None,211.46096980001312,212.4623081999598,212.42883520002943,213.4289287000429,1,None,None,"[0, 0, 0]",,,211.46096980001312,None,,,,,,,,,,,,,,,,,,,184.44446320005227,184.44446320005227,None,space,0.9505351999541745,184.44446320005227,None,"[0, 0, 0]",,,,,999,m,2,99,r,TEST,2021_Aug_20_1304,distractmap,2020.2.10,59.982353169052,['Abdomen'],
5,"[0, 0]",1,0,1,1,1,,,,,,,213.44564230006654,None,213.44564230006654,214.44561669998802,214.42892239999492,215.42892510001548,0,None,None,"[0, 0, 0]",,,213.44564230006654,None,,,,,,,,,,,,,,,,,,,,,,,,,,"[0, 0, 0]",,,,,999,m,2,99,r,TEST,2021_Aug_20_1304,distractmap,2020.2.10,59.982353169052,['Abdomen'],
4,"[-0.2, 0]",0,0,2,2,2,,,,,,,215.44549339998048,215.44549339998048,215.44549339998048,216.44558539998252,216.42896679998375,217.42897440004162,0,None,None,"[0, 0, 0]",,,215.44549339998048,215.44549339998048,,,,,,,,,,,,,,,,,,,,,,,,,,"[0, 0, 0]",,,,,999,m,2,99,r,TEST,2021_Aug_20_1304,distractmap,2020.2.10,59.982353169052,['Abdomen'],
2,"[0, 0.2]",0,0,3,3,3,,,,,,,217.44563960004598,217.44563960004598,217.44563960004598,218.4456128999591,218.42891819996294,219.4289711000165,0,None,None,"[0, 0, 0]",,,217.44563960004598,217.44563960004598,,,,,,,,,,,,,,,,,,,,,,,,,,"[0, 0, 0]",,,,,999,m,2,99,r,TEST,2021_Aug_20_1304,distractmap,2020.2.10,59.982353169052,['Abdomen'],
6,"[0.2, 0]",0,0,4,4,4,,,,,,,219.52948889997788,219.52948889997788,219.52948889997788,220.52911260002293,220.51236010005232,None,0,None,None,"[0, 0, 0]",,,219.52948889997788,219.52948889997788,,,,,,,,,,,,,,,,,,,,,,,,,,"[0, 0, 0]",,,,,999,m,2,99,r,TEST,2021_Aug_20_1304,distractmap,2020.2.10,59.982353169052,['Abdomen'],
8,"[0, -0.2]",0,0,5,5,5,,,,,,,221.4623921000166,None,221.4623921000166,222.46231570001692,222.44568720005918,223.44564509997144,0,None,None,"[0, 0, 0]",,,221.4623921000166,None,,,,,,,,,,,,,,,,,,,,,,,,,,"[0, 0, 0]",,,,,999,m,2,99,r,TEST,2021_Aug_20_1304,distractmap,2020.2.10,59.982353169052,['Abdomen'],
1,"[-0.2, 0.2]",0,0,6,6,6,,,,,,,223.462366700056,223.462366700056,223.462366700056,224.46239590004552,224.4456693000393,225.4456759999739,0,None,None,"[0, 0, 0]",,,223.462366700056,223.462366700056,,,,,,,,,,,,,,,,,,,,,,,,,,"[0, 0, 0]",,,,,999,m,2,99,r,TEST,2021_Aug_20_1304,distractmap,2020.2.10,59.982353169052,['Abdomen'],
4,"[-0.2, 0]",0,0,7,7,7,,,,,,,225.46239270002116,225.46239270002116,225.46239270002116,226.46232419996522,226.44562829995994,227.44590259995311,0,None,None,"[0, 0, 0]",,,225.46239270002116,225.46239270002116,,,,,,,,,,,,,,,,,,,,,,,,,,"[0, 0, 0]",,,,,999,m,2,99,r,TEST,2021_Aug_20_1304,distractmap,2020.2.10,59.982353169052,['Abdomen'],
8,"[0, -0.2]",0,0,8,8,8,,,,,,,227.4626239000354,227.4626239000354,227.4626239000354,228.46238679997623,228.4456927999854,229.44573310005944,0,None,None,"[0, 0, 0]",,,227.4626239000354,227.4626239000354,,,,,,,,,,,,,,,,,,,,,,,,,,"[0, 0, 0]",,,,,999,m,2,99,r,TEST,2021_Aug_20_1304,distractmap,2020.2.10,59.982353169052,['Abdomen'],
8,"[0, -0.2]",1,0,9,9,9,,,,,,,229.46240119996946,229.46240119996946,229.46240119996946,230.46241160004865,230.44573819998186,231.44573639996815,0,None,None,"[0, 0, 0]",,,229.46240119996946,229.46240119996946,,,,,,,,,,,,,,,,,,,,,,,,,,"[0, 0, 0]",,,,,999,m,2,99,r,TEST,2021_Aug_20_1304,distractmap,2020.2.10,59.982353169052,['Abdomen'],
,,,,,,,,,,,231.4620449000504,None,,,,,,,,,,,,,,,,,,,,,,,,,,,,,,,,,,,,,,,,,50.0,235.6898605900351,,,999,m,2,99,r,TEST,2021_Aug_20_1304,distractmap,2020.2.10,59.982353169052,['Abdomen'],
3,"[0.2, 0.2]",None,0,0,0,0,,,,,242.4621741999872,None,251.4946079000365,None,251.4946079000365,252.49590940005146,252.47929200006183,None,1,None,None,"[0, 0, 0]",,,251.4946079000365,None,,,,,,,,,,,,,,,,,,,,,,,,,,"[0, 0, 0]",,,0.01440841006115079,5.011700210045092,999,m,2,99,r,TEST,2021_Aug_20_1304,distractmap,2020.2.10,59.982353169052,['Abdomen'],
4,"[-0.2, 0]",0,0,1,1,1,,,,,,,253.4795474000275,None,253.4795474000275,254.47920060006436,254.46254720003344,255.46258940000553,0,None,None,"[0, 0, 0]",,,253.4795474000275,None,,,,,,,,,,,,,,,,,,,,,,,,,,"[0, 0, 0]",,,,,999,m,2,99,r,TEST,2021_Aug_20_1304,distractmap,2020.2.10,59.982353169052,['Abdomen'],
1,"[-0.2, 0.2]",0,0,2,2,2,,,,,,,255.4792958999751,255.4792958999751,255.4792958999751,256.47932499996386,256.46257690002676,257.4625832999591,0,None,None,"[0, 0, 0]",,,255.4792958999751,255.4792958999751,,,,,,,,,,,,,,,,,,,,,,,,,,"[0, 0, 0]",,,,,999,m,2,99,r,TEST,2021_Aug_20_1304,distractmap,2020.2.10,59.982353169052,['Abdomen'],
2,"[0, 0.2]",0,0,3,3,3,,,,,,,257.47933510004077,257.47933510004077,257.47933510004077,258.4792495999718,258.4626105000498,259.4626028999919,0,None,None,"[0, 0, 0]",,,257.47933510004077,257.47933510004077,,,,,,,,,,,,,,,,,,,,,,,,,,"[0, 0, 0]",,,,,999,m,2,99,r,TEST,2021_Aug_20_1304,distractmap,2020.2.10,59.982353169052,['Abdomen'],
2,"[0, 0.2]",1,0,4,4,4,,,,,,,259.5108122000238,259.5108122000238,259.5108122000238,260.51264930004254,260.4959993000375,None,0,None,None,"[0, 0, 0]",,,259.5108122000238,259.5108122000238,,,,,,,,,,,,,,,,,,,,,,,,,,"[0, 0, 0]",,,,,999,m,2,99,r,TEST,2021_Aug_20_1304,distractmap,2020.2.10,59.982353169052,['Abdomen'],
5,"[0, 0]",0,0,5,5,5,,,,,,,261.49599690001924,None,261.49599690001924,262.4960170000559,262.479393000016,263.4792795999674,0,None,None,"[0, 0, 0]",,,261.49599690001924,None,,,,,,,,,,,,,,,,,,,,,,,,,,"[0, 0, 0]",,,,,999,m,2,99,r,TEST,2021_Aug_20_1304,distractmap,2020.2.10,59.982353169052,['Abdomen'],
1,"[-0.2, 0.2]",0,0,6,6,6,,,,,,,263.4960099000018,263.4960099000018,263.4960099000018,264.4959734999575,264.47933640005067,265.4792787999613,0,None,None,"[0, 0, 0]",,,263.4960099000018,263.4960099000018,,,,,,,,,,,,,,,,,,,,,,,,,,"[0, 0, 0]",,,,,999,m,2,99,r,TEST,2021_Aug_20_1304,distractmap,2020.2.10,59.982353169052,['Abdomen'],
1,"[-0.2, 0.2]",1,0,7,7,7,,,,,,,265.49614870001096,265.49614870001096,265.49614870001096,266.49601270002313,266.47935250005685,267.47927949996665,0,None,None,"[0, 0, 0]",,,265.49614870001096,265.49614870001096,,,,,,,,,,,,,,,,,,,,,,,,,,"[0, 0, 0]",,,,,999,m,2,99,r,TEST,2021_Aug_20_1304,distractmap,2020.2.10,59.982353169052,['Abdomen'],
8,"[0, -0.2]",0,0,8,8,8,,,,,,,267.49601390003227,267.49601390003227,267.49601390003227,268.4960179000627,268.4793584999861,269.47936670004856,0,None,None,"[0, 0, 0]",,,267.49601390003227,267.49601390003227,,,,,,,,,,,,,,,,,,,,,,,,,,"[0, 0, 0]",,,,,999,m,2,99,r,TEST,2021_Aug_20_1304,distractmap,2020.2.10,59.982353169052,['Abdomen'],
7,"[-0.2, -0.2]",0,0,9,9,9,,,,,,,269.49606280005537,269.49606280005537,269.49606280005537,270.4960228999844,270.47941899998114,271.479353700066,0,None,None,"[0, 0, 0]",,,269.49606280005537,269.49606280005537,,,,,,,,,,,,,,,,,,,,,,,,,,"[0, 0, 0]",,,,,999,m,2,99,r,TEST,2021_Aug_20_1304,distractmap,2020.2.10,59.982353169052,['Abdomen'],
,,,,,,,,,,,271.49567109998316,None,,,,,,,,,,,,,,,,,,,,,,,,,,,,,,,,,,,,,,,,,50.0,280.7230380900437,,,999,m,2,99,r,TEST,2021_Aug_20_1304,distractmap,2020.2.10,59.982353169052,['Abdomen'],
6,"[0.2, 0]",None,0,0,0,0,,,,,287.3277521999553,None,291.5282415000256,None,291.5282415000256,292.5297998000169,292.51305619999766,None,1,None,None,"[0, 0, 0]",,,291.5282415000256,None,,,,,,,,,,,,,,,,,,,,,,,,,,"[0, 0, 0]",,,0.015135110006667674,5.013428809936158,999,m,2,99,r,TEST,2021_Aug_20_1304,distractmap,2020.2.10,59.982353169052,['Abdomen'],
6,"[0.2, 0]",1,0,1,1,1,,,,,,,293.51286969997454,None,293.51286969997454,294.5129779999843,294.4961862000637,295.4962436000351,0,None,None,"[0, 0, 0]",,,293.51286969997454,None,,,,,,,,,,,,,,,,,,,,,,,,,,"[0, 0, 0]",,,,,999,m,2,99,r,TEST,2021_Aug_20_1304,distractmap,2020.2.10,59.982353169052,['Abdomen'],
1,"[-0.2, 0.2]",0,0,2,2,2,,,,,,,295.512900599977,295.512900599977,295.512900599977,296.51293359999545,296.49623819999397,297.4962748000398,0,None,None,"[0, 0, 0]",,,295.512900599977,295.512900599977,,,,,,,,,,,,,,,,,,,,,,,,,,"[0, 0, 0]",,,,,999,m,2,99,r,TEST,2021_Aug_20_1304,distractmap,2020.2.10,59.982353169052,['Abdomen'],
8,"[0, -0.2]",0,0,3,3,3,,,,,,,297.51297300006263,297.51297300006263,297.51297300006263,298.5129086000379,298.4962647999637,299.4962319000624,0,None,None,"[0, 0, 0]",,,297.51297300006263,297.51297300006263,,,,,,,,,,,,,,,,,,,,,,,,,,"[0, 0, 0]",,,,,999,m,2,99,r,TEST,2021_Aug_20_1304,distractmap,2020.2.10,59.982353169052,['Abdomen'],
1,"[-0.2, 0.2]",0,0,4,4,4,,,,,,,299.58004929998424,299.58004929998424,299.58004929998424,300.5796438000398,300.56298889999744,None,0,None,None,"[0, 0, 0]",,,299.58004929998424,299.58004929998424,,,,,,,,,,,,,,,,,,,,,,,,,,"[0, 0, 0]",,,,,999,m,2,99,r,TEST,2021_Aug_20_1304,distractmap,2020.2.10,59.982353169052,['Abdomen'],
4,"[-0.2, 0]",0,0,5,5,5,,,,,,,301.5295984999975,None,301.5295984999975,302.52943850005977,302.5130395999877,303.5129834000254,0,None,None,"[0, 0, 0]",,,301.5295984999975,None,,,,,,,,,,,,,,,,,,,,,,,,,,"[0, 0, 0]",,,,,999,m,2,99,r,TEST,2021_Aug_20_1304,distractmap,2020.2.10,59.982353169052,['Abdomen'],
5,"[0, 0]",0,0,6,6,6,,,,,,,303.52967680001166,303.52967680001166,303.52967680001166,304.52962919999845,304.51296179997735,305.5129853000399,0,None,None,"[0, 0, 0]",,,303.52967680001166,303.52967680001166,,,,,,,,,,,,,,,,,,,,,,,,,,"[0, 0, 0]",,,,,999,m,2,99,r,TEST,2021_Aug_20_1304,distractmap,2020.2.10,59.982353169052,['Abdomen'],
7,"[-0.2, -0.2]",0,0,7,7,7,,,,,,,305.5296333000297,305.5296333000297,305.5296333000297,306.5296259999741,306.51297959999647,307.51297170005273,0,None,None,"[0, 0, 0]",,,305.5296333000297,305.5296333000297,,,,,,,,,,,,,,,,,,,,,,,,,,"[0, 0, 0]",,,,,999,m,2,99,r,TEST,2021_Aug_20_1304,distractmap,2020.2.10,59.982353169052,['Abdomen'],
7,"[-0.2, -0.2]",1,0,8,8,8,,,,,,,307.52968200005125,307.52968200005125,307.52968200005125,308.52969730005134,308.51301070000045,309.51300649996847,0,None,None,"[0, 0, 0]",,,307.52968200005125,307.52968200005125,,,,,,,,,,,,,,,,,,,,,,,,,,"[0, 0, 0]",,,,,999,m,2,99,r,TEST,2021_Aug_20_1304,distractmap,2020.2.10,59.982353169052,['Abdomen'],
7,"[-0.2, -0.2]",1,0,9,9,9,,,,,,,309.52969440002926,309.52969440002926,309.52969440002926,310.52965399995446,310.5129952999996,311.5130025000544,0,None,None,"[0, 0, 0]",,,309.52969440002926,309.52969440002926,,,,,,,,,,,,,,,,,,,,,,,,,,"[0, 0, 0]",,,,,999,m,2,99,r,TEST,2021_Aug_20_1304,distractmap,2020.2.10,59.982353169052,['Abdomen'],
,,,,,,,,,,,311.5293231999967,None,,,,,,,,,,,,,,,,,,,,,,,,,,,,,,,,,,,,,,,,,50.0,320.75678209005855,,,999,m,2,99,r,TEST,2021_Aug_20_1304,distractmap,2020.2.10,59.982353169052,['Abdomen'],
8,"[0, -0.2]",None,0,0,0,0,,,,,327.4779777000658,None,331.5618849999737,None,331.5618849999737,332.5633104000008,332.54651660006493,None,1,None,None,"[0, 0, 0]",,,331.5618849999737,None,,,,,,,,,,,,,,,,,,,,,,,,,,"[0, 0, 0]",,,0.014822509954683483,5.012628510012291,999,m,2,99,r,TEST,2021_Aug_20_1304,distractmap,2020.2.10,59.982353169052,['Abdomen'],
6,"[0.2, 0]",0,0,1,1,1,,,,,,,333.5465430000331,None,333.5465430000331,334.5465459000552,334.52989899995737,335.52991459995974,0,None,None,"[0, 0, 0]",,,333.5465430000331,None,,,,,,,,,,,,,,,,,,,,,,,,,,"[0, 0, 0]",,,,,999,m,2,99,r,TEST,2021_Aug_20_1304,distractmap,2020.2.10,59.982353169052,['Abdomen'],
6,"[0.2, 0]",1,0,2,2,2,,,,,,,335.546508600004,335.546508600004,335.546508600004,336.5465347999707,336.529911300051,337.5298764000181,0,None,None,"[0, 0, 0]",,,335.546508600004,335.546508600004,,,,,,,,,,,,,,,,,,,,,,,,,,"[0, 0, 0]",,,,,999,m,2,99,r,TEST,2021_Aug_20_1304,distractmap,2020.2.10,59.982353169052,['Abdomen'],
2,"[0, 0.2]",0,0,3,3,3,,,,,,,337.546593499952,337.546593499952,337.546593499952,338.5465844999999,338.5299127000617,339.5298914000159,0,None,None,"[0, 0, 0]",,,337.546593499952,337.546593499952,,,,,,,,,,,,,,,,,,,,,,,,,,"[0, 0, 0]",,,,,999,m,2,99,r,TEST,2021_Aug_20_1304,distractmap,2020.2.10,59.982353169052,['Abdomen'],
1,"[-0.2, 0.2]",0,0,4,4,4,,,,,,,339.5784455999965,339.5784455999965,339.5784455999965,340.58002340001985,340.56328490003943,None,0,None,None,"[0, 0, 0]",,,339.5784455999965,339.5784455999965,,,,,,,,,,,,,,,,,,,,,,,,,,"[0, 0, 0]",,,,,999,m,2,99,r,TEST,2021_Aug_20_1304,distractmap,2020.2.10,59.982353169052,['Abdomen'],
6,"[0.2, 0]",0,0,5,5,5,,,,,,,341.5633506999584,None,341.5633506999584,342.56326439999975,342.54659180005547,343.54660110000987,0,None,None,"[0, 0, 0]",,,341.5633506999584,None,,,,,,,,,,,,,,,,,,,,,,,,,,"[0, 0, 0]",,,,,999,m,2,99,r,TEST,2021_Aug_20_1304,distractmap,2020.2.10,59.982353169052,['Abdomen'],
9,"[0.2, -0.2]",0,0,6,6,6,,,,,,,343.56333060003817,343.56333060003817,343.56333060003817,344.56328869995195,344.54663250001613,345.54663630004507,0,None,None,"[0, 0, 0]",,,343.56333060003817,343.56333060003817,,,,,,,,,,,,,,,,,,,,,,,,,,"[0, 0, 0]",,,,,999,m,2,99,r,TEST,2021_Aug_20_1304,distractmap,2020.2.10,59.982353169052,['Abdomen'],
1,"[-0.2, 0.2]",0,0,7,7,7,,,,,,,345.5633061999688,345.5633061999688,345.5633061999688,346.56329339998774,346.5465815999778,347.5466362000443,0,None,None,"[0, 0, 0]",,,345.5633061999688,345.5633061999688,,,,,,,,,,,,,,,,,,,,,,,,,,"[0, 0, 0]",,,,,999,m,2,99,r,TEST,2021_Aug_20_1304,distractmap,2020.2.10,59.982353169052,['Abdomen'],
6,"[0.2, 0]",0,0,8,8,8,,,,,,,347.5633038999513,347.5633038999513,347.5633038999513,348.56332880002446,348.5466289999895,349.5466476000147,0,None,None,"[0, 0, 0]",,,347.5633038999513,347.5633038999513,,,,,,,,,,,,,,,,,,,,,,,,,,"[0, 0, 0]",,,,,999,m,2,99,r,TEST,2021_Aug_20_1304,distractmap,2020.2.10,59.982353169052,['Abdomen'],
6,"[0.2, 0]",1,0,9,9,9,,,,,,,349.563372900011,349.563372900011,349.563372900011,350.56332359998487,350.5466080000624,351.5466909999959,0,None,None,"[0, 0, 0]",,,349.563372900011,349.563372900011,,,,,,,,,,,,,,,,,,,,,,,,,,"[0, 0, 0]",,,,,999,m,2,99,r,TEST,2021_Aug_20_1304,distractmap,2020.2.10,59.982353169052,['Abdomen'],
,,,,,,,,,,,351.56296150002163,None,,,,,,,,,,,,,,,,,,,,,,,,,,,,,,,,,,,,,,,,,50.0,355.78973088995554,,,999,m,2,99,r,TEST,2021_Aug_20_1304,distractmap,2020.2.10,59.982353169052,['Abdomen'],
3,"[0.2, 0.2]",None,,,,,0,0,0,0,372.5789376000175,None,,,,,,,,,,,,,,,,,,,,None,None,"[0, 0, 0]",381.62900369998533,None,381.62900369998533,382.6304661000613,382.613769800053,None,"[0, 0, 0]",1,381.62900369998533,None,,,,,,,,,,,0.015494710067287087,5.01387391006574,999,m,2,99,r,TEST,2021_Aug_20_1304,distractmap,2020.2.10,59.982353169052,['Abdomen'],
3,"[0.2, 0.2]",None,,,,,0,1,1,1,,,,,,,,,,,,,,,,,,,,,,None,None,"[0, 0, 0]",383.6135843000375,385.61320659995545,383.6135843000375,384.6135641000001,384.5969700999558,385.5969044000376,"[0, 0, 0]",1,383.6135843000375,385.61320659995545,,,,,,,,,,,,,999,m,2,99,r,TEST,2021_Aug_20_1304,distractmap,2020.2.10,59.982353169052,['Abdomen'],
5,"[0, 0]",0,,,,,0,2,2,2,,,,,,,,,,,,,,,,,,,,,,None,None,"[0, 0, 0]",385.6303040999919,387.62993900000583,385.6303040999919,386.6302877999842,386.6136341999518,387.61358899995685,"[0, 0, 0]",0,385.6303040999919,387.62993900000583,,,,,,,,,,,,,999,m,2,99,r,TEST,2021_Aug_20_1304,distractmap,2020.2.10,59.982353169052,['Abdomen'],
1,"[-0.2, 0.2]",0,,,,,0,3,3,3,,,,,,,,,,,,,,,,,,,,,,None,None,"[0, 0, 0]",387.6469953999622,389.6465910000261,387.6469953999622,388.64694190002047,388.630342700053,389.63030760001857,"[0, 0, 0]",0,387.6469953999622,389.6465910000261,,,,,,,,,,,,,999,m,2,99,r,TEST,2021_Aug_20_1304,distractmap,2020.2.10,59.982353169052,['Abdomen'],
5,"[0, 0]",1,,,,,0,4,4,4,,,,,,,,,,,,,,,,,,,,,,None,None,"[0, 0, 0]",389.76235059998,None,389.76235059998,390.76362800004426,390.74703249998856,None,"[0, 0, 0]",0,389.76235059998,None,,,,,,,,,,,,,999,m,2,99,r,TEST,2021_Aug_20_1304,distractmap,2020.2.10,59.982353169052,['Abdomen'],
8,"[0, -0.2]",0,,,,,0,5,5,5,,,,,,,,,,,,,,,,,,,,,,None,None,"[0, 0, 0]",391.6803775000153,393.6799715999514,391.6803775000153,392.6803552999627,392.6636740999529,393.6636604999658,"[0, 0, 0]",0,391.6803775000153,393.6799715999514,,,,,,,,,,,,,999,m,2,99,r,TEST,2021_Aug_20_1304,distractmap,2020.2.10,59.982353169052,['Abdomen'],
5,"[0, 0]",1,,,,,0,6,6,6,,,,,,,,,,,,,,,,,,,,,,None,None,"[0, 0, 0]",393.6969918999821,395.6966486000456,393.6969918999821,394.697003499954,394.6803809000412,395.680324499961,"[0, 0, 0]",0,393.6969918999821,395.6966486000456,,,,,,,,,,,,,999,m,2,99,r,TEST,2021_Aug_20_1304,distractmap,2020.2.10,59.982353169052,['Abdomen'],
7,"[-0.2, -0.2]",0,,,,,0,7,7,7,,,,,,,,,,,,,,,,,,,,,,None,None,"[0, 0, 0]",395.7137064000126,397.713330800063,395.7137064000126,396.71373289998155,396.6970108000096,397.6970508999657,"[0, 0, 0]",0,395.7137064000126,397.713330800063,,,,,,,,,,,,,999,m,2,99,r,TEST,2021_Aug_20_1304,distractmap,2020.2.10,59.982353169052,['Abdomen'],
5,"[0, 0]",1,,,,,0,8,8,8,,,,,,,,,,,,,,,,,,,,,,None,None,"[0, 0, 0]",397.73036230006255,399.72999410005286,397.73036230006255,398.73039210005663,398.7136739999987,399.71368679997977,"[0, 0, 0]",0,397.73036230006255,399.72999410005286,,,,,,,,,,,,,999,m,2,99,r,TEST,2021_Aug_20_1304,distractmap,2020.2.10,59.982353169052,['Abdomen'],
7,"[-0.2, -0.2]",1,,,,,0,9,9,9,,,,,,,,,,,,,,,,,,,,,,None,None,"[0, 0, 0]",399.7471158000408,401.74670220003463,399.7471158000408,400.74708010000177,400.73049170000013,401.7304167000111,"[0, 0, 0]",0,399.7471158000408,401.74670220003463,,,,,,,,,,,,,999,m,2,99,r,TEST,2021_Aug_20_1304,distractmap,2020.2.10,59.982353169052,['Abdomen'],
,,,,,,,,,,,401.7633381000487,None,,,,,,,,,,,,,,,,,,,,,,,,,,,,,,,,,,,,,,,,,50.0,408.49072369001806,,,999,m,2,99,r,TEST,2021_Aug_20_1304,distractmap,2020.2.10,59.982353169052,['Abdomen'],
6,"[0.2, 0]",None,,,,,0,0,0,0,415.196959999972,None,,,,,,,,,,,,,,,,,,,,None,None,"[0, 0, 0]",421.7959839999676,None,421.7959839999676,422.79720969998743,422.78057329996955,None,"[0, 0, 0]",1,421.7959839999676,None,,,,,,,,,,,0.01487631001509726,5.012650309945457,999,m,2,99,r,TEST,2021_Aug_20_1304,distractmap,2020.2.10,59.982353169052,['Abdomen'],
1,"[-0.2, 0.2]",None,,,,,0,1,1,1,,,,,,,,,,,,,,,,,,,,,,None,None,"[0, 0, 0]",423.7805232000537,425.78023360006046,423.7805232000537,424.78057359997183,424.76390639995225,425.7639243999729,"[0, 0, 0]",1,423.7805232000537,425.78023360006046,,,,,,,,,,,,,999,m,2,99,r,TEST,2021_Aug_20_1304,distractmap,2020.2.10,59.982353169052,['Abdomen'],
6,"[0.2, 0]",1,,,,,0,2,2,2,,,,,,,,,,,,,,,,,,,,,,None,None,"[0, 0, 0]",425.79725289996713,427.79695740004536,425.79725289996713,426.79730830003973,426.7805983000435,427.78060429997277,"[0, 0, 0]",0,425.79725289996713,427.79695740004536,,,,,,,,,,,,,999,m,2,99,r,TEST,2021_Aug_20_1304,distractmap,2020.2.10,59.982353169052,['Abdomen'],
4,"[-0.2, 0]",0,,,,,0,3,3,3,,,,,,,,,,,,,,,,,,,,,,None,None,"[0, 0, 0]",427.81400330003817,429.8135468000546,427.81400330003817,428.8139875000343,428.797310700058,429.79729789996054,"[0, 0, 0]",0,427.81400330003817,429.8135468000546,,,,,,,,,,,,,999,m,2,99,r,TEST,2021_Aug_20_1304,distractmap,2020.2.10,59.982353169052,['Abdomen'],
1,"[-0.2, 0.2]",0,,,,,0,4,4,4,,,,,,,,,,,,,,,,,,,,,,None,None,"[0, 0, 0]",429.8624576999573,None,429.8624576999573,430.8639674000442,430.84726019995287,None,"[0, 0, 0]",0,429.8624576999573,None,,,,,,,,,,,,,999,m,2,99,r,TEST,2021_Aug_20_1304,distractmap,2020.2.10,59.982353169052,['Abdomen'],
8,"[0, -0.2]",0,,,,,0,5,5,5,,,,,,,,,,,,,,,,,,,,,,None,None,"[0, 0, 0]",431.84732940001413,433.8469726999756,431.84732940001413,432.8473216999555,432.83066890004557,433.8306597999763,"[0, 0, 0]",0,431.84732940001413,433.8469726999756,,,,,,,,,,,,,999,m,2,99,r,TEST,2021_Aug_20_1304,distractmap,2020.2.10,59.982353169052,['Abdomen'],
1,"[-0.2, 0.2]",1,,,,,0,6,6,6,,,,,,,,,,,,,,,,,,,,,,None,None,"[0, 0, 0]",433.8640015999554,435.8636076999828,433.8640015999554,434.8640363999875,434.847345200018,435.84734119998757,"[0, 0, 0]",0,433.8640015999554,435.8636076999828,,,,,,,,,,,,,999,m,2,99,r,TEST,2021_Aug_20_1304,distractmap,2020.2.10,59.982353169052,['Abdomen'],
8,"[0, -0.2]",1,,,,,0,7,7,7,,,,,,,,,,,,,,,,,,,,,,None,None,"[0, 0, 0]",435.8807749999687,437.88030449999496,435.8807749999687,436.8806799000595,436.8640372999944,437.8639730999712,"[0, 0, 0]",0,435.8807749999687,437.88030449999496,,,,,,,,,,,,,999,m,2,99,r,TEST,2021_Aug_20_1304,distractmap,2020.2.10,59.982353169052,['Abdomen'],
1,"[-0.2, 0.2]",1,,,,,0,8,8,8,,,,,,,,,,,,,,,,,,,,,,None,None,"[0, 0, 0]",437.8974021000322,439.8969773000572,437.8974021000322,438.89741360000335,438.8807101000566,439.88068329996895,"[0, 0, 0]",0,437.8974021000322,439.8969773000572,,,,,,,,,,,,,999,m,2,99,r,TEST,2021_Aug_20_1304,distractmap,2020.2.10,59.982353169052,['Abdomen'],
6,"[0.2, 0]",0,,,,,0,9,9,9,,,,,,,,,,,,,,,,,,,,,,None,None,"[0, 0, 0]",439.9140751999803,441.9136339999968,439.9140751999803,440.9140486000106,440.8973866000306,441.8973532000091,"[0, 0, 0]",0,439.9140751999803,441.9136339999968,,,,,,,,,,,,,999,m,2,99,r,TEST,2021_Aug_20_1304,distractmap,2020.2.10,59.982353169052,['Abdomen'],
,,,,,,,,,,,441.93037039996125,None,,,,,,,,,,,,,,,,,,,,,,,,,,,,,,,,,,,,,,,,,50.0,446.157762290095,,,999,m,2,99,r,TEST,2021_Aug_20_1304,distractmap,2020.2.10,59.982353169052,['Abdomen'],
7,"[-0.2, -0.2]",None,,,,,0,0,0,0,452.8138611000031,None,,,,,,,,,,,,,,,,,,,,None,None,"[0, 0, 0]",461.962967999978,None,461.962967999978,462.9642316000536,462.94753869995475,None,"[0, 0, 0]",1,461.962967999978,None,,,,,,,,,,,0.0147963099880144,5.012525310041383,999,m,2,99,r,TEST,2021_Aug_20_1304,distractmap,2020.2.10,59.982353169052,['Abdomen'],
7,"[-0.2, -0.2]",None,,,,,0,1,1,1,,,,,,,,,,,,,,,,,,,,,,None,None,"[0, 0, 0]",463.9475592999952,465.9471775999991,463.9475592999952,464.9475503000431,464.93085859995335,465.93097450002097,"[0, 0, 0]",1,463.9475592999952,465.9471775999991,,,,,,,,,,,,,999,m,2,99,r,TEST,2021_Aug_20_1304,distractmap,2020.2.10,59.982353169052,['Abdomen'],
7,"[-0.2, -0.2]",1,,,,,0,2,2,2,,,,,,,,,,,,,,,,,,,,,,None,None,"[0, 0, 0]",465.96423869999126,467.9638347000582,465.96423869999126,466.964289000025,466.94759620004334,467.94761320005637,"[0, 0, 0]",0,465.96423869999126,467.9638347000582,,,,,,,,,,,,,999,m,2,99,r,TEST,2021_Aug_20_1304,distractmap,2020.2.10,59.982353169052,['Abdomen'],
5,"[0, 0]",0,,,,,0,3,3,3,,,,,,,,,,,,,,,,,,,,,,None,None,"[0, 0, 0]",467.98093770002015,469.9805331999669,467.98093770002015,468.9809299999615,468.9642595000332,469.96427700005006,"[0, 0, 0]",0,467.98093770002015,469.9805331999669,,,,,,,,,,,,,999,m,2,99,r,TEST,2021_Aug_20_1304,distractmap,2020.2.10,59.982353169052,['Abdomen'],
1,"[-0.2, 0.2]",0,,,,,0,4,4,4,,,,,,,,,,,,,,,,,,,,,,None,None,"[0, 0, 0]",470.064647500054,None,470.064647500054,471.0643902999582,471.04760319995694,None,"[0, 0, 0]",0,470.064647500054,None,,,,,,,,,,,,,999,m,2,99,r,TEST,2021_Aug_20_1304,distractmap,2020.2.10,59.982353169052,['Abdomen'],
6,"[0.2, 0]",0,,,,,0,5,5,5,,,,,,,,,,,,,,,,,,,,,,None,None,"[0, 0, 0]",472.0143145000329,474.013992000022,472.0143145000329,473.01430459995754,472.99756709998474,473.9976467000088,"[0, 0, 0]",0,472.0143145000329,474.013992000022,,,,,,,,,,,,,999,m,2,99,r,TEST,2021_Aug_20_1304,distractmap,2020.2.10,59.982353169052,['Abdomen'],
1,"[-0.2, 0.2]",1,,,,,0,6,6,6,,,,,,,,,,,,,,,,,,,,,,None,None,"[0, 0, 0]",474.0310102000367,476.0305827000411,474.0310102000367,475.03101649996825,475.01433949999046,476.0143179000588,"[0, 0, 0]",0,474.0310102000367,476.0305827000411,,,,,,,,,,,,,999,m,2,99,r,TEST,2021_Aug_20_1304,distractmap,2020.2.10,59.982353169052,['Abdomen'],
7,"[-0.2, -0.2]",0,,,,,0,7,7,7,,,,,,,,,,,,,,,,,,,,,,None,None,"[0, 0, 0]",476.04766240005847,478.0472947000526,476.04766240005847,477.04765650001355,477.03106820001267,478.0309845999582,"[0, 0, 0]",0,476.04766240005847,478.0472947000526,,,,,,,,,,,,,999,m,2,99,r,TEST,2021_Aug_20_1304,distractmap,2020.2.10,59.982353169052,['Abdomen'],
6,"[0.2, 0]",0,,,,,0,8,8,8,,,,,,,,,,,,,,,,,,,,,,None,None,"[0, 0, 0]",478.0643254000461,480.0640004000161,478.0643254000461,479.0643364000134,479.04765860002954,480.0476669999771,"[0, 0, 0]",0,478.0643254000461,480.0640004000161,,,,,,,,,,,,,999,m,2,99,r,TEST,2021_Aug_20_1304,distractmap,2020.2.10,59.982353169052,['Abdomen'],
7,"[-0.2, -0.2]",1,,,,,0,9,9,9,,,,,,,,,,,,,,,,,,,,,,None,None,"[0, 0, 0]",480.08099519996904,482.08064900001045,480.08099519996904,481.0810328000225,481.0643717000494,482.06436580000445,"[0, 0, 0]",0,480.08099519996904,482.08064900001045,,,,,,,,,,,,,999,m,2,99,r,TEST,2021_Aug_20_1304,distractmap,2020.2.10,59.982353169052,['Abdomen'],
,,,,,,,,,,,482.0973516999511,None,,,,,,,,,,,,,,,,,,,,,,,,,,,,,,,,,,,,,,,,,50.0,491.32480478996877,,,999,m,2,99,r,TEST,2021_Aug_20_1304,distractmap,2020.2.10,59.982353169052,['Abdomen'],
4,"[-0.2, 0]",None,,,,,0,0,0,0,497.9806954000378,None,,,,,,,,,,,,,,,,,,,,None,None,"[0, 0, 0]",502.1300785000203,None,502.1300785000203,503.1313283999916,503.1145699999761,None,"[0, 0, 0]",1,502.1300785000203,None,,,,,,,,,,,0.014800010016188025,5.012581710005179,999,m,2,99,r,TEST,2021_Aug_20_1304,distractmap,2020.2.10,59.982353169052,['Abdomen'],
5,"[0, 0]",None,,,,,0,1,1,1,,,,,,,,,,,,,,,,,,,,,,None,None,"[0, 0, 0]",504.11453470005654,506.1141162000131,504.11453470005654,505.114509099978,505.0979042999679,506.09789309999906,"[0, 0, 0]",1,504.11453470005654,506.1141162000131,,,,,,,,,,,,,999,m,2,99,r,TEST,2021_Aug_20_1304,distractmap,2020.2.10,59.982353169052,['Abdomen'],
6,"[0.2, 0]",0,,,,,0,2,2,2,,,,,,,,,,,,,,,,,,,,,,None,None,"[0, 0, 0]",506.1312597000506,508.1308706999989,506.1312597000506,507.1312350999797,507.1145149000222,508.1145449000178,"[0, 0, 0]",0,506.1312597000506,508.1308706999989,,,,,,,,,,,,,999,m,2,99,r,TEST,2021_Aug_20_1304,distractmap,2020.2.10,59.982353169052,['Abdomen'],
1,"[-0.2, 0.2]",0,,,,,0,3,3,3,,,,,,,,,,,,,,,,,,,,,,None,None,"[0, 0, 0]",508.14790470001753,510.1475755999563,508.14790470001753,509.14796420000494,509.1312639999669,510.1312464000657,"[0, 0, 0]",0,508.14790470001753,510.1475755999563,,,,,,,,,,,,,999,m,2,99,r,TEST,2021_Aug_20_1304,distractmap,2020.2.10,59.982353169052,['Abdomen'],
6,"[0.2, 0]",1,,,,,0,4,4,4,,,,,,,,,,,,,,,,,,,,,,None,None,"[0, 0, 0]",510.1966397999786,None,510.1966397999786,511.1979116000002,511.1812592999777,None,"[0, 0, 0]",0,510.1966397999786,None,,,,,,,,,,,,,999,m,2,99,r,TEST,2021_Aug_20_1304,distractmap,2020.2.10,59.982353169052,['Abdomen'],
1,"[-0.2, 0.2]",1,,,,,0,5,5,5,,,,,,,,,,,,,,,,,,,,,,None,None,"[0, 0, 0]",512.181368199992,514.1808392000385,512.181368199992,513.1812446999829,513.164614600013,514.1645863000304,"[0, 0, 0]",0,512.181368199992,514.1808392000385,,,,,,,,,,,,,999,m,2,99,r,TEST,2021_Aug_20_1304,distractmap,2020.2.10,59.982353169052,['Abdomen'],
2,"[0, 0.2]",0,,,,,0,6,6,6,,,,,,,,,,,,,,,,,,,,,,None,None,"[0, 0, 0]",514.1979597000172,516.1975897999946,514.1979597000172,515.1979843999725,515.1812526000431,516.1813041999703,"[0, 0, 0]",0,514.1979597000172,516.1975897999946,,,,,,,,,,,,,999,m,2,99,r,TEST,2021_Aug_20_1304,distractmap,2020.2.10,59.982353169052,['Abdomen'],
3,"[0.2, 0.2]",0,,,,,0,7,7,7,,,,,,,,,,,,,,,,,,,,,,None,None,"[0, 0, 0]",516.2147564999759,518.2142368999775,516.2147564999759,517.2146039999789,517.1980277999537,518.1980164999841,"[0, 0, 0]",0,516.2147564999759,518.2142368999775,,,,,,,,,,,,,999,m,2,99,r,TEST,2021_Aug_20_1304,distractmap,2020.2.10,59.982353169052,['Abdomen'],
6,"[0.2, 0]",0,,,,,0,8,8,8,,,,,,,,,,,,,,,,,,,,,,None,None,"[0, 0, 0]",518.2313464999897,520.2309572000522,518.2313464999897,519.231380400015,519.2146646999754,520.2146697000135,"[0, 0, 0]",0,518.2313464999897,520.2309572000522,,,,,,,,,,,,,999,m,2,99,r,TEST,2021_Aug_20_1304,distractmap,2020.2.10,59.982353169052,['Abdomen'],
3,"[0.2, 0.2]",1,,,,,0,9,9,9,,,,,,,,,,,,,,,,,,,,,,None,None,"[0, 0, 0]",520.2480226999614,522.247638800065,520.2480226999614,521.2479982000077,521.2312970999628,522.231377899996,"[0, 0, 0]",0,520.2480226999614,522.247638800065,,,,,,,,,,,,,999,m,2,99,r,TEST,2021_Aug_20_1304,distractmap,2020.2.10,59.982353169052,['Abdomen'],
,,,,,,,,,,,522.264352499973,None,,,,,,,,,,,,,,,,,,,,,,,,,,,,,,,,,,,,,,,,,50.0,531.49177539011,,,999,m,2,99,r,TEST,2021_Aug_20_1304,distractmap,2020.2.10,59.982353169052,['Abdomen'],
2,"[0, 0.2]",None,,,,,0,0,0,0,538.5146020000102,None,,,,,,,,,,,,,,,,,,,,None,None,"[0, 0, 0]",542.2968708999688,None,542.2968708999688,543.2983262999915,543.2814717000583,None,"[0, 0, 0]",1,542.2968708999688,None,,,,,,,,,,,0.014791409950703382,5.012481409939937,999,m,2,99,r,TEST,2021_Aug_20_1304,distractmap,2020.2.10,59.982353169052,['Abdomen'],
5,"[0, 0]",None,,,,,0,1,1,1,,,,,,,,,,,,,,,,,,,,,,None,None,"[0, 0, 0]",544.2815047999611,546.2811384999659,544.2815047999611,545.2815096999984,545.2648117999779,546.2648594999919,"[0, 0, 0]",1,544.2815047999611,546.2811384999659,,,,,,,,,,,,,999,m,2,99,r,TEST,2021_Aug_20_1304,distractmap,2020.2.10,59.982353169052,['Abdomen'],
6,"[0.2, 0]",0,,,,,0,2,2,2,,,,,,,,,,,,,,,,,,,,,,None,None,"[0, 0, 0]",546.2982062000083,548.29785610002,546.2982062000083,547.2981639000354,547.2815645999508,548.2815479000565,"[0, 0, 0]",0,546.2982062000083,548.29785610002,,,,,,,,,,,,,999,m,2,99,r,TEST,2021_Aug_20_1304,distractmap,2020.2.10,59.982353169052,['Abdomen'],
1,"[-0.2, 0.2]",0,,,,,0,3,3,3,,,,,,,,,,,,,,,,,,,,,,None,None,"[0, 0, 0]",548.31489899999,550.3145123999566,548.31489899999,549.314865399967,549.2982378000161,550.2982429000549,"[0, 0, 0]",0,548.31489899999,550.3145123999566,,,,,,,,,,,,,999,m,2,99,r,TEST,2021_Aug_20_1304,distractmap,2020.2.10,59.982353169052,['Abdomen'],
6,"[0.2, 0]",1,,,,,0,4,4,4,,,,,,,,,,,,,,,,,,,,,,None,None,"[0, 0, 0]",550.4488111999817,None,550.4488111999817,551.4483698999975,551.4315749000525,None,"[0, 0, 0]",0,550.4488111999817,None,,,,,,,,,,,,,999,m,2,99,r,TEST,2021_Aug_20_1304,distractmap,2020.2.10,59.982353169052,['Abdomen'],
6,"[0.2, 0]",0,,,,,0,5,5,5,,,,,,,,,,,,,,,,,,,,,,None,None,"[0, 0, 0]",552.3483544000192,554.3478762999875,552.3483544000192,553.3482298000017,553.3316186000593,554.331643100013,"[0, 0, 0]",0,552.3483544000192,554.3478762999875,,,,,,,,,,,,,999,m,2,99,r,TEST,2021_Aug_20_1304,distractmap,2020.2.10,59.982353169052,['Abdomen'],
9,"[0.2, -0.2]",0,,,,,0,6,6,6,,,,,,,,,,,,,,,,,,,,,,None,None,"[0, 0, 0]",554.3649709000019,556.3645558999851,554.3649709000019,555.3648658000166,555.3483378000092,556.3482939000241,"[0, 0, 0]",0,554.3649709000019,556.3645558999851,,,,,,,,,,,,,999,m,2,99,r,TEST,2021_Aug_20_1304,distractmap,2020.2.10,59.982353169052,['Abdomen'],
6,"[0.2, 0]",1,,,,,0,7,7,7,,,,,,,,,,,,,,,,,,,,,,None,None,"[0, 0, 0]",556.3816246000351,558.3811942000175,556.3816246000351,557.3816395000322,557.3649877000134,558.3650025000097,"[0, 0, 0]",0,556.3816246000351,558.3811942000175,,,,,,,,,,,,,999,m,2,99,r,TEST,2021_Aug_20_1304,distractmap,2020.2.10,59.982353169052,['Abdomen'],
3,"[0.2, 0.2]",0,,,,,0,8,8,8,,,,,,,,,,,,,,,,,,,,,,None,None,"[0, 0, 0]",558.398331400007,560.397947999998,558.398331400007,559.398329299991,559.3816527000163,560.3815009000245,"[0, 0, 0]",0,558.398331400007,560.397947999998,,,,,,,,,,,,,999,m,2,99,r,TEST,2021_Aug_20_1304,distractmap,2020.2.10,59.982353169052,['Abdomen'],
9,"[0.2, -0.2]",0,,,,,0,9,9,9,,,,,,,,,,,,,,,,,,,,,,None,None,"[0, 0, 0]",560.4149965000106,562.4146433999995,560.4149965000106,561.4150168000488,561.3983544000657,562.3983659000369,"[0, 0, 0]",0,560.4149965000106,562.4146433999995,,,,,,,,,,,,,999,m,2,99,r,TEST,2021_Aug_20_1304,distractmap,2020.2.10,59.982353169052,['Abdomen'],
,,,,,,,,,,,562.4312821000349,None,,,,,,,,,,,,,,,,,,,,,,,,,,,,,,,,,,,,,,,,,50.0,566.6588327900972,,,999,m,2,99,r,TEST,2021_Aug_20_1304,distractmap,2020.2.10,59.982353169052,['Abdomen'],
3,"[0.2, 0.2]",None,,,,,0,0,0,0,574.0801213000668,None,,,,,,,,,,,,,,,,,,,,None,None,"[0, 0, 0]",582.463849700056,None,582.463849700056,583.4651699999813,583.4481873000041,None,"[0, 0, 0]",1,582.463849700056,None,,,,,,,,,,,0.014761409955099225,5.012505910010077,999,m,2,99,r,TEST,2021_Aug_20_1304,distractmap,2020.2.10,59.982353169052,['Abdomen'],
9,"[0.2, -0.2]",None,,,,,0,1,1,1,,,,,,,,,,,,,,,,,,,,,,None,None,"[0, 0, 0]",584.4485380999977,586.4480892999563,584.4485380999977,585.4483945999527,585.4318384999642,586.4318690999644,"[0, 0, 0]",1,584.4485380999977,586.4480892999563,,,,,,,,,,,,,999,m,2,99,r,TEST,2021_Aug_20_1304,distractmap,2020.2.10,59.982353169052,['Abdomen'],
3,"[0.2, 0.2]",1,,,,,0,2,2,2,,,,,,,,,,,,,,,,,,,,,,None,None,"[0, 0, 0]",586.4652375000296,588.4648415000411,586.4652375000296,587.4653310000431,587.4485057999846,588.4485893000383,"[0, 0, 0]",0,586.4652375000296,588.4648415000411,,,,,,,,,,,,,999,m,2,99,r,TEST,2021_Aug_20_1304,distractmap,2020.2.10,59.982353169052,['Abdomen'],
7,"[-0.2, -0.2]",0,,,,,0,3,3,3,,,,,,,,,,,,,,,,,,,,,,None,None,"[0, 0, 0]",588.4819567999803,590.4815354000311,588.4819567999803,589.4818559000269,589.4651934000431,590.4652428999543,"[0, 0, 0]",0,588.4819567999803,590.4815354000311,,,,,,,,,,,,,999,m,2,99,r,TEST,2021_Aug_20_1304,distractmap,2020.2.10,59.982353169052,['Abdomen'],
8,"[0, -0.2]",0,,,,,0,4,4,4,,,,,,,,,,,,,,,,,,,,,,None,None,"[0, 0, 0]",590.5324615000281,None,590.5324615000281,591.5319646999706,591.5152818000643,None,"[0, 0, 0]",0,590.5324615000281,None,,,,,,,,,,,,,999,m,2,99,r,TEST,2021_Aug_20_1304,distractmap,2020.2.10,59.982353169052,['Abdomen'],
4,"[-0.2, 0]",0,,,,,0,5,5,5,,,,,,,,,,,,,,,,,,,,,,None,None,"[0, 0, 0]",592.5152594000101,594.5147446000483,592.5152594000101,593.5152677999577,593.498510699952,594.4985652000178,"[0, 0, 0]",0,592.5152594000101,594.5147446000483,,,,,,,,,,,,,999,m,2,99,r,TEST,2021_Aug_20_1304,distractmap,2020.2.10,59.982353169052,['Abdomen'],
4,"[-0.2, 0]",0,,,,,0,6,6,6,,,,,,,,,,,,,,,,,,,,,,None,None,"[0, 0, 0]",594.5318424999714,596.5316385000478,594.5318424999714,595.5319818999851,595.515176499961,596.5152696999721,"[0, 0, 0]",0,594.5318424999714,596.5316385000478,,,,,,,,,,,,,999,m,2,99,r,TEST,2021_Aug_20_1304,distractmap,2020.2.10,59.982353169052,['Abdomen'],
1,"[-0.2, 0.2]",0,,,,,0,7,7,7,,,,,,,,,,,,,,,,,,,,,,None,None,"[0, 0, 0]",596.5485325000482,598.5482112000464,596.5485325000482,597.5486061000265,597.5319449000526,598.5319373999955,"[0, 0, 0]",0,596.5485325000482,598.5482112000464,,,,,,,,,,,,,999,m,2,99,r,TEST,2021_Aug_20_1304,distractmap,2020.2.10,59.982353169052,['Abdomen'],
4,"[-0.2, 0]",1,,,,,0,8,8,8,,,,,,,,,,,,,,,,,,,,,,None,None,"[0, 0, 0]",598.5653244999703,600.5649156,598.5653244999703,599.5652473999653,599.5486266000662,600.5485141000245,"[0, 0, 0]",0,598.5653244999703,600.5649156,,,,,,,,,,,,,999,m,2,99,r,TEST,2021_Aug_20_1304,distractmap,2020.2.10,59.982353169052,['Abdomen'],
8,"[0, -0.2]",0,,,,,0,9,9,9,,,,,,,,,,,,,,,,,,,,,,None,None,"[0, 0, 0]",600.5820038999664,602.5815579000628,600.5820038999664,601.5971928000217,601.5971928000217,None,"[0, 0, 0]",0,600.5820038999664,602.5815579000628,,,,,,,,,,,,,999,m,2,99,r,TEST,2021_Aug_20_1304,distractmap,2020.2.10,59.982353169052,['Abdomen'],
,,,,,,,,,,,602.5982190000359,None,,,,,,,,,,,,,,,,,,,,,,,,,,,,,,,,,,,,,,,,,100.0,611.8260228900472,,,999,m,2,99,r,TEST,2021_Aug_20_1304,distractmap,2020.2.10,59.982353169052,['Abdomen'],
2,"[0, 0.2]",None,,,,,0,0,0,0,618.4803353999741,None,,,,,,,,,,,,,,,,,,,,None,None,"[0, 0, 0]",622.6308602000354,None,622.6308602000354,623.6321522999788,623.6154979000567,None,"[0, 0, 0]",1,622.6308602000354,None,,,,,,,,,,,0.014722510008141398,5.01264741003979,999,m,2,99,r,TEST,2021_Aug_20_1304,distractmap,2020.2.10,59.982353169052,['Abdomen'],
5,"[0, 0]",None,,,,,0,1,1,1,,,,,,,,,,,,,,,,,,,,,,None,None,"[0, 0, 0]",624.6154642000329,626.6149827999761,624.6154642000329,625.6154993999517,625.5987918999745,626.5988277000142,"[0, 0, 0]",1,624.6154642000329,626.6149827999761,,,,,,,,,,,,,999,m,2,99,r,TEST,2021_Aug_20_1304,distractmap,2020.2.10,59.982353169052,['Abdomen'],
3,"[0.2, 0.2]",0,,,,,0,2,2,2,,,,,,,,,,,,,,,,,,,,,,None,None,"[0, 0, 0]",626.6321204999695,628.6316908999579,626.6321204999695,627.6322189000202,627.6153979999945,628.6155026999768,"[0, 0, 0]",0,626.6321204999695,628.6316908999579,,,,,,,,,,,,,999,m,2,99,r,TEST,2021_Aug_20_1304,distractmap,2020.2.10,59.982353169052,['Abdomen'],
5,"[0, 0]",1,,,,,0,3,3,3,,,,,,,,,,,,,,,,,,,,,,None,None,"[0, 0, 0]",628.6488057000097,630.6484551000176,628.6488057000097,629.6488194999984,629.6323585000355,630.6320833000354,"[0, 0, 0]",0,628.6488057000097,630.6484551000176,,,,,,,,,,,,,999,m,2,99,r,TEST,2021_Aug_20_1304,distractmap,2020.2.10,59.982353169052,['Abdomen'],
2,"[0, 0.2]",0,,,,,0,4,4,4,,,,,,,,,,,,,,,,,,,,,,None,None,"[0, 0, 0]",630.7660319999559,None,630.7660319999559,631.7656580000184,631.7487554999534,None,"[0, 0, 0]",0,630.7660319999559,None,,,,,,,,,,,,,999,m,2,99,r,TEST,2021_Aug_20_1304,distractmap,2020.2.10,59.982353169052,['Abdomen'],
8,"[0, -0.2]",0,,,,,0,5,5,5,,,,,,,,,,,,,,,,,,,,,,None,None,"[0, 0, 0]",632.6822894000215,634.6818079999648,632.6822894000215,633.6821612999775,633.6655689000618,634.6655369000509,"[0, 0, 0]",0,632.6822894000215,634.6818079999648,,,,,,,,,,,,,999,m,2,99,r,TEST,2021_Aug_20_1304,distractmap,2020.2.10,59.982353169052,['Abdomen'],
4,"[-0.2, 0]",0,,,,,0,6,6,6,,,,,,,,,,,,,,,,,,,,,,None,None,"[0, 0, 0]",634.6989518000046,636.6984982000431,634.6989518000046,635.6988748000003,635.6822516999673,636.682238999987,"[0, 0, 0]",0,634.6989518000046,636.6984982000431,,,,,,,,,,,,,999,m,2,99,r,TEST,2021_Aug_20_1304,distractmap,2020.2.10,59.982353169052,['Abdomen'],
8,"[0, -0.2]",1,,,,,0,7,7,7,,,,,,,,,,,,,,,,,,,,,,None,None,"[0, 0, 0]",636.7155947999563,638.7151708999882,636.7155947999563,637.7155870000133,637.6989393000258,638.6989818000002,"[0, 0, 0]",0,636.7155947999563,638.7151708999882,,,,,,,,,,,,,999,m,2,99,r,TEST,2021_Aug_20_1304,distractmap,2020.2.10,59.982353169052,['Abdomen'],
7,"[-0.2, -0.2]",0,,,,,0,8,8,8,,,,,,,,,,,,,,,,,,,,,,None,None,"[0, 0, 0]",638.7322701000376,640.73191089998,638.7322701000376,639.7322948999936,639.7155769000528,640.715605000034,"[0, 0, 0]",0,638.7322701000376,640.73191089998,,,,,,,,,,,,,999,m,2,99,r,TEST,2021_Aug_20_1304,distractmap,2020.2.10,59.982353169052,['Abdomen'],
8,"[0, -0.2]",1,,,,,0,9,9,9,,,,,,,,,,,,,,,,,,,,,,None,None,"[0, 0, 0]",640.7489252999658,642.748591599986,640.7489252999658,641.7489908999996,641.7323088999838,642.7323239999823,"[0, 0, 0]",0,640.7489252999658,642.748591599986,,,,,,,,,,,,,999,m,2,99,r,TEST,2021_Aug_20_1304,distractmap,2020.2.10,59.982353169052,['Abdomen'],
,,,,,,,,,,,642.7652329000412,None,,,,,,,,,,,,,,,,,,,,,,,,,,,,,,,,,,,,,,,,,50.0,646.9927484899526,,,999,m,2,99,r,TEST,2021_Aug_20_1304,distractmap,2020.2.10,59.982353169052,['Abdomen'],
2,"[0, 0.2]",None,,,,,0,0,0,0,653.7320687000174,None,,,,,,,,,,,,,,,,,,,,None,None,"[0, 0, 0]",662.7978421000298,None,662.7978421000298,663.7991169999586,663.7824350000592,664.7829269999638,"[0, 0, 0]",1,662.7978421000298,None,,,,,,,,,,,0.014715710072778165,5.012350009987131,999,m,2,99,r,TEST,2021_Aug_20_1304,distractmap,2020.2.10,59.982353169052,['Abdomen'],
2,"[0, 0.2]",None,,,,,0,1,1,1,,,,,,,,,,,,,,,,,,,,,,None,None,"[0, 0, 0]",664.7991465000669,666.7981134000001,664.7991465000669,665.7985219999682,665.7819645999698,666.7818747999845,"[0, 0, 0]",1,664.7991465000669,666.7981134000001,,,,,,,,,,,,,999,m,2,99,r,TEST,2021_Aug_20_1304,distractmap,2020.2.10,59.982353169052,['Abdomen'],
2,"[0, 0.2]",1,,,,,0,2,2,2,,,,,,,,,,,,,,,,,,,,,,None,None,"[0, 0, 0]",666.8152714000316,None,666.8152714000316,667.8152032999787,667.7986828000285,None,"[0, 0, 0]",0,666.8152714000316,None,,,,,,,,,,,,,999,m,2,99,r,TEST,2021_Aug_20_1304,distractmap,2020.2.10,59.982353169052,['Abdomen'],
8,"[0, -0.2]",0,,,,,0,3,3,3,,,,,,,,,,,,,,,,,,,,,,None,None,"[0, 0, 0]",668.8312832999509,None,668.8312832999509,669.8318374999799,669.815274600056,670.8151495000347,"[0, 0, 0]",0,668.8312832999509,None,,,,,,,,,,,,,999,m,2,99,r,TEST,2021_Aug_20_1304,distractmap,2020.2.10,59.982353169052,['Abdomen'],
2,"[0, 0.2]",1,,,,,0,4,4,4,,,,,,,,,,,,,,,,,,,,,,None,None,"[0, 0, 0]",670.8824845000636,None,670.8824845000636,671.882115000044,671.8654270999832,None,"[0, 0, 0]",0,670.8824845000636,None,,,,,,,,,,,,,999,m,2,99,r,TEST,2021_Aug_20_1304,distractmap,2020.2.10,59.982353169052,['Abdomen'],
5,"[0, 0]",0,,,,,0,5,5,5,,,,,,,,,,,,,,,,,,,,,,None,None,"[0, 0, 0]",672.8485793999862,674.848887900007,672.8485793999862,673.8503368999809,673.8337107000407,674.848887900007,"[0, 0, 0]",0,672.8485793999862,674.848887900007,,,,,,,,,,,,,999,m,2,99,r,TEST,2021_Aug_20_1304,distractmap,2020.2.10,59.982353169052,['Abdomen'],
1,"[-0.2, 0.2]",0,,,,,0,6,6,6,,,,,,,,,,,,,,,,,,,,,,None,None,"[0, 0, 0]",674.8659212000202,676.8655199999921,674.8659212000202,675.8658998999745,675.8492682999931,676.8492287000408,"[0, 0, 0]",0,674.8659212000202,676.8655199999921,,,,,,,,,,,,,999,m,2,99,r,TEST,2021_Aug_20_1304,distractmap,2020.2.10,59.982353169052,['Abdomen'],
1,"[-0.2, 0.2]",0,,,,,0,7,7,7,,,,,,,,,,,,,,,,,,,,,,None,None,"[0, 0, 0]",676.8826989000663,678.8821474000579,676.8826989000663,677.8826183000347,677.8658755000215,678.8659012999851,"[0, 0, 0]",0,676.8826989000663,678.8821474000579,,,,,,,,,,,,,999,m,2,99,r,TEST,2021_Aug_20_1304,distractmap,2020.2.10,59.982353169052,['Abdomen'],
6,"[0.2, 0]",0,,,,,0,8,8,8,,,,,,,,,,,,,,,,,,,,,,None,None,"[0, 0, 0]",678.8992755999789,680.8988840000238,678.8992755999789,679.8992257000646,679.8825813999865,680.8824152000016,"[0, 0, 0]",0,678.8992755999789,680.8988840000238,,,,,,,,,,,,,999,m,2,99,r,TEST,2021_Aug_20_1304,distractmap,2020.2.10,59.982353169052,['Abdomen'],
1,"[-0.2, 0.2]",1,,,,,0,9,9,9,,,,,,,,,,,,,,,,,,,,,,None,None,"[0, 0, 0]",680.9159654000541,682.9155894999858,680.9159654000541,681.9159644000465,681.8992779999971,682.8993091000011,"[0, 0, 0]",0,680.9159654000541,682.9155894999858,,,,,,,,,,,,,999,m,2,99,r,TEST,2021_Aug_20_1304,distractmap,2020.2.10,59.982353169052,['Abdomen'],
,,,,,,,,,,,682.9322162000462,None,,,,,,,,,,,,,,,,,,,,,,,,,,,,,,,,,,,,,,,,,50.0,689.6597422901541,,,999,m,2,99,r,TEST,2021_Aug_20_1304,distractmap,2020.2.10,59.982353169052,['Abdomen'],
9,"[0.2, -0.2]",None,0,0,0,0,,,,,708.5479932000162,None,710.4982200000668,None,710.4982200000668,711.499464499997,711.4829222999979,None,1,None,None,"[0, 0, 0]",,,710.4982200000668,None,,,,,,,,,,,,,,,,,,,,,,,,,,"[0, 0, 0]",,,0.014787409920245409,5.012436909950338,999,m,2,99,r,TEST,2021_Aug_20_1304,distractmap,2020.2.10,59.982353169052,['Abdomen'],
9,"[0.2, -0.2]",1,0,1,1,1,,,,,,,712.4828452999936,None,712.4828452999936,713.4828322000103,713.4661524000112,714.4662163000321,0,None,None,"[0, 0, 0]",,,712.4828452999936,None,,,,,,,,,,,,,,,,,,,,,,,,,,"[0, 0, 0]",,,,,999,m,2,99,r,TEST,2021_Aug_20_1304,distractmap,2020.2.10,59.982353169052,['Abdomen'],
9,"[0.2, -0.2]",1,0,2,2,2,,,,,,,714.4828760999953,714.4828760999953,714.4828760999953,715.4828197000315,715.466229600017,716.4662216999568,0,None,None,"[0, 0, 0]",,,714.4828760999953,714.4828760999953,,,,,,,,,,,,,,,,,,,,,,,,,,"[0, 0, 0]",,,,,999,m,2,99,r,TEST,2021_Aug_20_1304,distractmap,2020.2.10,59.982353169052,['Abdomen'],
3,"[0.2, 0.2]",0,0,3,3,3,,,,,,,716.482899100054,716.482899100054,716.482899100054,717.4828379000537,717.4662538999692,718.4662889000028,0,None,None,"[0, 0, 0]",,,716.482899100054,716.482899100054,,,,,,,,,,,,,,,,,,,,,,,,,,"[0, 0, 0]",,,,,999,m,2,99,r,TEST,2021_Aug_20_1304,distractmap,2020.2.10,59.982353169052,['Abdomen'],
5,"[0, 0]",0,0,4,4,4,,,,,,,718.6000882000662,718.6000882000662,718.6000882000662,719.5997054000618,719.5830752999755,None,0,None,None,"[0, 0, 0]",,,718.6000882000662,718.6000882000662,,,,,,,,,,,,,,,,,,,,,,,,,,"[0, 0, 0]",,,,,999,m,2,99,r,TEST,2021_Aug_20_1304,distractmap,2020.2.10,59.982353169052,['Abdomen'],
4,"[-0.2, 0]",0,0,5,5,5,,,,,,,720.4996313999873,None,720.4996313999873,721.4995630000485,721.482969100005,722.4829799999716,0,None,None,"[0, 0, 0]",,,720.4996313999873,None,,,,,,,,,,,,,,,,,,,,,,,,,,"[0, 0, 0]",,,,,999,m,2,99,r,TEST,2021_Aug_20_1304,distractmap,2020.2.10,59.982353169052,['Abdomen'],
9,"[0.2, -0.2]",0,0,6,6,6,,,,,,,722.4996895999648,722.4996895999648,722.4996895999648,723.4995879000053,723.4829488999676,724.4829756000545,0,None,None,"[0, 0, 0]",,,722.4996895999648,722.4996895999648,,,,,,,,,,,,,,,,,,,,,,,,,,"[0, 0, 0]",,,,,999,m,2,99,r,TEST,2021_Aug_20_1304,distractmap,2020.2.10,59.982353169052,['Abdomen'],
6,"[0.2, 0]",0,0,7,7,7,,,,,,,724.4995788000524,724.4995788000524,724.4995788000524,725.4996676000301,725.482971600024,726.4829538000049,0,None,None,"[0, 0, 0]",,,724.4995788000524,724.4995788000524,,,,,,,,,,,,,,,,,,,,,,,,,,"[0, 0, 0]",,,,,999,m,2,99,r,TEST,2021_Aug_20_1304,distractmap,2020.2.10,59.982353169052,['Abdomen'],
2,"[0, 0.2]",0,0,8,8,8,,,,,,,726.4996078000404,726.4996078000404,726.4996078000404,727.4996543000452,727.4829785999609,728.4829696000088,0,None,None,"[0, 0, 0]",,,726.4996078000404,726.4996078000404,,,,,,,,,,,,,,,,,,,,,,,,,,"[0, 0, 0]",,,,,999,m,2,99,r,TEST,2021_Aug_20_1304,distractmap,2020.2.10,59.982353169052,['Abdomen'],
2,"[0, 0.2]",1,0,9,9,9,,,,,,,728.4996466999874,728.4996466999874,728.4996466999874,729.4996232000412,729.4829841000028,730.4829836999997,0,None,None,"[0, 0, 0]",,,728.4996466999874,728.4996466999874,,,,,,,,,,,,,,,,,,,,,,,,,,"[0, 0, 0]",,,,,999,m,2,99,r,TEST,2021_Aug_20_1304,distractmap,2020.2.10,59.982353169052,['Abdomen'],
,,,,,,,,,,,730.4992964999983,None,,,,,,,,,,,,,,,,,,,,,,,,,,,,,,,,,,,,,,,,,50.0,734.7268319900613,,,999,m,2,99,r,TEST,2021_Aug_20_1304,distractmap,2020.2.10,59.982353169052,['Abdomen'],
2,"[0, 0.2]",None,0,0,0,0,,,,,742.1148455999792,None,750.5318576999707,None,750.5318576999707,751.5331171000144,751.5164320999756,None,1,None,None,"[0, 0, 0]",,,750.5318576999707,None,,,,,,,,,,,,,,,,,,,,,,,,,,"[0, 0, 0]",,,0.014683109940961003,5.012278010020964,999,m,2,99,r,TEST,2021_Aug_20_1304,distractmap,2020.2.10,59.982353169052,['Abdomen'],
8,"[0, -0.2]",0,0,1,1,1,,,,,,,752.5165050000651,None,752.5165050000651,753.5164819000056,753.4997926000506,754.4998756999848,0,None,None,"[0, 0, 0]",,,752.5165050000651,None,,,,,,,,,,,,,,,,,,,,,,,,,,"[0, 0, 0]",,,,,999,m,2,99,r,TEST,2021_Aug_20_1304,distractmap,2020.2.10,59.982353169052,['Abdomen'],
1,"[-0.2, 0.2]",0,0,2,2,2,,,,,,,754.5165393999778,754.5165393999778,754.5165393999778,755.5165262999944,755.4998508000281,756.4998241000576,0,None,None,"[0, 0, 0]",,,754.5165393999778,754.5165393999778,,,,,,,,,,,,,,,,,,,,,,,,,,"[0, 0, 0]",,,,,999,m,2,99,r,TEST,2021_Aug_20_1304,distractmap,2020.2.10,59.982353169052,['Abdomen'],
2,"[0, 0.2]",0,0,3,3,3,,,,,,,756.516520599951,756.516520599951,756.516520599951,757.5164986000163,757.4998305999907,758.4999234999996,0,None,None,"[0, 0, 0]",,,756.516520599951,756.516520599951,,,,,,,,,,,,,,,,,,,,,,,,,,"[0, 0, 0]",,,,,999,m,2,99,r,TEST,2021_Aug_20_1304,distractmap,2020.2.10,59.982353169052,['Abdomen'],
2,"[0, 0.2]",1,0,4,4,4,,,,,,,758.6657621000195,758.6657621000195,758.6657621000195,759.6664985000389,759.6498916000128,None,0,None,None,"[0, 0, 0]",,,758.6657621000195,758.6657621000195,,,,,,,,,,,,,,,,,,,,,,,,,,"[0, 0, 0]",,,,,999,m,2,99,r,TEST,2021_Aug_20_1304,distractmap,2020.2.10,59.982353169052,['Abdomen'],
7,"[-0.2, -0.2]",0,0,5,5,5,,,,,,,760.5332310000667,None,760.5332310000667,761.5332243000157,761.5165957000572,762.5166003999766,0,None,None,"[0, 0, 0]",,,760.5332310000667,None,,,,,,,,,,,,,,,,,,,,,,,,,,"[0, 0, 0]",,,,,999,m,2,99,r,TEST,2021_Aug_20_1304,distractmap,2020.2.10,59.982353169052,['Abdomen'],
9,"[0.2, -0.2]",0,0,6,6,6,,,,,,,762.5332596000517,762.5332596000517,762.5332596000517,763.5332640999695,763.5166175999912,764.5165966000641,0,None,None,"[0, 0, 0]",,,762.5332596000517,762.5332596000517,,,,,,,,,,,,,,,,,,,,,,,,,,"[0, 0, 0]",,,,,999,m,2,99,r,TEST,2021_Aug_20_1304,distractmap,2020.2.10,59.982353169052,['Abdomen'],
9,"[0.2, -0.2]",1,0,7,7,7,,,,,,,764.5331322000129,764.5331322000129,764.5331322000129,765.5333372000605,765.5165658000624,766.5166058000177,0,None,None,"[0, 0, 0]",,,764.5331322000129,764.5331322000129,,,,,,,,,,,,,,,,,,,,,,,,,,"[0, 0, 0]",,,,,999,m,2,99,r,TEST,2021_Aug_20_1304,distractmap,2020.2.10,59.982353169052,['Abdomen'],
4,"[-0.2, 0]",0,0,8,8,8,,,,,,,766.5333069000626,766.5333069000626,766.5333069000626,767.5332466999535,767.5166110000573,768.516585299978,0,None,None,"[0, 0, 0]",,,766.5333069000626,766.5333069000626,,,,,,,,,,,,,,,,,,,,,,,,,,"[0, 0, 0]",,,,,999,m,2,99,r,TEST,2021_Aug_20_1304,distractmap,2020.2.10,59.982353169052,['Abdomen'],
5,"[0, 0]",0,0,9,9,9,,,,,,,768.5332997000078,768.5332997000078,768.5332997000078,769.5333356000483,769.5166296999669,770.5166076000314,0,None,None,"[0, 0, 0]",,,768.5332997000078,768.5332997000078,,,,,,,,,,,,,,,,,,,,,,,,,,"[0, 0, 0]",,,,,999,m,2,99,r,TEST,2021_Aug_20_1304,distractmap,2020.2.10,59.982353169052,['Abdomen'],
,,,,,,,,,,,770.5329160999972,None,,,,,,,,,,,,,,,,,,,,,,,,,,,,,,,,,,,,,,,,,50.0,777.2606979900738,,,999,m,2,99,r,TEST,2021_Aug_20_1304,distractmap,2020.2.10,59.982353169052,['Abdomen'],
2,"[0, 0.2]",None,0,0,0,0,,,,,783.9816177999601,None,790.5655337000499,None,790.5655337000499,791.5666216999525,791.5501369000413,None,1,None,None,"[0, 0, 0]",,,790.5655337000499,None,,,,,,,,,,,,,,,,,,,,,,,,,,"[0, 0, 0]",,,0.014437909936532378,5.011710709892213,999,m,2,99,r,TEST,2021_Aug_20_1304,distractmap,2020.2.10,59.982353169052,['Abdomen'],
2,"[0, 0.2]",1,0,1,1,1,,,,,,,792.5501676000422,None,792.5501676000422,793.550130299991,793.5334707000293,794.5334717000369,0,None,None,"[0, 0, 0]",,,792.5501676000422,None,,,,,,,,,,,,,,,,,,,,,,,,,,"[0, 0, 0]",,,,,999,m,2,99,r,TEST,2021_Aug_20_1304,distractmap,2020.2.10,59.982353169052,['Abdomen'],
1,"[-0.2, 0.2]",0,0,2,2,2,,,,,,,794.5501301999902,794.5501301999902,794.5501301999902,795.5501579999691,795.5334964999929,796.533512199996,0,None,None,"[0, 0, 0]",,,794.5501301999902,794.5501301999902,,,,,,,,,,,,,,,,,,,,,,,,,,"[0, 0, 0]",,,,,999,m,2,99,r,TEST,2021_Aug_20_1304,distractmap,2020.2.10,59.982353169052,['Abdomen'],
2,"[0, 0.2]",0,0,3,3,3,,,,,,,796.5501777000027,796.5501777000027,796.5501777000027,797.5502152000554,797.5335062999511,798.5334956999868,0,None,None,"[0, 0, 0]",,,796.5501777000027,796.5501777000027,,,,,,,,,,,,,,,,,,,,,,,,,,"[0, 0, 0]",,,,,999,m,2,99,r,TEST,2021_Aug_20_1304,distractmap,2020.2.10,59.982353169052,['Abdomen'],
2,"[0, 0.2]",1,0,4,4,4,,,,,,,798.600699899951,798.600699899951,798.600699899951,799.6003569000168,799.5835309999529,None,0,None,None,"[0, 0, 0]",,,798.600699899951,798.600699899951,,,,,,,,,,,,,,,,,,,,,,,,,,"[0, 0, 0]",,,,,999,m,2,99,r,TEST,2021_Aug_20_1304,distractmap,2020.2.10,59.982353169052,['Abdomen'],
4,"[-0.2, 0]",0,0,5,5,5,,,,,,,800.5669069000287,None,800.5669069000287,801.5668570999987,801.5502752000466,802.5502266000258,0,None,None,"[0, 0, 0]",,,800.5669069000287,None,,,,,,,,,,,,,,,,,,,,,,,,,,"[0, 0, 0]",,,,,999,m,2,99,r,TEST,2021_Aug_20_1304,distractmap,2020.2.10,59.982353169052,['Abdomen'],
6,"[0.2, 0]",0,0,6,6,6,,,,,,,802.5669247000478,802.5669247000478,802.5669247000478,803.5668915000279,803.5502055999823,804.5502123000333,0,None,None,"[0, 0, 0]",,,802.5669247000478,802.5669247000478,,,,,,,,,,,,,,,,,,,,,,,,,,"[0, 0, 0]",,,,,999,m,2,99,r,TEST,2021_Aug_20_1304,distractmap,2020.2.10,59.982353169052,['Abdomen'],
8,"[0, -0.2]",0,0,7,7,7,,,,,,,804.5669232000364,804.5669232000364,804.5669232000364,805.5669023999944,805.5502263000235,806.5502575000282,0,None,None,"[0, 0, 0]",,,804.5669232000364,804.5669232000364,,,,,,,,,,,,,,,,,,,,,,,,,,"[0, 0, 0]",,,,,999,m,2,99,r,TEST,2021_Aug_20_1304,distractmap,2020.2.10,59.982353169052,['Abdomen'],
9,"[0.2, -0.2]",0,0,8,8,8,,,,,,,806.5669885999523,806.5669885999523,806.5669885999523,807.5669379000319,807.5503010000102,808.5502615000587,0,None,None,"[0, 0, 0]",,,806.5669885999523,806.5669885999523,,,,,,,,,,,,,,,,,,,,,,,,,,"[0, 0, 0]",,,,,999,m,2,99,r,TEST,2021_Aug_20_1304,distractmap,2020.2.10,59.982353169052,['Abdomen'],
9,"[0.2, -0.2]",1,0,9,9,9,,,,,,,808.5669717000565,808.5669717000565,808.5669717000565,809.5669568000594,809.5502712000161,810.5503017000156,0,None,None,"[0, 0, 0]",,,808.5669717000565,808.5669717000565,,,,,,,,,,,,,,,,,,,,,,,,,,"[0, 0, 0]",,,,,999,m,2,99,r,TEST,2021_Aug_20_1304,distractmap,2020.2.10,59.982353169052,['Abdomen'],
,,,,,,,,,,,810.566606999957,None,,,,,,,,,,,,,,,,,,,,,,,,,,,,,,,,,,,,,,,,,50.0,814.7938062901376,,,999,m,2,99,r,TEST,2021_Aug_20_1304,distractmap,2020.2.10,59.982353169052,['Abdomen'],
4,"[-0.2, 0]",None,0,0,0,0,,,,,820.8652634000173,None,830.5991746999789,None,830.5991746999789,831.6004163000034,831.5837702000281,None,1,None,None,"[0, 0, 0]",,,830.5991746999789,None,,,,,,,,,,,,,,,,,,,,,,,,,,"[0, 0, 0]",,,0.0150183099322021,5.0129787100013345,999,m,2,99,r,TEST,2021_Aug_20_1304,distractmap,2020.2.10,59.982353169052,['Abdomen'],
7,"[-0.2, -0.2]",0,0,1,1,1,,,,,,,832.583865200053,None,832.583865200053,833.5837507999968,833.5672105000122,834.5671644000104,0,None,None,"[0, 0, 0]",,,832.583865200053,None,,,,,,,,,,,,,,,,,,,,,,,,,,"[0, 0, 0]",,,,,999,m,2,99,r,TEST,2021_Aug_20_1304,distractmap,2020.2.10,59.982353169052,['Abdomen'],
7,"[-0.2, -0.2]",1,0,2,2,2,,,,,,,834.5837947999826,834.5837947999826,834.5837947999826,835.5838066999568,835.5671709000599,836.5671871000668,0,None,None,"[0, 0, 0]",,,834.5837947999826,834.5837947999826,,,,,,,,,,,,,,,,,,,,,,,,,,"[0, 0, 0]",,,,,999,m,2,99,r,TEST,2021_Aug_20_1304,distractmap,2020.2.10,59.982353169052,['Abdomen'],
4,"[-0.2, 0]",0,0,3,3,3,,,,,,,836.5838607000187,836.5838607000187,836.5838607000187,837.5838572999928,837.5671449999791,838.5670754000312,0,None,None,"[0, 0, 0]",,,836.5838607000187,836.5838607000187,,,,,,,,,,,,,,,,,,,,,,,,,,"[0, 0, 0]",,,,,999,m,2,99,r,TEST,2021_Aug_20_1304,distractmap,2020.2.10,59.982353169052,['Abdomen'],
8,"[0, -0.2]",0,0,4,4,4,,,,,,,838.7011184999719,838.7011184999719,838.7011184999719,839.7006352000171,839.6839046999812,None,0,None,None,"[0, 0, 0]",,,838.7011184999719,838.7011184999719,,,,,,,,,,,,,,,,,,,,,,,,,,"[0, 0, 0]",,,,,999,m,2,99,r,TEST,2021_Aug_20_1304,distractmap,2020.2.10,59.982353169052,['Abdomen'],
4,"[-0.2, 0]",0,0,5,5,5,,,,,,,840.6005763000576,None,840.6005763000576,841.6005252000177,841.5837689000182,842.5839052000083,0,None,None,"[0, 0, 0]",,,840.6005763000576,None,,,,,,,,,,,,,,,,,,,,,,,,,,"[0, 0, 0]",,,,,999,m,2,99,r,TEST,2021_Aug_20_1304,distractmap,2020.2.10,59.982353169052,['Abdomen'],
7,"[-0.2, -0.2]",0,0,6,6,6,,,,,,,842.6005118000321,842.6005118000321,842.6005118000321,843.6003840999911,843.5839013999794,844.5838651000522,0,None,None,"[0, 0, 0]",,,842.6005118000321,842.6005118000321,,,,,,,,,,,,,,,,,,,,,,,,,,"[0, 0, 0]",,,,,999,m,2,99,r,TEST,2021_Aug_20_1304,distractmap,2020.2.10,59.982353169052,['Abdomen'],
6,"[0.2, 0]",0,0,7,7,7,,,,,,,844.600606400054,844.600606400054,844.600606400054,845.6005572000286,845.5839075000258,846.583950500004,0,None,None,"[0, 0, 0]",,,844.600606400054,844.600606400054,,,,,,,,,,,,,,,,,,,,,,,,,,"[0, 0, 0]",,,,,999,m,2,99,r,TEST,2021_Aug_20_1304,distractmap,2020.2.10,59.982353169052,['Abdomen'],
6,"[0.2, 0]",1,0,8,8,8,,,,,,,846.6005665999837,846.6005665999837,846.6005665999837,847.6005657999776,847.5838845999679,848.5839558000444,0,None,None,"[0, 0, 0]",,,846.6005665999837,846.6005665999837,,,,,,,,,,,,,,,,,,,,,,,,,,"[0, 0, 0]",,,,,999,m,2,99,r,TEST,2021_Aug_20_1304,distractmap,2020.2.10,59.982353169052,['Abdomen'],
1,"[-0.2, 0.2]",0,0,9,9,9,,,,,,,848.600593799958,848.600593799958,848.600593799958,849.6006193000358,849.5839300999651,850.5839424000587,0,None,None,"[0, 0, 0]",,,848.600593799958,848.600593799958,,,,,,,,,,,,,,,,,,,,,,,,,,"[0, 0, 0]",,,,,999,m,2,99,r,TEST,2021_Aug_20_1304,distractmap,2020.2.10,59.982353169052,['Abdomen'],
,,,,,,,,,,,850.6002069000388,None,,,,,,,,,,,,,,,,,,,,,,,,,,,,,,,,,,,,,,,,,50.0,854.8278715900378,,,999,m,2,99,r,TEST,2021_Aug_20_1304,distractmap,2020.2.10,59.982353169052,['Abdomen'],
,,,,,,,,,,,,,,,,,,,,,,,,,,,,,,,,,,,,,,,,,,,,,,,,,,,,,,,0.014665210037492216,5.012341410038061,,,,,,,,,,,,
