	SID	day	sex	session	handedness	scanner	onset	duration	value	body_site	skin_site	temperature	condition	keys	rt	phase	biopac_channel
0	1858	3	m	1	r	MS MH	2.7743049999698997	5.0053365643834695		Chest	2	48.0	Instructions			Control	19
1	1858	3	m	1	r	MS MH	8.027061100001447	5.008601440116763	47.901234567901234	Chest	2	48.0	Expectancy		1.966987399966456	Control	51
2	1858	3	m	1	r	MS MH	13.415079399943352	1.998754360130988		Chest	2	48.0	Cue			Control	6
3	1858	3	m	1	r	MS MH	15.418679099995643	4.009712590021081		Chest	2	48.0	Pre-Jitter			Control	7
4	1858	3	m	1	r	MS MH	19.46560859994497	14.999331469996832		Chest	2	48.0	Control Heat 			Control	17
5	1858	3	m	1	r	MS MH	34.46595930005424	6.998830789932981		Chest	2	48.0	Mid-Jitter			Control	8
6	1858	3	m	1	r	MS MH	41.484496899996884	4.995161580038257	1.0	Chest	2	48.0	PainBinary		0.8517810000339523	Control	20
7	1858	3	m	1	r	MS MH	46.5002837999491	5.013780280016363	39.81481481481482	Chest	2	48.0	IntensityRating		2.336281800060533	Control	21
8	1858	3	m	1	r	MS MH	51.51951629994437	7.00880768999923		Chest	2	48.0	Post-Q-Jitter			Control	9
9	1858	3	m	1	r	MS MH	59.608299499959685	5.010726040229201	43.82716049382716	Chest	2	48.0	Expectancy		2.3836434999248013	Control	51
10	1858	3	m	1	r	MS MH	64.98205019999295	1.99927497014869		Chest	2	48.0	Cue			Control	6
11	1858	3	m	1	r	MS MH	66.98594819998834	7.992912090034224		Chest	2	48.0	Pre-Jitter			Control	7
12	1858	3	m	1	r	MS MH	75.06349690002389	15.004389939946122		Chest	2	48.0	Control Heat 			Control	17
13	1858	3	m	1	r	MS MH	90.0666911000153	6.998550290009007		Chest	2	48.0	Mid-Jitter			Control	8
14	1858	3	m	1	r	MS MH	97.08609670004807	5.0097899799002334	1.0	Chest	2	48.0	PainBinary		2.633534300024621	Control	20
15	1858	3	m	1	r	MS MH	102.11755600001197	5.013634680071846	38.58024691358025	Chest	2	48.0	IntensityRating		1.783528900006786	Control	21
16	1858	3	m	1	r	MS MH	107.13583809998818	6.993903290014714		Chest	2	48.0	Post-Q-Jitter			Control	9
17	1858	3	m	1	r	MS MH	114.45194860000629	5.010640500113368	44.50617283950618	Chest	2	48.0	Expectancy		2.4335290999151766	Control	51
18	1858	3	m	1	r	MS MH	119.84179640002549	2.0141080600442365		Chest	2	48.0	Cue			Control	6
19	1858	3	m	1	r	MS MH	121.85299369995482	3.9931742899352685		Chest	2	48.0	Pre-Jitter			Control	7
20	1858	3	m	1	r	MS MH	125.87668920005672	15.012518870062195		Chest	2	48.0	Control Heat 			Control	17
21	1858	3	m	1	r	MS MH	140.88465729996096	8.996947589912452		Chest	2	48.0	Mid-Jitter			Control	8
22	1858	3	m	1	r	MS MH	149.90300000004936	5.010354680009186	1.0	Chest	2	48.0	PainBinary		1.1001851999899372	Control	20
23	1858	3	m	1	r	MS MH	154.9343971000053	4.997602580115199	35.49382716049383	Chest	2	48.0	IntensityRating		2.734506700071506	Control	21
24	1858	3	m	1	r	MS MH	159.93693530000746	9.009405590011738		Chest	2	48.0	Post-Q-Jitter			Control	9
25	1858	3	m	1	r	MS MH	169.25038400001358	4.998286110116169	38.02469135802469	Chest	2	48.0	Expectancy		3.766972499899566	Control	51
26	1858	3	m	1	r	MS MH	174.6389517999487	2.0042204599594697		Chest	2	48.0	Cue			Control	6
27	1858	3	m	1	r	MS MH	176.65329439996276	4.010274389991537		Chest	2	48.0	Pre-Jitter			Control	7
28	1858	3	m	1	r	MS MH	180.7034497000277	14.993415270000696		Chest	2	48.0	Control Heat 			Control	17
29	1858	3	m	1	r	MS MH	195.70173039997462	8.997186289983802		Chest	2	48.0	Mid-Jitter			Control	8
30	1858	3	m	1	r	MS MH	204.7200866000494	5.0105512799927965	1.0	Chest	2	48.0	PainBinary		0.8501479999395087	Control	20
31	1858	3	m	1	r	MS MH	209.75143639999442	4.9979660800891	39.074074074074076	Chest	2	48.0	IntensityRating		2.516983599984087	Control	21
32	1858	3	m	1	r	MS MH	214.75413839996327	9.009435090003535		Chest	2	48.0	Post-Q-Jitter			Control	9
33	1858	3	m	1	r	MS MH	224.0693026999943	5.011458510067314	38.02469135802469	Chest	2	48.0	Expectancy		2.9836085999850184	Control	51
34	1858	3	m	1	r	MS MH	229.45278249995317	2.0109842701349407		Chest	2	48.0	Cue			Control	6
35	1858	3	m	1	r	MS MH	231.47106580005493	4.009160290006548		Chest	2	48.0	Pre-Jitter			Control	7
36	1858	3	m	1	r	MS MH	235.5219423000235	15.00747406994924		Chest	2	48.0	Control Heat 			Control	17
37	1858	3	m	1	r	MS MH	250.53545760002453	8.99747159006074		Chest	2	48.0	Mid-Jitter			Control	8
38	1858	3	m	1	r	MS MH	259.5549717999529	5.008506380021572	1.0	Chest	2	48.0	PainBinary		1.1168415000429377	Control	20
39	1858	3	m	1	r	MS MH	264.5853931000456	4.99776507995557	38.58024691358025	Chest	2	48.0	IntensityRating		2.43449839996174	Control	21
40	1858	3	m	1	r	MS MH	269.58788949996233	9.0096568899462		Chest	2	48.0	Post-Q-Jitter			Control	9
41	1858	3	m	1	r	MS MH	278.8683452999685	4.997897030087188	36.851851851851855	Chest	2	48.0	Expectancy		2.667441300000064	Control	51
42	1858	3	m	1	r	MS MH	284.2507158999797	1.9994784601731226		Chest	2	48.0	Cue			Control	6
43	1858	3	m	1	r	MS MH	286.25520899996627	4.008634490077384		Chest	2	48.0	Pre-Jitter			Control	7
44	1858	3	m	1	r	MS MH	290.3275128999958	15.01391085004434		Chest	2	48.0	Control Heat 			Control	17
45	1858	3	m	1	r	MS MH	305.3358632000163	8.997681790031493		Chest	2	48.0	Mid-Jitter			Control	8
46	1858	3	m	1	r	MS MH	314.35518319997936	5.009157380089164	1.0	Chest	2	48.0	PainBinary		0.6334683999884874	Control	20
47	1858	3	m	1	r	MS MH	319.3866625999799	4.996313479961827	37.098765432098766	Chest	2	48.0	IntensityRating		1.6344765999820083	Control	21
48	1858	3	m	1	r	MS MH	324.3884858000092	9.00948899006471		Chest	2	48.0	Post-Q-Jitter			Control	9
49	1858	3	m	1	r	MS MH	333.4279738999903	1.5972603700356558	9.135802469135811	Chest	2	48.0	ComfortRating		1.5528676999965683	Control	26
50	1858	3	m	1	r	MS MH	335.0397217000136	3.773959379992448	54.87654320987655	Chest	2	48.0	ValenceRating		3.7502722999779508	Control	24
51	1858	3	m	1	r	MS MH	338.8344571000198	1.1678356799529865	55.24691358024691	Chest	2	48.0	IntensityRating		1.150384399923496	Control	26
52	1858	3	m	1	r	MS MH	340.0191078999778	1.8985510801430792	14.93827160493828	Chest	2	48.0	AvoidanceRating		1.8836421000305563	Control	27
53	1858	3	m	1	r	MS MH	341.9324145000428	1.6219697799533606	44.382716049382715	Chest	2	48.0	RelaxationRating		1.5858340000268072	Control	28
54	1858	3	m	1	r	MS MH	343.5690786000341	2.165354279917665	85.74074074074073	Chest	2	48.0	AttentionRating		2.1508325999602675	Control	29
55	1858	3	m	1	r	MS MH	345.74878769996576	1.839318879880011	34.81481481481482	Chest	2	48.0	BoredomRating		1.8169448000844568	Control	30
56	1858	3	m	1	r	MS MH	347.6009392000269	1.3517438799608499	25.432098765432087	Chest	2	48.0	AlertnessRating		1.3336903000017628	Control	31
57	1858	3	m	1	r	MS MH	348.9682967000408	1.2670046800049022	-0.7407407407407476	Chest	2	48.0	PosThxRating		1.2367455000057817	Control	32
58	1858	3	m	1	r	MS MH	350.25108780001756	0.26807957992423326	-0.7407407407407476	Chest	2	48.0	NegThxRating		0.25027530000079423	Control	33
59	1858	3	m	1	r	MS MH	350.53431829996407	1.2182172799948603	44.32098765432099	Chest	2	48.0	SelfRating		1.2002262000460178	Control	34
60	1858	3	m	1	r	MS MH	351.76802920002956	1.0008452798938379	-23.333333333333343	Chest	2	48.0	OtherRating		0.9836441000225022	Control	35
61	1858	3	m	1	r	MS MH	352.78499730001204	1.7003647800302133	4.074074074074076	Chest	2	48.0	ImageryRating		1.683656599954702	Control	32
62	1858	3	m	1	r	MS MH	354.5032660999568	0.8305321800289676	35.43209876543213	Chest	2	48.0	PresentRating		0.800227899919264	Control	37
