	SID	date	sex	session	handedness	scanner	onset	duration	repetition	rating	body_site	keys	temperature	conditionrt	mouseclick	biopac_channel	condition	rt	value
0	3003	2024_Jul_23_1936	f	1	r	MS SS	2.7745723000261933	4.999802534002811								19	Instructions		
1	3003	2024_Jul_23_1936	f	1	r	MS SS	9.144851699937135	2.0107325692661107								6	Cue		
2	3003	2024_Jul_23_1936	f	1	r	MS SS	11.161123599857092	7.995064789894968								7	Pre-Jitter		
3	3003	2024_Jul_23_1936	f	1	r	MS SS	19.226540399948135	14.99782364978455			Chest		48.0			17	Heat-Stimulation		
4	3003	2024_Jul_23_1936	f	1	r	MS SS	34.307826600037515	9.002107040025294								8	Mid-Jitter		
5	3003	2024_Jul_23_1936	f	1	r	MS SS	43.32836339995265	5.011211480014026								20	PainBinary	2.033569399965927	1.0
6	3003	2024_Jul_23_1936	f	1	r	MS SS	48.36142380000092	5.011969179846346								21	IntensityRating	4.950277999974787	51.79012345679013
7	3003	2024_Jul_23_1936	f	1	r	MS SS	53.392658199882135	4.999627480050549								22	ToleranceRating	2.366914999904111	-1.0
8	3003	2024_Jul_23_1936	f	1	r	MS SS	58.39681259985082	9.008160890080035								9	Post-Q-Jitter		
9	3003	2024_Jul_23_1936	f	1	r	MS SS	68.73655789997429	2.0120356897823513								6	Cue		
10	3003	2024_Jul_23_1936	f	1	r	MS SS	70.74449609988369	7.996371790068224								7	Pre-Jitter		
11	3003	2024_Jul_23_1936	f	1	r	MS SS	78.7743183998391	15.003658570116386			Chest		47.5			17	Heat-Stimulation		
12	3003	2024_Jul_23_1936	f	1	r	MS SS	93.85230519995093	9.014662540052086								8	Mid-Jitter		
13	3003	2024_Jul_23_1936	f	1	r	MS SS	102.88056700001471	5.008308779681101								20	PainBinary	1.550206300104037	1.0
14	3003	2024_Jul_23_1936	f	1	r	MS SS	107.91312259994447	5.009957880014554								21	IntensityRating	2.433681499911472	50.92592592592592
15	3003	2024_Jul_23_1936	f	1	r	MS SS	112.9423590998631	5.001601879950613								22	ToleranceRating	2.3336698999628425	-1.0
16	3003	2024_Jul_23_1936	f	1	r	MS SS	117.94765119999647	9.007846389897168								9	Post-Q-Jitter		
17	3003	2024_Jul_23_1936	f	1	r	MS SS	127.55395810003392	2.012048229575157								6	Cue		
18	3003	2024_Jul_23_1936	f	1	r	MS SS	129.56156639987603	5.99692109040916								7	Pre-Jitter		
19	3003	2024_Jul_23_1936	f	1	r	MS SS	135.58359719999135	15.003118580207229			Chest		47.0			17	Heat-Stimulation		
20	3003	2024_Jul_23_1936	f	1	r	MS SS	150.66968049993739	9.014556840062141								8	Mid-Jitter		
21	3003	2024_Jul_23_1936	f	1	r	MS SS	159.6970019999426	5.010069879936054								20	PainBinary	1.4335630999412388	1.0
22	3003	2024_Jul_23_1936	f	1	r	MS SS	164.72897979989648	5.013028779998422								21	IntensityRating		44.19753086419753
23	3003	2024_Jul_23_1936	f	1	r	MS SS	169.76112429983914	4.998746779980138								22	ToleranceRating	0.06697909999638796	0.0
24	3003	2024_Jul_23_1936	f	1	r	MS SS	174.76538429991342	9.007040390046313								9	Post-Q-Jitter		
25	3003	2024_Jul_23_1936	f	1	r	MS SS	185.17911230004393	2.01296084956266								6	Cue		
26	3003	2024_Jul_23_1936	f	1	r	MS SS	187.19496440002695	3.998134990222752								7	Pre-Jitter		
27	3003	2024_Jul_23_1936	f	1	r	MS SS	191.21740289987065	15.00348327984102			Chest		47.0			17	Heat-Stimulation		
28	3003	2024_Jul_23_1936	f	1	r	MS SS	206.30393489985727	7.014014140004292								8	Mid-Jitter		
29	3003	2024_Jul_23_1936	f	1	r	MS SS	213.33014600002207	5.011763579910621								20	PainBinary	1.7501986999996006	1.0
30	3003	2024_Jul_23_1936	f	1	r	MS SS	218.36350159998983	5.011816079961136								21	IntensityRating	1.7358223998453468	43.82716049382716
31	3003	2024_Jul_23_1936	f	1	r	MS SS	223.3937549998518	5.001387079944834								22	ToleranceRating	1.2004011000972241	-1.0
32	3003	2024_Jul_23_1936	f	1	r	MS SS	228.3990159998648	7.007704190211371								9	Post-Q-Jitter		
33	3003	2024_Jul_23_1936	f	1	r	MS SS	236.69922329997644	2.007281519472599								6	Cue		
34	3003	2024_Jul_23_1936	f	1	r	MS SS	238.71259250002913	7.9974535901565105								7	Pre-Jitter		
35	3003	2024_Jul_23_1936	f	1	r	MS SS	246.72744579985738	15.00137537997216			Chest		46.5			17	Heat-Stimulation		
36	3003	2024_Jul_23_1936	f	1	r	MS SS	261.8060146998614	7.01115613989532								8	Mid-Jitter		
37	3003	2024_Jul_23_1936	f	1	r	MS SS	268.8308818000369	5.011577979894355								20	PainBinary	1.9356636998709291	1.0
38	3003	2024_Jul_23_1936	f	1	r	MS SS	273.8634643999394	5.013276879908517								21	IntensityRating		40.24691358024692
39	3003	2024_Jul_23_1936	f	1	r	MS SS	278.89442759985104	5.001358679961413								22	ToleranceRating	0.0669543999247253	0.0
40	3003	2024_Jul_23_1936	f	1	r	MS SS	283.8999279998243	7.00717838993296								9	Post-Q-Jitter		
41	3003	2024_Jul_23_1936	f	1	r	MS SS	292.33258299995214	2.008514639455825								6	Cue		
42	3003	2024_Jul_23_1936	f	1	r	MS SS	294.3469676999375	3.996607289882377								7	Pre-Jitter		
43	3003	2024_Jul_23_1936	f	1	r	MS SS	298.3722302999813	15.012992869829759			Chest		46.5			17	Heat-Stimulation		
44	3003	2024_Jul_23_1936	f	1	r	MS SS	313.4559897999279	7.012402639957145								8	Mid-Jitter		
45	3003	2024_Jul_23_1936	f	1	r	MS SS	320.481521199923	5.011514479992911								20	PainBinary	1.483570900047198	1.0
46	3003	2024_Jul_23_1936	f	1	r	MS SS	325.51497389981523	5.011379580013454								21	IntensityRating	2.7358488000463694	38.88888888888889
47	3003	2024_Jul_23_1936	f	1	r	MS SS	330.54554530000314	5.00033617997542								22	ToleranceRating	1.2669637000653893	1.0
48	3003	2024_Jul_23_1936	f	1	r	MS SS	335.5511809999589	7.005846289917827								9	Post-Q-Jitter		
49	3003	2024_Jul_23_1936	f	1	r	MS SS	343.1604180999566	2.0041313297115266								6	Cue		
50	3003	2024_Jul_23_1936	f	1	r	MS SS	345.163447199855	3.99817979009822								7	Pre-Jitter		
51	3003	2024_Jul_23_1936	f	1	r	MS SS	349.19900749996305	14.993980270111933			Chest		46.5			17	Heat-Stimulation		
52	3003	2024_Jul_23_1936	f	1	r	MS SS	364.2725481998641	7.0138074399437755								8	Mid-Jitter		
53	3003	2024_Jul_23_1936	f	1	r	MS SS	371.2990606999956	5.010998179903254								20	PainBinary	1.4168658999260515	1.0
54	3003	2024_Jul_23_1936	f	1	r	MS SS	376.3410586998798	5.010436970042065								21	IntensityRating	1.7002599998377264	43.4567901234568
55	3003	2024_Jul_23_1936	f	1	r	MS SS	381.362588299904	5.0007923799566925								22	ToleranceRating	2.050317300017923	-1.0
56	3003	2024_Jul_23_1936	f	1	r	MS SS	386.36813970003277	7.006499589886516								9	Post-Q-Jitter		
57	3003	2024_Jul_23_1936	f	1	r	MS SS	393.40676209982485	6.812849669950083								26	ComfortRating	6.7838079999201	12.098765432098773
58	3003	2024_Jul_23_1936	f	1	r	MS SS	400.2371757000219	5.668837779900059								24	ValenceRating	5.650405199965462	67.5925925925926
59	3003	2024_Jul_23_1936	f	1	r	MS SS	405.9300857000053	7.083135680062696								26	IntensityRating	7.06747220014222	69.62962962962963
60	3003	2024_Jul_23_1936	f	1	r	MS SS	413.0336625999771	8.909548979951069								27	AvoidanceRating	8.883777200011536	39.382716049382736
61	3003	2024_Jul_23_1936	f	1	r	MS SS	421.9618682998698	2.953235379885882								28	RelaxationRating	2.933744299924001	36.91358024691358
62	3003	2024_Jul_23_1936	f	1	r	MS SS	424.9319223999046	10.879973480012268								29	AttentionRating	10.850347199942917	76.11111111111111
63	3003	2024_Jul_23_1936	f	1	r	MS SS	435.83012850000523	6.7504446799866855								30	BoredomRating	6.7337213000282645	37.71604938271605
64	3003	2024_Jul_23_1936	f	1	r	MS SS	442.5972414999269	4.166343179997057								31	AlertnessRating	4.1504083999898285	-2.5925925925925952
65	3003	2024_Jul_23_1936	f	1	r	MS SS	446.7814197000116	8.398116879863665								32	PosThxRating	8.36740450002253	-81.60493827160494
66	3003	2024_Jul_23_1936	f	1	r	MS SS	455.19871529983357	7.64705278002657								33	NegThxRating	7.616979600163177	81.60493827160494
67	3003	2024_Jul_23_1936	f	1	r	MS SS	462.8634345999453	5.084434479940683								34	SelfRating	5.067073300015181	0.0
68	3003	2024_Jul_23_1936	f	1	r	MS SS	467.9638028999325	4.367160580120981								35	OtherRating	4.336209600092843	-69.62962962962963
69	3003	2024_Jul_23_1936	f	1	r	MS SS	472.34818339999765	6.265177479945123								32	ImageryRating	6.2505026999861	54.81481481481481
70	3003	2024_Jul_23_1936	f	1	r	MS SS	478.6331327999942	8.412102580070496								37	PresentRating	8.384100900031626	35.30864197530866
