BodySiteInstructionText.started,BodySiteImg.started,BodySiteImg.stopped,BodySiteInstructionRead.keys,BodySiteInstructionRead.rt,BodySiteInstructionRead.started,BodySiteInstructionRead.stopped,fixation.started,fixation.stopped,IntensityRating.response,IntensityRating.rt,IntensityRating.started,IntensityRating.stopped,ComfortRating.response,ComfortRating.rt,ComfortRating.started,ComfortRating.stopped,ValenceRating.response,ValenceRating.rt,ValenceRating.started,ValenceRating.stopped,AvoidRating.response,AvoidRating.rt,AvoidRating.started,AvoidRating.stopped,RelaxRating.response,RelaxRating.rt,RelaxRating.started,RelaxRating.stopped,TaskAttentionRating.response,TaskAttentionRating.rt,TaskAttentionRating.started,TaskAttentionRating.stopped,BoredomRating.response,BoredomRating.rt,BoredomRating.started,BoredomRating.stopped,AlertnessRating.response,AlertnessRating.rt,AlertnessRating.started,AlertnessRating.stopped,PosThxRating.response,PosThxRating.rt,PosThxRating.started,PosThxRating.stopped,NegThxRating.response,NegThxRating.rt,NegThxRating.started,NegThxRating.stopped,SelfRating.response,SelfRating.rt,SelfRating.started,SelfRating.stopped,OtherRating.response,OtherRating.rt,OtherRating.started,OtherRating.stopped,ImageryRating.response,ImageryRating.rt,ImageryRating.started,ImageryRating.stopped,PresentRating.response,PresentRating.rt,PresentRating.started,PresentRating.stopped,subject number,gender,session,handedness,scanner,run,experience(1) or regulate(2),date,psychopyVersion,expName,body_site_order,frameRate,
25.33601709967479,25.33601709967479,None,space,88.57717399997637,25.33601709967479,None,150.85387719981372,None,41.54320987654321,141.65328170917928,,,,,,,,,,,,,,,,,,,,,,,,,,,,,,,,,,,,,,,,,,,,,,,,,,,,,,,3,F,26,L,mck,,2,2022_Jun_06_1621,2020.2.10,acceptmap-regulate,"['Left Arm', 'Left Face', 'Left Arm', 'Left Face']",59.98789450434857,
,,,,,,,178.87080489983782,None,39.44444444444444,171.58503630990162,0.014846190810203552,5.012643090914935,,,,,,,,,,,,,,,,,,,,,,,,,,,,,,,,,,,,,,,,,,,,,,,,,,,,,3,F,26,L,mck,,2,2022_Jun_06_1621,2020.2.10,acceptmap-regulate,"['Left Arm', 'Left Face', 'Left Arm', 'Left Face']",59.98789450434857,
,,,,,,,206.8877622000873,None,39.19753086419753,197.31870671035722,0.016752290073782206,5.016169889830053,,,,,,,,,,,,,,,,,,,,,,,,,,,,,,,,,,,,,,,,,,,,,,,,,,,,,3,F,26,L,mck,,2,2022_Jun_06_1621,2020.2.10,acceptmap-regulate,"['Left Arm', 'Left Face', 'Left Arm', 'Left Face']",59.98789450434857,
,,,,,,,234.90474579995498,None,42.77777777777778,224.20230731042102,0.016648289747536182,5.016158789861947,,,,,,,,,,,,,,,,,,,,,,,,,,,,,,,,,,,,,,,,,,,,,,,,,,,,,3,F,26,L,mck,,2,2022_Jun_06_1621,2020.2.10,acceptmap-regulate,"['Left Arm', 'Left Face', 'Left Arm', 'Left Face']",59.98789450434857,
,,,,,,,262.92164329998195,None,41.604938271604944,251.01923951040953,0.01665298966690898,5.0161537900567055,,,,,,,,,,,,,,,,,,,,,,,,,,,,,,,,,,,,,,,,,,,,,,,,,,,,,3,F,26,L,mck,,2,2022_Jun_06_1621,2020.2.10,acceptmap-regulate,"['Left Arm', 'Left Face', 'Left Arm', 'Left Face']",59.98789450434857,
,,,,,,,290.9552543000318,None,40.98765432098765,277.10488960985094,0.016646789852529764,5.01619358966127,,,,,,,,,,,,,,,,,,,,,,,,,,,,,,,,,,,,,,,,,,,,,,,,,,,,,3,F,26,L,mck,,2,2022_Jun_06_1621,2020.2.10,acceptmap-regulate,"['Left Arm', 'Left Face', 'Left Arm', 'Left Face']",59.98789450434857,
,,,,,,,318.9722271999344,None,41.72839506172839,309.48649440985173,0.014598190318793058,5.0122216902673244,,,,,,,,,,,,,,,,,,,,,,,,,,,,,,,,,,,,,,,,,,,,,,,,,,,,,3,F,26,L,mck,,2,2022_Jun_06_1621,2020.2.10,acceptmap-regulate,"['Left Arm', 'Left Face', 'Left Arm', 'Left Face']",59.98789450434857,
,,,,,,,346.98917339975014,None,45.18518518518519,336.90344961034134,0.016643590293824673,5.016167990397662,,,,,,,,,,,,,,,,,,,,,,,,,,,,,,,,,,,,,,,,,,,,,,,,,,,,,3,F,26,L,mck,,2,2022_Jun_06_1621,2020.2.10,acceptmap-regulate,"['Left Arm', 'Left Face', 'Left Arm', 'Left Face']",59.98789450434857,
,,,,,,,375.00610549980775,None,49.44444444444444,366.62039111042395,0.016642089933156967,5.0161537900567055,,,,,,,,,,,,,,,,,,,,,,,,,,,,,,,,,,,,,,,,,,,,,,,,,,,,,3,F,26,L,mck,,2,2022_Jun_06_1621,2020.2.10,acceptmap-regulate,"['Left Arm', 'Left Face', 'Left Arm', 'Left Face']",59.98789450434857,
,,,,,,,403.0230562998913,None,48.27160493827161,392.97180021042004,0.016654889564961195,5.016160489525646,,,,,,,,,,,,,,,,,,,,,,,,,,,,,,,,,,,,,,,,,,,,,,,,,,,,,3,F,26,L,mck,,2,2022_Jun_06_1621,2020.2.10,acceptmap-regulate,"['Left Arm', 'Left Face', 'Left Arm', 'Left Face']",59.98789450434857,
,,,,,,,431.0399869000539,None,48.82716049382716,418.57247301051393,0.015486389864236116,5.013884289655834,,,,,,,,,,,,,,,,,,,,,,,,,,,,,,,,,,,,,,,,,,,,,,,,,,,,,3,F,26,L,mck,,2,2022_Jun_06_1621,2020.2.10,acceptmap-regulate,"['Left Arm', 'Left Face', 'Left Arm', 'Left Face']",59.98789450434857,
,,,,,,,459.05692709982395,None,49.87654320987654,447.4545540101826,0.015075789764523506,5.013076189439744,,,,,,,,,,,,,,,,,,,,,,,,,,,,,,,,,,,,,,,,,,,,,,,,,,,,,3,F,26,L,mck,,2,2022_Jun_06_1621,2020.2.10,acceptmap-regulate,"['Left Arm', 'Left Face', 'Left Arm', 'Left Face']",59.98789450434857,
,,,,,,,487.0738876000978,None,48.76543209876543,477.5735642109066,0.016638590022921562,5.016151289921254,,,,,,,,,,,,,,,,,,,,,,,,,,,,,,,,,,,,,,,,,,,,,,,,,,,,,3,F,26,L,mck,,2,2022_Jun_06_1621,2020.2.10,acceptmap-regulate,"['Left Arm', 'Left Face', 'Left Arm', 'Left Face']",59.98789450434857,
,,,,,,,515.0908220000565,None,50.0,502.28842271026224,0.014584189280867577,5.01191888935864,,,,,,,,,,,,,,,,,,,,,,,,,,,,,,,,,,,,,,,,,,,,,,,,,,,,,3,F,26,L,mck,,2,2022_Jun_06_1621,2020.2.10,acceptmap-regulate,"['Left Arm', 'Left Face', 'Left Arm', 'Left Face']",59.98789450434857,
,,,,,,,543.1077769999392,None,50.0,533.2885474110954,0.016641989815980196,5.016123789828271,,,,,,,,,,,,,,,,,,,,,,,,,,,,,,,,,,,,,,,,,,,,,,,,,,,,,3,F,26,L,mck,,2,2022_Jun_06_1621,2020.2.10,acceptmap-regulate,"['Left Arm', 'Left Face', 'Left Arm', 'Left Face']",59.98789450434857,
,,,,,,,571.1247108997777,None,50.0,558.0236570104025,0.01665348932147026,5.016136689577252,,,,,,,,,,,,,,,,,,,,,,,,,,,,,,,,,,,,,,,,,,,,,,,,,,,,,3,F,26,L,mck,,2,2022_Jun_06_1621,2020.2.10,acceptmap-regulate,"['Left Arm', 'Left Face', 'Left Arm', 'Left Face']",59.98789450434857,
,,,,,,,,,,,0.015279490035027266,5.013419189956039,-26.172839506172835,569.4909527106211,,,,,,,,,,,,,,,,,,,,,,,,,,,,,,,,,,,,,,,,,,,,,,,,,,,3,F,26,L,mck,,2,2022_Jun_06_1621,2020.2.10,acceptmap-regulate,"['Left Arm', 'Left Face', 'Left Arm', 'Left Face']",59.98789450434857,
,,,,,,,,,,,,,,,0.014790789689868689,None,12.098765432098773,576.3412014106289,,,,,,,,,,,,,,,,,,,,,,,,,,,,,,,,,,,,,,,,,,,,,,,3,F,26,L,mck,,2,2022_Jun_06_1621,2020.2.10,acceptmap-regulate,"['Left Arm', 'Left Face', 'Left Arm', 'Left Face']",59.98789450434857,
,,,,,,,,,58.333333333333336,583.35883262055,,,,,,,,,0.014607589691877365,None,,,,,,,,,,,,,,,,,,,,,,,,,,,,,,,,,,,,,,,,,,,,,3,F,26,L,mck,,2,2022_Jun_06_1621,2020.2.10,acceptmap-regulate,"['Left Arm', 'Left Face', 'Left Arm', 'Left Face']",59.98789450434857,
,,,,,,,,,,,0.013677879702299833,None,,,,,,,,,76.48148148148147,591.1251167105511,,,,,,,,,,,,,,,,,,,,,,,,,,,,,,,,,,,,,,,,,,,3,F,26,L,mck,,2,2022_Jun_06_1621,2020.2.10,acceptmap-regulate,"['Left Arm', 'Left Face', 'Left Arm', 'Left Face']",59.98789450434857,
,,,,,,,,,,,,,,,,,,,,,,,0.014163889456540346,None,26.172839506172842,597.3587619108148,,,,,,,,,,,,,,,,,,,,,,,,,,,,,,,,,,,,,,,3,F,26,L,mck,,2,2022_Jun_06_1621,2020.2.10,acceptmap-regulate,"['Left Arm', 'Left Face', 'Left Arm', 'Left Face']",59.98789450434857,
,,,,,,,,,,,,,,,,,,,,,,,,,,,0.013952289242297411,None,62.96296296296296,607.6751326103695,,,,,,,,,,,,,,,,,,,,,,,,,,,,,,,,,,,3,F,26,L,mck,,2,2022_Jun_06_1621,2020.2.10,acceptmap-regulate,"['Left Arm', 'Left Face', 'Left Arm', 'Left Face']",59.98789450434857,
,,,,,,,,,,,,,,,,,,,,,,,,,,,,,,,0.014317689929157495,None,20.61728395061728,616.0588550097309,,,,,,,,,,,,,,,,,,,,,,,,,,,,,,,3,F,26,L,mck,,2,2022_Jun_06_1621,2020.2.10,acceptmap-regulate,"['Left Arm', 'Left Face', 'Left Arm', 'Left Face']",59.98789450434857,
,,,,,,,,,,,,,,,,,,,,,,,,,,,,,,,,,,,0.014001790434122086,None,24.320987654320987,625.3262471100315,,,,,,,,,,,,,,,,,,,,,,,,,,,3,F,26,L,mck,,2,2022_Jun_06_1621,2020.2.10,acceptmap-regulate,"['Left Arm', 'Left Face', 'Left Arm', 'Left Face']",59.98789450434857,
,,,,,,,,,,,,,,,,,,,,,,,,,,,,,,,,,,,,,,,0.013363390229642391,None,0.12345679012344135,636.7419725097716,,,,,,,,,,,,,,,,,,,,,,,3,F,26,L,mck,,2,2022_Jun_06_1621,2020.2.10,acceptmap-regulate,"['Left Arm', 'Left Face', 'Left Arm', 'Left Face']",59.98789450434857,
,,,,,,,,,,,,,,,,,,,,,,,,,,,,,,,,,,,,,,,,,,,0.014439490623772144,None,25.555555555555557,643.8423945102841,,,,,,,,,,,,,,,,,,,3,F,26,L,mck,,2,2022_Jun_06_1621,2020.2.10,acceptmap-regulate,"['Left Arm', 'Left Face', 'Left Arm', 'Left Face']",59.98789450434857,
,,,,,,,,,,,,,,,,,,,,,,,,,,,,,,,,,,,,,,,,,,,,,,,0.01404479006305337,None,24.938271604938265,651.6256186095998,,,,,,,,,,,,,,,3,F,26,L,mck,,2,2022_Jun_06_1621,2020.2.10,acceptmap-regulate,"['Left Arm', 'Left Face', 'Left Arm', 'Left Face']",59.98789450434857,
,,,,,,,,,,,,,,,,,,,,,,,,,,,,,,,,,,,,,,,,,,,,,,,,,,,0.014251790475100279,None,9.753086419753103,662.3931542108767,,,,,,,,,,,3,F,26,L,mck,,2,2022_Jun_06_1621,2020.2.10,acceptmap-regulate,"['Left Arm', 'Left Face', 'Left Arm', 'Left Face']",59.98789450434857,
,,,,,,,,,,,,,,,,,,,,,,,,,,,,,,,,,,,,,,,,,,,,,,,,,,,,,,,0.013510089367628098,None,-23.333333333333343,672.158940509893,,,,,,,3,F,26,L,mck,,2,2022_Jun_06_1621,2020.2.10,acceptmap-regulate,"['Left Arm', 'Left Face', 'Left Arm', 'Left Face']",59.98789450434857,
,,,,,,,,,,,,,,,,,,,,,,,,,,,,,,,,,,,,,,,,,,,,,,,,,,,,,,,,,,,0.014441790524870157,None,26.91358024691357,678.2927205101587,,,3,F,26,L,mck,,2,2022_Jun_06_1621,2020.2.10,acceptmap-regulate,"['Left Arm', 'Left Face', 'Left Arm', 'Left Face']",59.98789450434857,
784.5770882000215,784.5770882000215,None,space,512.1772313998081,784.5770882000215,None,1328.5321718999185,None,12.716049382716053,1319.329827110283,,,,,,,,,,,,,,,,,,,,,,,,,,,,,,,,,,,,,,,,,,,,,,,,,,,,,0.014133390039205551,None,3,F,26,L,mck,,2,2022_Jun_06_1621,2020.2.10,acceptmap-regulate,"['Left Arm', 'Left Face', 'Left Arm', 'Left Face']",59.98789450434857,
,,,,,,,1356.5490839998238,None,45.55555555555556,1345.730021910742,0.01657669013366103,5.016102789901197,,,,,,,,,,,,,,,,,,,,,,,,,,,,,,,,,,,,,,,,,,,,,,,,,,,,,3,F,26,L,mck,,2,2022_Jun_06_1621,2020.2.10,acceptmap-regulate,"['Left Arm', 'Left Face', 'Left Arm', 'Left Face']",59.98789450434857,
,,,,,,,1384.5660251998343,None,46.35802469135803,1375.0136619098485,0.016638989560306072,5.016139889601618,,,,,,,,,,,,,,,,,,,,,,,,,,,,,,,,,,,,,,,,,,,,,,,,,,,,,3,F,26,L,mck,,2,2022_Jun_06_1621,2020.2.10,acceptmap-regulate,"['Left Arm', 'Left Face', 'Left Arm', 'Left Face']",59.98789450434857,
,,,,,,,1412.5829501999542,None,49.87654320987654,1399.8656316092238,0.016640890389680862,5.016123890411109,,,,,,,,,,,,,,,,,,,,,,,,,,,,,,,,,,,,,,,,,,,,,,,,,,,,,3,F,26,L,mck,,2,2022_Jun_06_1621,2020.2.10,acceptmap-regulate,"['Left Arm', 'Left Face', 'Left Arm', 'Left Face']",59.98789450434857,
,,,,,,,1440.5999161000364,None,48.51851851851852,1427.8162285103463,0.015004790853708982,5.0127862906083465,,,,,,,,,,,,,,,,,,,,,,,,,,,,,,,,,,,,,,,,,,,,,,,,,,,,,3,F,26,L,mck,,2,2022_Jun_06_1621,2020.2.10,acceptmap-regulate,"['Left Arm', 'Left Face', 'Left Arm', 'Left Face']",59.98789450434857,
,,,,,,,1468.6168426997028,None,41.72839506172839,1461.2144860103726,0.014576789923012257,5.01200929004699,,,,,,,,,,,,,,,,,,,,,,,,,,,,,,,,,,,,,,,,,,,,,,,,,,,,,3,F,26,L,mck,,2,2022_Jun_06_1621,2020.2.10,acceptmap-regulate,"['Left Arm', 'Left Face', 'Left Arm', 'Left Face']",59.98789450434857,
,,,,,,,1496.6337946997955,None,44.75308641975309,1484.04974070983,0.016655989922583103,5.016173989977688,,,,,,,,,,,,,,,,,,,,,,,,,,,,,,,,,,,,,,,,,,,,,,,,,,,,,3,F,26,L,mck,,2,2022_Jun_06_1621,2020.2.10,acceptmap-regulate,"['Left Arm', 'Left Face', 'Left Arm', 'Left Face']",59.98789450434857,
,,,,,,,1524.6507399999537,None,41.172839506172835,1515.4483829098754,0.014949990436434746,5.012780790682882,,,,,,,,,,,,,,,,,,,,,,,,,,,,,,,,,,,,,,,,,,,,,,,,,,,,,3,F,26,L,mck,,2,2022_Jun_06_1621,2020.2.10,acceptmap-regulate,"['Left Arm', 'Left Face', 'Left Arm', 'Left Face']",59.98789450434857,
,,,,,,,1552.667682299856,None,44.567901234567906,1543.465298710391,0.01663259044289589,5.0163045902736485,,,,,,,,,,,,,,,,,,,,,,,,,,,,,,,,,,,,,,,,,,,,,,,,,,,,,3,F,26,L,mck,,2,2022_Jun_06_1621,2020.2.10,acceptmap-regulate,"['Left Arm', 'Left Face', 'Left Arm', 'Left Face']",59.98789450434857,
,,,,,,,1580.6846221000887,None,50.24691358024691,1571.4822211097926,0.01665458967909217,5.016293689608574,,,,,,,,,,,,,,,,,,,,,,,,,,,,,,,,,,,,,,,,,,,,,,,,,,,,,3,F,26,L,mck,,2,2022_Jun_06_1621,2020.2.10,acceptmap-regulate,"['Left Arm', 'Left Face', 'Left Arm', 'Left Face']",59.98789450434857,
,,,,,,,1608.701563599985,None,38.95061728395062,1598.700985711068,0.016655290499329567,5.0162899903953075,,,,,,,,,,,,,,,,,,,,,,,,,,,,,,,,,,,,,,,,,,,,,,,,,,,,,3,F,26,L,mck,,2,2022_Jun_06_1621,2020.2.10,acceptmap-regulate,"['Left Arm', 'Left Face', 'Left Arm', 'Left Face']",59.98789450434857,
,,,,,,,1636.7185165998526,None,38.2716049382716,1628.1512606102042,0.014809589367359877,5.012441989500076,,,,,,,,,,,,,,,,,,,,,,,,,,,,,,,,,,,,,,,,,,,,,,,,,,,,,3,F,26,L,mck,,2,2022_Jun_06_1621,2020.2.10,acceptmap-regulate,"['Left Arm', 'Left Face', 'Left Arm', 'Left Face']",59.98789450434857,
,,,,,,,1664.735446299892,None,41.23456790123456,1657.5343056097627,0.014837389811873436,5.012657689861953,,,,,,,,,,,,,,,,,,,,,,,,,,,,,,,,,,,,,,,,,,,,,,,,,,,,,3,F,26,L,mck,,2,2022_Jun_06_1621,2020.2.10,acceptmap-regulate,"['Left Arm', 'Left Face', 'Left Arm', 'Left Face']",59.98789450434857,
,,,,,,,1692.7523917998187,None,40.30864197530864,1682.6833235109225,0.015412390232086182,5.013838890008628,,,,,,,,,,,,,,,,,,,,,,,,,,,,,,,,,,,,,,,,,,,,,,,,,,,,,3,F,26,L,mck,,2,2022_Jun_06_1621,2020.2.10,acceptmap-regulate,"['Left Arm', 'Left Face', 'Left Arm', 'Left Face']",59.98789450434857,
,,,,,,,1720.7693170998245,None,37.592592592592595,1709.5669325096533,0.016633689403533936,5.016135489568114,,,,,,,,,,,,,,,,,,,,,,,,,,,,,,,,,,,,,,,,,,,,,,,,,,,,,3,F,26,L,mck,,2,2022_Jun_06_1621,2020.2.10,acceptmap-regulate,"['Left Arm', 'Left Face', 'Left Arm', 'Left Face']",59.98789450434857,
,,,,,,,1748.7862474997528,None,36.2962962962963,1739.0171997100115,0.01664359075948596,5.016307590529323,,,,,,,,,,,,,,,,,,,,,,,,,,,,,,,,,,,,,,,,,,,,,,,,,,,,,3,F,26,L,mck,,2,2022_Jun_06_1621,2020.2.10,acceptmap-regulate,"['Left Arm', 'Left Face', 'Left Arm', 'Left Face']",59.98789450434857,
,,,,,,,,,,,0.016657990403473377,5.016177590470761,-8.271604938271608,1745.1026079105213,,,,,,,,,,,,,,,,,,,,,,,,,,,,,,,,,,,,,,,,,,,,,,,,,,,3,F,26,L,mck,,2,2022_Jun_06_1621,2020.2.10,acceptmap-regulate,"['Left Arm', 'Left Face', 'Left Arm', 'Left Face']",59.98789450434857,
,,,,,,,,,,,,,,,0.014667789917439222,None,-13.086419753086403,1750.5194983100519,,,,,,,,,,,,,,,,,,,,,,,,,,,,,,,,,,,,,,,,,,,,,,,3,F,26,L,mck,,2,2022_Jun_06_1621,2020.2.10,acceptmap-regulate,"['Left Arm', 'Left Face', 'Left Arm', 'Left Face']",59.98789450434857,
,,,,,,,,,45.74074074074074,1755.8665620102547,,,,,,,,,0.014479890000075102,None,,,,,,,,,,,,,,,,,,,,,,,,,,,,,,,,,,,,,,,,,,,,,3,F,26,L,mck,,2,2022_Jun_06_1621,2020.2.10,acceptmap-regulate,"['Left Arm', 'Left Face', 'Left Arm', 'Left Face']",59.98789450434857,
,,,,,,,,,,,0.0007780897431075573,None,,,,,,,,,61.23456790123457,1765.2197952098213,,,,,,,,,,,,,,,,,,,,,,,,,,,,,,,,,,,,,,,,,,,3,F,26,L,mck,,2,2022_Jun_06_1621,2020.2.10,acceptmap-regulate,"['Left Arm', 'Left Face', 'Left Arm', 'Left Face']",59.98789450434857,
,,,,,,,,,,,,,,,,,,,,,,,0.01432069018483162,None,49.32098765432099,1771.7202518102713,,,,,,,,,,,,,,,,,,,,,,,,,,,,,,,,,,,,,,,3,F,26,L,mck,,2,2022_Jun_06_1621,2020.2.10,acceptmap-regulate,"['Left Arm', 'Left Face', 'Left Arm', 'Left Face']",59.98789450434857,
,,,,,,,,,,,,,,,,,,,,,,,,,,,0.013930489774793386,None,55.4320987654321,1777.2201516106725,,,,,,,,,,,,,,,,,,,,,,,,,,,,,,,,,,,3,F,26,L,mck,,2,2022_Jun_06_1621,2020.2.10,acceptmap-regulate,"['Left Arm', 'Left Face', 'Left Arm', 'Left Face']",59.98789450434857,
,,,,,,,,,,,,,,,,,,,,,,,,,,,,,,,0.014102089684456587,None,20.493827160493826,1781.4532356103882,,,,,,,,,,,,,,,,,,,,,,,,,,,,,,,3,F,26,L,mck,,2,2022_Jun_06_1621,2020.2.10,acceptmap-regulate,"['Left Arm', 'Left Face', 'Left Arm', 'Left Face']",59.98789450434857,
,,,,,,,,,,,,,,,,,,,,,,,,,,,,,,,,,,,0.014398089610040188,None,-11.358024691358011,1786.7374272104353,,,,,,,,,,,,,,,,,,,,,,,,,,,3,F,26,L,mck,,2,2022_Jun_06_1621,2020.2.10,acceptmap-regulate,"['Left Arm', 'Left Face', 'Left Arm', 'Left Face']",59.98789450434857,
,,,,,,,,,,,,,,,,,,,,,,,,,,,,,,,,,,,,,,,0.013565289787948132,None,38.888888888888914,1792.1535680103116,,,,,,,,,,,,,,,,,,,,,,,3,F,26,L,mck,,2,2022_Jun_06_1621,2020.2.10,acceptmap-regulate,"['Left Arm', 'Left Face', 'Left Arm', 'Left Face']",59.98789450434857,
,,,,,,,,,,,,,,,,,,,,,,,,,,,,,,,,,,,,,,,,,,,0.014165689703077078,None,18.518518518518505,1797.920866810251,,,,,,,,,,,,,,,,,,,3,F,26,L,mck,,2,2022_Jun_06_1621,2020.2.10,acceptmap-regulate,"['Left Arm', 'Left Face', 'Left Arm', 'Left Face']",59.98789450434857,
,,,,,,,,,,,,,,,,,,,,,,,,,,,,,,,,,,,,,,,,,,,,,,,0.013620889745652676,None,41.97530864197532,1800.9876453103498,,,,,,,,,,,,,,,3,F,26,L,mck,,2,2022_Jun_06_1621,2020.2.10,acceptmap-regulate,"['Left Arm', 'Left Face', 'Left Arm', 'Left Face']",59.98789450434857,
,,,,,,,,,,,,,,,,,,,,,,,,,,,,,,,,,,,,,,,,,,,,,,,,,,,0.013483789749443531,None,27.53086419753086,1804.8535855105147,,,,,,,,,,,3,F,26,L,mck,,2,2022_Jun_06_1621,2020.2.10,acceptmap-regulate,"['Left Arm', 'Left Face', 'Left Arm', 'Left Face']",59.98789450434857,
,,,,,,,,,,,,,,,,,,,,,,,,,,,,,,,,,,,,,,,,,,,,,,,,,,,,,,,0.014279089868068695,None,-18.88888888888887,1812.22062060982,,,,,,,3,F,26,L,mck,,2,2022_Jun_06_1621,2020.2.10,acceptmap-regulate,"['Left Arm', 'Left Face', 'Left Arm', 'Left Face']",59.98789450434857,
,,,,,,,,,,,,,,,,,,,,,,,,,,,,,,,,,,,,,,,,,,,,,,,,,,,,,,,,,,,0.0139802903868258,None,18.271604938271608,1819.254184910562,,,3,F,26,L,mck,,2,2022_Jun_06_1621,2020.2.10,acceptmap-regulate,"['Left Arm', 'Left Face', 'Left Arm', 'Left Face']",59.98789450434857,
1877.337528700009,1877.337528700009,None,space,200.7695968998596,1877.337528700009,None,2119.073217799887,None,6.358024691358022,2109.254257110413,,,,,,,,,,,,,,,,,,,,,,,,,,,,,,,,,,,,,,,,,,,,,,,,,,,,,0.013785789720714092,None,3,F,26,L,mck,,2,2022_Jun_06_1621,2020.2.10,acceptmap-regulate,"['Left Arm', 'Left Face', 'Left Arm', 'Left Face']",59.98789450434857,
,,,,,,,2147.090164499823,None,63.0246913580247,2133.8897393108346,0.016555989626795053,5.015953689813614,,,,,,,,,,,,,,,,,,,,,,,,,,,,,,,,,,,,,,,,,,,,,,,,,,,,,3,F,26,L,mck,,2,2022_Jun_06_1621,2020.2.10,acceptmap-regulate,"['Left Arm', 'Left Face', 'Left Arm', 'Left Face']",59.98789450434857,
,,,,,,,2175.1071152999066,None,52.03703703703704,2163.9064190099016,0.014636389445513487,5.012141289655119,,,,,,,,,,,,,,,,,,,,,,,,,,,,,,,,,,,,,,,,,,,,,,,,,,,,,3,F,26,L,mck,,2,2022_Jun_06_1621,2020.2.10,acceptmap-regulate,"['Left Arm', 'Left Face', 'Left Arm', 'Left Face']",59.98789450434857,
,,,,,,,2203.124037699774,None,54.69135802469136,2193.5570182097144,0.014928290154784918,5.012874890118837,,,,,,,,,,,,,,,,,,,,,,,,,,,,,,,,,,,,,,,,,,,,,,,,,,,,,3,F,26,L,mck,,2,2022_Jun_06_1621,2020.2.10,acceptmap-regulate,"['Left Arm', 'Left Face', 'Left Arm', 'Left Face']",59.98789450434857,
,,,,,,,2231.1409873999655,None,57.53086419753086,2221.2568563101813,0.014603590592741966,5.012055890634656,,,,,,,,,,,,,,,,,,,,,,,,,,,,,,,,,,,,,,,,,,,,,,,,,,,,,3,F,26,L,mck,,2,2022_Jun_06_1621,2020.2.10,acceptmap-regulate,"['Left Arm', 'Left Face', 'Left Arm', 'Left Face']",59.98789450434857,
,,,,,,,2259.1579126999713,None,59.44444444444444,2246.9575112103485,0.015057790093123913,5.013079890049994,,,,,,,,,,,,,,,,,,,,,,,,,,,,,,,,,,,,,,,,,,,,,,,,,,,,,3,F,26,L,mck,,2,2022_Jun_06_1621,2020.2.10,acceptmap-regulate,"['Left Arm', 'Left Face', 'Left Arm', 'Left Face']",59.98789450434857,
,,,,,,,2287.174858099781,None,59.50617283950618,2275.755787110422,0.014638589695096016,5.012119089718908,,,,,,,,,,,,,,,,,,,,,,,,,,,,,,,,,,,,,,,,,,,,,,,,,,,,,3,F,26,L,mck,,2,2022_Jun_06_1621,2020.2.10,acceptmap-regulate,"['Left Arm', 'Left Face', 'Left Arm', 'Left Face']",59.98789450434857,
,,,,,,,2315.1917975000106,None,53.76543209876543,2306.2560484106652,0.0166458897292614,5.016145789530128,,,,,,,,,,,,,,,,,,,,,,,,,,,,,,,,,,,,,,,,,,,,,,,,,,,,,3,F,26,L,mck,,2,2022_Jun_06_1621,2020.2.10,acceptmap-regulate,"['Left Arm', 'Left Face', 'Left Arm', 'Left Face']",59.98789450434857,
,,,,,,,2343.208751199767,None,56.666666666666664,2331.423007510137,0.016672889702022076,5.016150589566678,,,,,,,,,,,,,,,,,,,,,,,,,,,,,,,,,,,,,,,,,,,,,,,,,,,,,3,F,26,L,mck,,2,2022_Jun_06_1621,2020.2.10,acceptmap-regulate,"['Left Arm', 'Left Face', 'Left Arm', 'Left Face']",59.98789450434857,
,,,,,,,2371.2256893999875,None,55.06172839506173,2362.673305710312,0.016630690079182386,5.016146790236235,,,,,,,,,,,,,,,,,,,,,,,,,,,,,,,,,,,,,,,,,,,,,,,,,,,,,3,F,26,L,mck,,2,2022_Jun_06_1621,2020.2.10,acceptmap-regulate,"['Left Arm', 'Left Face', 'Left Arm', 'Left Face']",59.98789450434857,
,,,,,,,2399.2425991999917,None,55.925925925925924,2384.891683610156,0.016641889698803425,5.016140189487487,,,,,,,,,,,,,,,,,,,,,,,,,,,,,,,,,,,,,,,,,,,,,,,,,,,,,3,F,26,L,mck,,2,2022_Jun_06_1621,2020.2.10,acceptmap-regulate,"['Left Arm', 'Left Face', 'Left Arm', 'Left Face']",59.98789450434857,
,,,,,,,2427.259590199683,None,52.962962962962955,2419.290518410504,0.015151389874517918,5.013267589733005,,,,,,,,,,,,,,,,,,,,,,,,,,,,,,,,,,,,,,,,,,,,,,,,,,,,,3,F,26,L,mck,,2,2022_Jun_06_1621,2020.2.10,acceptmap-regulate,"['Left Arm', 'Left Face', 'Left Arm', 'Left Face']",59.98789450434857,
,,,,,,,2455.2765127997845,None,57.03703703703703,2440.7096560094506,0.01665188977494836,5.016167989466339,,,,,,,,,,,,,,,,,,,,,,,,,,,,,,,,,,,,,,,,,,,,,,,,,,,,,3,F,26,L,mck,,2,2022_Jun_06_1621,2020.2.10,acceptmap-regulate,"['Left Arm', 'Left Face', 'Left Arm', 'Left Face']",59.98789450434857,
,,,,,,,2483.2934457999654,None,52.22222222222223,2471.909122510813,0.014397890772670507,5.011712390463799,,,,,,,,,,,,,,,,,,,,,,,,,,,,,,,,,,,,,,,,,,,,,,,,,,,,,3,F,26,L,mck,,2,2022_Jun_06_1621,2020.2.10,acceptmap-regulate,"['Left Arm', 'Left Face', 'Left Arm', 'Left Face']",59.98789450434857,
,,,,,,,2511.310391299892,None,56.604938271604944,2501.2597255101427,0.015228589531034231,5.0133582898415625,,,,,,,,,,,,,,,,,,,,,,,,,,,,,,,,,,,,,,,,,,,,,,,,,,,,,3,F,26,L,mck,,2,2022_Jun_06_1621,2020.2.10,acceptmap-regulate,"['Left Arm', 'Left Face', 'Left Arm', 'Left Face']",59.98789450434857,
,,,,,,,2539.3273100000806,None,58.7037037037037,2527.6915749106556,0.014917689841240644,5.012514189817011,,,,,,,,,,,,,,,,,,,,,,,,,,,,,,,,,,,,,,,,,,,,,,,,,,,,,3,F,26,L,mck,,2,2022_Jun_06_1621,2020.2.10,acceptmap-regulate,"['Left Arm', 'Left Face', 'Left Arm', 'Left Face']",59.98789450434857,
,,,,,,,,,,,0.01664388971403241,5.016163989901543,-21.234567901234556,2537.1941973101348,,,,,,,,,,,,,,,,,,,,,,,,,,,,,,,,,,,,,,,,,,,,,,,,,,,3,F,26,L,mck,,2,2022_Jun_06_1621,2020.2.10,acceptmap-regulate,"['Left Arm', 'Left Face', 'Left Arm', 'Left Face']",59.98789450434857,
,,,,,,,,,,,,,,,0.014100590255111456,None,22.222222222222214,2541.827743910253,,,,,,,,,,,,,,,,,,,,,,,,,,,,,,,,,,,,,,,,,,,,,,,3,F,26,L,mck,,2,2022_Jun_06_1621,2020.2.10,acceptmap-regulate,"['Left Arm', 'Left Face', 'Left Arm', 'Left Face']",59.98789450434857,
,,,,,,,,,61.48148148148148,2545.5237387102097,,,,,,,,,0.014009989798069,None,,,,,,,,,,,,,,,,,,,,,,,,,,,,,,,,,,,,,,,,,,,,,3,F,26,L,mck,,2,2022_Jun_06_1621,2020.2.10,acceptmap-regulate,"['Left Arm', 'Left Face', 'Left Arm', 'Left Face']",59.98789450434857,
,,,,,,,,,,,0.001322189811617136,None,,,,,,,,,70.61728395061729,2549.5780525100417,,,,,,,,,,,,,,,,,,,,,,,,,,,,,,,,,,,,,,,,,,,3,F,26,L,mck,,2,2022_Jun_06_1621,2020.2.10,acceptmap-regulate,"['Left Arm', 'Left Face', 'Left Arm', 'Left Face']",59.98789450434857,
,,,,,,,,,,,,,,,,,,,,,,,0.013731090351939201,None,28.024691358024693,2554.19419381069,,,,,,,,,,,,,,,,,,,,,,,,,,,,,,,,,,,,,,,3,F,26,L,mck,,2,2022_Jun_06_1621,2020.2.10,acceptmap-regulate,"['Left Arm', 'Left Face', 'Left Arm', 'Left Face']",59.98789450434857,
,,,,,,,,,,,,,,,,,,,,,,,,,,,0.014319789595901966,None,60.864197530864196,2558.444383110851,,,,,,,,,,,,,,,,,,,,,,,,,,,,,,,,,,,3,F,26,L,mck,,2,2022_Jun_06_1621,2020.2.10,acceptmap-regulate,"['Left Arm', 'Left Face', 'Left Arm', 'Left Face']",59.98789450434857,
,,,,,,,,,,,,,,,,,,,,,,,,,,,,,,,0.014163789339363575,None,49.5679012345679,2564.0610683099367,,,,,,,,,,,,,,,,,,,,,,,,,,,,,,,3,F,26,L,mck,,2,2022_Jun_06_1621,2020.2.10,acceptmap-regulate,"['Left Arm', 'Left Face', 'Left Arm', 'Left Face']",59.98789450434857,
,,,,,,,,,,,,,,,,,,,,,,,,,,,,,,,,,,,0.014198890421539545,None,-13.209876543209873,2568.9782248106785,,,,,,,,,,,,,,,,,,,,,,,,,,,3,F,26,L,mck,,2,2022_Jun_06_1621,2020.2.10,acceptmap-regulate,"['Left Arm', 'Left Face', 'Left Arm', 'Left Face']",59.98789450434857,
,,,,,,,,,,,,,,,,,,,,,,,,,,,,,,,,,,,,,,,0.013760989531874657,None,18.395061728395063,2572.660671010148,,,,,,,,,,,,,,,,,,,,,,,3,F,26,L,mck,,2,2022_Jun_06_1621,2020.2.10,acceptmap-regulate,"['Left Arm', 'Left Face', 'Left Arm', 'Left Face']",59.98789450434857,
,,,,,,,,,,,,,,,,,,,,,,,,,,,,,,,,,,,,,,,,,,,0.014693090226501226,None,41.85185185185185,2577.1113261100836,,,,,,,,,,,,,,,,,,,3,F,26,L,mck,,2,2022_Jun_06_1621,2020.2.10,acceptmap-regulate,"['Left Arm', 'Left Face', 'Left Arm', 'Left Face']",59.98789450434857,
,,,,,,,,,,,,,,,,,,,,,,,,,,,,,,,,,,,,,,,,,,,,,,,0.014071190264075994,None,26.419753086419746,2580.4446437102742,,,,,,,,,,,,,,,3,F,26,L,mck,,2,2022_Jun_06_1621,2020.2.10,acceptmap-regulate,"['Left Arm', 'Left Face', 'Left Arm', 'Left Face']",59.98789450434857,
,,,,,,,,,,,,,,,,,,,,,,,,,,,,,,,,,,,,,,,,,,,,,,,,,,,0.014098490122705698,None,32.71604938271605,2583.011216910556,,,,,,,,,,,3,F,26,L,mck,,2,2022_Jun_06_1621,2020.2.10,acceptmap-regulate,"['Left Arm', 'Left Face', 'Left Arm', 'Left Face']",59.98789450434857,
,,,,,,,,,,,,,,,,,,,,,,,,,,,,,,,,,,,,,,,,,,,,,,,,,,,,,,,0.014238789677619934,None,-20.740740740740733,2590.644888109993,,,,,,,3,F,26,L,mck,,2,2022_Jun_06_1621,2020.2.10,acceptmap-regulate,"['Left Arm', 'Left Face', 'Left Arm', 'Left Face']",59.98789450434857,
,,,,,,,,,,,,,,,,,,,,,,,,,,,,,,,,,,,,,,,,,,,,,,,,,,,,,,,,,,,0.013945990242064,None,28.148148148148152,2597.2945139100775,,,3,F,26,L,mck,,2,2022_Jun_06_1621,2020.2.10,acceptmap-regulate,"['Left Arm', 'Left Face', 'Left Arm', 'Left Face']",59.98789450434857,
2729.7458711997606,2729.7458711997606,None,space,238.6421440001577,2729.7458711997606,None,3009.265223899856,None,5.185185185185182,2995.947843310423,,,,,,,,,,,,,,,,,,,,,,,,,,,,,,,,,,,,,,,,,,,,,,,,,,,,,0.014416390098631382,None,3,F,26,L,mck,,2,2022_Jun_06_1621,2020.2.10,acceptmap-regulate,"['Left Arm', 'Left Face', 'Left Arm', 'Left Face']",59.98789450434857,
,,,,,,,3037.2821633997373,None,59.691358024691354,3028.896454010159,0.014917589724063873,5.0127261900343,,,,,,,,,,,,,,,,,,,,,,,,,,,,,,,,,,,,,,,,,,,,,,,,,,,,,3,F,26,L,mck,,2,2022_Jun_06_1621,2020.2.10,acceptmap-regulate,"['Left Arm', 'Left Face', 'Left Arm', 'Left Face']",59.98789450434857,
,,,,,,,3065.2991093997844,None,60.92592592592593,3055.3467117100954,0.016637090127915144,5.016152690164745,,,,,,,,,,,,,,,,,,,,,,,,,,,,,,,,,,,,,,,,,,,,,,,,,,,,,3,F,26,L,mck,,2,2022_Jun_06_1621,2020.2.10,acceptmap-regulate,"['Left Arm', 'Left Face', 'Left Arm', 'Left Face']",59.98789450434857,
,,,,,,,3093.3160222996958,None,61.79012345679013,3083.846959509887,0.016630989965051413,5.016120289918035,,,,,,,,,,,,,,,,,,,,,,,,,,,,,,,,,,,,,,,,,,,,,,,,,,,,,3,F,26,L,mck,,2,2022_Jun_06_1621,2020.2.10,acceptmap-regulate,"['Left Arm', 'Left Face', 'Left Arm', 'Left Face']",59.98789450434857,
,,,,,,,3121.3329535997473,None,45.4320987654321,3112.397273309529,0.01664729043841362,5.016158290673047,,,,,,,,,,,,,,,,,,,,,,,,,,,,,,,,,,,,,,,,,,,,,,,,,,,,,3,F,26,L,mck,,2,2022_Jun_06_1621,2020.2.10,acceptmap-regulate,"['Left Arm', 'Left Face', 'Left Arm', 'Left Face']",59.98789450434857,
,,,,,,,3149.3498786999844,None,45.67901234567901,3135.199126110878,0.01663479069247842,5.016139990650117,,,,,,,,,,,,,,,,,,,,,,,,,,,,,,,,,,,,,,,,,,,,,,,,,,,,,3,F,26,L,mck,,2,2022_Jun_06_1621,2020.2.10,acceptmap-regulate,"['Left Arm', 'Left Face', 'Left Arm', 'Left Face']",59.98789450434857,
,,,,,,,3177.366830700077,None,45.55555555555556,3162.815981910564,0.014975589234381914,5.012854089494795,,,,,,,,,,,,,,,,,,,,,,,,,,,,,,,,,,,,,,,,,,,,,,,,,,,,,3,F,26,L,mck,,2,2022_Jun_06_1621,2020.2.10,acceptmap-regulate,"['Left Arm', 'Left Face', 'Left Arm', 'Left Face']",59.98789450434857,
,,,,,,,3205.3837701999582,None,40.4320987654321,3195.4327048095874,0.01508028944954276,5.013065089471638,,,,,,,,,,,,,,,,,,,,,,,,,,,,,,,,,,,,,,,,,,,,,,,,,,,,,3,F,26,L,mck,,2,2022_Jun_06_1621,2020.2.10,acceptmap-regulate,"['Left Arm', 'Left Face', 'Left Arm', 'Left Face']",59.98789450434857,
,,,,,,,3233.400709199719,None,44.01234567901235,3224.2316762101837,0.015348190441727638,5.01366659021005,,,,,,,,,,,,,,,,,,,,,,,,,,,,,,,,,,,,,,,,,,,,,,,,,,,,,3,F,26,L,mck,,2,2022_Jun_06_1621,2020.2.10,acceptmap-regulate,"['Left Arm', 'Left Face', 'Left Arm', 'Left Face']",59.98789450434857,
,,,,,,,3261.417653199751,None,40.4320987654321,3252.898636210244,0.016642990056425333,5.01615619007498,,,,,,,,,,,,,,,,,,,,,,,,,,,,,,,,,,,,,,,,,,,,,,,,,,,,,3,F,26,L,mck,,2,2022_Jun_06_1621,2020.2.10,acceptmap-regulate,"['Left Arm', 'Left Face', 'Left Arm', 'Left Face']",59.98789450434857,
,,,,,,,3289.434598099906,None,41.419753086419746,3276.9843212100677,0.0166415898129344,5.016184289939702,,,,,,,,,,,,,,,,,,,,,,,,,,,,,,,,,,,,,,,,,,,,,,,,,,,,,3,F,26,L,mck,,2,2022_Jun_06_1621,2020.2.10,acceptmap-regulate,"['Left Arm', 'Left Face', 'Left Arm', 'Left Face']",59.98789450434857,
,,,,,,,3317.45153449988,None,38.2716049382716,3307.8513627108186,0.014511390123516321,5.011940389871597,,,,,,,,,,,,,,,,,,,,,,,,,,,,,,,,,,,,,,,,,,,,,,,,,,,,,3,F,26,L,mck,,2,2022_Jun_06_1621,2020.2.10,acceptmap-regulate,"['Left Arm', 'Left Face', 'Left Arm', 'Left Face']",59.98789450434857,
,,,,,,,3345.468475899659,None,37.77777777777778,3334.16780211078,0.014428289607167244,5.011745689902455,,,,,,,,,,,,,,,,,,,,,,,,,,,,,,,,,,,,,,,,,,,,,,,,,,,,,3,F,26,L,mck,,2,2022_Jun_06_1621,2020.2.10,acceptmap-regulate,"['Left Arm', 'Left Face', 'Left Arm', 'Left Face']",59.98789450434857,
,,,,,,,3373.4854533998296,None,37.839506172839506,3362.8330133096315,0.014902289491146803,5.012643889524043,,,,,,,,,,,,,,,,,,,,,,,,,,,,,,,,,,,,,,,,,,,,,,,,,,,,,3,F,26,L,mck,,2,2022_Jun_06_1621,2020.2.10,acceptmap-regulate,"['Left Arm', 'Left Face', 'Left Arm', 'Left Face']",59.98789450434857,
,,,,,,,3401.502348399721,None,39.93827160493827,3387.9851852096617,0.01663689035922289,5.0161494901403785,,,,,,,,,,,,,,,,,,,,,,,,,,,,,,,,,,,,,,,,,,,,,,,,,,,,,3,F,26,L,mck,,2,2022_Jun_06_1621,2020.2.10,acceptmap-regulate,"['Left Arm', 'Left Face', 'Left Arm', 'Left Face']",59.98789450434857,
,,,,,,,3429.5192933999933,None,39.01234567901235,3418.218544410076,0.014718790538609028,5.01228769030422,,,,,,,,,,,,,,,,,,,,,,,,,,,,,,,,,,,,,,,,,,,,,,,,,,,,,3,F,26,L,mck,,2,2022_Jun_06_1621,2020.2.10,acceptmap-regulate,"['Left Arm', 'Left Face', 'Left Arm', 'Left Face']",59.98789450434857,
,,,,,,,,,,,0.014983090106397867,5.012844089884311,-27.407407407407405,3423.8358001103625,,,,,,,,,,,,,,,,,,,,,,,,,,,,,,,,,,,,,,,,,,,,,,,,,,,3,F,26,L,mck,,2,2022_Jun_06_1621,2020.2.10,acceptmap-regulate,"['Left Arm', 'Left Face', 'Left Arm', 'Left Face']",59.98789450434857,
,,,,,,,,,,,,,,,0.014463889878243208,None,19.506172839506178,3429.536199010443,,,,,,,,,,,,,,,,,,,,,,,,,,,,,,,,,,,,,,,,,,,,,,,3,F,26,L,mck,,2,2022_Jun_06_1621,2020.2.10,acceptmap-regulate,"['Left Arm', 'Left Face', 'Left Arm', 'Left Face']",59.98789450434857,
,,,,,,,,,60.49382716049383,3432.599481009878,,,,,,,,,0.014123189728707075,None,,,,,,,,,,,,,,,,,,,,,,,,,,,,,,,,,,,,,,,,,,,,,3,F,26,L,mck,,2,2022_Jun_06_1621,2020.2.10,acceptmap-regulate,"['Left Arm', 'Left Face', 'Left Arm', 'Left Face']",59.98789450434857,
,,,,,,,,,,,0.0008635902777314186,None,,,,,,,,,80.8641975308642,3436.3868891103193,,,,,,,,,,,,,,,,,,,,,,,,,,,,,,,,,,,,,,,,,,,3,F,26,L,mck,,2,2022_Jun_06_1621,2020.2.10,acceptmap-regulate,"['Left Arm', 'Left Face', 'Left Arm', 'Left Face']",59.98789450434857,
,,,,,,,,,,,,,,,,,,,,,,,0.013506489805877209,None,27.77777777777778,3440.0533023099415,,,,,,,,,,,,,,,,,,,,,,,,,,,,,,,,,,,,,,,3,F,26,L,mck,,2,2022_Jun_06_1621,2020.2.10,acceptmap-regulate,"['Left Arm', 'Left Face', 'Left Arm', 'Left Face']",59.98789450434857,
,,,,,,,,,,,,,,,,,,,,,,,,,,,0.013782190158963203,None,30.246913580246915,3444.3196073104627,,,,,,,,,,,,,,,,,,,,,,,,,,,,,,,,,,,3,F,26,L,mck,,2,2022_Jun_06_1621,2020.2.10,acceptmap-regulate,"['Left Arm', 'Left Face', 'Left Arm', 'Left Face']",59.98789450434857,
,,,,,,,,,,,,,,,,,,,,,,,,,,,,,,,0.014194189570844173,None,59.50617283950618,3449.2532170098275,,,,,,,,,,,,,,,,,,,,,,,,,,,,,,,3,F,26,L,mck,,2,2022_Jun_06_1621,2020.2.10,acceptmap-regulate,"['Left Arm', 'Left Face', 'Left Arm', 'Left Face']",59.98789450434857,
,,,,,,,,,,,,,,,,,,,,,,,,,,,,,,,,,,,0.013961590360850096,None,-17.28395061728395,3453.2361412108876,,,,,,,,,,,,,,,,,,,,,,,,,,,3,F,26,L,mck,,2,2022_Jun_06_1621,2020.2.10,acceptmap-regulate,"['Left Arm', 'Left Face', 'Left Arm', 'Left Face']",59.98789450434857,
,,,,,,,,,,,,,,,,,,,,,,,,,,,,,,,,,,,,,,,0.014438789337873459,None,-0.3703703703703667,3459.2535658096895,,,,,,,,,,,,,,,,,,,,,,,3,F,26,L,mck,,2,2022_Jun_06_1621,2020.2.10,acceptmap-regulate,"['Left Arm', 'Left Face', 'Left Arm', 'Left Face']",59.98789450434857,
,,,,,,,,,,,,,,,,,,,,,,,,,,,,,,,,,,,,,,,,,,,0.013703590724617243,None,0.0,3461.3202236103825,,,,,,,,,,,,,,,,,,,3,F,26,L,mck,,2,2022_Jun_06_1621,2020.2.10,acceptmap-regulate,"['Left Arm', 'Left Face', 'Left Arm', 'Left Face']",59.98789450434857,
,,,,,,,,,,,,,,,,,,,,,,,,,,,,,,,,,,,,,,,,,,,,,,,0.013740789610892534,None,29.259259259259238,3467.6696601100266,,,,,,,,,,,,,,,3,F,26,L,mck,,2,2022_Jun_06_1621,2020.2.10,acceptmap-regulate,"['Left Arm', 'Left Face', 'Left Arm', 'Left Face']",59.98789450434857,
,,,,,,,,,,,,,,,,,,,,,,,,,,,,,,,,,,,,,,,,,,,,,,,,,,,0.014365090057253838,None,37.90123456790121,3472.419920210261,,,,,,,,,,,3,F,26,L,mck,,2,2022_Jun_06_1621,2020.2.10,acceptmap-regulate,"['Left Arm', 'Left Face', 'Left Arm', 'Left Face']",59.98789450434857,
,,,,,,,,,,,,,,,,,,,,,,,,,,,,,,,,,,,,,,,,,,,,,,,,,,,,,,,0.014145690016448498,None,-21.604938271604937,3476.452924110461,,,,,,,3,F,26,L,mck,,2,2022_Jun_06_1621,2020.2.10,acceptmap-regulate,"['Left Arm', 'Left Face', 'Left Arm', 'Left Face']",59.98789450434857,
,,,,,,,,,,,,,,,,,,,,,,,,,,,,,,,,,,,,,,,,,,,,,,,,,,,,,,,,,,,0.014511189889162779,None,26.543209876543216,3483.686965209432,,,3,F,26,L,mck,,2,2022_Jun_06_1621,2020.2.10,acceptmap-regulate,"['Left Arm', 'Left Face', 'Left Arm', 'Left Face']",59.98789450434857,
,,,,,,,,,,,,,,,,,,,,,,,,,,,,,,,,,,,,,,,,,,,,,,,,,,,,,,,,,,,,,,,0.013850890565663576,None,,,,,,,,,,,,,
