	onset	duration	rt	response	correct	bodySite	temperature	condition	pretrial-jitter
0	2.7847275999374688	7.801437499932945				Left Leg	45.5	1back Instructions	
1	10.818770499899983	1.9987361798994243			1.0	Left Leg	45.5	1back	
2	12.823495900025591	2.0059968896675855	0.7799519000109285	0.0	1.0	Left Leg	45.5	1back	3.0
3	14.82484110002406	2.0033465900924057	0.8465944000054151	2.0	1.0	Left Leg	45.5	1back	
4	16.824852999998257	2.0033778899814934	1.1133477999828756	0.0	0.0	Left Leg	45.5	1back	
5	18.872200599871576	1.9586798602249473	0.9296536999754608	2.0	1.0	Left Leg	45.5	1back	
6	20.839572600089014	2.00733829010278	0.8966512000188231	2.0	1.0	Left Leg	45.5	1back	
7	22.840753399999812	2.0049958899617195	0.8965986000839621	2.0	1.0	Left Leg	45.5	1back	
8	24.840865399921313	2.004801189992577	0.829961400013417	2.0	1.0	Left Leg	45.5	1back	
9	26.84079480008222	2.0049629900604486	0.7160984999500215	2.0	1.0	Left Leg	45.5	1back	
10	28.840785699896514	2.005009189946577	0.7298783999867737	0.0	1.0	Left Leg	45.5	1back	
11	35.83712069992907	5.01315009011887		30.679012345679013		Left Leg	45.5	1back Rating	5.0
12	40.86285359994508	45.86842030007392				Left Leg	45.5	2back Instructions	
13	50.88783359993249	1.994597579818219			1.0	Left Leg	45.5	2back	
14	52.89063340006396	2.0057088900357485			1.0	Left Leg	45.5	2back	5.0
15	54.90635449998081	2.0076277900952846	0.0	2.0	1.0	Left Leg	45.5	2back	
16	56.92302910005674	2.007608789950609	0.0	2.0	1.0	Left Leg	45.5	2back	
17	58.96508520003408	1.9735662799794227	0.9669834000524133	0.0	1.0	Left Leg	45.5	2back	
18	60.95661949994974	2.0072016902267933	0.0	2.0	1.0	Left Leg	45.5	2back	
19	62.97303249989636	2.007750489981845	0.0	2.0	0.0	Left Leg	45.5	2back	
20	64.98986419988796	2.007431589998305	0.0	2.0	1.0	Left Leg	45.5	2back	
21	67.06238000001758	1.94576336001046	1.0540171000175178	0.0	1.0	Left Leg	45.5	2back	
22	69.02326270006597	2.0073885899037123	0.0	2.0	0.0	Left Leg	45.5	2back	
23	76.03814939991571	5.01169179007411		26.111111111111114		Left Leg	45.5	2back Rating	5.0
24	81.06287529994734	86.06876729987562				Left Leg	45.5	1back Instructions	
25	91.1022594999522	1.9997325798030943			1.0	Left Leg	45.5	1back	
26	93.10750750009902	2.0059530900325626	1.0299624998588115	2.0	1.0	Left Leg	45.5	1back	5.0
27	95.10876780003309	2.00345818977803	0.9131072999443859	2.0	1.0	Left Leg	45.5	1back	
28	97.10884130001068	2.0033537899143994	0.7964987999293953	2.0	1.0	Left Leg	45.5	1back	
29	99.14335800008848	1.9676407701335847	0.7632026998326182	0.0	1.0	Left Leg	45.5	1back	
30	101.12350159999914	2.0074101898353547	0.8133185999467969	2.0	1.0	Left Leg	45.5	1back	
31	103.12482109991834	2.00482869008556			0.0	Left Leg	45.5	1back	
32	105.12499259994365	2.004532089922577	1.4130597000475973	0.0	1.0	Left Leg	45.5	1back	
33	107.12498739990406	2.0045539899729192	0.979929800145328	2.0	1.0	Left Leg	45.5	1back	
34	109.12475640000775	2.0050209898035973			0.0	Left Leg	45.5	1back	
35	118.12120709987357	5.0129760899581015		26.358024691358022		Left Leg	45.5	1back Rating	7.0
36	123.1467696998734	128.15252680005506				Left Leg	45.5	2back Instructions	
37	131.18781140004285	1.9959206802304834			1.0	Left Leg	45.5	2back	
38	133.1912602998782	2.005766490008682			1.0	Left Leg	45.5	2back	3.0
39	135.20695209992118	2.007746390067041	1.2003597000148147	0.0	1.0	Left Leg	45.5	2back	
40	137.2236379000824	2.0077242897823453	0.0	2.0	1.0	Left Leg	45.5	2back	
41	139.26913499995135	1.966764880111441	0.0	2.0	1.0	Left Leg	45.5	2back	
42	141.2571177999489	2.0075107901357114	0.0	2.0	1.0	Left Leg	45.5	2back	
43	143.2737493000459	2.0076145899947733	0.0	2.0	0.0	Left Leg	45.5	2back	
44	145.2904419999104	2.007605090038851	0.0	2.0	0.0	Left Leg	45.5	2back	
45	147.30717479996383	2.007487890077755	0.0	2.0	0.0	Left Leg	45.5	2back	
46	149.3241638999898	2.006892389850691	0.0	2.0	1.0	Left Leg	45.5	2back	
47	154.3381880999077	5.0130682901944965		26.172839506172842		Left Leg	45.5	2back Rating	3.0
48	159.36412889999337	164.36942499992438				Left Leg	45.5	1back Instructions	
49	171.40253169997595	1.9838373900856823			1.0	Left Leg	45.5	1back	
50	173.40829819999635	2.005659489892423	0.7162236000876874	0.0	1.0	Left Leg	45.5	1back	7.0
51	175.4090084999334	2.0042711899150163	0.846659200033173	2.0	1.0	Left Leg	45.5	1back	
52	177.4089065999724	2.0044811898842454			0.0	Left Leg	45.5	1back	
53	179.47762860008515	1.9337224499322474	0.9465634999796748	2.0	1.0	Left Leg	45.5	1back	
54	181.42393839987926	2.00771519029513	0.9667454999871552	2.0	1.0	Left Leg	45.5	1back	
55	183.4258417999372	2.0040633897297084	0.813257799949497	2.0	1.0	Left Leg	45.5	1back	
56	185.42580149997957	2.0041974899359047	0.7632365000899881	2.0	1.0	Left Leg	45.5	1back	
57	187.4259190999437	2.0040063899941742	0.8298194000963122	2.0	0.0	Left Leg	45.5	1back	
58	189.42596170003526	2.0039288899861276	1.2465016001369804	2.0	0.0	Left Leg	45.5	1back	
59	198.42219100007787	5.012416590005159		24.320987654320987		Left Leg	45.5	1back Rating	7.0
60	203.448292999994	208.4531205999665				Left Leg	45.5	2back Instructions	
61	211.48837519995868	1.9960881802253425			1.0	Left Leg	45.5	2back	
62	213.49187809997238	2.005840089870617			1.0	Left Leg	45.5	2back	3.0
63	215.50786080001853	2.0072395897004753	0.8503203999716789	0.0	1.0	Left Leg	45.5	2back	
64	217.5243172000628	2.0075566901359707	0.0	2.0	1.0	Left Leg	45.5	2back	
65	219.584529499989	1.953937069978565	0.0	2.0	1.0	Left Leg	45.5	2back	
66	221.55784819996916	2.0073814899660647	0.0	2.0	1.0	Left Leg	45.5	2back	
67	223.57454219995998	2.007321790093556	0.8003032000269741	0.0	1.0	Left Leg	45.5	2back	
68	225.59119859989733	2.0073657899629325	0.0	2.0	1.0	Left Leg	45.5	2back	
69	227.6079281999264	2.007154389983043	0.0	2.0	1.0	Left Leg	45.5	2back	
70	229.62446189997718	2.0075592899229378	0.0	2.0	0.0	Left Leg	45.5	2back	
71	238.63928549992852	5.012294590007514		50.0		Left Leg	45.5	2back Rating	7.0
72	243.66394490003586	248.67018619994633				Left Leg	45.5	1back Instructions	
73	251.70310740009882	1.9839638900011778			1.0	Left Leg	45.5	1back	
74	253.70893560000695	2.0056842900812626			0.0	Left Leg	45.5	1back	3.0
75	255.7100436000619	2.00350378989242	1.1463750000111759	0.0	1.0	Left Leg	45.5	1back	
76	257.70998209994286	2.0036545898765326	0.9799125001300126	2.0	1.0	Left Leg	45.5	1back	
77	259.746167199919	1.9646495699416846	0.916969400132075	2.0	1.0	Left Leg	45.5	1back	
78	261.72471740003675	2.007566289976239	0.9297090000472963	2.0	1.0	Left Leg	45.5	1back	
79	263.7271237000823	2.0027853900101036	0.896546000149101	2.0	1.0	Left Leg	45.5	1back	
80	265.7269691999536	2.0031587900593877	0.8299289001151919	2.0	1.0	Left Leg	45.5	1back	
81	267.7271829000674	2.002753990003839	0.8131120998878032	2.0	1.0	Left Leg	45.5	1back	
82	269.7270221998915	2.003125590039417	0.7468491001054645	2.0	0.0	Left Leg	45.5	1back	
83	276.72331949998625	5.011285190004855		24.320987654320987		Left Leg	45.5	1back Rating	5.0
84	281.7480824999511	286.7536919999402				Left Leg	45.5	2back Instructions	
85	291.77285060007125	1.995103979948908			1.0	Left Leg	45.5	2back	
86	293.77589729987085	2.005719490116462			1.0	Left Leg	45.5	2back	5.0
87	295.79163049999624	2.0076700900681317			0.0	Left Leg	45.5	2back	
88	297.8084414000623	2.007416590116918	0.0	2.0	1.0	Left Leg	45.5	2back	
89	299.8661992000416	1.95855556987226	1.483645600033924	0.0	1.0	Left Leg	45.5	2back	
90	301.84171160007827	2.007590090157464	0.0	2.0	0.0	Left Leg	45.5	2back	
91	303.85839479998685	2.0075838898774236	0.0	2.0	1.0	Left Leg	45.5	2back	
92	305.8750459998846	2.0076624900102615			0.0	Left Leg	45.5	2back	
93	307.8918687000405	2.0074050901457667	0.0	2.0	1.0	Left Leg	45.5	2back	
94	309.9088011998683	2.0068403901532292	1.4336459001060575	0.0	1.0	Left Leg	45.5	2back	
95	314.9233130000066	5.011952189961448		24.444444444444443		Left Leg	45.5	2back Rating	3.0
96	319.94784809998237	324.95408910000697				Left Leg	45.5	1back Instructions	
97	331.9871682000812	1.9838008901569992			1.0	Left Leg	45.5	1back	
98	333.99298419989645	2.0055926898494363	0.9463523000013083	0.0	1.0	Left Leg	45.5	1back	7.0
99	335.9943895000033	2.0027717899065465	0.8798544998280704	0.0	1.0	Left Leg	45.5	1back	
100	337.99395989999175	2.0036559901200235	0.9327551000751555	2.0	1.0	Left Leg	45.5	1back	
101	340.03224810003303	1.9604520699940622	0.932999299839139	0.0	0.0	Left Leg	45.5	1back	
102	342.00894950004295	2.0070959902368486	0.929592699976638	2.0	1.0	Left Leg	45.5	1back	
103	344.011021199869	2.002979089738801	0.9466057999525219	0.0	0.0	Left Leg	45.5	1back	
104	346.0109355999157	2.0032116898801178	1.080062499968335	2.0	1.0	Left Leg	45.5	1back	
105	348.0113689999562	2.0023796900641173	0.8133580998983234	2.0	1.0	Left Leg	45.5	1back	
106	350.01106869988143	2.0030268898699433	1.1167518000584096	0.0	1.0	Left Leg	45.5	1back	
107	359.0073317999486	5.011302490020171		19.5679012345679		Left Leg	45.5	1back Rating	7.0
108	364.0125480000861	369.02110260003246				Left Leg	45.5	1back Instructions	
109	372.0540334000252	1.9840512899681926			1.0	Left Leg	45.5	1back	
110	374.06003220006824	2.005462089786306	1.5668532000854611	0.0	0.0	Left Leg	45.5	1back	3.0
111	376.06102570006624	2.003507490037009			0.0	Left Leg	45.5	1back	
112	378.06113709998317	2.0033070899080485			0.0	Left Leg	45.5	1back	
113	380.11051540006883	1.9545585601590574	0.7465498000383377	0.0	1.0	Left Leg	45.5	1back	
114	382.0757247998845	2.0075220898725092			0.0	Left Leg	45.5	1back	
115	384.078283800045	2.002505090087652	1.8133667998481542	2.0	1.0	Left Leg	45.5	1back	
116	386.07845579995774	2.002208889927715	1.0966749999206513	0.0	1.0	Left Leg	45.5	1back	
117	388.0781024999451	2.002854790072888	0.73319480009377	2.0	1.0	Left Leg	45.5	1back	
118	390.07790110004134	2.0032993899658322	0.6632646000944078	2.0	1.0	Left Leg	45.5	1back	
119	399.07444970007055	5.011037989985198		23.14814814814815		Left Leg	45.5	1back Rating	7.0
120	404.0798211998772	409.08811590005644				Left Leg	45.5	1back Instructions	
121	412.12153210002	1.999728580005467			1.0	Left Leg	45.5	1back	
122	414.12687249993905	2.005687889875844	0.8799970999825746	0.0	1.0	Left Leg	45.5	1back	3.0
123	416.1281020999886	2.0032698900904506	0.6965497999917716	2.0	1.0	Left Leg	45.5	1back	
124	418.12814619997516	2.0032749900128692	0.7299114998895675	2.0	1.0	Left Leg	45.5	1back	
125	420.18237400008366	1.9448272599838674	1.1797336000017822	0.0	1.0	Left Leg	45.5	1back	
126	422.1426870999858	2.00758289010264	0.8966264000628144	2.0	1.0	Left Leg	45.5	1back	
127	424.14528249995783	2.002432989887893	1.0466284998692572	2.0	1.0	Left Leg	45.5	1back	
128	426.1451846999116	2.002687789965421	1.196894699940458	2.0	1.0	Left Leg	45.5	1back	
129	428.14497900009155	2.003131590085104	0.7966583999805152	2.0	1.0	Left Leg	45.5	1back	
130	430.1453225000296	2.0024687899276614	0.6131849000230432	0.0	1.0	Left Leg	45.5	1back	
131	437.14147499995306	5.010964490007609		19.753086419753085		Left Leg	45.5	1back Rating	5.0
132	442.16594820003957	447.1717930000741				Left Leg	45.5	2back Instructions	
133	452.2071082999464	1.9958810801617801			1.0	Left Leg	45.5	2back	
134	454.2104102000594	2.0060104900039732			1.0	Left Leg	45.5	2back	5.0
135	456.2264509999659	2.0072585900779814			0.0	Left Leg	45.5	2back	
136	458.2430900000036	2.0073287901468575	0.0	2.0	1.0	Left Leg	45.5	2back	
137	460.285063700052	1.973302380181849	1.1669950999785215	0.0	1.0	Left Leg	45.5	2back	
138	462.2763328999281	2.0075819899793714	0.0	2.0	1.0	Left Leg	45.5	2back	
139	464.29301459994167	2.007602390134707	0.0	2.0	1.0	Left Leg	45.5	2back	
140	466.30966220004484	2.0076789900194854	1.2003446999005973	0.0	1.0	Left Leg	45.5	2back	
141	468.3264967999421	2.0073724898975343	0.0	2.0	1.0	Left Leg	45.5	2back	
142	470.34310869988985	2.0075112897902727	0.8669916000217199	0.0	0.0	Left Leg	45.5	2back	
143	479.35844630002975	5.010993689997122		22.592592592592595		Left Leg	45.5	2back Rating	7.0
144	484.36370570003055	489.3721094999928				Left Leg	45.5	2back Instructions	
145	492.4073318000883	1.996083480073139			1.0	Left Leg	45.5	2back	
146	494.4109290000051	2.005619589937851			1.0	Left Leg	45.5	2back	3.0
147	496.4268875999842	2.007059190189466	0.0	2.0	0.0	Left Leg	45.5	2back	
148	498.44357450003736	2.0070199901238084			0.0	Left Leg	45.5	2back	
149	500.48980970005505	1.9812593702226877	0.0	2.0	1.0	Left Leg	45.5	2back	
150	502.4766953999642	2.0075432900339365			0.0	Left Leg	45.5	2back	
151	504.4933009000961	2.0076870899647474	0.0	2.0	1.0	Left Leg	45.5	2back	
152	506.5099965000991	2.0076463900040835	0.0	2.0	1.0	Left Leg	45.5	2back	
153	508.52681070007384	2.0073998901061714			0.0	Left Leg	45.5	2back	
154	510.5434946999885	2.007408590056002	0.0	2.0	1.0	Left Leg	45.5	2back	
155	517.5584434000775	5.011593590257689		15.370370370370367		Left Leg	45.5	2back Rating	5.0
156	522.5831752000377	527.5889691999182				Left Leg	45.5	1back Instructions	
157	532.6054555999581	1.9837931897491217			1.0	Left Leg	45.5	1back	
158	534.6111753000878	2.0057776898611337	0.8799521999899298	2.0	1.0	Left Leg	45.5	1back	5.0
159	536.6127583000343	2.0026231901720166	0.8799477000720799	0.0	1.0	Left Leg	45.5	1back	
160	538.6123170999344	2.003538290038705	0.996517000021413	2.0	1.0	Left Leg	45.5	1back	
161	540.6703806000296	1.9374386598356068			0.0	Left Leg	45.5	1back	
162	542.6269731998909	2.007615090114996	0.7132857001852244	2.0	1.0	Left Leg	45.5	1back	
163	544.6291169000324	2.0033611899707466	0.9163011000491679	2.0	1.0	Left Leg	45.5	1back	
164	546.6292759999633	2.0030892898794264			0.0	Left Leg	45.5	1back	
165	548.6291237000842	2.0034301897976547			0.0	Left Leg	45.5	1back	
166	550.6292830999009	2.0031242901459336			0.0	Left Leg	45.5	1back	
167	559.6254566998687	5.01182239013724		50.0		Left Leg	45.5	1back Rating	7.0
168	564.6499836000148	569.656164499931				Left Leg	45.5	2back Instructions	
169	572.6913278999273	1.9960460800211877			1.0	Left Leg	45.5	2back	
170	574.6947371000424	2.0059192897751927			1.0	Left Leg	45.5	2back	3.0
171	576.7106965000276	2.0073865898884833	0.0	2.0	1.0	Left Leg	45.5	2back	
172	578.7272600999568	2.007671389961615	0.0	2.0	0.0	Left Leg	45.5	2back	
173	580.7914231999312	1.9626324600540102	0.0	2.0	1.0	Left Leg	45.5	2back	
174	582.7607583999634	2.007384490221739	0.0	2.0	1.0	Left Leg	45.5	2back	
175	584.7772870000917	2.0076791897881776	0.0	2.0	1.0	Left Leg	45.5	2back	
176	586.7941185000818	2.007394490065053	0.8696276000700891	0.0	1.0	Left Leg	45.5	2back	
177	588.8107181999367	2.0076238901820034	0.0	2.0	1.0	Left Leg	45.5	2back	
178	590.8275675999466	2.0072387899272144	0.0	2.0	0.0	Left Leg	45.5	2back	
179	599.8425578000024	5.011574190109968		28.271604938271604		Left Leg	45.5	2back Rating	7.0
180	604.8476756000891	609.8564378998708				Left Leg	45.5	2back Instructions	
181	612.8915363000706	1.9962575801182538			1.0	Left Leg	45.5	2back	
182	614.895342499949	2.0053876901511103			1.0	Left Leg	45.5	2back	3.0
183	616.91114500002	2.007152090081945	1.4003395000472665	0.0	1.0	Left Leg	45.5	2back	
184	618.9276354000904	2.0075721899047494	0.0	2.0	1.0	Left Leg	45.5	2back	
185	620.9751178999431	1.9792558702174574	0.9715992999263108	0.0	1.0	Left Leg	45.5	2back	
186	622.9610331000295	2.0074825901538134	0.0	2.0	1.0	Left Leg	45.5	2back	
187	624.9776540000457	2.007594090187922	0.0	2.0	1.0	Left Leg	45.5	2back	
188	626.9943601998966	2.0075735899154097	0.0	2.0	1.0	Left Leg	45.5	2back	
189	629.0113079999574	2.007024990161881	0.0	2.0	1.0	Left Leg	45.5	2back	
190	631.0277815998998	2.0074390899389982			0.0	Left Leg	45.5	2back	
191	640.0425372999161	5.012278790120035		17.222222222222225		Left Leg	45.5	2back Rating	7.0
