	SID	date	sex	session	handedness	scanner	onset	duration	repetition	rating	body_site	keys	temperature	conditionrt	mouseclick	biopac_channel	condition	rt	value
0	2611	2023_Feb_28_1124	M	01	R	MH SP	2.7748154001310468	5.016846576938406								19	Instructions		
1	2611	2023_Feb_28_1124	M	01	R	MH SP	8.492924300022423	2.006088020047173								6	Cue		
2	2611	2023_Feb_28_1124	M	01	R	MH SP	10.50765740009956	5.993733039824292								7	Pre-Jitter		
3	2611	2023_Feb_28_1124	M	01	R	MH SP	16.54279169999063	15.00707972003147			Left Leg		48.0			15	Heat-Stimulation		
4	2611	2023_Feb_28_1124	M	01	R	MH SP	31.632253100164235	7.011664940044284								8	Mid-Jitter		
5	2611	2023_Feb_28_1124	M	01	R	MH SP	38.657463000155985	5.011376979993656								20	PainBinary	1.649960400070995	1.0
6	2611	2023_Feb_28_1124	M	01	R	MH SP	43.691379900090396	5.010317279957235								21	IntensityRating	2.3499628000427037	40.06172839506172
7	2611	2023_Feb_28_1124	M	01	R	MH SP	48.721091700019315	5.001017079921439								22	ToleranceRating	1.8858413000125438	-1.0
8	2611	2023_Feb_28_1124	M	01	R	MH SP	53.72672830009833	7.0065051401034								9	Post-Q-Jitter		
9	2611	2023_Feb_28_1124	M	01	R	MH SP	61.348896800074726	2.011949319858104								6	Cue		
10	2611	2023_Feb_28_1124	M	01	R	MH SP	63.356915400130674	5.996215540217236								7	Pre-Jitter		
11	2611	2023_Feb_28_1124	M	01	R	MH SP	69.37513740011491	14.993324980139732			Left Leg		47.5			15	Heat-Stimulation		
12	2611	2023_Feb_28_1124	M	01	R	MH SP	84.4524583001621	7.005625440040603								8	Mid-Jitter		
13	2611	2023_Feb_28_1124	M	01	R	MH SP	91.47672640020028	5.007245479617268								20	PainBinary	1.7999303999822587	1.0
14	2611	2023_Feb_28_1124	M	01	R	MH SP	96.50748710008338	5.01250837999396								21	IntensityRating	2.1499764998443425	34.135802469135804
15	2611	2023_Feb_28_1124	M	01	R	MH SP	101.53807620005682	5.001404579961672								22	ToleranceRating	1.6336330999620259	1.0
16	2611	2023_Feb_28_1124	M	01	R	MH SP	106.54345710016787	7.007442039670423								9	Post-Q-Jitter		
17	2611	2023_Feb_28_1124	M	01	R	MH SP	114.19951120018959	2.011675199959427								6	Cue		
18	2611	2023_Feb_28_1124	M	01	R	MH SP	116.20701850019395	3.997028040001169								7	Pre-Jitter		
19	2611	2023_Feb_28_1124	M	01	R	MH SP	120.24840390007012	15.014555159723386			Left Leg		47.5			15	Heat-Stimulation		
20	2611	2023_Feb_28_1124	M	01	R	MH SP	135.33473910018802	7.008773039793596								8	Mid-Jitter		
21	2611	2023_Feb_28_1124	M	01	R	MH SP	142.36037330003455	5.007669280283153								20	PainBinary	2.1330079999752343	-1.0
22	2611	2023_Feb_28_1124	M	01	R	MH SP	157.38193070003763	7.009707078337669								9	Post-Q-Jitter		
23	2611	2023_Feb_28_1124	M	01	R	MH SP	165.02249530004337	2.0002516601234674								6	Cue		
24	2611	2023_Feb_28_1124	M	01	R	MH SP	167.02425940008834	5.99706713994965								7	Pre-Jitter		
25	2611	2023_Feb_28_1124	M	01	R	MH SP	173.07292910013348	14.999914760235697			Left Leg		47.5			15	Heat-Stimulation		
26	2611	2023_Feb_28_1124	M	01	R	MH SP	188.15342790004797	7.005827540066093								8	Mid-Jitter		
27	2611	2023_Feb_28_1124	M	01	R	MH SP	195.17599310004152	5.010825979989022								20	PainBinary	1.7832706000190228	-1.0
28	2611	2023_Feb_28_1124	M	01	R	MH SP	210.1993849000428	7.009113278239965								9	Post-Q-Jitter		
29	2611	2023_Feb_28_1124	M	01	R	MH SP	217.8359037002083	2.0077536597382277								6	Cue		
30	2611	2023_Feb_28_1124	M	01	R	MH SP	219.84151190007105	3.9969313400797546								7	Pre-Jitter		
31	2611	2023_Feb_28_1124	M	01	R	MH SP	223.89828810002655	15.016863500000909			Left Leg		47.5			15	Heat-Stimulation		
32	2611	2023_Feb_28_1124	M	01	R	MH SP	238.9815089001786	5.000614499906078								8	Mid-Jitter		
33	2611	2023_Feb_28_1124	M	01	R	MH SP	244.0110272001475	5.0083964799996465								20	PainBinary	1.2194734001532197	-1.0
34	2611	2023_Feb_28_1124	M	01	R	MH SP	259.0329688000493	5.009575778152794								9	Post-Q-Jitter		
35	2611	2023_Feb_28_1124	M	01	R	MH SP	264.67473169998266	1.9977087599691004								6	Cue		
36	2611	2023_Feb_28_1124	M	01	R	MH SP	266.6760702000465	3.9954106400255114								7	Pre-Jitter		
37	2611	2023_Feb_28_1124	M	01	R	MH SP	270.7160471000243	15.015635060146451			Left Leg		47.5			15	Heat-Stimulation		
38	2611	2023_Feb_28_1124	M	01	R	MH SP	285.80170690012164	7.011191739933565								8	Mid-Jitter		
39	2611	2023_Feb_28_1124	M	01	R	MH SP	292.82834770018235	5.00806988007389								20	PainBinary	1.5499278001952916	-1.0
40	2611	2023_Feb_28_1124	M	01	R	MH SP	307.8506899001077	7.008489078376442								9	Post-Q-Jitter		
41	2611	2023_Feb_28_1124	M	01	R	MH SP	315.50361380004324	2.007627399871126								6	Cue		
42	2611	2023_Feb_28_1124	M	01	R	MH SP	317.5087918001227	5.997741840081289								7	Pre-Jitter		
43	2611	2023_Feb_28_1124	M	01	R	MH SP	323.54251150018536	14.997160819824785			Left Leg		47.5			15	Heat-Stimulation		
44	2611	2023_Feb_28_1124	M	01	R	MH SP	338.62151299999095	5.005989940138534								8	Mid-Jitter		
45	2611	2023_Feb_28_1124	M	01	R	MH SP	343.6459778000135	5.007239080034196								20	PainBinary	1.0499392999336123	1.0
46	2611	2023_Feb_28_1124	M	01	R	MH SP	348.67749750008807	5.010931479744613								21	IntensityRating	3.0333181000314653	32.28395061728395
47	2611	2023_Feb_28_1124	M	01	R	MH SP	353.7083348000888	4.999327379977331								22	ToleranceRating	3.300336299929768	1.0
48	2611	2023_Feb_28_1124	M	01	R	MH SP	358.7133673999924	5.006023139925674								9	Post-Q-Jitter		
49	2611	2023_Feb_28_1124	M	01	R	MH SP	363.7525268001482	4.594555619638413								26	ComfortRating	4.567001499934122	25.80246913580247
50	2611	2023_Feb_28_1124	M	01	R	MH SP	368.3646989001427	3.6703220799099654								24	ValenceRating	3.6359594999812543	60.24691358024691
51	2611	2023_Feb_28_1124	M	01	R	MH SP	372.05800870014355	2.750433879904449								26	IntensityRating	2.7336746999062598	56.79012345679012
52	2611	2023_Feb_28_1124	M	01	R	MH SP	374.82689180015586	4.696089579956606								27	AvoidanceRating	4.66679980000481	-18.88888888888887
53	2611	2023_Feb_28_1124	M	01	R	MH SP	379.5406754000578	6.75196137977764								28	RelaxationRating	6.73379630013369	60.49382716049383
54	2611	2023_Feb_28_1124	M	01	R	MH SP	386.31121010007337	6.627617080230266								29	AttentionRating	6.585905299987644	44.69135802469136
55	2611	2023_Feb_28_1124	M	01	R	MH SP	392.9563736000564	4.137386279879138								30	BoredomRating	4.117027000058442	51.23456790123456
56	2611	2023_Feb_28_1124	M	01	R	MH SP	397.10930380015634	3.698386679869145								31	AlertnessRating	3.6837007000576705	-15.925925925925938
57	2611	2023_Feb_28_1124	M	01	R	MH SP	400.8258446000982	4.448740579886362								32	PosThxRating	4.433639300055802	0.24691358024691112
58	2611	2023_Feb_28_1124	M	01	R	MH SP	405.2926074001007	2.33187178010121								33	NegThxRating	2.3168623000383377	0.0
59	2611	2023_Feb_28_1124	M	01	R	MH SP	407.64231830020435	2.9491770796012133								34	SelfRating	2.933799199992791	-20.98765432098766
60	2611	2023_Feb_28_1124	M	01	R	MH SP	410.60838740016334	2.2338213801849633								35	OtherRating	2.2028652001172304	56.66666666666666
61	2611	2023_Feb_28_1124	M	01	R	MH SP	412.8597204000689	7.347900180146098								32	ImageryRating	7.316722000017762	19.629629629629648
62	2611	2023_Feb_28_1124	M	01	R	MH SP	420.2283144001849	9.36087787989527								37	PresentRating	9.33336260006763	-23.827160493827165
