	onset	duration	rt	response	correct	bodySite	temperature	condition
0	17.802476899931207	1.999690820230171			1	Right Arm	47.5	1back
1	19.807973799994215	2.0053908100817353	0.9295201997738332	2.0	0	Right Arm	47.5	1back
2	21.808949099853635	2.003427810035646	0.8629989000037313	2.0	1	Right Arm	47.5	1back
3	23.808888899860904	2.0035857101902366	0.5130316000431776	2.0	1	Right Arm	47.5	1back
4	25.873912799870595	1.9402937502600253	0.4291466998402029	2.0	1	Right Arm	47.5	1back
5	27.823889899998903	2.007080010138452	0.39671540004201233	2.0	1	Right Arm	47.5	1back
6	29.825749499956146	2.003282010089606	0.39628900005482137	2.0	1	Right Arm	47.5	1back
7	31.82575299986638	2.0033118098508567	0.47932350006885827	2.0	1	Right Arm	47.5	1back
8	33.825736299855635	2.0034832099918276	0.3823148999363184	2.0	1	Right Arm	47.5	1back
9	35.82575199985877	2.0034936100710183	0.7463650000281632	0.0	1	Right Arm	47.5	1back
10	57.85204389994033	1.9845861098729074			1	Right Arm	47.5	1back
11	59.85819459985942	2.005644110031426	0.5129899000748992	2.0	1	Right Arm	47.5	1back
12	61.85877970000729	2.004494210006669	0.41306759999133646	2.0	1	Right Arm	47.5	1back
13	63.85874289995991	2.0046354099176824	0.396203099982813	2.0	1	Right Arm	47.5	1back
14	65.89006490004249	1.9753490302246064	0.7124171000905335	0.0	1	Right Arm	47.5	1back
15	67.87411159998737	2.007300310069695	0.6291672000661492	2.0	1	Right Arm	47.5	1back
16	69.87585079995915	2.003876609960571	0.3487700999248773	2.0	1	Right Arm	47.5	1back
17	71.87579589989036	2.0040027101058513	0.5630295001901686	2.0	0	Right Arm	47.5	1back
18	73.87630739994347	2.0030191098339856	0.3963065999560058	2.0	1	Right Arm	47.5	1back
19	75.875747699989	2.0041244099847972	0.7963763000443578	2.0	1	Right Arm	47.5	1back
20	97.90268759988248	1.9838470099493861			1	Right Arm	47.5	1back
21	99.90877730003558	2.005219510057941	0.7127609001472592	0.0	1	Right Arm	47.5	1back
22	101.90989440004341	2.003052709857002	0.42949009989388287	2.0	1	Right Arm	47.5	1back
23	103.91044649994001	2.001987610012293	0.5796148998197168	2.0	1	Right Arm	47.5	1back
24	105.94426020001993	1.9676753301173449	0.5792004999238998	2.0	1	Right Arm	47.5	1back
25	107.92445699987002	2.0073062099982053	0.5296616998966783	2.0	1	Right Arm	47.5	1back
26	109.92579560005106	2.0046746102161705	0.695961199933663	2.0	1	Right Arm	47.5	1back
27	111.92578619997948	2.004742310149595	0.39644100004807115	2.0	1	Right Arm	47.5	1back
28	113.92586990003474	2.0045977097470313	0.3464707999955863	0.0	1	Right Arm	47.5	1back
29	115.92586099985056	2.004522310104221	0.4157406999729574	0.0	1	Right Arm	47.5	1back
30	137.9528977998998	1.9842657102271914			1	Right Arm	47.5	1back
31	139.95899589988403	2.0054285100195557	0.6462134001776576	2.0	1	Right Arm	47.5	1back
32	141.96019040001556	2.0030997099820524	0.5796484998427331	0.0	1	Right Arm	47.5	1back
33	143.96004939987324	2.0034267099108547	0.7129870001226664	2.0	1	Right Arm	47.5	1back
34	145.99470449984074	1.9674715301953256	0.3789107999764383	2.0	1	Right Arm	47.5	1back
35	147.97482819994912	2.0071515101008117	0.36293569998815656	2.0	1	Right Arm	47.5	1back
36	149.97691389988177	2.0030142101459205	0.446278200019151	2.0	1	Right Arm	47.5	1back
37	151.97689159982838	2.003221509978175	0.3463777999859303	2.0	1	Right Arm	47.5	1back
38	153.9768572000321	2.0033203097991645	0.36285050003789365	2.0	1	Right Arm	47.5	1back
39	155.97690959996544	2.0032415098976344	0.6630327000748366	0.0	1	Right Arm	47.5	1back
40	185.5389898000285	1.9962314201984555			1	Right Arm	47.5	2back
41	187.54287309991196	2.005204409826547			1	Right Arm	47.5	2back
42	189.55859769997187	2.007116610184312	0.0	2.0	1	Right Arm	47.5	2back
43	191.57527569984086	2.0071544100064784	0.0	2.0	1	Right Arm	47.5	2back
44	193.63306179991923	1.9582535300869495	0.6169827999547124	0.0	1	Right Arm	47.5	2back
45	195.6085554000456	2.0072914101183414	0.0	2.0	1	Right Arm	47.5	2back
46	197.6253292998299	2.0071262097917497	0.3336835999507457	0.0	1	Right Arm	47.5	2back
47	199.6423547999002	2.0065430102404207	0.0	2.0	1	Right Arm	47.5	2back
48	201.6585406998638	2.00741811003536	0.33368049981072545	0.0	1	Right Arm	47.5	2back
49	203.67523249983788	2.0074164101388305	0.6169894998893142	0.0	1	Right Arm	47.5	2back
50	225.72273799986579	1.9960843198932707			1	Right Arm	47.5	2back
51	227.7265611998737	2.005171509925276	0.0	2.0	0	Right Arm	47.5	2back
52	229.7421540999785	2.0073583100456744	0.8670155999716371	0.0	1	Right Arm	47.5	2back
53	231.75894239987247	2.0071443098131567	0.0	2.0	1	Right Arm	47.5	2back
54	233.8043601999525	1.9830099300015718	0.0	2.0	1	Right Arm	47.5	2back
55	235.79240989987738	2.0069203097373247	0.0	2.0	1	Right Arm	47.5	2back
56	237.80917679984123	2.0067812099587172	0.3670018999837339	0.0	1	Right Arm	47.5	2back
57	239.82561129983515	2.0072950101457536	1.0003931999672204	0.0	1	Right Arm	47.5	2back
58	241.84237480000593	2.0071216099895537	0.5532515998929739	0.0	1	Right Arm	47.5	2back
59	243.8590621999465	2.007116710068658	0.0	2.0	1	Right Arm	47.5	2back
60	265.9064731998369	1.9959915198851377			1	Right Arm	47.5	2back
61	267.9100750000216	2.0055036100093275			1	Right Arm	47.5	2back
62	269.9258941998705	2.0072858100757003	0.950484300032258	0.0	1	Right Arm	47.5	2back
63	271.9424254000187	2.00754390982911	0.0	2.0	1	Right Arm	47.5	2back
64	274.0131320999935	1.9494864400476217	0.0	2.0	1	Right Arm	47.5	2back
65	275.9760069998447	2.0071278100367635	0.0	2.0	1	Right Arm	47.5	2back
66	277.99275009986013	2.0069916101638228	0.800329799996689	0.0	1	Right Arm	47.5	2back
67	280.00930339982733	2.0072557099629194	0.0	2.0	1	Right Arm	47.5	2back
68	282.0260942999739	2.006997809978202	0.0	2.0	1	Right Arm	47.5	2back
69	284.042736900039	2.0071212097536772	1.0836773999035358	0.0	1	Right Arm	47.5	2back
70	306.0901996998582	1.995903620030731			1	Right Arm	47.5	2back
71	308.0938613000326	2.0053177098743618			1	Right Arm	47.5	2back
72	310.1098938998766	2.006613610079512	0.0	2.0	1	Right Arm	47.5	2back
73	312.1261874998454	2.007396610220894	0.0	2.0	1	Right Arm	47.5	2back
74	314.18786489986815	1.9506114299874753	0.9000572999939322	0.0	1	Right Arm	47.5	2back
75	316.1595610999502	2.007345509948209	0.7503470999654382	0.0	1	Right Arm	47.5	2back
76	318.176288299961	2.0073051101062447	0.0	2.0	1	Right Arm	47.5	2back
77	320.19351159990765	2.0061944101471454	0.0	2.0	1	Right Arm	47.5	2back
78	322.20991949993186	2.0067882100120187	0.0	2.0	1	Right Arm	47.5	2back
79	324.2264356999658	2.0071043099742383	1.267015399876982	0.0	1	Right Arm	47.5	2back
80	346.2736994998995	1.9962798201013356			1	Right Arm	47.5	2back
81	348.2775067000184	2.0053759103175253			1	Right Arm	47.5	2back
82	350.29326619999483	2.0072611100040376	0.0	2.0	1	Right Arm	47.5	2back
83	352.30998649983667	2.007157309912145	0.0	2.0	1	Right Arm	47.5	2back
84	354.36098699993454	1.9718399301636964	0.7333945001009852	0.0	1	Right Arm	47.5	2back
85	356.34373279986903	2.0064002100843936	1.1042956998571754	0.0	0	Right Arm	47.5	2back
86	358.35989279998466	2.0074599098879844	0.0	2.0	1	Right Arm	47.5	2back
87	360.37669950001873	2.007199010346085	0.6170141999609768	0.0	1	Right Arm	47.5	2back
88	362.39330270001665	2.00737731019035	0.0	2.0	1	Right Arm	47.5	2back
89	364.4099421000574	2.00744991004467	0.800363700138405	0.0	0	Right Arm	47.5	2back
90	386.45735839987174	1.996312019880861			1	Right Arm	47.5	2back
91	388.46128949988633	2.005182310240343			1	Right Arm	47.5	2back
92	390.47683089994825	2.00742090982385	0.6868026999291033	0.0	1	Right Arm	47.5	2back
93	392.4935436998494	2.007411509985104	0.0	2.0	1	Right Arm	47.5	2back
94	394.54940959997475	1.9623707302380353	0.0	2.0	1	Right Arm	47.5	2back
95	396.52739539998583	2.006460909731686	0.0	2.0	1	Right Arm	47.5	2back
96	398.5438255998306	2.0069469099398702	0.6670452000107616	0.0	0	Right Arm	47.5	2back
97	400.5603421998676	2.0072884098626673	0.0	2.0	1	Right Arm	47.5	2back
98	402.57704749982804	2.0072538098320365	0.45372239989228547	0.0	1	Right Arm	47.5	2back
99	404.5937905998435	2.007122809998691	0.0	2.0	1	Right Arm	47.5	2back
100	426.64083940000273	1.9967311199288815			1	Right Arm	47.5	2back
101	428.64468239992857	2.0057644098997116			1	Right Arm	47.5	2back
102	430.6606113000307	2.007279410259798	0.0	2.0	1	Right Arm	47.5	2back
103	432.67721959995106	2.0074188099242747	0.4034504999872297	0.0	1	Right Arm	47.5	2back
104	434.73637339985	1.9557791301049292	0.0	2.0	1	Right Arm	47.5	2back
105	436.7107008998282	2.007109009893611	0.0	2.0	1	Right Arm	47.5	2back
106	438.72741309995763	2.0071353102102876	0.0	2.0	1	Right Arm	47.5	2back
107	440.7435412998311	2.007718810113147	0.0	2.0	0	Right Arm	47.5	2back
108	442.7610855998937	2.0065594101324677	0.0	2.0	1	Right Arm	47.5	2back
109	444.77806099993177	2.0059713101945817	0.8670832999050617	0.0	1	Right Arm	47.5	2back
110	466.82468839990906	1.996386120095849			1	Right Arm	47.5	2back
111	468.82852869993076	2.005431910045445			1	Right Arm	47.5	2back
112	470.84424509992823	2.00737871020101	0.7170017000753433	0.0	1	Right Arm	47.5	2back
113	472.86148239998147	2.006266310112551	0.0	2.0	1	Right Arm	47.5	2back
114	474.9179928000085	1.9599406302440912	0.800081699853763	0.0	1	Right Arm	47.5	2back
115	476.8944621998817	2.00712341000326	0.0	2.0	1	Right Arm	47.5	2back
116	478.91099899983965	2.007322710007429	0.0	2.0	1	Right Arm	47.5	2back
117	480.927792100003	2.0072336103767157	0.0	2.0	1	Right Arm	47.5	2back
118	482.9443947998807	2.0072575099766254	0.0	2.0	1	Right Arm	47.5	2back
119	484.9611640998628	2.0071117100305855	0.6170330001041293	0.0	1	Right Arm	47.5	2back
120	517.02332259994	2.0000502201728523			1	Right Arm	47.5	1back
121	519.0292054000311	2.0049886100459844	1.51299239997752	0.0	1	Right Arm	47.5	1back
122	521.0303779998794	2.002660509897396	0.46278679999522865	0.0	1	Right Arm	47.5	1back
123	523.0305011998862	2.002447009785101	0.5629572998732328	2.0	1	Right Arm	47.5	1back
124	525.0601425999776	1.9765213301870972	0.429045099997893	2.0	1	Right Arm	47.5	1back
125	527.0450791998301	2.006701709702611	0.3793730998877436	2.0	1	Right Arm	47.5	1back
126	529.0473601999693	2.002165909856558	0.3465597000904381	2.0	1	Right Arm	47.5	1back
127	531.0473229999188	2.002271009841934	0.7131387998815626	2.0	1	Right Arm	47.5	1back
128	533.047308600042	2.0023353102151304	0.4795600001234561	2.0	1	Right Arm	47.5	1back
129	535.0474439000245	2.0021094102412462	0.596271799877286	0.0	1	Right Arm	47.5	1back
130	557.0732036998961	1.9843095103278756			1	Right Arm	47.5	1back
131	559.079398999922	2.0052639099303633	0.5296650999225676	2.0	1	Right Arm	47.5	1back
132	561.080465799896	2.0031619102228433	0.3962978001218289	2.0	1	Right Arm	47.5	1back
133	563.0803646999411	2.0034135098103434	0.4796808999963105	2.0	1	Right Arm	47.5	1back
134	565.129548799945	1.9551175402011722	0.8790543999057263	0.0	1	Right Arm	47.5	1back
135	567.0954503999092	2.0066929101012647	0.5463843001052737	2.0	1	Right Arm	47.5	1back
136	569.0973664999474	2.0028633100446314	0.496314600110054	2.0	1	Right Arm	47.5	1back
137	571.0973538998514	2.002910509938374	0.5963880999479443	0.0	1	Right Arm	47.5	1back
138	573.09733280004	2.0029905100818723	0.41287610004656017	2.0	1	Right Arm	47.5	1back
139	575.0976406999398	2.0024227099493146	0.5458939999807626	2.0	1	Right Arm	47.5	1back
140	597.1235301999841	1.98431781004183			1	Right Arm	47.5	1back
141	599.1297855998855	2.005247710039839	0.6297522000968456	0.0	1	Right Arm	47.5	1back
142	601.1313070999458	2.0021942099556327	0.5798305999487638	2.0	1	Right Arm	47.5	1back
143	603.1315486000385	2.001748510170728	0.4962661999743432	2.0	1	Right Arm	47.5	1back
144	605.1540057999082	1.9735309202224016	0.6627746999729425	0.0	1	Right Arm	47.5	1back
145	607.1455710998271	2.007095309905708	0.41259219986386597	2.0	1	Right Arm	47.5	1back
146	609.1474138000049	2.0034494099672884	0.596402500057593	2.0	1	Right Arm	47.5	1back
147	611.1473546000198	2.003575609996915	0.4125818000175059	2.0	1	Right Arm	47.5	1back
148	613.1477444998454	2.0028366101905704	0.32967650005593896	2.0	1	Right Arm	47.5	1back
149	615.1474925999064	2.0034000102896243	0.7130211000330746	0.0	1	Right Arm	47.5	1back
150	637.1743812998757	2.000021419953555			1	Right Arm	47.5	1back
151	639.1800414000172	2.0053920100908726	0.8296527999918908	2.0	1	Right Arm	47.5	1back
152	641.1813669998664	2.0027795101050287	0.6963705997914076	0.0	1	Right Arm	47.5	1back
153	643.1813931998331	2.002768610138446	0.5130727998912334	2.0	1	Right Arm	47.5	1back
154	645.216294300044	1.9663150298874825	0.47808530018664896	2.0	1	Right Arm	47.5	1back
155	647.1960594998673	2.006827110191807	0.9797289001289755	2.0	1	Right Arm	47.5	1back
156	649.1984975000378	2.0019926100503653	0.862971100024879	2.0	1	Right Arm	47.5	1back
157	651.1987778998446	2.0014503102283925	0.49647819995880127	2.0	1	Right Arm	47.5	1back
158	653.1984951000195	2.0020525101572275	0.7330134999938309	0.0	1	Right Arm	47.5	1back
159	655.198529999936	2.002025810070336	0.5796901001594961	2.0	1	Right Arm	47.5	1back
