	onset	duration	rt	response	correct	bodySite	temperature	condition	pretrial-jitter
0	9.764797699986957	19.999889800092205				Left Face	49.0	Rest-Stim	7.0
1	29.765009099966846	6.9997684000991285				Left Face		PostTrialFixation	
2	36.765587999951094	5.015705100027844		49.75308641975309		Left Face	49.0	Rest-Stim Rating	7.0
3	44.78178509999998	19.99985760007985				Left Face	49.0	Rest-Stim	3.0
4	64.78205369994976	7.0163352999370545				Left Face		PostTrialFixation	
5	71.78429639991373	5.011933200061321		44.75308641975309		Left Face	49.0	Rest-Stim Rating	7.0
6	79.79877449991181	19.999935199972242				Left Face	49.0	Rest-Stim	3.0
7	99.79898469999898	3.0163681999547407				Left Face		PostTrialFixation	
8	102.80155520001426	5.011378400027752		56.604938271604944		Left Face	49.0	Rest-Stim Rating	3.0
9	107.81269339995924	112.83275079994928				Left Face	49.0	2back Instructions	
10	119.84704529994633	1.9873185000615194			1.0	Left Face	32.0	2back-nostim	
11	121.85468280001078	2.005416699917987			1.0	Left Face	32.0	2back-nostim	7.0
12	123.87067380000371	2.0068652000045404	0.7170410000253469	0.0	1.0	Left Face	32.0	2back-nostim	
13	125.88698489998933	2.0075371999992058	0.0	2.0	1.0	Left Face	32.0	2back-nostim	
14	127.9038727999432	2.0072269000811502	0.0	2.0	1.0	Left Face	32.0	2back-nostim	
15	129.92047819995787	2.0073142000474036	0.0	2.0	1.0	Left Face	32.0	2back-nostim	
16	131.93714639998507	2.0073705000104383	0.5836492999223992	0.0	1.0	Left Face	32.0	2back-nostim	
17	133.95417559996713	2.006687800050713	0.0	2.0	1.0	Left Face	32.0	2back-nostim	
18	135.97071669995785	2.0069272000109777	0.0	2.0	1.0	Left Face	32.0	2back-nostim	
19	137.98738999990746	2.0070092999376357	0.7170546000124887	0.0	1.0	Left Face	32.0	2back-nostim	
20	147.03093869995791	152.049457599991				Left Face	49.0	2back Instructions	
21	155.06574230000842	1.9840054000960663			1.0	Left Face	32.0	2back-nostim	
22	157.07249799999408	2.003896800102666			1.0	Left Face	32.0	2back-nostim	3.0
23	159.08743559999857	2.007341100019403	0.0	2.0	1.0	Left Face	32.0	2back-nostim	
24	161.1043106999714	2.0069248999934644	0.0	2.0	1.0	Left Face	32.0	2back-nostim	
25	163.1208460999187	2.0071536001050845	0.6170744999544695	0.0	1.0	Left Face	32.0	2back-nostim	
26	165.13804979994893	2.0062507999828085	0.7337140999734402	0.0	1.0	Left Face	32.0	2back-nostim	
27	167.15416849998292	2.007321200100705	0.0	2.0	1.0	Left Face	32.0	2back-nostim	
28	169.17084959999193	2.0072170000057667	0.0	2.0	1.0	Left Face	32.0	2back-nostim	
29	171.18775339995045	2.006894599995576	0.0	2.0	1.0	Left Face	32.0	2back-nostim	
30	173.2043114999542	2.007168299984187	0.7336715999990702	0.0	1.0	Left Face	32.0	2back-nostim	
31	182.24797839997336	187.2663700999692				Left Face	49.0	2back Instructions	
32	190.28082169999834	1.9877939000725746			1.0	Left Face	32.0	2back-nostim	
33	192.28869419998955	2.005440599983558			1.0	Left Face	32.0	2back-nostim	3.0
34	194.30440979998093	2.0074020001338795	0.0	2.0	1.0	Left Face	32.0	2back-nostim	
35	196.32109219999984	2.007342900033109	0.0	2.0	1.0	Left Face	32.0	2back-nostim	
36	198.33787859999575	2.007208100054413	0.5003340999828652	0.0	1.0	Left Face	32.0	2back-nostim	
37	200.3548335999949	2.00667550007347			0.0	Left Face	32.0	2back-nostim	
38	202.37113109999336	2.0074028000235558	0.0	2.0	1.0	Left Face	32.0	2back-nostim	
39	204.38794919999782	2.0071489000692964	0.9336608999874443	0.0	1.0	Left Face	32.0	2back-nostim	
40	206.40475400001742	2.006866000010632	0.0	2.0	1.0	Left Face	32.0	2back-nostim	
41	208.4212118999567	2.0073542000027373	0.5004220999544486	0.0	0.0	Left Face	32.0	2back-nostim	
42	213.46476759994403	218.48335759993643				Left Face	32.0	2back Instructions	
43	225.4986594999209	1.9861496000085026			1.0	Left Face	49.0	2back-stim	
44	227.50568970001768	2.005419599940069			1.0	Left Face	49.0	2back-stim	7.0
45	229.52142040000763	2.0074030000250787	0.6838547000661492	0.0	1.0	Left Face	49.0	2back-stim	
46	231.53832389996387	2.0069165001623333	0.0	2.0	1.0	Left Face	49.0	2back-stim	
47	233.63195710000582	1.9196867999853566	0.0	2.0	1.0	Left Face	49.0	2back-stim	
48	235.57188539998606	2.0065372000681236	0.0	2.0	1.0	Left Face	49.0	2back-stim	
49	237.58812869992107	2.007366600097157	0.0	2.0	1.0	Left Face	49.0	2back-stim	
50	239.6058697999688	2.0053362001199275	0.0	2.0	1.0	Left Face	49.0	2back-stim	
51	241.62163559999317	2.0071538999909535	0.633672000025399	0.0	1.0	Left Face	49.0	2back-stim	
52	243.6383635000093	2.0071348999626935	0.0	2.0	1.0	Left Face	49.0	2back-stim	
53	250.67162079992704	5.0074418999720365		23.45679012345679		Left Face	49.0	2back-stim Rating	5.0
54	255.6805430999957	260.7008427999681				Left Face	32.0	2back Instructions	
55	265.72983959992416	1.991161100100726			1.0	Left Face	49.0	2back-stim	
56	267.7393836999545	2.0054978999542072			1.0	Left Face	49.0	2back-stim	5.0
57	269.75515599991195	2.007293700124137	0.0	2.0	1.0	Left Face	49.0	2back-stim	
58	271.7718174000038	2.0074829000514	0.7670034999027848	0.0	1.0	Left Face	49.0	2back-stim	
59	273.82367529999465	1.97028740006499	0.0	2.0	1.0	Left Face	49.0	2back-stim	
60	275.8051186999073	2.0074930001283064	0.0	2.0	1.0	Left Face	49.0	2back-stim	
61	277.82196299999487	2.0071601000381634	0.0	2.0	1.0	Left Face	49.0	2back-stim	
62	279.8386646999279	2.007136999978684	0.6337345999199897	0.0	1.0	Left Face	49.0	2back-stim	
63	281.8553119999124	2.007284500170499	0.0	2.0	1.0	Left Face	49.0	2back-stim	
64	283.87204599997494	2.007200699998066	0.5336265999358147	0.0	1.0	Left Face	49.0	2back-stim	
65	292.92167199996766	5.008055200101808		14.629629629629628		Left Face	49.0	2back-stim Rating	7.0
66	297.93075069994666	302.95128639996983				Left Face	32.0	2back Instructions	
67	305.9795331999194	1.9757522001164034			1.0	Left Face	49.0	2back-stim	
68	307.9732161000138	2.0052524999482557			1.0	Left Face	49.0	2back-stim	3.0
69	309.9892139999429	2.006628799950704	0.5837526000104845	0.0	1.0	Left Face	49.0	2back-stim	
70	312.0054515999509	2.0074756001122296	0.0	2.0	1.0	Left Face	49.0	2back-stim	
71	314.0957126999274	1.9270592998946086	0.6500997999683022	0.0	1.0	Left Face	49.0	2back-stim	
72	316.03886799991596	2.0074522000504658	0.0	2.0	1.0	Left Face	49.0	2back-stim	
73	318.05574250000063	2.0070445000892505	0.0	2.0	1.0	Left Face	49.0	2back-stim	
74	320.0723558999598	2.007272999966517	0.0	2.0	1.0	Left Face	49.0	2back-stim	
75	322.08908419997897	2.007137200096622	0.0	2.0	1.0	Left Face	49.0	2back-stim	
76	324.10574149992317	2.0071921000489965	0.5837607000721619	0.0	1.0	Left Face	49.0	2back-stim	
77	333.13865569990594	5.008147600106895		10.37037037037037		Left Face	49.0	2back-stim Rating	7.0
78	341.13618929998484	20.013414500048384				Left Face	32.0	Rest-NoStim	3.0
79	361.1372621000046	3.0114764000754803				Left Face		PostTrialFixation	
80	371.13718019996304	20.012000500108115				Left Face	32.0	Rest-NoStim	7.0
81	391.13727690000087	7.012039300054312				Left Face		PostTrialFixation	
82	401.13727509998716	20.01242689997889				Left Face	32.0	Rest-NoStim	3.0
83	421.1373055999866	3.0125287000555545				Left Face		PostTrialFixation	
84	424.1484020999633	429.17081069992855				Left Face	32.0	2back Instructions	
85	436.1983697999967	1.9906928000273183			1.0	Left Face	49.0	2back-stim	
86	438.2077393999789	2.0053463000804186			1.0	Left Face	49.0	2back-stim	7.0
87	440.2233749999432	2.0075129000470042	0.0	2.0	1.0	Left Face	49.0	2back-stim	
88	442.24050750001334	2.00660570000764	0.0	2.0	1.0	Left Face	49.0	2back-stim	
89	444.3165557999164	1.9378666998818517	0.6167146000079811	0.0	1.0	Left Face	49.0	2back-stim	
90	446.2739315999206	2.006482500000857	0.0	2.0	1.0	Left Face	49.0	2back-stim	
91	448.2901276999619	2.0074278000975028	0.5836848999606445	0.0	1.0	Left Face	49.0	2back-stim	
92	450.3068330999231	2.0073906001634896	0.0	2.0	1.0	Left Face	49.0	2back-stim	
93	452.3236870999681	2.007105100201443	0.0	2.0	0.0	Left Face	49.0	2back-stim	
94	454.3406024000142	2.006633900105953	0.8338966999435797	0.0	1.0	Left Face	49.0	2back-stim	
95	463.37385470001027	5.007073899963871		14.135802469135802		Left Face	49.0	2back-stim Rating	7.0
96	468.38272049999796	473.4028270000126				Left Face	32.0	2back Instructions	
97	476.4318941999227	1.9912018001778051			1.0	Left Face	49.0	2back-stim	
98	478.4419254999375	2.004521500086412			1.0	Left Face	49.0	2back-stim	3.0
99	480.4571501999162	2.0073253001319245	0.7503405000315979	0.0	1.0	Left Face	49.0	2back-stim	
100	482.4738634999376	2.0072583000874147	0.0	2.0	1.0	Left Face	49.0	2back-stim	
101	484.5548146999208	1.945409300038591	0.9171230000210926	0.0	0.0	Left Face	49.0	2back-stim	
102	486.5073511999799	2.006993200047873	0.0	2.0	1.0	Left Face	49.0	2back-stim	
103	488.5246073999442	2.005907400045544	0.6003855000017211	0.0	1.0	Left Face	49.0	2back-stim	
104	490.54062019998673	2.0072997000534087	0.683713199920021	0.0	1.0	Left Face	49.0	2back-stim	
105	492.5572956999531	2.007300299941562	0.8170561000006273	0.0	1.0	Left Face	49.0	2back-stim	
106	494.5740363999503	2.0072082999395207	0.0	2.0	1.0	Left Face	49.0	2back-stim	
107	503.5907971999841	5.007241800078191		10.37037037037037		Left Face	49.0	2back-stim Rating	7.0
108	508.59975699998904	513.6198813999072				Left Face	32.0	2back Instructions	
109	516.6489476999268	1.991069900104776			1.0	Left Face	49.0	2back-stim	
110	518.6585133000044	2.0053409000393003			1.0	Left Face	49.0	2back-stim	3.0
111	520.6742378999479	2.007296400028281	0.5836000998970121	0.0	1.0	Left Face	49.0	2back-stim	
112	522.6909256000072	2.007287299958989	0.0	2.0	1.0	Left Face	49.0	2back-stim	
113	524.7624327999074	1.9476186998654157	0.0	2.0	1.0	Left Face	49.0	2back-stim	
114	526.7242979999864	2.007309100124985	0.0	2.0	1.0	Left Face	49.0	2back-stim	
115	528.7409411999397	2.007336499984376	0.6336971999844536	0.0	1.0	Left Face	49.0	2back-stim	
116	530.7576495999238	2.0073999000014737	0.0	2.0	1.0	Left Face	49.0	2back-stim	
117	532.7746550999582	2.0067123000044376	0.6503342998912558	0.0	0.0	Left Face	49.0	2back-stim	
118	534.7910383999115	2.0072967000305653	0.700496600009501	0.0	1.0	Left Face	49.0	2back-stim	
119	539.8076911999378	5.0073871000204235		10.308641975308646		Left Face	49.0	2back-stim Rating	3.0
120	551.8199427999789	19.999795700074174				Left Face	49.0	Rest-Stim	7.0
121	571.8201602000045	5.01641030004248				Left Face		PostTrialFixation	
122	576.8229788999306	5.01114439999219		50.0		Left Face	49.0	Rest-Stim Rating	5.0
123	586.8370111999102	19.999909100006334				Left Face	49.0	Rest-Stim	5.0
124	606.8371566999704	5.01641650008969				Left Face		PostTrialFixation	
125	611.8399086999707	5.011099600116722		42.77777777777778		Left Face	49.0	Rest-Stim Rating	5.0
126	621.8539471999975	19.999946500058286				Left Face	49.0	Rest-Stim	5.0
127	641.8541593999835	7.016407000017352				Left Face		PostTrialFixation	
128	648.8568544000154	5.011199500062503		50.0		Left Face	49.0	Rest-Stim Rating	7.0
