RestT1,TaskT1,square,location,corrAns,counterbalancer.thisRepN,counterbalancer.thisTrialN,counterbalancer.thisN,counterbalancer.thisIndex,RestT1Loop.thisRepN,RestT1Loop.thisTrialN,RestT1Loop.thisN,RestT1Loop.thisIndex,TaskT1Loop.thisRepN,TaskT1Loop.thisTrialN,TaskT1Loop.thisN,TaskT1Loop.thisIndex,trials_2.thisRepN,trials_2.thisTrialN,trials_2.thisN,trials_2.thisIndex,NbackInstructions.started,NbackInstructions.stopped,NbackStart.keys,NbackStart.rt,NbackStart.started,NbackStart.stopped,fixation_2.started,fixation_2.stopped,response_2.x,response_2.y,response_2.leftButton,grid_lines_2.started,grid_lines_2.stopped,target_square_2.started,target_square_2.stopped,fixation_3.started,fixation_3.stopped,response_2.click,response_2.corr,response_2.started,response_2.stopped,fixation_1.started,fixation_1.stopped,subject number,gender,session,handedness,scanner,date,expName,psychopyVersion,frameRate,
0,1,,,,0,0,0,0,,,,,0,0,0,0,,,,,19.55560899991542,None,space,78.48751369980164,19.55560899991542,None,,,,,,,,,,,,,,,,,,8,f,11,r,AB,2022_Jan_05_1923,WASABI Nback,2020.2.10,59.996532160066586,
0,1,5,"[0, 0]",None,0,0,0,0,,,,,0,0,0,0,0,0,0,0,,,,,,,None,None,None,None,0,99.47728789993562,None,99.47728789993562,100.47727690008469,100.44394779996946,None,0,1,99.47728789993562,None,,,8,f,11,r,AB,2022_Jan_05_1923,WASABI Nback,2020.2.10,59.996532160066586,
0,1,2,"[0, 0.2]",None,0,0,0,0,,,,,0,0,0,0,0,1,1,1,,,,,,,,,None,None,0,101.09396310010925,None,101.09396310010925,102.0939694000408,102.07729639997706,103.07729639997706,0,1,101.09396310010925,None,,,8,f,11,r,AB,2022_Jan_05_1923,WASABI Nback,2020.2.10,59.996532160066586,
0,1,6,"[0.2, 0]",None,0,0,0,0,,,,,0,0,0,0,0,2,2,2,,,,,,,,,None,None,0,103.09397520008497,None,103.09397520008497,104.0940217000898,104.07731480011716,105.07731009996496,0,1,103.09397520008497,None,,,8,f,11,r,AB,2022_Jan_05_1923,WASABI Nback,2020.2.10,59.996532160066586,
0,1,9,"[0.2, -0.2]",None,0,0,0,0,,,,,0,0,0,0,0,3,3,3,,,,,,,,,None,None,0,105.09399649989791,None,105.09399649989791,106.09399359999225,106.07723830011673,107.07733849994838,0,1,105.09399649989791,None,,,8,f,11,r,AB,2022_Jan_05_1923,WASABI Nback,2020.2.10,59.996532160066586,
0,1,3,"[0.2, 0.2]",None,0,0,0,0,,,,,0,0,0,0,0,4,4,4,,,,,,,,,None,None,0,107.09400969999842,None,107.09400969999842,108.09399560000747,108.07733740005642,109.07736520003527,0,1,107.09400969999842,None,,,8,f,11,r,AB,2022_Jan_05_1923,WASABI Nback,2020.2.10,59.996532160066586,
0,1,9,"[0.2, -0.2]",1,0,0,0,0,,,,,0,0,0,0,0,5,5,5,,,,,,,,,None,None,0,109.09402929991484,None,109.09402929991484,110.09401810006239,110.07735979999416,111.07737060007639,0,1,109.09402929991484,None,,,8,f,11,r,AB,2022_Jan_05_1923,WASABI Nback,2020.2.10,59.996532160066586,
0,1,7,"[-0.2, -0.2]",None,0,0,0,0,,,,,0,0,0,0,0,6,6,6,,,,,,,,,None,None,0,111.09402450011112,None,111.09402450011112,112.09404759993777,112.0773928000126,113.07738099992275,0,1,111.09402450011112,None,,,8,f,11,r,AB,2022_Jan_05_1923,WASABI Nback,2020.2.10,59.996532160066586,
0,1,1,"[-0.2, 0.2]",None,0,0,0,0,,,,,0,0,0,0,0,7,7,7,,,,,,,,,None,None,0,113.09404710005037,None,113.09404710005037,114.09405019995756,114.07739460002631,115.07741070003249,0,1,113.09404710005037,None,,,8,f,11,r,AB,2022_Jan_05_1923,WASABI Nback,2020.2.10,59.996532160066586,
0,1,5,"[0, 0]",None,0,0,0,0,,,,,0,0,0,0,0,8,8,8,,,,,,,,,None,None,0,115.09407260012813,None,115.09407260012813,116.09407280012965,116.07739449990913,117.07740529999137,0,1,115.09407260012813,None,,,8,f,11,r,AB,2022_Jan_05_1923,WASABI Nback,2020.2.10,59.996532160066586,
0,1,7,"[-0.2, -0.2]",None,0,0,0,0,,,,,0,0,0,0,0,9,9,9,,,,,,,,,None,None,0,117.09409089991823,None,117.09409089991823,118.09409629995935,118.07743870001286,119.07746349996887,0,1,117.09409089991823,None,,,8,f,11,r,AB,2022_Jan_05_1923,WASABI Nback,2020.2.10,59.996532160066586,
0,1,5,"[0, 0]",1,0,0,0,0,,,,,0,0,0,0,0,10,10,10,,,,,,,,,None,None,0,119.0941069999244,None,119.0941069999244,120.09409020002931,120.07746850000694,121.07746860012412,0,1,119.0941069999244,None,,,8,f,11,r,AB,2022_Jan_05_1923,WASABI Nback,2020.2.10,59.996532160066586,
0,1,6,"[0.2, 0]",None,0,0,0,0,,,,,0,0,0,0,0,11,11,11,,,,,,,,,None,None,0,121.0941133000888,None,121.0941133000888,122.09413699992001,122.07747450005263,123.07749200006947,0,1,121.0941133000888,None,,,8,f,11,r,AB,2022_Jan_05_1923,WASABI Nback,2020.2.10,59.996532160066586,
0,1,3,"[0.2, 0.2]",None,0,0,0,0,,,,,0,0,0,0,0,12,12,12,,,,,,,,,None,None,0,123.09414110006765,None,123.09414110006765,124.09408539999276,124.07748370012268,125.07748649991117,0,1,123.09414110006765,None,,,8,f,11,r,AB,2022_Jan_05_1923,WASABI Nback,2020.2.10,59.996532160066586,
0,1,6,"[0.2, 0]",1,0,0,0,0,,,,,0,0,0,0,0,13,13,13,,,,,,,,,None,None,0,125.09419500012882,None,125.09419500012882,126.09416300011799,126.0774940000847,127.07751760003157,0,1,125.09419500012882,None,,,8,f,11,r,AB,2022_Jan_05_1923,WASABI Nback,2020.2.10,59.996532160066586,
0,1,8,"[0, -0.2]",None,0,0,0,0,,,,,0,0,0,0,0,14,14,14,,,,,,,,,None,None,0,127.09416550002061,None,127.09416550002061,128.09418029990047,128.07752120005898,129.07751829992048,0,1,127.09416550002061,None,,,8,f,11,r,AB,2022_Jan_05_1923,WASABI Nback,2020.2.10,59.996532160066586,
0,1,9,"[0.2, -0.2]",None,0,0,0,0,,,,,0,0,0,0,0,15,15,15,,,,,,,,,None,None,0,129.09416770003736,None,129.09416770003736,130.0941948001273,130.07753390003927,131.0775297000073,0,1,129.09416770003736,None,,,8,f,11,r,AB,2022_Jan_05_1923,WASABI Nback,2020.2.10,59.996532160066586,
0,1,9,"[0.2, -0.2]",None,0,0,0,0,,,,,0,0,0,0,0,16,16,16,,,,,,,,,None,None,0,131.0942090000026,None,131.0942090000026,132.09419260011055,132.07753599993885,133.077546000015,0,0,131.0942090000026,None,,,8,f,11,r,AB,2022_Jan_05_1923,WASABI Nback,2020.2.10,59.996532160066586,
0,1,1,"[-0.2, 0.2]",None,0,0,0,0,,,,,0,0,0,0,0,17,17,17,,,,,,,,,None,None,0,133.09421769995242,None,133.09421769995242,134.0942400000058,134.0775588999968,135.07757239998318,0,1,133.09421769995242,None,,,8,f,11,r,AB,2022_Jan_05_1923,WASABI Nback,2020.2.10,59.996532160066586,
0,1,3,"[0.2, 0.2]",None,0,0,0,0,,,,,0,0,0,0,0,18,18,18,,,,,,,,,None,None,0,135.0942245000042,None,135.0942245000042,136.09423699998297,136.07761360006407,137.0775848000776,0,1,135.0942245000042,None,,,8,f,11,r,AB,2022_Jan_05_1923,WASABI Nback,2020.2.10,59.996532160066586,
0,1,5,"[0, 0]",None,0,0,0,0,,,,,0,0,0,0,0,19,19,19,,,,,,,,,None,None,0,137.09430019999854,None,137.09430019999854,138.09424200002104,138.07707650004886,139.0776446000673,0,1,137.09430019999854,None,,,8,f,11,r,AB,2022_Jan_05_1923,WASABI Nback,2020.2.10,59.996532160066586,
0,1,3,"[0.2, 0.2]",1,0,0,0,0,,,,,0,0,0,0,0,20,20,20,,,,,,,,,None,None,0,139.0942655999679,None,139.0942655999679,140.09418100002222,140.07760740001686,141.07761540007778,0,1,139.0942655999679,None,,,8,f,11,r,AB,2022_Jan_05_1923,WASABI Nback,2020.2.10,59.996532160066586,
0,1,4,"[-0.2, 0]",None,0,0,0,0,,,,,0,0,0,0,0,21,21,21,,,,,,,,,None,None,0,141.09428620012477,None,141.09428620012477,142.09428650001064,142.07763809990138,143.0776275000535,0,1,141.09428620012477,None,,,8,f,11,r,AB,2022_Jan_05_1923,WASABI Nback,2020.2.10,59.996532160066586,
0,1,7,"[-0.2, -0.2]",None,0,0,0,0,,,,,0,0,0,0,0,22,22,22,,,,,,,,,None,None,0,143.09430329990573,None,143.09430329990573,144.09429430007003,144.0776345001068,145.07766579999588,0,1,143.09430329990573,None,,,8,f,11,r,AB,2022_Jan_05_1923,WASABI Nback,2020.2.10,59.996532160066586,
0,1,4,"[-0.2, 0]",1,0,0,0,0,,,,,0,0,0,0,0,23,23,23,,,,,,,,,None,None,0,145.09431930002756,None,145.09431930002756,146.09431260009296,146.07765659992583,147.07767680007964,0,1,145.09431930002756,None,,,8,f,11,r,AB,2022_Jan_05_1923,WASABI Nback,2020.2.10,59.996532160066586,
0,1,4,"[-0.2, 0]",None,0,0,0,0,,,,,0,0,0,0,0,24,24,24,,,,,,,,,None,None,0,147.09432219993323,None,147.09432219993323,148.09434440010227,148.07767320005223,149.07768679992296,0,1,147.09432219993323,None,,,8,f,11,r,AB,2022_Jan_05_1923,WASABI Nback,2020.2.10,59.996532160066586,
0,1,5,"[0, 0]",None,0,0,0,0,,,,,0,0,0,0,0,25,25,25,,,,,,,,,None,None,0,149.09435479994863,None,149.09435479994863,150.09436130011454,150.077724999981,151.07768759992905,0,1,149.09435479994863,None,,,8,f,11,r,AB,2022_Jan_05_1923,WASABI Nback,2020.2.10,59.996532160066586,
0,1,2,"[0, 0.2]",None,0,0,0,0,,,,,0,0,0,0,0,26,26,26,,,,,,,,,None,None,0,151.0943587999791,None,151.0943587999791,152.09437750000507,152.07770800008439,153.07772039994597,0,1,151.0943587999791,None,,,8,f,11,r,AB,2022_Jan_05_1923,WASABI Nback,2020.2.10,59.996532160066586,
0,1,6,"[0.2, 0]",None,0,0,0,0,,,,,0,0,0,0,0,27,27,27,,,,,,,,,None,None,0,153.09439509990625,None,153.09439509990625,154.0943927001208,154.07771959993988,155.0777402999811,0,1,153.09439509990625,None,,,8,f,11,r,AB,2022_Jan_05_1923,WASABI Nback,2020.2.10,59.996532160066586,
0,1,7,"[-0.2, -0.2]",None,0,0,0,0,,,,,0,0,0,0,0,28,28,28,,,,,,,,,None,None,0,155.0943954999093,None,155.0943954999093,156.09441479993984,156.07775459997356,157.07773700007237,0,1,155.0943954999093,None,,,8,f,11,r,AB,2022_Jan_05_1923,WASABI Nback,2020.2.10,59.996532160066586,
0,1,6,"[0.2, 0]",1,0,0,0,0,,,,,0,0,0,0,0,29,29,29,,,,,,,,,None,None,0,157.09441679995507,None,157.09441679995507,158.0944109999109,158.07775860000402,159.07775770011358,0,1,157.09441679995507,None,,,8,f,11,r,AB,2022_Jan_05_1923,WASABI Nback,2020.2.10,59.996532160066586,
0,1,6,"[0.2, 0]",None,0,0,0,0,,,,,0,0,0,0,0,30,30,30,,,,,,,,,None,None,0,159.09443830000237,None,159.09443830000237,160.0944320000708,160.0777553000953,161.07776600006036,0,1,159.09443830000237,None,,,8,f,11,r,AB,2022_Jan_05_1923,WASABI Nback,2020.2.10,59.996532160066586,
0,1,7,"[-0.2, -0.2]",None,0,0,0,0,,,,,0,0,0,0,0,31,31,31,,,,,,,,,None,None,0,161.0944574000314,None,161.0944574000314,162.09446489997208,162.0777817000635,163.0777962000575,0,1,161.0944574000314,None,,,8,f,11,r,AB,2022_Jan_05_1923,WASABI Nback,2020.2.10,59.996532160066586,
0,1,6,"[0.2, 0]",1,0,0,0,0,,,,,0,0,0,0,0,32,32,32,,,,,,,,,None,None,0,163.09446089994162,None,163.09446089994162,164.09447350003757,164.07781199994497,165.07780490000732,0,1,163.09446089994162,None,,,8,f,11,r,AB,2022_Jan_05_1923,WASABI Nback,2020.2.10,59.996532160066586,
0,1,2,"[0, 0.2]",None,0,0,0,0,,,,,0,0,0,0,0,33,33,33,,,,,,,,,None,None,0,165.09449789999053,None,165.09449789999053,166.09449609997682,166.0778355000075,167.0778320999816,0,1,165.09449789999053,None,,,8,f,11,r,AB,2022_Jan_05_1923,WASABI Nback,2020.2.10,59.996532160066586,
0,1,5,"[0, 0]",None,0,0,0,0,,,,,0,0,0,0,0,34,34,34,,,,,,,,,None,None,0,167.0945081000682,None,167.0945081000682,168.09451680001803,168.07783859991468,169.0778347000014,0,1,167.0945081000682,None,,,8,f,11,r,AB,2022_Jan_05_1923,WASABI Nback,2020.2.10,59.996532160066586,
0,1,4,"[-0.2, 0]",None,0,0,0,0,,,,,0,0,0,0,0,35,35,35,,,,,,,,,None,None,0,169.0945196999237,None,169.0945196999237,170.09453199990094,170.07786020007916,171.07785940007307,0,1,169.0945196999237,None,,,8,f,11,r,AB,2022_Jan_05_1923,WASABI Nback,2020.2.10,59.996532160066586,
0,1,4,"[-0.2, 0]",None,0,0,0,0,,,,,0,0,0,0,0,36,36,36,,,,,,,,,None,None,0,171.0945385999512,None,171.0945385999512,172.0945552000776,172.07785709993914,173.0778836000245,0,1,171.0945385999512,None,,,8,f,11,r,AB,2022_Jan_05_1923,WASABI Nback,2020.2.10,59.996532160066586,
0,1,7,"[-0.2, -0.2]",None,0,0,0,0,,,,,0,0,0,0,0,37,37,37,,,,,,,,,None,None,0,173.09456120012328,None,173.09456120012328,174.0945985999424,174.07788090012036,175.0778808000032,0,1,173.09456120012328,None,,,8,f,11,r,AB,2022_Jan_05_1923,WASABI Nback,2020.2.10,59.996532160066586,
0,1,4,"[-0.2, 0]",1,0,0,0,0,,,,,0,0,0,0,0,38,38,38,,,,,,,,,None,None,0,175.09456610004418,None,175.09456610004418,176.09458100004122,176.07790499995463,177.07791280001402,0,1,175.09456610004418,None,,,8,f,11,r,AB,2022_Jan_05_1923,WASABI Nback,2020.2.10,59.996532160066586,
0,1,3,"[0.2, 0.2]",None,0,0,0,0,,,,,0,0,0,0,0,39,39,39,,,,,,,,,None,None,0,177.09458280005492,None,177.09458280005492,178.09458460006863,178.07794920005836,179.07793079991825,0,1,177.09458280005492,None,,,8,f,11,r,AB,2022_Jan_05_1923,WASABI Nback,2020.2.10,59.996532160066586,
0,1,5,"[0, 0]",None,0,0,0,0,,,,,0,0,0,0,0,40,40,40,,,,,,,,,None,None,0,179.09460949990898,None,179.09460949990898,180.09461429994553,180.07792819989845,181.0779462000355,0,1,179.09460949990898,None,,,8,f,11,r,AB,2022_Jan_05_1923,WASABI Nback,2020.2.10,59.996532160066586,
0,1,3,"[0.2, 0.2]",1,0,0,0,0,,,,,0,0,0,0,0,41,41,41,,,,,,,,,None,None,0,181.09462619991973,None,181.09462619991973,182.0946277999319,182.077961999923,183.07796279992908,0,1,181.09462619991973,None,,,8,f,11,r,AB,2022_Jan_05_1923,WASABI Nback,2020.2.10,59.996532160066586,
0,1,1,"[-0.2, 0.2]",None,0,0,0,0,,,,,0,0,0,0,0,42,42,42,,,,,,,,,None,None,0,183.09463730012067,None,183.09463730012067,184.09464140003547,184.07798129995354,185.07796659995802,0,1,183.09463730012067,None,,,8,f,11,r,AB,2022_Jan_05_1923,WASABI Nback,2020.2.10,59.996532160066586,
0,1,9,"[0.2, -0.2]",None,0,0,0,0,,,,,0,0,0,0,0,43,43,43,,,,,,,,,None,None,0,185.09463710011914,None,185.09463710011914,186.09465959994122,186.0779818999581,187.07799650006928,0,1,185.09463710011914,None,,,8,f,11,r,AB,2022_Jan_05_1923,WASABI Nback,2020.2.10,59.996532160066586,
0,1,9,"[0.2, -0.2]",None,0,0,0,0,,,,,0,0,0,0,0,44,44,44,,,,,,,,,None,None,0,187.09467840008438,None,187.09467840008438,188.09468410001136,188.07799859996885,189.07800430012867,0,1,187.09467840008438,None,,,8,f,11,r,AB,2022_Jan_05_1923,WASABI Nback,2020.2.10,59.996532160066586,
0,1,8,"[0, -0.2]",None,0,0,0,0,,,,,0,0,0,0,0,45,45,45,,,,,,,,,None,None,0,189.09466190007515,None,189.09466190007515,190.0947024000343,190.0780342000071,191.07801489997655,0,1,189.09466190007515,None,,,8,f,11,r,AB,2022_Jan_05_1923,WASABI Nback,2020.2.10,59.996532160066586,
0,1,6,"[0.2, 0]",None,0,0,0,0,,,,,0,0,0,0,0,46,46,46,,,,,,,,,None,None,0,191.09469619998708,None,191.09469619998708,192.09471209999174,192.07803410012275,193.0780315999873,0,1,191.09469619998708,None,,,8,f,11,r,AB,2022_Jan_05_1923,WASABI Nback,2020.2.10,59.996532160066586,
0,1,3,"[0.2, 0.2]",None,0,0,0,0,,,,,0,0,0,0,0,47,47,47,,,,,,,,,None,None,0,193.09472399996594,None,193.09472399996594,194.09471719991416,194.07804109994322,195.07805610005744,0,1,193.09472399996594,None,,,8,f,11,r,AB,2022_Jan_05_1923,WASABI Nback,2020.2.10,59.996532160066586,
0,1,6,"[0.2, 0]",1,0,0,0,0,,,,,0,0,0,0,0,48,48,48,,,,,,,,,None,None,0,195.09470769995824,None,195.09470769995824,196.09474670002237,196.07811399991624,197.07807990000583,0,1,195.09470769995824,None,,,8,f,11,r,AB,2022_Jan_05_1923,WASABI Nback,2020.2.10,59.996532160066586,
0,1,5,"[0, 0]",None,0,0,0,0,,,,,0,0,0,0,0,49,49,49,,,,,,,,,None,None,0,197.09474360011518,None,197.09474360011518,198.09475559997372,198.07808239990845,199.0780813000165,0,1,197.09474360011518,None,,,8,f,11,r,AB,2022_Jan_05_1923,WASABI Nback,2020.2.10,59.996532160066586,
0,1,7,"[-0.2, -0.2]",None,0,0,0,0,,,,,0,0,0,0,0,50,50,50,,,,,,,,,None,None,0,199.09476720006205,None,199.09476720006205,200.0947402000893,200.07809250010177,201.07810520008206,0,1,199.09476720006205,None,,,8,f,11,r,AB,2022_Jan_05_1923,WASABI Nback,2020.2.10,59.996532160066586,
0,1,5,"[0, 0]",1,0,0,0,0,,,,,0,0,0,0,0,51,51,51,,,,,,,,,None,None,0,201.0947853999678,None,201.0947853999678,202.09478579997085,202.07810729998164,203.07812749990262,0,1,201.0947853999678,None,,,8,f,11,r,AB,2022_Jan_05_1923,WASABI Nback,2020.2.10,59.996532160066586,
0,1,1,"[-0.2, 0.2]",None,0,0,0,0,,,,,0,0,0,0,0,52,52,52,,,,,,,,,None,None,0,203.0947887999937,None,203.0947887999937,204.09480910003185,204.0781276000198,205.07812949991785,0,1,203.0947887999937,None,,,8,f,11,r,AB,2022_Jan_05_1923,WASABI Nback,2020.2.10,59.996532160066586,
0,1,7,"[-0.2, -0.2]",None,0,0,0,0,,,,,0,0,0,0,0,53,53,53,,,,,,,,,None,None,0,205.09481610008515,None,205.09481610008515,206.09481150005013,206.078157100128,207.07814819994383,0,1,205.09481610008515,None,,,8,f,11,r,AB,2022_Jan_05_1923,WASABI Nback,2020.2.10,59.996532160066586,
0,1,9,"[0.2, -0.2]",None,0,0,0,0,,,,,0,0,0,0,0,54,54,54,,,,,,,,,None,None,0,207.09480719990097,None,207.09480719990097,208.0948316999711,208.07817000010982,209.0781757000368,0,1,207.09480719990097,None,,,8,f,11,r,AB,2022_Jan_05_1923,WASABI Nback,2020.2.10,59.996532160066586,
0,1,3,"[0.2, 0.2]",None,0,0,0,0,,,,,0,0,0,0,0,55,55,55,,,,,,,,,None,None,0,209.09484659996815,None,209.09484659996815,210.0948346001096,210.07818259997293,211.07818969991058,0,1,209.09484659996815,None,,,8,f,11,r,AB,2022_Jan_05_1923,WASABI Nback,2020.2.10,59.996532160066586,
0,1,9,"[0.2, -0.2]",1,0,0,0,0,,,,,0,0,0,0,0,56,56,56,,,,,,,,,None,None,0,211.09485700004734,None,211.09485700004734,212.0948747000657,212.07820419990458,213.0781382001005,0,1,211.09485700004734,None,,,8,f,11,r,AB,2022_Jan_05_1923,WASABI Nback,2020.2.10,59.996532160066586,
0,1,6,"[0.2, 0]",None,0,0,0,0,,,,,0,0,0,0,0,57,57,57,,,,,,,,,None,None,0,213.09486269997433,None,213.09486269997433,214.09488099999726,214.07821050006896,215.07823020010255,0,1,213.09486269997433,None,,,8,f,11,r,AB,2022_Jan_05_1923,WASABI Nback,2020.2.10,59.996532160066586,
0,1,2,"[0, 0.2]",None,0,0,0,0,,,,,0,0,0,0,0,58,58,58,,,,,,,,,None,None,0,215.0948967000004,None,215.0948967000004,216.09480750001967,216.0782314001117,217.07822989998385,0,1,215.0948967000004,None,,,8,f,11,r,AB,2022_Jan_05_1923,WASABI Nback,2020.2.10,59.996532160066586,
0,1,5,"[0, 0]",None,0,0,0,0,,,,,0,0,0,0,0,59,59,59,,,,,,,,,None,None,0,217.09491569991224,None,217.09491569991224,218.09492109995335,218.07825129991397,219.07825500005856,0,1,217.09491569991224,None,,,8,f,11,r,AB,2022_Jan_05_1923,WASABI Nback,2020.2.10,59.996532160066586,
0,1,5,"[0, 0]",None,0,0,0,0,,,,,0,0,0,0,0,60,60,60,,,,,,,,,None,None,0,219.0949156000279,None,219.0949156000279,220.09493659995496,220.07828340004198,221.07828089990653,0,1,219.0949156000279,None,,,8,f,11,r,AB,2022_Jan_05_1923,WASABI Nback,2020.2.10,59.996532160066586,
0,1,2,"[0, 0.2]",None,0,0,0,0,,,,,0,0,0,0,0,61,61,61,,,,,,,,,None,None,0,221.0949786999263,None,221.0949786999263,222.09495680010878,222.07827989989892,223.07828789995983,0,1,221.0949786999263,None,,,8,f,11,r,AB,2022_Jan_05_1923,WASABI Nback,2020.2.10,59.996532160066586,
0,1,6,"[0.2, 0]",None,0,0,0,0,,,,,0,0,0,0,0,62,62,62,,,,,,,,,None,None,0,223.0949663000647,None,223.0949663000647,224.0949637000449,224.07829009997658,225.07829659990966,0,1,223.0949663000647,None,,,8,f,11,r,AB,2022_Jan_05_1923,WASABI Nback,2020.2.10,59.996532160066586,
0,1,9,"[0.2, -0.2]",None,0,0,0,0,,,,,0,0,0,0,0,63,63,63,,,,,,,,,None,None,0,225.094965999946,None,225.094965999946,226.0949840999674,226.0783289000392,227.07832999993116,0,1,225.094965999946,None,,,8,f,11,r,AB,2022_Jan_05_1923,WASABI Nback,2020.2.10,59.996532160066586,
0,1,3,"[0.2, 0.2]",None,0,0,0,0,,,,,0,0,0,0,0,64,64,64,,,,,,,,,None,None,0,227.09498100006022,None,227.09498100006022,228.0949860000983,228.07833970012143,229.07833579997532,0,1,227.09498100006022,None,,,8,f,11,r,AB,2022_Jan_05_1923,WASABI Nback,2020.2.10,59.996532160066586,
0,1,9,"[0.2, -0.2]",1,0,0,0,0,,,,,0,0,0,0,0,65,65,65,,,,,,,,,None,None,0,229.09493379993364,None,229.09493379993364,230.0950104999356,230.07835280010477,231.07835590001196,0,0,229.09493379993364,None,,,8,f,11,r,AB,2022_Jan_05_1923,WASABI Nback,2020.2.10,59.996532160066586,
0,1,7,"[-0.2, -0.2]",None,0,0,0,0,,,,,0,0,0,0,0,66,66,66,,,,,,,,,None,None,0,231.09503250010312,None,231.09503250010312,232.0950372000225,232.07836450007744,233.07836970011704,0,1,231.09503250010312,None,,,8,f,11,r,AB,2022_Jan_05_1923,WASABI Nback,2020.2.10,59.996532160066586,
0,1,1,"[-0.2, 0.2]",None,0,0,0,0,,,,,0,0,0,0,0,67,67,67,,,,,,,,,None,None,0,233.09504449996166,None,233.09504449996166,234.0950329999905,234.07838200009428,235.078395599965,0,1,233.09504449996166,None,,,8,f,11,r,AB,2022_Jan_05_1923,WASABI Nback,2020.2.10,59.996532160066586,
0,1,5,"[0, 0]",None,0,0,0,0,,,,,0,0,0,0,0,68,68,68,,,,,,,,,None,None,0,235.09505750006065,None,235.09505750006065,236.09507529996336,236.07840100000612,237.07840709993616,0,1,235.09505750006065,None,,,8,f,11,r,AB,2022_Jan_05_1923,WASABI Nback,2020.2.10,59.996532160066586,
0,1,7,"[-0.2, -0.2]",None,0,0,0,0,,,,,0,0,0,0,0,69,69,69,,,,,,,,,None,None,0,237.09508250001818,None,237.09508250001818,238.0950782999862,238.07840900006704,239.0784308000002,0,1,237.09508250001818,None,,,8,f,11,r,AB,2022_Jan_05_1923,WASABI Nback,2020.2.10,59.996532160066586,
0,1,5,"[0, 0]",1,0,0,0,0,,,,,0,0,0,0,0,70,70,70,,,,,,,,,None,None,0,239.09508259990253,None,239.09508259990253,240.0951034000609,240.078456700081,241.07844630000181,0,1,239.09508259990253,None,,,8,f,11,r,AB,2022_Jan_05_1923,WASABI Nback,2020.2.10,59.996532160066586,
0,1,6,"[0.2, 0]",None,0,0,0,0,,,,,0,0,0,0,0,71,71,71,,,,,,,,,None,None,0,241.09510200005025,None,241.09510200005025,242.09510640008375,242.0784549000673,243.07845910009928,0,1,241.09510200005025,None,,,8,f,11,r,AB,2022_Jan_05_1923,WASABI Nback,2020.2.10,59.996532160066586,
0,1,3,"[0.2, 0.2]",None,0,0,0,0,,,,,0,0,0,0,0,72,72,72,,,,,,,,,None,None,0,243.09513380005956,None,243.09513380005956,244.09513849997893,244.078460900113,245.07850500009954,0,1,243.09513380005956,None,,,8,f,11,r,AB,2022_Jan_05_1923,WASABI Nback,2020.2.10,59.996532160066586,
0,1,6,"[0.2, 0]",1,0,0,0,0,,,,,0,0,0,0,0,73,73,73,,,,,,,,,None,None,0,245.09513480006717,None,245.09513480006717,246.09515370009467,246.07847780012526,247.07848859997466,0,1,245.09513480006717,None,,,8,f,11,r,AB,2022_Jan_05_1923,WASABI Nback,2020.2.10,59.996532160066586,
0,1,8,"[0, -0.2]",None,0,0,0,0,,,,,0,0,0,0,0,74,74,74,,,,,,,,,None,None,0,247.09515419998206,None,247.09515419998206,248.09516069991514,248.07849050010554,249.07851519994438,0,1,247.09515419998206,None,,,8,f,11,r,AB,2022_Jan_05_1923,WASABI Nback,2020.2.10,59.996532160066586,
0,1,9,"[0.2, -0.2]",None,0,0,0,0,,,,,0,0,0,0,0,75,75,75,,,,,,,,,None,None,0,249.09518030006438,None,249.09518030006438,250.09519080002792,250.07851350004785,251.07853340008296,0,1,249.09518030006438,None,,,8,f,11,r,AB,2022_Jan_05_1923,WASABI Nback,2020.2.10,59.996532160066586,
0,1,9,"[0.2, -0.2]",None,0,0,0,0,,,,,0,0,0,0,0,76,76,76,,,,,,,,,None,None,0,251.09518510010093,None,251.09518510010093,252.09520029998384,252.07852949993685,253.07853360008448,0,1,251.09518510010093,None,,,8,f,11,r,AB,2022_Jan_05_1923,WASABI Nback,2020.2.10,59.996532160066586,
0,1,1,"[-0.2, 0.2]",None,0,0,0,0,,,,,0,0,0,0,0,77,77,77,,,,,,,,,None,None,0,253.09511770005338,None,253.09511770005338,254.0952087000478,254.07855070009828,255.07854810007848,0,1,253.09511770005338,None,,,8,f,11,r,AB,2022_Jan_05_1923,WASABI Nback,2020.2.10,59.996532160066586,
0,1,3,"[0.2, 0.2]",None,0,0,0,0,,,,,0,0,0,0,0,78,78,78,,,,,,,,,None,None,0,255.09522849996574,None,255.09522849996574,256.0952455000952,256.07857170002535,257.07859649998136,0,1,255.09522849996574,None,,,8,f,11,r,AB,2022_Jan_05_1923,WASABI Nback,2020.2.10,59.996532160066586,
0,1,5,"[0, 0]",None,0,0,0,0,,,,,0,0,0,0,0,79,79,79,,,,,,,,,None,None,0,257.09525460004807,None,257.09525460004807,258.0952353000175,258.078589099925,259.0786065000575,0,1,257.09525460004807,None,,,8,f,11,r,AB,2022_Jan_05_1923,WASABI Nback,2020.2.10,59.996532160066586,
0,1,3,"[0.2, 0.2]",1,0,0,0,0,,,,,0,0,0,0,0,80,80,80,,,,,,,,,None,None,0,259.09525520005263,None,259.09525520005263,260.095272900071,260.0786045000423,261.0786045999266,0,1,259.09525520005263,None,,,8,f,11,r,AB,2022_Jan_05_1923,WASABI Nback,2020.2.10,59.996532160066586,
0,1,4,"[-0.2, 0]",None,0,0,0,0,,,,,0,0,0,0,0,81,81,81,,,,,,,,,None,None,0,261.0952574000694,None,261.0952574000694,262.09529029997066,262.07861540000886,263.0786007998977,0,1,261.0952574000694,None,,,8,f,11,r,AB,2022_Jan_05_1923,WASABI Nback,2020.2.10,59.996532160066586,
0,1,7,"[-0.2, -0.2]",None,0,0,0,0,,,,,0,0,0,0,0,82,82,82,,,,,,,,,None,None,0,263.095297700027,None,263.095297700027,264.0953009999357,264.078644500114,265.07864800002426,0,1,263.095297700027,None,,,8,f,11,r,AB,2022_Jan_05_1923,WASABI Nback,2020.2.10,59.996532160066586,
0,1,4,"[-0.2, 0]",1,0,0,0,0,,,,,0,0,0,0,0,83,83,83,,,,,,,,,None,None,0,265.09533839998767,None,265.09533839998767,266.09532369999215,266.07865909999236,267.0786814999301,0,1,265.09533839998767,None,,,8,f,11,r,AB,2022_Jan_05_1923,WASABI Nback,2020.2.10,59.996532160066586,
0,1,4,"[-0.2, 0]",None,0,0,0,0,,,,,0,0,0,0,0,84,84,84,,,,,,,,,None,None,0,267.0953265998978,None,267.0953265998978,268.09533590008505,268.0787084000185,269.078674599994,0,1,267.0953265998978,None,,,8,f,11,r,AB,2022_Jan_05_1923,WASABI Nback,2020.2.10,59.996532160066586,
0,1,5,"[0, 0]",None,0,0,0,0,,,,,0,0,0,0,0,85,85,85,,,,,,,,,None,None,0,269.09534749994054,None,269.09534749994054,270.0953321000561,270.0786814999301,271.07867099996656,0,1,269.09534749994054,None,,,8,f,11,r,AB,2022_Jan_05_1923,WASABI Nback,2020.2.10,59.996532160066586,
0,1,2,"[0, 0.2]",None,0,0,0,0,,,,,0,0,0,0,0,86,86,86,,,,,,,,,None,None,0,271.0953639000654,None,271.0953639000654,272.0953607999254,272.0786989000626,273.07870210008696,0,1,271.0953639000654,None,,,8,f,11,r,AB,2022_Jan_05_1923,WASABI Nback,2020.2.10,59.996532160066586,
0,1,6,"[0.2, 0]",None,0,0,0,0,,,,,0,0,0,0,0,87,87,87,,,,,,,,,None,None,0,273.09538189996965,None,273.09538189996965,274.0953862001188,274.07871820009314,275.07873710012063,0,1,273.09538189996965,None,,,8,f,11,r,AB,2022_Jan_05_1923,WASABI Nback,2020.2.10,59.996532160066586,
0,1,7,"[-0.2, -0.2]",None,0,0,0,0,,,,,0,0,0,0,0,88,88,88,,,,,,,,,None,None,0,275.09539199993014,None,275.09539199993014,276.0954017001204,276.07874009991065,277.07874220004305,0,1,275.09539199993014,None,,,8,f,11,r,AB,2022_Jan_05_1923,WASABI Nback,2020.2.10,59.996532160066586,
0,1,6,"[0.2, 0]",1,0,0,0,0,,,,,0,0,0,0,0,89,89,89,,,,,,,,,None,None,0,277.09540180000477,None,277.09540180000477,278.0954118000809,278.07874820008874,279.0787623000797,0,1,277.09540180000477,None,,,8,f,11,r,AB,2022_Jan_05_1923,WASABI Nback,2020.2.10,59.996532160066586,
0,1,6,"[0.2, 0]",None,0,0,0,0,,,,,0,0,0,0,0,90,90,90,,,,,,,,,None,None,0,279.09542930009775,None,279.09542930009775,280.0954384000506,280.0787730999291,281.07878129999153,0,1,279.09542930009775,None,,,8,f,11,r,AB,2022_Jan_05_1923,WASABI Nback,2020.2.10,59.996532160066586,
0,1,7,"[-0.2, -0.2]",None,0,0,0,0,,,,,0,0,0,0,0,91,91,91,,,,,,,,,None,None,0,281.0954623001162,None,281.0954623001162,282.09545899997465,282.07877720007673,283.0788032999262,0,1,281.0954623001162,None,,,8,f,11,r,AB,2022_Jan_05_1923,WASABI Nback,2020.2.10,59.996532160066586,
0,1,6,"[0.2, 0]",1,0,0,0,0,,,,,0,0,0,0,0,92,92,92,,,,,,,,,None,None,0,283.09544089995325,None,283.09544089995325,284.09546860004775,284.07880969997495,285.07879350008443,0,1,283.09544089995325,None,,,8,f,11,r,AB,2022_Jan_05_1923,WASABI Nback,2020.2.10,59.996532160066586,
0,1,2,"[0, 0.2]",None,0,0,0,0,,,,,0,0,0,0,0,93,93,93,,,,,,,,,None,None,0,285.09547629998997,None,285.09547629998997,286.0954781000037,286.0788116999902,287.07882960001007,0,1,285.09547629998997,None,,,8,f,11,r,AB,2022_Jan_05_1923,WASABI Nback,2020.2.10,59.996532160066586,
0,1,5,"[0, 0]",None,0,0,0,0,,,,,0,0,0,0,0,94,94,94,,,,,,,,,None,None,0,287.0954923001118,None,287.0954923001118,288.09548330004327,288.0788269001059,289.0788408999797,0,1,287.0954923001118,None,,,8,f,11,r,AB,2022_Jan_05_1923,WASABI Nback,2020.2.10,59.996532160066586,
0,1,4,"[-0.2, 0]",None,0,0,0,0,,,,,0,0,0,0,0,95,95,95,,,,,,,,,None,None,0,289.09550189995207,None,289.09550189995207,290.0955215001013,290.07886249991134,291.07887959992513,0,1,289.09550189995207,None,,,8,f,11,r,AB,2022_Jan_05_1923,WASABI Nback,2020.2.10,59.996532160066586,
0,1,4,"[-0.2, 0]",None,0,0,0,0,,,,,0,0,0,0,0,96,96,96,,,,,,,,,None,None,0,291.09550540009513,None,291.09550540009513,292.0955330999568,292.0788753000088,293.0788755000103,0,1,291.09550540009513,None,,,8,f,11,r,AB,2022_Jan_05_1923,WASABI Nback,2020.2.10,59.996532160066586,
0,1,7,"[-0.2, -0.2]",None,0,0,0,0,,,,,0,0,0,0,0,97,97,97,,,,,,,,,None,None,0,293.09554459992796,None,293.09554459992796,294.0955314999446,294.0788718999829,295.0788775999099,0,1,293.09554459992796,None,,,8,f,11,r,AB,2022_Jan_05_1923,WASABI Nback,2020.2.10,59.996532160066586,
0,1,4,"[-0.2, 0]",1,0,0,0,0,,,,,0,0,0,0,0,98,98,98,,,,,,,,,None,None,0,295.0955521001015,None,295.0955521001015,296.0955791999586,296.07888950011693,297.07890830002725,0,1,295.0955521001015,None,,,8,f,11,r,AB,2022_Jan_05_1923,WASABI Nback,2020.2.10,59.996532160066586,
0,1,3,"[0.2, 0.2]",None,0,0,0,0,,,,,0,0,0,0,0,99,99,99,,,,,,,,,None,None,0,297.0955419000238,None,297.0955419000238,298.09557910007425,298.07891610008664,299.0789252000395,0,1,297.0955419000238,None,,,8,f,11,r,AB,2022_Jan_05_1923,WASABI Nback,2020.2.10,59.996532160066586,
0,1,5,"[0, 0]",None,0,0,0,0,,,,,0,0,0,0,0,100,100,100,,,,,,,,,None,None,0,299.0955900999252,None,299.0955900999252,300.09560699993744,300.07892920007,301.07894679997116,0,1,299.0955900999252,None,,,8,f,11,r,AB,2022_Jan_05_1923,WASABI Nback,2020.2.10,59.996532160066586,
0,1,3,"[0.2, 0.2]",1,0,0,0,0,,,,,0,0,0,0,0,101,101,101,,,,,,,,,None,None,0,301.0956162000075,None,301.0956162000075,302.09562949999236,302.0789389000274,303.078945599962,0,1,301.0956162000075,None,,,8,f,11,r,AB,2022_Jan_05_1923,WASABI Nback,2020.2.10,59.996532160066586,
0,1,1,"[-0.2, 0.2]",None,0,0,0,0,,,,,0,0,0,0,0,102,102,102,,,,,,,,,None,None,0,303.0956260000821,None,303.0956260000821,304.0956449001096,304.0789608999621,305.07897330005653,0,1,303.0956260000821,None,,,8,f,11,r,AB,2022_Jan_05_1923,WASABI Nback,2020.2.10,59.996532160066586,
0,1,9,"[0.2, -0.2]",None,0,0,0,0,,,,,0,0,0,0,0,103,103,103,,,,,,,,,None,None,0,305.0956335000228,None,305.0956335000228,306.09565429994836,306.07897790009156,307.07899049995467,0,1,305.0956335000228,None,,,8,f,11,r,AB,2022_Jan_05_1923,WASABI Nback,2020.2.10,59.996532160066586,
0,1,9,"[0.2, -0.2]",None,0,0,0,0,,,,,0,0,0,0,0,104,104,104,,,,,,,,,None,None,0,307.09567239996977,None,307.09567239996977,308.09567070007324,308.07899140007794,309.0790057000704,0,1,307.09567239996977,None,,,8,f,11,r,AB,2022_Jan_05_1923,WASABI Nback,2020.2.10,59.996532160066586,
0,1,8,"[0, -0.2]",None,0,0,0,0,,,,,0,0,0,0,0,105,105,105,,,,,,,,,None,None,0,309.0956798000261,None,309.0956798000261,310.0956864000764,310.079006300075,311.0790115001146,0,1,309.0956798000261,None,,,8,f,11,r,AB,2022_Jan_05_1923,WASABI Nback,2020.2.10,59.996532160066586,
0,1,6,"[0.2, 0]",None,0,0,0,0,,,,,0,0,0,0,0,106,106,106,,,,,,,,,None,None,0,311.0956896999851,None,311.0956896999851,312.09570889989845,312.0790218000766,313.0790363000706,0,1,311.0956896999851,None,,,8,f,11,r,AB,2022_Jan_05_1923,WASABI Nback,2020.2.10,59.996532160066586,
0,1,3,"[0.2, 0.2]",None,0,0,0,0,,,,,0,0,0,0,0,107,107,107,,,,,,,,,None,None,0,313.0957051999867,None,313.0957051999867,314.0957132000476,314.0790383000858,315.07905289996415,0,1,313.0957051999867,None,,,8,f,11,r,AB,2022_Jan_05_1923,WASABI Nback,2020.2.10,59.996532160066586,
0,1,6,"[0.2, 0]",1,0,0,0,0,,,,,0,0,0,0,0,108,108,108,,,,,,,,,None,None,0,315.09572879993357,None,315.09572879993357,316.0957452999428,316.0790639000479,317.07906090002507,0,1,315.09572879993357,None,,,8,f,11,r,AB,2022_Jan_05_1923,WASABI Nback,2020.2.10,59.996532160066586,
0,1,5,"[0, 0]",None,0,0,0,0,,,,,0,0,0,0,0,109,109,109,,,,,,,,,None,None,0,317.09575380012393,None,317.09575380012393,318.0957657999825,318.07907769992016,319.0790802000556,0,1,317.09575380012393,None,,,8,f,11,r,AB,2022_Jan_05_1923,WASABI Nback,2020.2.10,59.996532160066586,
0,1,7,"[-0.2, -0.2]",None,0,0,0,0,,,,,0,0,0,0,0,110,110,110,,,,,,,,,None,None,0,319.09575990005396,None,319.09575990005396,320.095765999984,320.0791007000953,321.079099399969,0,1,319.09575990005396,None,,,8,f,11,r,AB,2022_Jan_05_1923,WASABI Nback,2020.2.10,59.996532160066586,
0,1,5,"[0, 0]",1,0,0,0,0,,,,,0,0,0,0,0,111,111,111,,,,,,,,,None,None,0,321.0957812999841,None,321.0957812999841,322.09578599990346,322.07910290011205,323.079131500097,0,1,321.0957812999841,None,,,8,f,11,r,AB,2022_Jan_05_1923,WASABI Nback,2020.2.10,59.996532160066586,
0,1,1,"[-0.2, 0.2]",None,0,0,0,0,,,,,0,0,0,0,0,112,112,112,,,,,,,,,None,None,0,323.09580129990354,None,323.09580129990354,324.0958171999082,324.0791450000834,325.07913130009547,0,1,323.09580129990354,None,,,8,f,11,r,AB,2022_Jan_05_1923,WASABI Nback,2020.2.10,59.996532160066586,
0,1,7,"[-0.2, -0.2]",None,0,0,0,0,,,,,0,0,0,0,0,113,113,113,,,,,,,,,None,None,0,325.095808400074,None,325.095808400074,326.09582330007106,326.07914990000427,327.07914320006967,0,1,325.095808400074,None,,,8,f,11,r,AB,2022_Jan_05_1923,WASABI Nback,2020.2.10,59.996532160066586,
0,1,9,"[0.2, -0.2]",None,0,0,0,0,,,,,0,0,0,0,0,114,114,114,,,,,,,,,None,None,0,327.0958305001259,None,327.0958305001259,328.09583940007724,328.0791539999191,329.0791605999693,0,1,327.0958305001259,None,,,8,f,11,r,AB,2022_Jan_05_1923,WASABI Nback,2020.2.10,59.996532160066586,
0,1,3,"[0.2, 0.2]",None,0,0,0,0,,,,,0,0,0,0,0,115,115,115,,,,,,,,,None,None,0,329.0958529000636,None,329.0958529000636,330.09585330006666,330.07916680001654,331.07918490003794,0,1,329.0958529000636,None,,,8,f,11,r,AB,2022_Jan_05_1923,WASABI Nback,2020.2.10,59.996532160066586,
0,1,9,"[0.2, -0.2]",1,0,0,0,0,,,,,0,0,0,0,0,116,116,116,,,,,,,,,None,None,0,331.09586860006675,None,331.09586860006675,332.09587400010787,332.07920449995436,333.0792000000365,0,1,331.09586860006675,None,,,8,f,11,r,AB,2022_Jan_05_1923,WASABI Nback,2020.2.10,59.996532160066586,
0,1,6,"[0.2, 0]",None,0,0,0,0,,,,,0,0,0,0,0,117,117,117,,,,,,,,,None,None,0,333.09588390006684,None,333.09588390006684,334.0958948000334,334.0792076999787,335.0792125998996,0,1,333.09588390006684,None,,,8,f,11,r,AB,2022_Jan_05_1923,WASABI Nback,2020.2.10,59.996532160066586,
0,1,2,"[0, 0.2]",None,0,0,0,0,,,,,0,0,0,0,0,118,118,118,,,,,,,,,None,None,0,335.0959028999787,None,335.0959028999787,336.0959032999817,336.07921999995597,337.0792439999059,0,1,335.0959028999787,None,,,8,f,11,r,AB,2022_Jan_05_1923,WASABI Nback,2020.2.10,59.996532160066586,
0,1,5,"[0, 0]",None,0,0,0,0,,,,,0,0,0,0,0,119,119,119,,,,,,,,,None,None,0,337.09591650008224,None,337.09591650008224,338.09592649992555,338.07923660008237,339.079252100084,0,1,337.09591650008224,None,,,8,f,11,r,AB,2022_Jan_05_1923,WASABI Nback,2020.2.10,59.996532160066586,
1,0,,,,0,1,1,1,0,0,0,0,,,,,,,,,,,,,,,,,,,,,,,,,,,,,,371.32953079999425,None,8,f,11,r,AB,2022_Jan_05_1923,WASABI Nback,2020.2.10,59.996532160066586,
