RestT1,TaskT1,square,location,corrAns,counterbalancer.thisRepN,counterbalancer.thisTrialN,counterbalancer.thisN,counterbalancer.thisIndex,RestT1Loop.thisRepN,RestT1Loop.thisTrialN,RestT1Loop.thisN,RestT1Loop.thisIndex,TaskT1Loop.thisRepN,TaskT1Loop.thisTrialN,TaskT1Loop.thisN,TaskT1Loop.thisIndex,trials_2.thisRepN,trials_2.thisTrialN,trials_2.thisN,trials_2.thisIndex,fixation_1.started,fixation_1.stopped,NbackInstructions.started,NbackInstructions.stopped,NbackStart.keys,NbackStart.rt,NbackStart.started,NbackStart.stopped,fixation_2.started,fixation_2.stopped,response_2.x,response_2.y,response_2.leftButton,grid_lines_2.started,grid_lines_2.stopped,target_square_2.started,target_square_2.stopped,fixation_3.started,fixation_3.stopped,response_2.click,response_2.corr,response_2.started,response_2.stopped,subject number,gender,session,handedness,scanner,date,expName,psychopyVersion,frameRate,
1,0,,,,0,0,0,0,0,0,0,0,,,,,,,,,67.87035470001865,None,,,,,,,,,,,,,,,,,,,,,,7,f,11,r,ARB,2022_Mar_01_1131,WASABI Nback,2020.2.10,60.009817625031054,
0,1,,,,0,1,1,1,,,,,0,0,0,0,,,,,,,343.20579700008966,None,space,32.48080379993189,343.20579700008966,None,,,,,,,,,,,,,,,,7,f,11,r,ARB,2022_Mar_01_1131,WASABI Nback,2020.2.10,60.009817625031054,
0,1,5,"[0, 0]",None,0,1,1,1,,,,,0,0,0,0,0,0,0,0,,,,,,,,,None,None,None,None,[],None,None,None,None,None,None,[],[],None,None,7,f,11,r,ARB,2022_Mar_01_1131,WASABI Nback,2020.2.10,60.009817625031054,
0,1,2,"[0, 0.2]",None,0,1,1,1,,,,,0,0,0,0,0,1,1,1,,,,,,,,,,,None,None,[],None,None,None,None,None,None,[],[],None,None,7,f,11,r,ARB,2022_Mar_01_1131,WASABI Nback,2020.2.10,60.009817625031054,
0,1,6,"[0.2, 0]",None,0,1,1,1,,,,,0,0,0,0,0,2,2,2,,,,,,,,,,,None,None,[],None,None,None,None,None,None,[],[],None,None,7,f,11,r,ARB,2022_Mar_01_1131,WASABI Nback,2020.2.10,60.009817625031054,
0,1,9,"[0.2, -0.2]",None,0,1,1,1,,,,,0,0,0,0,0,3,3,3,,,,,,,,,,,None,None,[],None,None,None,None,None,None,[],[],None,None,7,f,11,r,ARB,2022_Mar_01_1131,WASABI Nback,2020.2.10,60.009817625031054,
0,1,3,"[0.2, 0.2]",None,0,1,1,1,,,,,0,0,0,0,0,4,4,4,,,,,,,,,,,None,None,[],None,None,None,None,None,None,[],[],None,None,7,f,11,r,ARB,2022_Mar_01_1131,WASABI Nback,2020.2.10,60.009817625031054,
0,1,9,"[0.2, -0.2]",1,0,1,1,1,,,,,0,0,0,0,0,5,5,5,,,,,,,,,,,None,None,[],None,None,None,None,None,None,[],[],None,None,7,f,11,r,ARB,2022_Mar_01_1131,WASABI Nback,2020.2.10,60.009817625031054,
0,1,7,"[-0.2, -0.2]",None,0,1,1,1,,,,,0,0,0,0,0,6,6,6,,,,,,,,,,,None,None,[],None,None,None,None,None,None,[],[],None,None,7,f,11,r,ARB,2022_Mar_01_1131,WASABI Nback,2020.2.10,60.009817625031054,
0,1,1,"[-0.2, 0.2]",None,0,1,1,1,,,,,0,0,0,0,0,7,7,7,,,,,,,,,,,None,None,[],None,None,None,None,None,None,[],[],None,None,7,f,11,r,ARB,2022_Mar_01_1131,WASABI Nback,2020.2.10,60.009817625031054,
0,1,5,"[0, 0]",None,0,1,1,1,,,,,0,0,0,0,0,8,8,8,,,,,,,,,,,None,None,0,393.0728666000068,None,393.0728666000068,394.07281200005673,394.0561416000128,None,0,1,393.0728666000068,None,7,f,11,r,ARB,2022_Mar_01_1131,WASABI Nback,2020.2.10,60.009817625031054,
0,1,7,"[-0.2, -0.2]",None,0,1,1,1,,,,,0,0,0,0,0,9,9,9,,,,,,,,,,,None,None,0,394.7228511000285,None,394.7228511000285,395.72283600002993,395.7060724000912,396.7062005000189,0,1,394.7228511000285,None,7,f,11,r,ARB,2022_Mar_01_1131,WASABI Nback,2020.2.10,60.009817625031054,
0,1,5,"[0, 0]",1,0,1,1,1,,,,,0,0,0,0,0,10,10,10,,,,,,,,,,,None,None,0,396.7228465999942,None,396.7228465999942,397.7228201000253,397.70617350004613,398.70617790007964,0,0,396.7228465999942,None,7,f,11,r,ARB,2022_Mar_01_1131,WASABI Nback,2020.2.10,60.009817625031054,
0,1,6,"[0.2, 0]",None,0,1,1,1,,,,,0,0,0,0,0,11,11,11,,,,,,,,,,,None,None,0,398.72287320008036,None,398.72287320008036,399.72285380004905,399.70621640002355,400.70620220003184,0,0,398.72287320008036,None,7,f,11,r,ARB,2022_Mar_01_1131,WASABI Nback,2020.2.10,60.009817625031054,
0,1,3,"[0.2, 0.2]",None,0,1,1,1,,,,,0,0,0,0,0,12,12,12,,,,,,,,,,,None,None,0,400.7228610999882,None,400.7228610999882,401.7228819000302,401.7062018000288,402.70626500004437,0,1,400.7228610999882,None,7,f,11,r,ARB,2022_Mar_01_1131,WASABI Nback,2020.2.10,60.009817625031054,
0,1,6,"[0.2, 0]",1,0,1,1,1,,,,,0,0,0,0,0,13,13,13,,,,,,,,,,,None,None,0,402.7228788000066,None,402.7228788000066,403.7229010000592,403.7062214000616,404.7062393000815,0,1,402.7228788000066,None,7,f,11,r,ARB,2022_Mar_01_1131,WASABI Nback,2020.2.10,60.009817625031054,
0,1,8,"[0, -0.2]",None,0,1,1,1,,,,,0,0,0,0,0,14,14,14,,,,,,,,,,,None,None,0,404.7229047000874,None,404.7229047000874,405.7229007000569,405.70624590001535,406.70623970008455,0,1,404.7229047000874,None,7,f,11,r,ARB,2022_Mar_01_1131,WASABI Nback,2020.2.10,60.009817625031054,
0,1,9,"[0.2, -0.2]",None,0,1,1,1,,,,,0,0,0,0,0,15,15,15,,,,,,,,,,,None,None,0,406.7229096000083,None,406.7229096000083,407.72292470000684,407.7062733999919,408.7062194000464,0,1,406.7229096000083,None,7,f,11,r,ARB,2022_Mar_01_1131,WASABI Nback,2020.2.10,60.009817625031054,
0,1,9,"[0.2, -0.2]",None,0,1,1,1,,,,,0,0,0,0,0,16,16,16,,,,,,,,,,,None,None,0,408.72294770006556,None,408.72294770006556,409.72294900007546,409.7062861000886,410.7062983000651,0,1,408.72294770006556,None,7,f,11,r,ARB,2022_Mar_01_1131,WASABI Nback,2020.2.10,60.009817625031054,
0,1,1,"[-0.2, 0.2]",None,0,1,1,1,,,,,0,0,0,0,0,17,17,17,,,,,,,,,,,None,None,0,410.72295190009754,None,410.72295190009754,411.7229856000049,411.7062921000179,412.70629630004987,0,1,410.72295190009754,None,7,f,11,r,ARB,2022_Mar_01_1131,WASABI Nback,2020.2.10,60.009817625031054,
0,1,3,"[0.2, 0.2]",None,0,1,1,1,,,,,0,0,0,0,0,18,18,18,,,,,,,,,,,None,None,0,412.7228632000042,None,412.7228632000042,413.7229692999972,413.7062946000369,414.7063136000652,0,1,412.7228632000042,None,7,f,11,r,ARB,2022_Mar_01_1131,WASABI Nback,2020.2.10,60.009817625031054,
0,1,5,"[0, 0]",None,0,1,1,1,,,,,0,0,0,0,0,19,19,19,,,,,,,,,,,None,None,0,414.72297000000253,None,414.72297000000253,415.72300080000423,415.70634730008896,416.70635069999844,0,1,414.72297000000253,None,7,f,11,r,ARB,2022_Mar_01_1131,WASABI Nback,2020.2.10,60.009817625031054,
0,1,3,"[0.2, 0.2]",1,0,1,1,1,,,,,0,0,0,0,0,20,20,20,,,,,,,,,,,None,None,0,416.72300510003697,None,416.72300510003697,417.7230094000697,417.7063169000903,418.70637270004954,0,1,416.72300510003697,None,7,f,11,r,ARB,2022_Mar_01_1131,WASABI Nback,2020.2.10,60.009817625031054,
0,1,4,"[-0.2, 0]",None,0,1,1,1,,,,,0,0,0,0,0,21,21,21,,,,,,,,,,,None,None,0,418.723024200066,None,418.723024200066,419.7230338000227,419.7063650999917,420.70636290009134,0,1,418.723024200066,None,7,f,11,r,ARB,2022_Mar_01_1131,WASABI Nback,2020.2.10,60.009817625031054,
0,1,7,"[-0.2, -0.2]",None,0,1,1,1,,,,,0,0,0,0,0,22,22,22,,,,,,,,,,,None,None,0,420.72300180001184,None,420.72300180001184,421.723043300095,421.7063800999895,422.7064023000421,0,1,420.72300180001184,None,7,f,11,r,ARB,2022_Mar_01_1131,WASABI Nback,2020.2.10,60.009817625031054,
0,1,4,"[-0.2, 0]",1,0,1,1,1,,,,,0,0,0,0,0,23,23,23,,,,,,,,,,,None,None,0,422.7230586000951,None,422.7230586000951,423.72305510006845,423.70638039999176,424.70642110006884,0,1,422.7230586000951,None,7,f,11,r,ARB,2022_Mar_01_1131,WASABI Nback,2020.2.10,60.009817625031054,
0,1,4,"[-0.2, 0]",None,0,1,1,1,,,,,0,0,0,0,0,24,24,24,,,,,,,,,,,None,None,0,424.72306930006016,None,424.72306930006016,425.7230728000868,425.7063880000496,426.70640060002916,0,1,424.72306930006016,None,7,f,11,r,ARB,2022_Mar_01_1131,WASABI Nback,2020.2.10,60.009817625031054,
0,1,5,"[0, 0]",None,0,1,1,1,,,,,0,0,0,0,0,25,25,25,,,,,,,,,,,None,None,0,426.72307140007615,None,426.72307140007615,427.7231008000672,427.7064404000994,428.7064210000681,0,1,426.72307140007615,None,7,f,11,r,ARB,2022_Mar_01_1131,WASABI Nback,2020.2.10,60.009817625031054,
0,1,2,"[0, 0.2]",None,0,1,1,1,,,,,0,0,0,0,0,26,26,26,,,,,,,,,,,None,None,0,428.7231150000589,None,428.7231150000589,429.72310530010145,429.706434700056,430.706464100047,0,1,428.7231150000589,None,7,f,11,r,ARB,2022_Mar_01_1131,WASABI Nback,2020.2.10,60.009817625031054,
0,1,6,"[0.2, 0]",None,0,1,1,1,,,,,0,0,0,0,0,27,27,27,,,,,,,,,,,None,None,0,430.72310599999037,None,430.72310599999037,431.72311280004214,431.70647000009194,432.7064592000097,0,1,430.72310599999037,None,7,f,11,r,ARB,2022_Mar_01_1131,WASABI Nback,2020.2.10,60.009817625031054,
0,1,7,"[-0.2, -0.2]",None,0,1,1,1,,,,,0,0,0,0,0,28,28,28,,,,,,,,,,,None,None,0,432.72312209999654,None,432.72312209999654,433.7231184000848,433.70636569999624,434.7064986000769,0,1,432.72312209999654,None,7,f,11,r,ARB,2022_Mar_01_1131,WASABI Nback,2020.2.10,60.009817625031054,
0,1,6,"[0.2, 0]",1,0,1,1,1,,,,,0,0,0,0,0,29,29,29,,,,,,,,,,,None,None,0,434.7231388000073,None,434.7231388000073,435.7231395000126,435.70649140002206,436.70648940000683,0,1,434.7231388000073,None,7,f,11,r,ARB,2022_Mar_01_1131,WASABI Nback,2020.2.10,60.009817625031054,
0,1,6,"[0.2, 0]",None,0,1,1,1,,,,,0,0,0,0,0,30,30,30,,,,,,,,,,,None,None,0,436.72315650002565,None,436.72315650002565,437.7231623000698,437.7064981000731,438.7065053000115,0,1,436.72315650002565,None,7,f,11,r,ARB,2022_Mar_01_1131,WASABI Nback,2020.2.10,60.009817625031054,
0,1,7,"[-0.2, -0.2]",None,0,1,1,1,,,,,0,0,0,0,0,31,31,31,,,,,,,,,,,None,None,0,438.72315960004926,None,438.72315960004926,439.723172100028,439.70645570009947,440.7065280000679,0,1,438.72315960004926,None,7,f,11,r,ARB,2022_Mar_01_1131,WASABI Nback,2020.2.10,60.009817625031054,
0,1,6,"[0.2, 0]",1,0,1,1,1,,,,,0,0,0,0,0,32,32,32,,,,,,,,,,,None,None,0,440.7231897000456,None,440.7231897000456,441.723181999987,441.7065254000481,442.7065441000741,0,1,440.7231897000456,None,7,f,11,r,ARB,2022_Mar_01_1131,WASABI Nback,2020.2.10,60.009817625031054,
0,1,2,"[0, 0.2]",None,0,1,1,1,,,,,0,0,0,0,0,33,33,33,,,,,,,,,,,None,None,0,442.7232048000442,None,442.7232048000442,443.7232617000118,443.70655090000946,444.7065491999965,0,1,442.7232048000442,None,7,f,11,r,ARB,2022_Mar_01_1131,WASABI Nback,2020.2.10,60.009817625031054,
0,1,5,"[0, 0]",None,0,1,1,1,,,,,0,0,0,0,0,34,34,34,,,,,,,,,,,None,None,0,444.723205300048,None,444.723205300048,445.72324810002465,445.70657500007655,446.7067058000248,0,1,444.723205300048,None,7,f,11,r,ARB,2022_Mar_01_1131,WASABI Nback,2020.2.10,60.009817625031054,
0,1,4,"[-0.2, 0]",None,0,1,1,1,,,,,0,0,0,0,0,35,35,35,,,,,,,,,,,None,None,0,446.7232549000764,None,446.7232549000764,447.72327910002787,447.70661720004864,448.70657660008874,0,1,446.7232549000764,None,7,f,11,r,ARB,2022_Mar_01_1131,WASABI Nback,2020.2.10,60.009817625031054,
0,1,4,"[-0.2, 0]",None,0,1,1,1,,,,,0,0,0,0,0,36,36,36,,,,,,,,,,,None,None,0,448.7232674000552,None,448.7232674000552,449.72323980007786,449.70659030007664,450.70661069999915,0,1,448.7232674000552,None,7,f,11,r,ARB,2022_Mar_01_1131,WASABI Nback,2020.2.10,60.009817625031054,
0,1,7,"[-0.2, -0.2]",None,0,1,1,1,,,,,0,0,0,0,0,37,37,37,,,,,,,,,,,None,None,0,450.7232519000536,None,450.7232519000536,451.72326360002626,451.7066223000875,452.7066277000122,0,1,450.7232519000536,None,7,f,11,r,ARB,2022_Mar_01_1131,WASABI Nback,2020.2.10,60.009817625031054,
0,1,4,"[-0.2, 0]",1,0,1,1,1,,,,,0,0,0,0,0,38,38,38,,,,,,,,,,,None,None,0,452.7232819000492,None,452.7232819000492,453.7232762000058,453.7066166000441,454.70664280001074,0,1,452.7232819000492,None,7,f,11,r,ARB,2022_Mar_01_1131,WASABI Nback,2020.2.10,60.009817625031054,
0,1,3,"[0.2, 0.2]",None,0,1,1,1,,,,,0,0,0,0,0,39,39,39,,,,,,,,,,,None,None,0,454.72330220008735,None,454.72330220008735,455.7232979000546,455.7066414000001,456.70664270001,0,1,454.72330220008735,None,7,f,11,r,ARB,2022_Mar_01_1131,WASABI Nback,2020.2.10,60.009817625031054,
0,1,5,"[0, 0]",None,0,1,1,1,,,,,0,0,0,0,0,40,40,40,,,,,,,,,,,None,None,0,456.7232985000592,None,456.7232985000592,457.7232892999891,457.7066673000809,458.70666090003215,0,1,456.7232985000592,None,7,f,11,r,ARB,2022_Mar_01_1131,WASABI Nback,2020.2.10,60.009817625031054,
0,1,3,"[0.2, 0.2]",1,0,1,1,1,,,,,0,0,0,0,0,41,41,41,,,,,,,,,,,None,None,0,458.72332079999615,None,458.72332079999615,459.7233478000853,459.70666580006946,460.70669250003994,0,1,458.72332079999615,None,7,f,11,r,ARB,2022_Mar_01_1131,WASABI Nback,2020.2.10,60.009817625031054,
0,1,1,"[-0.2, 0.2]",None,0,1,1,1,,,,,0,0,0,0,0,42,42,42,,,,,,,,,,,None,None,0,460.7233440000564,None,460.7233440000564,461.7233656999888,461.7066646000603,462.70663370005786,0,1,460.7233440000564,None,7,f,11,r,ARB,2022_Mar_01_1131,WASABI Nback,2020.2.10,60.009817625031054,
0,1,9,"[0.2, -0.2]",None,0,1,1,1,,,,,0,0,0,0,0,43,43,43,,,,,,,,,,,None,None,0,462.7233474000823,None,462.7233474000823,463.7233755000634,463.70669610006735,464.7066939000506,0,1,462.7233474000823,None,7,f,11,r,ARB,2022_Mar_01_1131,WASABI Nback,2020.2.10,60.009817625031054,
0,1,9,"[0.2, -0.2]",None,0,1,1,1,,,,,0,0,0,0,0,44,44,44,,,,,,,,,,,None,None,0,464.72336980002,None,464.72336980002,465.7233716000337,465.7067117000697,466.7067123000743,0,1,464.72336980002,None,7,f,11,r,ARB,2022_Mar_01_1131,WASABI Nback,2020.2.10,60.009817625031054,
0,1,8,"[0, -0.2]",None,0,1,1,1,,,,,0,0,0,0,0,45,45,45,,,,,,,,,,,None,None,0,466.723393100081,None,466.723393100081,467.7233809999889,467.7067397000501,468.70673330000136,0,1,466.723393100081,None,7,f,11,r,ARB,2022_Mar_01_1131,WASABI Nback,2020.2.10,60.009817625031054,
0,1,6,"[0.2, 0]",None,0,1,1,1,,,,,0,0,0,0,0,46,46,46,,,,,,,,,,,None,None,0,468.7234136000043,None,468.7234136000043,469.7234122999944,469.70674600009806,470.7066530000884,0,1,468.7234136000043,None,7,f,11,r,ARB,2022_Mar_01_1131,WASABI Nback,2020.2.10,60.009817625031054,
0,1,3,"[0.2, 0.2]",None,0,1,1,1,,,,,0,0,0,0,0,47,47,47,,,,,,,,,,,None,None,0,470.723426300101,None,470.723426300101,471.72344550001435,471.7067526000319,472.7067612000974,0,1,470.723426300101,None,7,f,11,r,ARB,2022_Mar_01_1131,WASABI Nback,2020.2.10,60.009817625031054,
0,1,6,"[0.2, 0]",1,0,1,1,1,,,,,0,0,0,0,0,48,48,48,,,,,,,,,,,None,None,0,472.72344600001816,None,472.72344600001816,473.7234453000128,473.7067708000541,474.70676590001676,0,1,472.72344600001816,None,7,f,11,r,ARB,2022_Mar_01_1131,WASABI Nback,2020.2.10,60.009817625031054,
0,1,5,"[0, 0]",None,0,1,1,1,,,,,0,0,0,0,0,49,49,49,,,,,,,,,,,None,None,0,474.72346600005403,None,474.72346600005403,475.72346670005936,475.7067818000214,476.70679100009147,0,0,474.72346600005403,None,7,f,11,r,ARB,2022_Mar_01_1131,WASABI Nback,2020.2.10,60.009817625031054,
0,1,7,"[-0.2, -0.2]",None,0,1,1,1,,,,,0,0,0,0,0,50,50,50,,,,,,,,,,,None,None,0,476.7234596000053,None,476.7234596000053,477.72347910003737,477.7068106000079,478.70680170005653,0,1,476.7234596000053,None,7,f,11,r,ARB,2022_Mar_01_1131,WASABI Nback,2020.2.10,60.009817625031054,
0,1,5,"[0, 0]",1,0,1,1,1,,,,,0,0,0,0,0,51,51,51,,,,,,,,,,,None,None,0,478.72349520004354,None,478.72349520004354,479.7234887999948,479.7068566000089,480.7068264000118,0,1,478.72349520004354,None,7,f,11,r,ARB,2022_Mar_01_1131,WASABI Nback,2020.2.10,60.009817625031054,
0,1,1,"[-0.2, 0.2]",None,0,1,1,1,,,,,0,0,0,0,0,52,52,52,,,,,,,,,,,None,None,0,480.7235035999911,None,480.7235035999911,481.72351670009084,481.70682469999883,482.70684590004385,0,1,480.7235035999911,None,7,f,11,r,ARB,2022_Mar_01_1131,WASABI Nback,2020.2.10,60.009817625031054,
0,1,7,"[-0.2, -0.2]",None,0,1,1,1,,,,,0,0,0,0,0,53,53,53,,,,,,,,,,,None,None,0,482.72347970004193,None,482.72347970004193,483.7235139000695,483.70684850006364,484.7068545999937,0,0,482.72347970004193,None,7,f,11,r,ARB,2022_Mar_01_1131,WASABI Nback,2020.2.10,60.009817625031054,
0,1,9,"[0.2, -0.2]",None,0,1,1,1,,,,,0,0,0,0,0,54,54,54,,,,,,,,,,,None,None,0,484.72353300009854,None,484.72353300009854,485.72354640008416,485.7068763000425,486.7068835000973,0,1,484.72353300009854,None,7,f,11,r,ARB,2022_Mar_01_1131,WASABI Nback,2020.2.10,60.009817625031054,
0,1,3,"[0.2, 0.2]",None,0,1,1,1,,,,,0,0,0,0,0,55,55,55,,,,,,,,,,,None,None,0,486.7235400000354,None,486.7235400000354,487.72356419998687,487.7068727000151,488.70688680000603,0,1,486.7235400000354,None,7,f,11,r,ARB,2022_Mar_01_1131,WASABI Nback,2020.2.10,60.009817625031054,
0,1,9,"[0.2, -0.2]",1,0,1,1,1,,,,,0,0,0,0,0,56,56,56,,,,,,,,,,,None,None,0,488.72356190008577,None,488.72356190008577,489.72356710000895,489.70689890009817,490.70689500006847,0,1,488.72356190008577,None,7,f,11,r,ARB,2022_Mar_01_1131,WASABI Nback,2020.2.10,60.009817625031054,
0,1,6,"[0.2, 0]",None,0,1,1,1,,,,,0,0,0,0,0,57,57,57,,,,,,,,,,,None,None,0,490.7235825000098,None,490.7235825000098,491.7235795999877,491.7069024000084,492.7069193000207,0,1,490.7235825000098,None,7,f,11,r,ARB,2022_Mar_01_1131,WASABI Nback,2020.2.10,60.009817625031054,
0,1,2,"[0, 0.2]",None,0,1,1,1,,,,,0,0,0,0,0,58,58,58,,,,,,,,,,,None,None,0,492.7236024000449,None,492.7236024000449,493.72360380005557,493.70683220005594,494.7069397000596,0,1,492.7236024000449,None,7,f,11,r,ARB,2022_Mar_01_1131,WASABI Nback,2020.2.10,60.009817625031054,
0,1,5,"[0, 0]",None,0,1,1,1,,,,,0,0,0,0,0,59,59,59,,,,,,,,,,,None,None,0,494.72362300008535,None,494.72362300008535,495.72362300008535,495.706953200046,496.70694140007254,0,1,494.72362300008535,None,7,f,11,r,ARB,2022_Mar_01_1131,WASABI Nback,2020.2.10,60.009817625031054,
0,1,5,"[0, 0]",None,0,1,1,1,,,,,0,0,0,0,0,60,60,60,,,,,,,,,,,None,None,0,496.7236422999995,None,496.7236422999995,497.723625499988,497.7069528000429,498.70695870008785,0,1,496.7236422999995,None,7,f,11,r,ARB,2022_Mar_01_1131,WASABI Nback,2020.2.10,60.009817625031054,
0,1,2,"[0, 0.2]",None,0,1,1,1,,,,,0,0,0,0,0,61,61,61,,,,,,,,,,,None,None,0,498.7236293000169,None,498.7236293000169,499.7236480000429,499.70699620002415,500.70698660006747,0,1,498.7236293000169,None,7,f,11,r,ARB,2022_Mar_01_1131,WASABI Nback,2020.2.10,60.009817625031054,
0,1,6,"[0.2, 0]",None,0,1,1,1,,,,,0,0,0,0,0,62,62,62,,,,,,,,,,,None,None,0,500.723649200052,None,500.723649200052,501.72366490005516,501.7069886000827,502.70698870008346,0,1,500.723649200052,None,7,f,11,r,ARB,2022_Mar_01_1131,WASABI Nback,2020.2.10,60.009817625031054,
0,1,9,"[0.2, -0.2]",None,0,1,1,1,,,,,0,0,0,0,0,63,63,63,,,,,,,,,,,None,None,0,502.7236818000674,None,502.7236818000674,503.72367109998595,503.7069997000508,504.70701740006916,0,1,502.7236818000674,None,7,f,11,r,ARB,2022_Mar_01_1131,WASABI Nback,2020.2.10,60.009817625031054,
0,1,3,"[0.2, 0.2]",None,0,1,1,1,,,,,0,0,0,0,0,64,64,64,,,,,,,,,,,None,None,0,504.72369860007893,None,504.72369860007893,505.7236984000774,505.70706220006105,506.70702359999996,0,1,504.72369860007893,None,7,f,11,r,ARB,2022_Mar_01_1131,WASABI Nback,2020.2.10,60.009817625031054,
0,1,9,"[0.2, -0.2]",1,0,1,1,1,,,,,0,0,0,0,0,65,65,65,,,,,,,,,,,None,None,0,506.7236984000774,None,506.7236984000774,507.723692700034,507.7070419000229,508.70704460004345,0,1,506.7236984000774,None,7,f,11,r,ARB,2022_Mar_01_1131,WASABI Nback,2020.2.10,60.009817625031054,
0,1,7,"[-0.2, -0.2]",None,0,1,1,1,,,,,0,0,0,0,0,66,66,66,,,,,,,,,,,None,None,0,508.7237158000935,None,508.7237158000935,509.7237194000045,509.7070453000488,510.7070722000208,0,1,508.7237158000935,None,7,f,11,r,ARB,2022_Mar_01_1131,WASABI Nback,2020.2.10,60.009817625031054,
0,1,1,"[-0.2, 0.2]",None,0,1,1,1,,,,,0,0,0,0,0,67,67,67,,,,,,,,,,,None,None,0,510.723745000083,None,510.723745000083,511.7237400000449,511.7070676999865,512.7071104000788,0,1,510.723745000083,None,7,f,11,r,ARB,2022_Mar_01_1131,WASABI Nback,2020.2.10,60.009817625031054,
0,1,5,"[0, 0]",None,0,1,1,1,,,,,0,0,0,0,0,68,68,68,,,,,,,,,,,None,None,0,512.7237509000115,None,512.7237509000115,513.7237421000609,513.7070771000581,514.707080900087,0,1,512.7237509000115,None,7,f,11,r,ARB,2022_Mar_01_1131,WASABI Nback,2020.2.10,60.009817625031054,
0,1,7,"[-0.2, -0.2]",None,0,1,1,1,,,,,0,0,0,0,0,69,69,69,,,,,,,,,,,None,None,0,514.7237664000131,None,514.7237664000131,515.7237566000549,515.7070899000391,516.7070952000795,0,0,514.7237664000131,None,7,f,11,r,ARB,2022_Mar_01_1131,WASABI Nback,2020.2.10,60.009817625031054,
0,1,5,"[0, 0]",1,0,1,1,1,,,,,0,0,0,0,0,70,70,70,,,,,,,,,,,None,None,0,516.7237615000922,None,516.7237615000922,517.7237931001,517.7071109000826,518.7071263000835,0,0,516.7237615000922,None,7,f,11,r,ARB,2022_Mar_01_1131,WASABI Nback,2020.2.10,60.009817625031054,
0,1,6,"[0.2, 0]",None,0,1,1,1,,,,,0,0,0,0,0,71,71,71,,,,,,,,,,,None,None,0,518.7237797999987,None,518.7237797999987,519.7238096999936,519.7071427000919,520.7071937000146,0,1,518.7237797999987,None,7,f,11,r,ARB,2022_Mar_01_1131,WASABI Nback,2020.2.10,60.009817625031054,
0,1,3,"[0.2, 0.2]",None,0,1,1,1,,,,,0,0,0,0,0,72,72,72,,,,,,,,,,,None,None,0,520.7238104999997,None,520.7238104999997,521.7238151000347,521.7071379000554,522.7071540000616,0,1,520.7238104999997,None,7,f,11,r,ARB,2022_Mar_01_1131,WASABI Nback,2020.2.10,60.009817625031054,
0,1,6,"[0.2, 0]",1,0,1,1,1,,,,,0,0,0,0,0,73,73,73,,,,,,,,,,,None,None,0,522.7238100999966,None,522.7238100999966,523.7238309000386,523.7071623000083,524.7071615000023,0,1,522.7238100999966,None,7,f,11,r,ARB,2022_Mar_01_1131,WASABI Nback,2020.2.10,60.009817625031054,
0,1,8,"[0, -0.2]",None,0,1,1,1,,,,,0,0,0,0,0,74,74,74,,,,,,,,,,,None,None,0,524.7238325000508,None,524.7238325000508,525.7238201000728,525.7071720000822,526.707172500086,0,1,524.7238325000508,None,7,f,11,r,ARB,2022_Mar_01_1131,WASABI Nback,2020.2.10,60.009817625031054,
0,1,9,"[0.2, -0.2]",None,0,1,1,1,,,,,0,0,0,0,0,75,75,75,,,,,,,,,,,None,None,0,526.723863100051,None,526.723863100051,527.7238520000828,527.7071831000503,528.7072024000809,0,1,526.723863100051,None,7,f,11,r,ARB,2022_Mar_01_1131,WASABI Nback,2020.2.10,60.009817625031054,
0,1,9,"[0.2, -0.2]",None,0,1,1,1,,,,,0,0,0,0,0,76,76,76,,,,,,,,,,,None,None,0,528.7238685000921,None,528.7238685000921,529.7238794000586,529.7072218999965,530.7072033000877,0,1,528.7238685000921,None,7,f,11,r,ARB,2022_Mar_01_1131,WASABI Nback,2020.2.10,60.009817625031054,
0,1,1,"[-0.2, 0.2]",None,0,1,1,1,,,,,0,0,0,0,0,77,77,77,,,,,,,,,,,None,None,0,530.7238710999954,None,530.7238710999954,531.7238824000815,531.7072267000331,532.707224200014,0,1,530.7238710999954,None,7,f,11,r,ARB,2022_Mar_01_1131,WASABI Nback,2020.2.10,60.009817625031054,
0,1,3,"[0.2, 0.2]",None,0,1,1,1,,,,,0,0,0,0,0,78,78,78,,,,,,,,,,,None,None,0,532.7239077000413,None,532.7239077000413,533.7238963000709,533.7072362999897,534.7072400000179,0,1,532.7239077000413,None,7,f,11,r,ARB,2022_Mar_01_1131,WASABI Nback,2020.2.10,60.009817625031054,
0,1,5,"[0, 0]",None,0,1,1,1,,,,,0,0,0,0,0,79,79,79,,,,,,,,,,,None,None,0,534.7239262000658,None,534.7239262000658,535.7239256000612,535.7072586000431,536.7072483000811,0,1,534.7239262000658,None,7,f,11,r,ARB,2022_Mar_01_1131,WASABI Nback,2020.2.10,60.009817625031054,
0,1,3,"[0.2, 0.2]",1,0,1,1,1,,,,,0,0,0,0,0,80,80,80,,,,,,,,,,,None,None,0,536.7239539000439,None,536.7239539000439,537.7238339000614,537.7072771000676,538.7072684000013,0,1,536.7239539000439,None,7,f,11,r,ARB,2022_Mar_01_1131,WASABI Nback,2020.2.10,60.009817625031054,
0,1,4,"[-0.2, 0]",None,0,1,1,1,,,,,0,0,0,0,0,81,81,81,,,,,,,,,,,None,None,0,538.7239598000888,None,538.7239598000888,539.7239432000788,539.7073041000403,540.7073007000145,0,1,538.7239598000888,None,7,f,11,r,ARB,2022_Mar_01_1131,WASABI Nback,2020.2.10,60.009817625031054,
0,1,7,"[-0.2, -0.2]",None,0,1,1,1,,,,,0,0,0,0,0,82,82,82,,,,,,,,,,,None,None,0,540.7239652000135,None,540.7239652000135,541.7239730000729,541.707290600054,542.7072994000046,0,1,540.7239652000135,None,7,f,11,r,ARB,2022_Mar_01_1131,WASABI Nback,2020.2.10,60.009817625031054,
0,1,4,"[-0.2, 0]",1,0,1,1,1,,,,,0,0,0,0,0,83,83,83,,,,,,,,,,,None,None,0,542.7239697000477,None,542.7239697000477,543.7239765000995,543.7073228000663,544.7073141000001,0,1,542.7239697000477,None,7,f,11,r,ARB,2022_Mar_01_1131,WASABI Nback,2020.2.10,60.009817625031054,
0,1,4,"[-0.2, 0]",None,0,1,1,1,,,,,0,0,0,0,0,84,84,84,,,,,,,,,,,None,None,0,544.7239964000182,None,544.7239964000182,545.7239984000335,545.707321700058,546.7073496000376,0,1,544.7239964000182,None,7,f,11,r,ARB,2022_Mar_01_1131,WASABI Nback,2020.2.10,60.009817625031054,
0,1,5,"[0, 0]",None,0,1,1,1,,,,,0,0,0,0,0,85,85,85,,,,,,,,,,,None,None,0,546.724020200083,None,546.724020200083,547.724022300099,547.7073385000695,548.7073476000223,0,1,546.724020200083,None,7,f,11,r,ARB,2022_Mar_01_1131,WASABI Nback,2020.2.10,60.009817625031054,
0,1,2,"[0, 0.2]",None,0,1,1,1,,,,,0,0,0,0,0,86,86,86,,,,,,,,,,,None,None,0,548.7240178000648,None,548.7240178000648,549.7240184000693,549.7073631000239,550.7073688000673,0,1,548.7240178000648,None,7,f,11,r,ARB,2022_Mar_01_1131,WASABI Nback,2020.2.10,60.009817625031054,
0,1,6,"[0.2, 0]",None,0,1,1,1,,,,,0,0,0,0,0,87,87,87,,,,,,,,,,,None,None,0,550.7240542999934,None,550.7240542999934,551.7240395999979,551.7073900999967,552.7073941000272,0,1,550.7240542999934,None,7,f,11,r,ARB,2022_Mar_01_1131,WASABI Nback,2020.2.10,60.009817625031054,
0,1,7,"[-0.2, -0.2]",None,0,1,1,1,,,,,0,0,0,0,0,88,88,88,,,,,,,,,,,None,None,0,552.7240702999989,None,552.7240702999989,553.7240722000133,553.7073841000674,554.707440600032,0,1,552.7240702999989,None,7,f,11,r,ARB,2022_Mar_01_1131,WASABI Nback,2020.2.10,60.009817625031054,
0,1,6,"[0.2, 0]",1,0,1,1,1,,,,,0,0,0,0,0,89,89,89,,,,,,,,,,,None,None,0,554.7240809000796,None,554.7240809000796,555.7240920000477,555.7074247000273,556.7074054999975,0,1,554.7240809000796,None,7,f,11,r,ARB,2022_Mar_01_1131,WASABI Nback,2020.2.10,60.009817625031054,
0,1,6,"[0.2, 0]",None,0,1,1,1,,,,,0,0,0,0,0,90,90,90,,,,,,,,,,,None,None,0,556.7240784000605,None,556.7240784000605,557.7240975000896,557.7074205999961,558.7074463000754,0,1,556.7240784000605,None,7,f,11,r,ARB,2022_Mar_01_1131,WASABI Nback,2020.2.10,60.009817625031054,
0,1,7,"[-0.2, -0.2]",None,0,1,1,1,,,,,0,0,0,0,0,91,91,91,,,,,,,,,,,None,None,0,558.7241044000257,None,558.7241044000257,559.7241063000401,559.7074440000579,560.7074442000594,0,1,558.7241044000257,None,7,f,11,r,ARB,2022_Mar_01_1131,WASABI Nback,2020.2.10,60.009817625031054,
0,1,6,"[0.2, 0]",1,0,1,1,1,,,,,0,0,0,0,0,92,92,92,,,,,,,,,,,None,None,0,560.724107200047,None,560.724107200047,561.7241141000995,561.7073445999995,562.7074892000528,0,1,560.724107200047,None,7,f,11,r,ARB,2022_Mar_01_1131,WASABI Nback,2020.2.10,60.009817625031054,
0,1,2,"[0, 0.2]",None,0,1,1,1,,,,,0,0,0,0,0,93,93,93,,,,,,,,,,,None,None,0,562.7241414000746,None,562.7241414000746,563.7241398000624,563.7074867000338,564.7074829000048,0,1,562.7241414000746,None,7,f,11,r,ARB,2022_Mar_01_1131,WASABI Nback,2020.2.10,60.009817625031054,
0,1,5,"[0, 0]",None,0,1,1,1,,,,,0,0,0,0,0,94,94,94,,,,,,,,,,,None,None,0,564.7241641000146,None,564.7241641000146,565.7241668000352,565.7074838000117,566.7075172000332,0,1,564.7241641000146,None,7,f,11,r,ARB,2022_Mar_01_1131,WASABI Nback,2020.2.10,60.009817625031054,
0,1,4,"[-0.2, 0]",None,0,1,1,1,,,,,0,0,0,0,0,95,95,95,,,,,,,,,,,None,None,0,566.7241565000731,None,566.7241565000731,567.7241835000459,567.7075416999869,568.7075071000727,0,1,566.7241565000731,None,7,f,11,r,ARB,2022_Mar_01_1131,WASABI Nback,2020.2.10,60.009817625031054,
0,1,4,"[-0.2, 0]",None,0,1,1,1,,,,,0,0,0,0,0,96,96,96,,,,,,,,,,,None,None,0,568.7241075000493,None,568.7241075000493,569.7241752000991,569.707527999999,570.7075230000773,0,1,568.7241075000493,None,7,f,11,r,ARB,2022_Mar_01_1131,WASABI Nback,2020.2.10,60.009817625031054,
0,1,7,"[-0.2, -0.2]",None,0,1,1,1,,,,,0,0,0,0,0,97,97,97,,,,,,,,,,,None,None,0,570.7242107000202,None,570.7242107000202,571.7242083000019,571.7075354000553,572.707550900057,0,1,570.7242107000202,None,7,f,11,r,ARB,2022_Mar_01_1131,WASABI Nback,2020.2.10,60.009817625031054,
0,1,4,"[-0.2, 0]",1,0,1,1,1,,,,,0,0,0,0,0,98,98,98,,,,,,,,,,,None,None,0,572.7242027000757,None,572.7242027000757,573.724209100008,573.7075576999923,574.7075609000167,0,1,572.7242027000757,None,7,f,11,r,ARB,2022_Mar_01_1131,WASABI Nback,2020.2.10,60.009817625031054,
0,1,3,"[0.2, 0.2]",None,0,1,1,1,,,,,0,0,0,0,0,99,99,99,,,,,,,,,,,None,None,0,574.7242302000523,None,574.7242302000523,575.7242237000028,575.7075773000252,576.7075727999909,0,1,574.7242302000523,None,7,f,11,r,ARB,2022_Mar_01_1131,WASABI Nback,2020.2.10,60.009817625031054,
0,1,5,"[0, 0]",None,0,1,1,1,,,,,0,0,0,0,0,100,100,100,,,,,,,,,,,None,None,0,576.7242520001018,None,576.7242520001018,577.7242558000144,577.7076031999895,578.7075840000762,0,1,576.7242520001018,None,7,f,11,r,ARB,2022_Mar_01_1131,WASABI Nback,2020.2.10,60.009817625031054,
0,1,3,"[0.2, 0.2]",1,0,1,1,1,,,,,0,0,0,0,0,101,101,101,,,,,,,,,,,None,None,0,578.7242481000721,None,578.7242481000721,579.7242530999938,579.7076049000025,580.7076249000384,0,1,578.7242481000721,None,7,f,11,r,ARB,2022_Mar_01_1131,WASABI Nback,2020.2.10,60.009817625031054,
0,1,1,"[-0.2, 0.2]",None,0,1,1,1,,,,,0,0,0,0,0,102,102,102,,,,,,,,,,,None,None,0,580.7242816000944,None,580.7242816000944,581.7241958000232,581.7076324000955,582.7076247000368,0,1,580.7242816000944,None,7,f,11,r,ARB,2022_Mar_01_1131,WASABI Nback,2020.2.10,60.009817625031054,
0,1,9,"[0.2, -0.2]",None,0,1,1,1,,,,,0,0,0,0,0,103,103,103,,,,,,,,,,,None,None,0,582.7243038000306,None,582.7243038000306,583.7242467000615,583.7076272000559,584.7076503999997,0,1,582.7243038000306,None,7,f,11,r,ARB,2022_Mar_01_1131,WASABI Nback,2020.2.10,60.009817625031054,
0,1,9,"[0.2, -0.2]",None,0,1,1,1,,,,,0,0,0,0,0,104,104,104,,,,,,,,,,,None,None,0,584.7242966000922,None,584.7242966000922,585.7243021000177,585.7076539000263,586.7076481000986,0,1,584.7242966000922,None,7,f,11,r,ARB,2022_Mar_01_1131,WASABI Nback,2020.2.10,60.009817625031054,
0,1,8,"[0, -0.2]",None,0,1,1,1,,,,,0,0,0,0,0,105,105,105,,,,,,,,,,,None,None,0,586.7243260000832,None,586.7243260000832,587.7243273000931,587.7076714000432,588.707667300012,0,1,586.7243260000832,None,7,f,11,r,ARB,2022_Mar_01_1131,WASABI Nback,2020.2.10,60.009817625031054,
0,1,6,"[0.2, 0]",None,0,1,1,1,,,,,0,0,0,0,0,106,106,106,,,,,,,,,,,None,None,0,588.7243249000749,None,588.7243249000749,589.7243531000568,589.7076741000637,590.7076963,0,1,588.7243249000749,None,7,f,11,r,ARB,2022_Mar_01_1131,WASABI Nback,2020.2.10,60.009817625031054,
0,1,3,"[0.2, 0.2]",None,0,1,1,1,,,,,0,0,0,0,0,107,107,107,,,,,,,,,,,None,None,0,590.7243454999989,None,590.7243454999989,591.7243477000156,591.70768890006,592.7077207000693,0,1,590.7243454999989,None,7,f,11,r,ARB,2022_Mar_01_1131,WASABI Nback,2020.2.10,60.009817625031054,
0,1,6,"[0.2, 0]",1,0,1,1,1,,,,,0,0,0,0,0,108,108,108,,,,,,,,,,,None,None,0,592.724372100085,None,592.724372100085,593.724365400034,593.7077214000747,594.7077122000046,0,1,592.724372100085,None,7,f,11,r,ARB,2022_Mar_01_1131,WASABI Nback,2020.2.10,60.009817625031054,
0,1,5,"[0, 0]",None,0,1,1,1,,,,,0,0,0,0,0,109,109,109,,,,,,,,,,,None,None,0,594.7243311000057,None,594.7243311000057,595.7243982000509,595.7077428000048,596.7077362000709,0,1,594.7243311000057,None,7,f,11,r,ARB,2022_Mar_01_1131,WASABI Nback,2020.2.10,60.009817625031054,
0,1,7,"[-0.2, -0.2]",None,0,1,1,1,,,,,0,0,0,0,0,110,110,110,,,,,,,,,,,None,None,0,596.7243895001011,None,596.7243895001011,597.7244004000677,597.7077553001,598.707746900036,0,1,596.7243895001011,None,7,f,11,r,ARB,2022_Mar_01_1131,WASABI Nback,2020.2.10,60.009817625031054,
0,1,5,"[0, 0]",1,0,1,1,1,,,,,0,0,0,0,0,111,111,111,,,,,,,,,,,None,None,0,598.7244278000435,None,598.7244278000435,599.7244226000039,599.7077476000413,600.7077682000818,0,1,598.7244278000435,None,7,f,11,r,ARB,2022_Mar_01_1131,WASABI Nback,2020.2.10,60.009817625031054,
0,1,1,"[-0.2, 0.2]",None,0,1,1,1,,,,,0,0,0,0,0,112,112,112,,,,,,,,,,,None,None,0,600.7244386000093,None,600.7244386000093,601.7244433000451,601.7077601000201,602.7077675000764,0,1,600.7244386000093,None,7,f,11,r,ARB,2022_Mar_01_1131,WASABI Nback,2020.2.10,60.009817625031054,
0,1,7,"[-0.2, -0.2]",None,0,1,1,1,,,,,0,0,0,0,0,113,113,113,,,,,,,,,,,None,None,0,602.7244397000177,None,602.7244397000177,603.7244449000573,603.7077905000187,604.7077824000735,0,1,602.7244397000177,None,7,f,11,r,ARB,2022_Mar_01_1131,WASABI Nback,2020.2.10,60.009817625031054,
0,1,9,"[0.2, -0.2]",None,0,1,1,1,,,,,0,0,0,0,0,114,114,114,,,,,,,,,,,None,None,0,604.7244503000984,None,604.7244503000984,605.7244607000612,605.7077951000538,606.7078190000029,0,1,604.7244503000984,None,7,f,11,r,ARB,2022_Mar_01_1131,WASABI Nback,2020.2.10,60.009817625031054,
0,1,3,"[0.2, 0.2]",None,0,1,1,1,,,,,0,0,0,0,0,115,115,115,,,,,,,,,,,None,None,0,606.7244861000217,None,606.7244861000217,607.7244878000347,607.7078060000204,608.7078292000806,0,1,606.7244861000217,None,7,f,11,r,ARB,2022_Mar_01_1131,WASABI Nback,2020.2.10,60.009817625031054,
0,1,9,"[0.2, -0.2]",1,0,1,1,1,,,,,0,0,0,0,0,116,116,116,,,,,,,,,,,None,None,0,608.7245057000546,None,608.7245057000546,609.7245206000516,609.7078413000563,610.7078345000045,0,0,608.7245057000546,None,7,f,11,r,ARB,2022_Mar_01_1131,WASABI Nback,2020.2.10,60.009817625031054,
0,1,6,"[0.2, 0]",None,0,1,1,1,,,,,0,0,0,0,0,117,117,117,,,,,,,,,,,None,None,0,610.7245133999968,None,610.7245133999968,611.724517100025,611.7078405000502,612.7078621000983,0,1,610.7245133999968,None,7,f,11,r,ARB,2022_Mar_01_1131,WASABI Nback,2020.2.10,60.009817625031054,
0,1,2,"[0, 0.2]",None,0,1,1,1,,,,,0,0,0,0,0,118,118,118,,,,,,,,,,,None,None,0,612.7245369000593,None,612.7245369000593,613.7245363000548,613.7078608000884,614.7078710000496,0,1,612.7245369000593,None,7,f,11,r,ARB,2022_Mar_01_1131,WASABI Nback,2020.2.10,60.009817625031054,
0,1,5,"[0, 0]",None,0,1,1,1,,,,,0,0,0,0,0,119,119,119,,,,,,,,,,,None,None,0,614.724563100026,None,614.724563100026,615.7245634000283,615.7078836000292,616.7078858000459,0,1,614.724563100026,None,7,f,11,r,ARB,2022_Mar_01_1131,WASABI Nback,2020.2.10,60.009817625031054,
