	SID	day	gender	session	handedness	scanner	onset	duration	value	body_site	temperature	condition	keys	rt	phase	biopac_channel
0	1651	2	M	99	r	MS	0.02924170000187587	4.992576220000046		Left Face	48.5	Instructions			Placebo	198
1	1651	2	M	99	r	MS	5.168167600000743	2.0148641999985557		Left Face	48.5	Cue			Placebo	8
2	1651	2	M	99	r	MS	7.1965833000067505	4.003028119994269		Left Face	48.5	Pre-Jitter			Placebo	9
3	1651	2	M	99	r	MS	11.22170520000509	15.00266721999651		Left Face	48.5	Placebo Heat 			Placebo	17
4	1651	2	M	99	r	MS	26.2410341000068	4.997587919991929		Left Face	48.5	Mid-Jitter			Placebo	10
5	1651	2	M	99	r	MS	31.285278900002595	1.004716740004369	0.0	Left Face	48.5	PainBinary			Placebo	42
6	1651	2	M	99	r	MS	32.328764700003376	1.001798580000468	67.0	Left Face	48.5	IntensityRating			Placebo	40
7	1651	2	M	99	r	MS	33.364035800004785	5.008885679999366		Left Face	48.5	Post-Q-Jitter			Placebo	11
8	1651	2	M	99	r	MS	38.51007340000069	2.0259720999965793		Left Face	48.5	Cue			Placebo	8
9	1651	2	M	99	r	MS	40.54983170000196	6.006560319998243		Left Face	48.5	Pre-Jitter			Placebo	9
10	1651	2	M	99	r	MS	46.57806290000008	14.998629620000429		Left Face	48.5	Placebo Heat 			Placebo	17
11	1651	2	M	99	r	MS	61.6041777000064	8.993257719987014		Left Face	48.5	Mid-Jitter			Placebo	10
12	1651	2	M	99	r	MS	70.65201920000254	1.0065182399921468	1.0	Left Face	48.5	PainBinary			Placebo	42
13	1651	2	M	99	r	MS	71.7019963000057	1.0071334400054184	54.0	Left Face	48.5	IntensityRating			Placebo	40
14	1651	2	M	99	r	MS	72.72966050000105	8.992885820000083		Left Face	48.5	Post-Q-Jitter			Placebo	11
15	1651	2	M	99	r	MS	81.87998510000034	2.0151193000056082		Left Face	48.5	Cue			Placebo	8
16	1651	2	M	99	r	MS	83.92436880000605	8.001469380003982		Left Face	48.5	Pre-Jitter			Placebo	9
17	1651	2	M	99	r	MS	91.93704410000646	15.005901019998419		Left Face	48.5	Placebo Heat 			Placebo	17
18	1651	2	M	99	r	MS	106.96292820000235	9.001002019991574		Left Face	48.5	Mid-Jitter			Placebo	10
19	1651	2	M	99	r	MS	116.01919300000009	1.0142343400002574	1.0	Left Face	48.5	PainBinary			Placebo	42
20	1651	2	M	99	r	MS	117.07591190000676	1.0014821799923084	74.0	Left Face	48.5	IntensityRating			Placebo	40
21	1651	2	M	99	r	MS	118.11189180000656	9.003846279993013		Left Face	48.5	Post-Q-Jitter			Placebo	11
22	1651	2	M	99	r	MS	127.2548356000043	2.024017099996854		Left Face	48.5	Cue			Placebo	8
23	1651	2	M	99	r	MS	129.29370510000444	8.004668119996495		Left Face	48.5	Pre-Jitter			Placebo	9
24	1651	2	M	99	r	MS	137.31755180000619	15.003623220000009		Left Face	48.5	Placebo Heat 			Placebo	17
25	1651	2	M	99	r	MS	152.34090540000034	7.005564420003793		Left Face	48.5	Mid-Jitter			Placebo	10
26	1651	2	M	99	r	MS	159.39954450000369	1.0156293399923015	1.0	Left Face	48.5	PainBinary			Placebo	42
27	1651	2	M	99	r	MS	160.45929230000183	1.0136349399981555	65.0	Left Face	48.5	IntensityRating			Placebo	40
28	1651	2	M	99	r	MS	161.49448930000653	7.002317679995031		Left Face	48.5	Post-Q-Jitter			Placebo	11
29	1651	2	M	99	r	MS	168.6324614000041	2.000644439998723		Left Face	48.5	Cue			Placebo	8
30	1651	2	M	99	r	MS	170.6672175000058	8.006266680000408		Left Face	48.5	Pre-Jitter			Placebo	9
31	1651	2	M	99	r	MS	178.69099890000507	14.988704619994678		Left Face	48.5	Placebo Heat 			Placebo	17
32	1651	2	M	99	r	MS	193.70979450000596	8.998139319992333		Left Face	48.5	Mid-Jitter			Placebo	10
33	1651	2	M	99	r	MS	202.7629939000035	1.0008140400022967	0.0	Left Face	48.5	PainBinary			Placebo	42
34	1651	2	M	99	r	MS	203.80480730000272	1.0009996400040109	47.0	Left Face	48.5	IntensityRating			Placebo	40
35	1651	2	M	99	r	MS	204.82226510000328	9.007537879995652		Left Face	48.5	Post-Q-Jitter			Placebo	11
36	1651	2	M	99	r	MS	213.9634903000042	2.0310460999971838		Left Face	48.5	Cue			Placebo	8
37	1651	2	M	99	r	MS	216.00665740000113	8.002775619999738		Left Face	48.5	Pre-Jitter			Placebo	9
38	1651	2	M	99	r	MS	224.0305043000044	15.001834519993281		Left Face	48.5	Placebo Heat 			Placebo	17
39	1651	2	M	99	r	MS	239.0549844000052	5.003229619993363		Left Face	48.5	Mid-Jitter			Placebo	10
40	1651	2	M	99	r	MS	244.1138629000052	1.0143017400041572	1.0	Left Face	48.5	PainBinary			Placebo	42
41	1651	2	M	99	r	MS	245.17253390000405	1.0141763400024502	9.0	Left Face	48.5	IntensityRating			Placebo	40
42	1651	2	M	99	r	MS	246.20320250000077	4.997194920004404		Left Face	48.5	Post-Q-Jitter			Placebo	11
43	1651	2	M	99	r	MS	251.26362740000332	1.0044215400048415	22.0	Left Face	48.5	ComfortRating			Placebo	41
44	1651	2	M	99	r	MS	252.32788650000293	1.0093187399979797	17.0	Left Face	48.5	ValenceRating			Placebo	39
45	1651	2	M	99	r	MS	253.38701220000075	1.0065063399961218	79.0	Left Face	48.5	IntensityRating			Placebo	41
46	1651	2	M	99	r	MS	254.45788030000404	1.0129283999995096	100.0	Left Face	48.5	AvoidanceRating			Placebo	200
47	1651	2	M	99	r	MS	255.5201989000052	1.0029710399976466	74.0	Left Face	48.5	RelaxationRating			Placebo	201
48	1651	2	M	99	r	MS	256.56995270000334	1.001789040004951	-29.0	Left Face	48.5	AttentionRating			Placebo	202
49	1651	2	M	99	r	MS	257.6081584000058	1.0070374799906858	18.0	Left Face	48.5	BoredomRating			Placebo	203
50	1651	2	M	99	r	MS	258.66146620000654	1.0151367400030722	-57.0	Left Face	48.5	AlertnessRating			Placebo	204
51	1651	2	M	99	r	MS	259.71428800000285	1.0077476400037995	42.0	Left Face	48.5	PosThxRating			Placebo	205
52	1651	2	M	99	r	MS	260.75849080000626	1.0011633800022537	65.0	Left Face	48.5	NegThxRating			Placebo	206
53	1651	2	M	99	r	MS	261.81109870000364	1.0111950400023488	52.0	Left Face	48.5	SelfRating			Placebo	207
54	1651	2	M	99	r	MS	262.86614550000377	1.0158734400029061	42.0	Left Face	48.5	OtherRating			Placebo	208
55	1651	2	M	99	r	MS	263.93081600000005	1.0014077400046517	14.0	Left Face	48.5	ImageryRating			Placebo	205
56	1651	2	M	99	r	MS	264.98147620000236	1.0150757399969734	-16.0	Left Face	48.5	PresentRating			Placebo	210
