	SID	day	gender	session	handedness	scanner	onset	duration	value	body_site	temperature	condition	keys	rt	phase	biopac_channel
0	1651	1	M	99	r	MS	2.798783199999889	5.014359999979206		Left Face	46.5	Instructions			Control	198
1	1651	1	M	99	r	MS	7.956814299999678	2.0044437999968068		Left Face	46.5	Cue			Control	8
2	1651	1	M	99	r	MS	9.988205100002233	7.999867500002438		Left Face	46.5	Pre-Jitter			Control	9
3	1651	1	M	99	r	MS	18.021073900003103	15.01405469999736		Left Face	46.5	Control Heat 			Control	17
4	1651	1	M	99	r	MS	33.0474830000021	7.009722000009788		Left Face	46.5	Mid-Jitter			Control	10
5	1651	1	M	99	r	MS	40.106353000002855	5.016128799994476	0.0	Left Face	46.5	PainBinary			Control	42
6	1651	1	M	99	r	MS	45.19664460000058	5.0131026999952155	50.0	Left Face	46.5	IntensityRating			Control	40
7	1651	1	M	99	r	MS	50.22334460000275	6.998847900002147		Left Face	46.5	Post-Q-Jitter			Control	11
8	1651	1	M	99	r	MS	57.371132600004785	2.027641800006677		Left Face	46.5	Cue			Control	8
9	1651	1	M	99	r	MS	59.41489940000611	6.000341799997841		Left Face	46.5	Pre-Jitter			Control	9
10	1651	1	M	99	r	MS	65.44626650000282	15.019156400005159		Left Face	46.5	Control Heat 			Control	17
11	1651	1	M	99	r	MS	80.47546270000021	9.007608899999468		Left Face	46.5	Mid-Jitter			Control	10
12	1651	1	M	99	r	MS	89.53686400000151	5.007153999991715	0.0	Left Face	46.5	PainBinary			Control	42
13	1651	1	M	99	r	MS	94.58904940000502	5.013474400002451	50.0	Left Face	46.5	IntensityRating			Control	40
14	1651	1	M	99	r	MS	99.61750200000097	8.994130700011738		Left Face	46.5	Post-Q-Jitter			Control	11
15	1651	1	M	99	r	MS	108.77743340000598	2.030036799995287		Left Face	46.5	Cue			Control	8
16	1651	1	M	99	r	MS	110.8324980000034	6.01339659999212		Left Face	46.5	Pre-Jitter			Control	9
17	1651	1	M	99	r	MS	116.86349130000599	14.999989500000083		Left Face	46.5	Control Heat 			Control	17
18	1651	1	M	99	r	MS	131.88982760000363	8.994243200009805		Left Face	46.5	Mid-Jitter			Control	10
19	1651	1	M	99	r	MS	140.93882670000312	5.002116699994076	0.0	Left Face	46.5	PainBinary			Control	42
20	1651	1	M	99	r	MS	145.98168000000442	5.010519399998884	50.0	Left Face	46.5	IntensityRating			Control	40
21	1651	1	M	99	r	MS	151.00975160000235	8.99200360001123		Left Face	46.5	Post-Q-Jitter			Control	11
22	1651	1	M	99	r	MS	160.1610684000043	2.0119478999986313		Left Face	46.5	Cue			Control	8
23	1651	1	M	99	r	MS	162.19617040000594	6.002322699998331		Left Face	46.5	Pre-Jitter			Control	9
24	1651	1	M	99	r	MS	168.22277600000234	14.99747040001239		Left Face	46.5	Control Heat 			Control	17
25	1651	1	M	99	r	MS	183.24162620000425	5.009368200007884		Left Face	46.5	Mid-Jitter			Control	10
26	1651	1	M	99	r	MS	188.31067460000486	4.996930900000734	0.0	Left Face	46.5	PainBinary			Control	42
27	1651	1	M	99	r	MS	193.35865940000076	5.011865799991938	50.0	Left Face	46.5	IntensityRating			Control	40
28	1651	1	M	99	r	MS	198.38543380000192	4.999417500002892		Left Face	46.5	Post-Q-Jitter			Control	11
29	1651	1	M	99	r	MS	203.5363956000001	2.0235907999958727		Left Face	46.5	Cue			Control	8
30	1651	1	M	99	r	MS	205.578706100001	5.998945499995898		Left Face	46.5	Pre-Jitter			Control	9
31	1651	1	M	99	r	MS	211.6060215000034	14.992491000011796		Left Face	46.5	Control Heat 			Control	17
32	1651	1	M	99	r	MS	226.62262960000226	9.006181600008858		Left Face	46.5	Mid-Jitter			Control	10
33	1651	1	M	99	r	MS	235.6807345000052	5.012260699993931	0.0	Left Face	46.5	PainBinary			Control	42
34	1651	1	M	99	r	MS	240.7401938000039	5.00410340000235	50.0	Left Face	46.5	IntensityRating			Control	40
35	1651	1	M	99	r	MS	245.76270700000168	8.996811599994544		Left Face	46.5	Post-Q-Jitter			Control	11
36	1651	1	M	99	r	MS	254.91853840000113	2.0079296000112663		Left Face	46.5	Cue			Control	8
37	1651	1	M	99	r	MS	256.9510081000044	6.00293829999282		Left Face	46.5	Pre-Jitter			Control	9
38	1651	1	M	99	r	MS	262.9987298000051	15.005665399992722		Left Face	46.5	Control Heat 			Control	17
39	1651	1	M	99	r	MS	278.03502900000603	8.99692249999498		Left Face	46.5	Mid-Jitter			Control	10
40	1651	1	M	99	r	MS	287.0879567000011	5.013621999991301	0.0	Left Face	46.5	PainBinary			Control	42
41	1651	1	M	99	r	MS	292.16402270000253	5.021924900007434	50.0	Left Face	46.5	IntensityRating			Control	40
42	1651	1	M	99	r	MS	297.20224340000277	9.000056099997892		Left Face	46.5	Post-Q-Jitter			Control	11
43	1651	1	M	99	r	MS	306.2647272000031	5.013255099998787	0.0	Left Face	46.5	ComfortRating			Control	41
44	1651	1	M	99	r	MS	311.32387310000195	5.005132599995704	0.0	Left Face	46.5	ValenceRating			Control	39
45	1651	1	M	99	r	MS	316.3695594000019	5.005992600003083	50.0	Left Face	46.5	IntensityRating			Control	41
46	1651	1	M	99	r	MS	321.4246928000066	5.020818299999519	0.0	Left Face	46.5	AvoidanceRating			Control	200
47	1651	1	M	99	r	MS	326.47508510000625	5.011184499991941	0.0	Left Face	46.5	RelaxationRating			Control	201
48	1651	1	M	99	r	MS	331.53009980000206	5.010234800000035	0.0	Left Face	46.5	AttentionRating			Control	202
49	1651	1	M	99	r	MS	336.57784950000496	5.006111499998951	0.0	Left Face	46.5	BoredomRating			Control	203
50	1651	1	M	99	r	MS	341.6290517000016	5.0115862999955425	0.0	Left Face	46.5	AlertnessRating			Control	204
51	1651	1	M	99	r	MS	346.684448	5.009433200000785	0.0	Left Face	46.5	PosThxRating			Control	205
52	1651	1	M	99	r	MS	351.7273556	4.998649699999078	0.0	Left Face	46.5	NegThxRating			Control	206
53	1651	1	M	99	r	MS	356.7975868000067	5.016382000001613	0.0	Left Face	46.5	SelfRating			Control	207
54	1651	1	M	99	r	MS	361.8547580000013	5.010638500003552	0.0	Left Face	46.5	OtherRating			Control	208
55	1651	1	M	99	r	MS	366.9102211000063	5.0079823000050965	0.0	Left Face	46.5	ImageryRating			Control	205
56	1651	1	M	99	r	MS	371.97663670000475	5.000181299998076	0.0	Left Face	46.5	PresentRating			Control	210
