	SID	day	gender	session	handedness	scanner	onset	duration	value	body_site	temperature	condition	keys	rt	phase	biopac_channel
0	1651	2	M	99	r	MS	0.025313199999800418	5.010038120002719		Right Leg	47.5	Instructions			Placebo	198
1	1651	2	M	99	r	MS	5.178802999995241	2.029374600002484		Right Leg	47.5	Cue			Placebo	8
2	1651	2	M	99	r	MS	7.22661849999713	8.008551879996958		Right Leg	47.5	Pre-Jitter			Placebo	9
3	1651	2	M	99	r	MS	15.243882099995972	15.004215119995933		Right Leg	47.5	Placebo Heat 			Placebo	22
4	1651	2	M	99	r	MS	30.26836469999398	9.002292119999765		Right Leg	47.5	Mid-Jitter			Placebo	10
5	1651	2	M	99	r	MS	39.32310449999932	1.0017656400013948	0.0	Right Leg	47.5	PainBinary			Placebo	42
6	1651	2	M	99	r	MS	40.367527299997164	1.0137272400097572	64.0	Right Leg	47.5	IntensityRating			Placebo	40
7	1651	2	M	99	r	MS	41.40304179999657	9.016914580002776		Right Leg	47.5	Post-Q-Jitter			Placebo	11
8	1651	2	M	99	r	MS	50.555201999995916	2.0018070400037686		Right Leg	47.5	Cue			Placebo	8
9	1651	2	M	99	r	MS	52.58352559999912	6.005278219992761		Right Leg	47.5	Pre-Jitter			Placebo	9
10	1651	2	M	99	r	MS	58.61014679999789	15.000270619995717		Right Leg	47.5	Placebo Heat 			Placebo	22
11	1651	2	M	99	r	MS	73.63496469999518	6.999198220000835		Right Leg	47.5	Mid-Jitter			Placebo	10
12	1651	2	M	99	r	MS	80.69161829999939	1.0139059400025872	-1.0	Right Leg	47.5	PainBinary			Placebo	42
13	1651	2	M	99	r	MS	81.75525209999614	1.0037775400051032	82.0	Right Leg	47.5	IntensityRating			Placebo	40
14	1651	2	M	99	r	MS	82.78305929999624	7.0072857799968915		Right Leg	47.5	Post-Q-Jitter			Placebo	11
15	1651	2	M	99	r	MS	89.92283099999622	2.0019225400028517		Right Leg	47.5	Cue			Placebo	8
16	1651	2	M	99	r	MS	91.95911859999615	6.006177780000144		Right Leg	47.5	Pre-Jitter			Placebo	9
17	1651	2	M	99	r	MS	97.97775299999921	15.000497819994052		Right Leg	47.5	Placebo Heat 			Placebo	22
18	1651	2	M	99	r	MS	112.99827039999946	9.006380520004313		Right Leg	47.5	Mid-Jitter			Placebo	10
19	1651	2	M	99	r	MS	122.0590857999996	1.0105111400043825	-1.0	Right Leg	47.5	PainBinary			Placebo	42
20	1651	2	M	99	r	MS	123.11652109999704	1.01287214000331	26.0	Right Leg	47.5	IntensityRating			Placebo	40
21	1651	2	M	99	r	MS	124.15038269999786	9.002901879997808		Right Leg	47.5	Post-Q-Jitter			Placebo	11
22	1651	2	M	99	r	MS	133.29526499999338	2.0192317999972147		Right Leg	47.5	Cue			Placebo	8
23	1651	2	M	99	r	MS	135.33351309999853	8.001166719994217		Right Leg	47.5	Pre-Jitter			Placebo	9
24	1651	2	M	99	r	MS	143.36785379999492	15.012447879991669		Right Leg	47.5	Placebo Heat 			Placebo	22
25	1651	2	M	99	r	MS	158.3957825999969	9.003310319996672		Right Leg	47.5	Mid-Jitter			Placebo	10
26	1651	2	M	99	r	MS	167.4687735999978	1.0162896000038018	0.0	Right Leg	47.5	PainBinary			Placebo	42
27	1651	2	M	99	r	MS	168.53706959999545	1.0136812400014605	87.0	Right Leg	47.5	IntensityRating			Placebo	40
28	1651	2	M	99	r	MS	169.57653500000015	8.992427019999013		Right Leg	47.5	Post-Q-Jitter			Placebo	11
29	1651	2	M	99	r	MS	178.7121549999938	2.0105029400001513		Right Leg	47.5	Cue			Placebo	8
30	1651	2	M	99	r	MS	180.7456153999956	8.002083420004055		Right Leg	47.5	Pre-Jitter			Placebo	9
31	1651	2	M	99	r	MS	188.77207029999408	14.995898020002642		Right Leg	47.5	Placebo Heat 			Placebo	22
32	1651	2	M	99	r	MS	203.79351499999757	5.003108819997578		Right Leg	47.5	Mid-Jitter			Placebo	10
33	1651	2	M	99	r	MS	208.84848119999515	1.0055088400040404	1.0	Right Leg	47.5	PainBinary			Placebo	42
34	1651	2	M	99	r	MS	209.89258960000006	1.0014294799984782	67.0	Right Leg	47.5	IntensityRating			Placebo	40
35	1651	2	M	99	r	MS	210.929209599999	5.005744179994508		Right Leg	47.5	Post-Q-Jitter			Placebo	11
36	1651	2	M	99	r	MS	216.0711089999968	2.031081000000995		Right Leg	47.5	Cue			Placebo	8
37	1651	2	M	99	r	MS	218.1176370999965	5.998308120004367		Right Leg	47.5	Pre-Jitter			Placebo	9
38	1651	2	M	99	r	MS	224.14235819999885	14.997237819996371		Right Leg	47.5	Placebo Heat 			Placebo	22
39	1651	2	M	99	r	MS	239.16334499999357	9.002144119993318		Right Leg	47.5	Mid-Jitter			Placebo	10
40	1651	2	M	99	r	MS	248.22402089999377	1.0066577399993548	-1.0	Right Leg	47.5	PainBinary			Placebo	42
41	1651	2	M	99	r	MS	249.28078619999724	1.0102742400049465	97.0	Right Leg	47.5	IntensityRating			Placebo	40
42	1651	2	M	99	r	MS	250.309528699996	8.99377951999486		Right Leg	47.5	Post-Q-Jitter			Placebo	11
43	1651	2	M	99	r	MS	259.36572629999864	1.006141239995486	61.0	Right Leg	47.5	ComfortRating			Placebo	41
44	1651	2	M	99	r	MS	260.43047859999933	1.0103123400040204	47.0	Right Leg	47.5	ValenceRating			Placebo	39
45	1651	2	M	99	r	MS	261.5302720999971	1.0092522599952645	60.0	Right Leg	47.5	IntensityRating			Placebo	41
46	1651	2	M	99	r	MS	262.6144429999986	1.005855800009158	-36.0	Right Leg	47.5	AvoidanceRating			Placebo	200
47	1651	2	M	99	r	MS	263.67250649999914	1.0041018400006578	62.0	Right Leg	47.5	RelaxationRating			Placebo	201
48	1651	2	M	99	r	MS	264.71899929999927	1.0095203400051105	47.0	Right Leg	47.5	AttentionRating			Placebo	202
49	1651	2	M	99	r	MS	265.7711774999989	1.003309840001748	69.0	Right Leg	47.5	BoredomRating			Placebo	203
50	1651	2	M	99	r	MS	266.81270219999715	1.0017235800041817	-85.0	Right Leg	47.5	AlertnessRating			Placebo	204
51	1651	2	M	99	r	MS	267.86437949999527	1.0133963400003267	66.0	Right Leg	47.5	PosThxRating			Placebo	205
52	1651	2	M	99	r	MS	268.9140516999978	1.0124343400093494	-3.0	Right Leg	47.5	NegThxRating			Placebo	206
53	1651	2	M	99	r	MS	269.963202299994	1.0124275400012266	63.0	Right Leg	47.5	SelfRating			Placebo	207
54	1651	2	M	99	r	MS	271.0124197999976	1.01232364000316	19.0	Right Leg	47.5	OtherRating			Placebo	208
55	1651	2	M	99	r	MS	272.0648457999996	1.0059156399947824	-73.0	Right Leg	47.5	ImageryRating			Placebo	205
56	1651	2	M	99	r	MS	273.11865620000026	1.0133041400040383	-51.0	Right Leg	47.5	PresentRating			Placebo	210
