BodySiteInstructionText.started,BodySiteImg.started,BodySiteImg.stopped,BodySiteInstructionRead.keys,BodySiteInstructionRead.rt,BodySiteInstructionRead.started,BodySiteInstructionRead.stopped,fixation.started,fixation.stopped,IntensityRating.response,IntensityRating.rt,IntensityRating.started,IntensityRating.stopped,ComfortRating.response,ComfortRating.rt,ComfortRating.started,ComfortRating.stopped,ValenceRating.response,ValenceRating.rt,ValenceRating.started,ValenceRating.stopped,AvoidRating.response,AvoidRating.rt,AvoidRating.started,AvoidRating.stopped,RelaxRating.response,RelaxRating.rt,RelaxRating.started,RelaxRating.stopped,TaskAttentionRating.response,TaskAttentionRating.rt,TaskAttentionRating.started,TaskAttentionRating.stopped,BoredomRating.response,BoredomRating.rt,BoredomRating.started,BoredomRating.stopped,AlertnessRating.response,AlertnessRating.rt,AlertnessRating.started,AlertnessRating.stopped,PosThxRating.response,PosThxRating.rt,PosThxRating.started,PosThxRating.stopped,NegThxRating.response,NegThxRating.rt,NegThxRating.started,NegThxRating.stopped,SelfRating.response,SelfRating.rt,SelfRating.started,SelfRating.stopped,OtherRating.response,OtherRating.rt,OtherRating.started,OtherRating.stopped,ImageryRating.response,ImageryRating.rt,ImageryRating.started,ImageryRating.stopped,PresentRating.response,PresentRating.rt,PresentRating.started,PresentRating.stopped,subject number,gender,acceptMap body-site # (day1: 1-4; day2: 5-8),session,handedness,scanner,run,date,psychopyVersion,expName,frameRate,
16.58245259997784,16.58245259997784,None,space,3.461390600015875,16.58245259997784,None,63.732782699982636,63.732782699982636,0.0,58.44420557000558,,,,,,,,,,,,,,,,,,,,,,,,,,,,,,,,,,,,,,,,,,,,,,,,,,,,,,,1,M,1,1,r,SK AB,1,2022_Feb_03_1142,2020.2.10,acceptmap-regulate,60.02512651712004,
,,,,,,,91.73301429999992,91.73301429999992,0.061728395061725706,80.62744437000947,0.014877929992508143,5.012556929985294,,,,,,,,,,,,,,,,,,,,,,,,,,,,,,,,,,,,,,,,,,,,,,,,,,,,,1,M,1,1,r,SK AB,1,2022_Feb_03_1142,2020.2.10,acceptmap-regulate,60.02512651712004,
,,,,,,,119.7332453999843,119.7332453999843,0.0,113.17824257002212,0.015162730007432401,5.013177729997551,,,,,,,,,,,,,,,,,,,,,,,,,,,,,,,,,,,,,,,,,,,,,,,,,,,,,1,M,1,1,r,SK AB,1,2022_Feb_03_1142,2020.2.10,acceptmap-regulate,60.02512651712004,
,,,,,,,147.7334828999883,147.7334828999883,1.4814814814814836,139.3615838700207,0.0146413299953565,5.012054029997671,,,,,,,,,,,,,,,,,,,,,,,,,,,,,,,,,,,,,,,,,,,,,,,,,,,,,1,M,1,1,r,SK AB,1,2022_Feb_03_1142,2020.2.10,acceptmap-regulate,60.02512651712004,
,,,,,,,175.7336999999825,175.7336999999825,0.0,164.84499787000823,0.014832629996817559,5.0125310299918056,,,,,,,,,,,,,,,,,,,,,,,,,,,,,,,,,,,,,,,,,,,,,,,,,,,,,1,M,1,1,r,SK AB,1,2022_Feb_03_1142,2020.2.10,acceptmap-regulate,60.02512651712004,
,,,,,,,203.73394789997838,203.73394789997838,2.098765432098763,196.84521686995868,0.01496443001087755,5.012782030011294,,,,,,,,,,,,,,,,,,,,,,,,,,,,,,,,,,,,,,,,,,,,,,,,,,,,,1,M,1,1,r,SK AB,1,2022_Feb_03_1142,2020.2.10,acceptmap-regulate,60.02512651712004,
,,,,,,,231.7341793999949,231.7341793999949,0.0,223.52857786996174,0.01501323003321886,5.012927530013258,,,,,,,,,,,,,,,,,,,,,,,,,,,,,,,,,,,,,,,,,,,,,,,,,,,,,1,M,1,1,r,SK AB,1,2022_Feb_03_1142,2020.2.10,acceptmap-regulate,60.02512651712004,
,,,,,,,259.73439689999213,259.73439689999213,0.0,249.02932686998975,0.015215530031127855,5.013316730037332,,,,,,,,,,,,,,,,,,,,,,,,,,,,,,,,,,,,,,,,,,,,,,,,,,,,,1,M,1,1,r,SK AB,1,2022_Feb_03_1142,2020.2.10,acceptmap-regulate,60.02512651712004,
,,,,,,,287.7346466999734,287.7346466999734,0.0,281.3293615700095,0.014660130022093654,5.012210230022902,,,,,,,,,,,,,,,,,,,,,,,,,,,,,,,,,,,,,,,,,,,,,,,,,,,,,1,M,1,1,r,SK AB,1,2022_Feb_03_1142,2020.2.10,acceptmap-regulate,60.02512651712004,
,,,,,,,315.7348921999801,315.7348921999801,0.0,306.5629225699813,0.014923429989721626,5.012744429986924,,,,,,,,,,,,,,,,,,,,,,,,,,,,,,,,,,,,,,,,,,,,,,,,,,,,,1,M,1,1,r,SK AB,1,2022_Feb_03_1142,2020.2.10,acceptmap-regulate,60.02512651712004,
,,,,,,,343.73512229998596,343.73512229998596,0.0,336.6460117700044,0.014911830017808825,5.012608930002898,,,,,,,,,,,,,,,,,,,,,,,,,,,,,,,,,,,,,,,,,,,,,,,,,,,,,1,M,1,1,r,SK AB,1,2022_Feb_03_1142,2020.2.10,acceptmap-regulate,60.02512651712004,
,,,,,,,371.7353943999915,371.7353943999915,0.0,363.0304221700062,0.015393729991046712,5.013680629985174,,,,,,,,,,,,,,,,,,,,,,,,,,,,,,,,,,,,,,,,,,,,,,,,,,,,,1,M,1,1,r,SK AB,1,2022_Feb_03_1142,2020.2.10,acceptmap-regulate,60.02512651712004,
,,,,,,,399.73559789999854,399.73559789999854,0.0,393.78042106999783,0.014585830009309575,5.0120949300180655,,,,,,,,,,,,,,,,,,,,,,,,,,,,,,,,,,,,,,,,,,,,,,,,,,,,,1,M,1,1,r,SK AB,1,2022_Feb_03_1142,2020.2.10,acceptmap-regulate,60.02512651712004,
,,,,,,,427.7358390999725,427.7358390999725,0.0,420.9306068700098,0.014813829999184236,5.012528729974292,,,,,,,,,,,,,,,,,,,,,,,,,,,,,,,,,,,,,,,,,,,,,,,,,,,,,1,M,1,1,r,SK AB,1,2022_Feb_03_1142,2020.2.10,acceptmap-regulate,60.02512651712004,
,,,,,,,455.73606899997685,455.73606899997685,0.0,447.09725387001527,0.014849230006802827,5.0124653299862985,,,,,,,,,,,,,,,,,,,,,,,,,,,,,,,,,,,,,,,,,,,,,,,,,,,,,1,M,1,1,r,SK AB,1,2022_Feb_03_1142,2020.2.10,acceptmap-regulate,60.02512651712004,
,,,,,,,483.736313899979,483.736313899979,0.0,474.8980701700202,0.015088329993886873,5.013049230008619,,,,,,,,,,,,,,,,,,,,,,,,,,,,,,,,,,,,,,,,,,,,,,,,,,,,,1,M,1,1,r,SK AB,1,2022_Feb_03_1142,2020.2.10,acceptmap-regulate,60.02512651712004,
,,,,,,,,,,,0.0145169299794361,5.011923429992748,56.419753086419774,481.61560307000764,,,,,,,,,,,,,,,,,,,,,,,,,,,,,,,,,,,,,,,,,,,,,,,,,,,1,M,1,1,r,SK AB,1,2022_Feb_03_1142,2020.2.10,acceptmap-regulate,60.02512651712004,
,,,,,,,,,,,,,,,0.013753229985013604,None,-100.0,484.33185657000286,,,,,,,,,,,,,,,,,,,,,,,,,,,,,,,,,,,,,,,,,,,,,,,1,M,1,1,r,SK AB,1,2022_Feb_03_1142,2020.2.10,acceptmap-regulate,60.02512651712004,
,,,,,,,,,0.0,486.98302323999815,,,,,,,,,0.014181430015014485,None,,,,,,,,,,,,,,,,,,,,,,,,,,,,,,,,,,,,,,,,,,,,,1,M,1,1,r,SK AB,1,2022_Feb_03_1142,2020.2.10,acceptmap-regulate,60.02512651712004,
,,,,,,,,,,,0.013006360008148476,None,,,,,,,,,0.0,489.6155283700209,,,,,,,,,,,,,,,,,,,,,,,,,,,,,,,,,,,,,,,,,,,1,M,1,1,r,SK AB,1,2022_Feb_03_1142,2020.2.10,acceptmap-regulate,60.02512651712004,
,,,,,,,,,,,,,,,,,,,,,,,0.013861029990948737,None,100.0,492.4148868699849,,,,,,,,,,,,,,,,,,,,,,,,,,,,,,,,,,,,,,,1,M,1,1,r,SK AB,1,2022_Feb_03_1142,2020.2.10,acceptmap-regulate,60.02512651712004,
,,,,,,,,,,,,,,,,,,,,,,,,,,,0.014530830027069896,None,28.333333333333332,496.4315822700155,,,,,,,,,,,,,,,,,,,,,,,,,,,,,,,,,,,1,M,1,1,r,SK AB,1,2022_Feb_03_1142,2020.2.10,acceptmap-regulate,60.02512651712004,
,,,,,,,,,,,,,,,,,,,,,,,,,,,,,,,0.014541729993652552,None,100.0,500.2819706700102,,,,,,,,,,,,,,,,,,,,,,,,,,,,,,,1,M,1,1,r,SK AB,1,2022_Feb_03_1142,2020.2.10,acceptmap-regulate,60.02512651712004,
,,,,,,,,,,,,,,,,,,,,,,,,,,,,,,,,,,,0.014180230005877092,None,-71.60493827160494,504.29885166999884,,,,,,,,,,,,,,,,,,,,,,,,,,,1,M,1,1,r,SK AB,1,2022_Feb_03_1142,2020.2.10,acceptmap-regulate,60.02512651712004,
,,,,,,,,,,,,,,,,,,,,,,,,,,,,,,,,,,,,,,,0.014008130005095154,None,37.53086419753086,507.2325311699824,,,,,,,,,,,,,,,,,,,,,,,1,M,1,1,r,SK AB,1,2022_Feb_03_1142,2020.2.10,acceptmap-regulate,60.02512651712004,
,,,,,,,,,,,,,,,,,,,,,,,,,,,,,,,,,,,,,,,,,,,0.01368873001774773,None,27.160493827160508,510.68209566999576,,,,,,,,,,,,,,,,,,,1,M,1,1,r,SK AB,1,2022_Feb_03_1142,2020.2.10,acceptmap-regulate,60.02512651712004,
,,,,,,,,,,,,,,,,,,,,,,,,,,,,,,,,,,,,,,,,,,,,,,,0.014157030003843829,None,100.0,514.7154812700173,,,,,,,,,,,,,,,1,M,1,1,r,SK AB,1,2022_Feb_03_1142,2020.2.10,acceptmap-regulate,60.02512651712004,
,,,,,,,,,,,,,,,,,,,,,,,,,,,,,,,,,,,,,,,,,,,,,,,,,,,0.014144129992928356,None,57.16049382716051,517.43250006999,,,,,,,,,,,1,M,1,1,r,SK AB,1,2022_Feb_03_1142,2020.2.10,acceptmap-regulate,60.02512651712004,
,,,,,,,,,,,,,,,,,,,,,,,,,,,,,,,,,,,,,,,,,,,,,,,,,,,,,,,0.01380273001268506,None,76.1728395061728,523.0987913699937,,,,,,,1,M,1,1,r,SK AB,1,2022_Feb_03_1142,2020.2.10,acceptmap-regulate,60.02512651712004,
,,,,,,,,,,,,,,,,,,,,,,,,,,,,,,,,,,,,,,,,,,,,,,,,,,,,,,,,,,,0.014222830010112375,None,49.38271604938268,527.2488909699896,,,1,M,1,1,r,SK AB,1,2022_Feb_03_1142,2020.2.10,acceptmap-regulate,60.02512651712004,
,,,,,,,,,,,,,,,,,,,,,,,,,,,,,,,,,,,,,,,,,,,,,,,,,,,,,,,,,,,,,,,0.014159730024402961,None,,,,,,,,,,,,
