	SID	date	sex	session	handedness	scanner	onset	duration	repetition	rating	body_site	keys	temperature	conditionrt	mouseclick	biopac_channel	condition	rt	value	skin_site
0	1651	2024_Feb_02_1203	M	2	r	MS SS	2.7838616999797523	5.00043266126886			Left Leg					40	Experience Instruction			1
1	1651	2024_Feb_02_1203	M	2	r	MS SS	8.137993399985135	7.008145260391757			Left Leg					7	Pre-Trial Jitter			1
2	1651	2024_Feb_02_1203	M	2	r	MS SS	15.183027900056913	13.001579790143296			Left Leg		48.5			15	Heat-Stimulation			1
3	1651	2024_Feb_02_1203	M	2	r	MS SS	28.23673740006052	7.011029720073566			Left Leg					8	Post-Trial Jitter			1
4	1651	2024_Feb_02_1203	M	2	r	MS SS	35.28050859994255	5.006950889946893			Left Leg					20	PainBinary	0.9671273999847472	1.0	1
5	1651	2024_Feb_02_1203	M	2	r	MS SS	40.3156729999464	5.003424290101975			Left Leg					21	IntensityRating	2.2003599000163376	30.432098765432098	1
6	1651	2024_Feb_02_1203	M	2	r	MS SS	45.34207949996926	5.000725560123101			Left Leg					20	AcceotBinary	1.7373485998250544	1.0	1
7	1651	2024_Feb_02_1203	M	2	r	MS SS	50.362304399954155	5.010332060046494			Left Leg					9	Post-Q-Jitter			1
8	1651	2024_Feb_02_1203	M	2	r	MS SS	55.734207399887964	7.000045190099627			Left Leg					7	Pre-Trial Jitter			1
9	1651	2024_Feb_02_1203	M	2	r	MS SS	62.79784670006484	13.00628355005756			Left Leg		48.5			15	Heat-Stimulation			1
10	1651	2024_Feb_02_1203	M	2	r	MS SS	75.85095599992201	5.000195119995624			Left Leg					8	Post-Trial Jitter			1
11	1651	2024_Feb_02_1203	M	2	r	MS SS	80.88294730009511	5.003002590034157			Left Leg					20	PainBinary	0.9338140999898314	1.0	1
12	1651	2024_Feb_02_1203	M	2	r	MS SS	85.91498550004326	5.005697390064597			Left Leg					21	IntensityRating	2.3204290000721812	33.7037037037037	1
13	1651	2024_Feb_02_1203	M	2	r	MS SS	90.94206449994817	5.00165836000815			Left Leg					20	AcceotBinary	1.8671112000010908	1.0	1
14	1651	2024_Feb_02_1203	M	2	r	MS SS	95.96220740000717	5.011464960174635			Left Leg					9	Post-Q-Jitter			1
15	1651	2024_Feb_02_1203	M	2	r	MS SS	101.3081811000593	9.002992630237713			Left Leg					7	Pre-Trial Jitter			1
16	1651	2024_Feb_02_1203	M	2	r	MS SS	110.37795170000754	13.013671449851245			Left Leg		48.5			15	Heat-Stimulation			1
17	1651	2024_Feb_02_1203	M	2	r	MS SS	123.43393129995093	7.001929220044985			Left Leg					8	Post-Trial Jitter			1
18	1651	2024_Feb_02_1203	M	2	r	MS SS	130.46642499999143	5.003748090006411			Left Leg					20	PainBinary	2.8336652000434697	1.0	1
19	1651	2024_Feb_02_1203	M	2	r	MS SS	135.49918249994516	5.00502459006384			Left Leg					21	IntensityRating	3.0004292998928577	26.358024691358022	1
20	1651	2024_Feb_02_1203	M	2	r	MS SS	140.52636560006067	5.000763760181144			Left Leg					20	AcceotBinary	1.1868854998610914	1.0	1
21	1651	2024_Feb_02_1203	M	2	r	MS SS	145.5457536999602	9.012093460187316			Left Leg					9	Post-Q-Jitter			1
22	1651	2024_Feb_02_1203	M	2	r	MS SS	154.89560619997792	7.01254876027815			Left Leg					7	Pre-Trial Jitter			1
23	1651	2024_Feb_02_1203	M	2	r	MS SS	161.9538074999582	12.99633231991902			Left Leg		48.5			15	Heat-Stimulation			1
24	1651	2024_Feb_02_1203	M	2	r	MS SS	175.00178329995833	7.000591620104387			Left Leg					8	Post-Trial Jitter			1
25	1651	2024_Feb_02_1203	M	2	r	MS SS	182.03575489996	4.999456990044564			Left Leg					20	PainBinary	0.917202000040561	1.0	1
26	1651	2024_Feb_02_1203	M	2	r	MS SS	187.0665541999042	5.004639090271667			Left Leg					21	IntensityRating	4.667229400016367	31.666666666666664	1
27	1651	2024_Feb_02_1203	M	2	r	MS SS	192.0934494000394	5.000960260163993			Left Leg					20	AcceotBinary	1.3671210000757128	1.0	1
28	1651	2024_Feb_02_1203	M	2	r	MS SS	197.11323500005528	9.01153546012938			Left Leg					9	Post-Q-Jitter			1
29	1651	2024_Feb_02_1203	M	2	r	MS SS	206.48362930002622	7.004254090134054			Left Leg					7	Pre-Trial Jitter			1
30	1651	2024_Feb_02_1203	M	2	r	MS SS	213.5383214999456	12.995049720164388			Left Leg		48.5			15	Heat-Stimulation			1
31	1651	2024_Feb_02_1203	M	2	r	MS SS	226.58611929998733	6.9996805200353265			Left Leg					8	Post-Trial Jitter			1
32	1651	2024_Feb_02_1203	M	2	r	MS SS	233.61705380002968	5.00461789034307			Left Leg					20	PainBinary	0.9004546999931335	1.0	1
33	1651	2024_Feb_02_1203	M	2	r	MS SS	238.64987690001726	5.005819289945066			Left Leg					21	IntensityRating	1.4670855000149459	41.111111111111114	1
34	1651	2024_Feb_02_1203	M	2	r	MS SS	243.6778212999925	5.000026060035452			Left Leg					20	AcceotBinary	2.550462800078094	1.0	1
35	1651	2024_Feb_02_1203	M	2	r	MS SS	248.69629739993252	9.013117660069838			Left Leg					9	Post-Q-Jitter			1
36	1651	2024_Feb_02_1203	M	2	r	MS SS	258.0244553000666	7.007000900106505			Left Leg					7	Pre-Trial Jitter			1
37	1651	2024_Feb_02_1203	M	2	r	MS SS	265.0679424998816	13.003554689930752			Left Leg		48.5			15	Heat-Stimulation			1
38	1651	2024_Feb_02_1203	M	2	r	MS SS	278.11765570007265	9.004364819964394			Left Leg					8	Post-Trial Jitter			1
39	1651	2024_Feb_02_1203	M	2	r	MS SS	287.1516891999636	5.003116690320894			Left Leg					20	PainBinary	1.0004539000801742	1.0	1
40	1651	2024_Feb_02_1203	M	2	r	MS SS	292.1837722999044	5.0057068900205195			Left Leg					21	IntensityRating	4.8004177999682724	30.49382716049383	1
41	1651	2024_Feb_02_1203	M	2	r	MS SS	297.21249770000577	5.01502189016901			Left Leg					20	AcceotBinary	1.783696600003168	1.0	1
42	1651	2024_Feb_02_1203	M	2	r	MS SS	302.23182230000384	7.009804060216993			Left Leg					9	Post-Q-Jitter			1
43	1651	2024_Feb_02_1203	M	2	r	MS SS	309.56408590008505	5.012104930123314			Left Leg					7	Pre-Trial Jitter			1
44	1651	2024_Feb_02_1203	M	2	r	MS SS	314.599364799913	13.008397290017456			Left Leg		48.5			15	Heat-Stimulation			1
45	1651	2024_Feb_02_1203	M	2	r	MS SS	327.65466769994237	8.998038119869307			Left Leg					8	Post-Trial Jitter			1
46	1651	2024_Feb_02_1203	M	2	r	MS SS	336.6860366000328	5.00206579011865			Left Leg					20	PainBinary	0.9672021998558193	1.0	1
47	1651	2024_Feb_02_1203	M	2	r	MS SS	341.71750769997016	5.006081690080464			Left Leg					21	IntensityRating		28.024691358024693	1
48	1651	2024_Feb_02_1203	M	2	r	MS SS	346.74749589990824	5.01269609015435			Left Leg					20	AcceotBinary	1.5171215999871492	1.0	1
49	1651	2024_Feb_02_1203	M	2	r	MS SS	351.7649775999598	9.01121036009863			Left Leg					9	Post-Q-Jitter			1
50	1651	2024_Feb_02_1203	M	2	r	MS SS	361.1147739998996	5.011779060121626			Left Leg					7	Pre-Trial Jitter			1
51	1651	2024_Feb_02_1203	M	2	r	MS SS	366.147387099918	13.01339129009284			Left Leg		48.5			15	Heat-Stimulation			1
52	1651	2024_Feb_02_1203	M	2	r	MS SS	379.20369850005955	5.000942819751799			Left Leg					8	Post-Trial Jitter			1
53	1651	2024_Feb_02_1203	M	2	r	MS SS	384.2366291000508	5.00184879032895			Left Leg					20	PainBinary	0.9004730999004096	1.0	1
54	1651	2024_Feb_02_1203	M	2	r	MS SS	389.26906309998594	5.0037570900749415			Left Leg					21	IntensityRating	2.3172444000374526	36.97530864197531	1
55	1651	2024_Feb_02_1203	M	2	r	MS SS	394.29610670008697	5.0164702902548015			Left Leg					20	AcceotBinary	0.9869947000406682	1.0	1
56	1651	2024_Feb_02_1203	M	2	r	MS SS	399.31609379989095	5.009919960051775			Left Leg					9	Post-Q-Jitter			1
57	1651	2024_Feb_02_1203	M	2	r	MS SS	404.67159439995885	8.999071060447022			Left Leg					7	Pre-Trial Jitter			1
58	1651	2024_Feb_02_1203	M	2	r	MS SS	413.7049084000755	12.999335689935833			Left Leg		48.5			15	Heat-Stimulation			1
59	1651	2024_Feb_02_1203	M	2	r	MS SS	426.75306009990163	7.003249519737437			Left Leg					8	Post-Trial Jitter			1
60	1651	2024_Feb_02_1203	M	2	r	MS SS	433.78651389991865	5.003127990057692			Left Leg					20	PainBinary	0.8170688000973314	1.0	1
61	1651	2024_Feb_02_1203	M	2	r	MS SS	438.8191086000297	5.0047250899951905			Left Leg					21	IntensityRating	3.00043460004963	32.59259259259259	1
62	1651	2024_Feb_02_1203	M	2	r	MS SS	443.8473020000383	5.015120490221307			Left Leg					20	AcceotBinary	1.8670941998716444	1.0	1
63	1651	2024_Feb_02_1203	M	2	r	MS SS	448.86558949993923	5.0119546602945775			Left Leg					9	Post-Q-Jitter			1
64	1651	2024_Feb_02_1203	M	2	r	MS SS	454.9321192000061	7.012423450825736			Left Leg					7	Pre-Trial Jitter			1
65	1651	2024_Feb_02_1203	M	2	r	MS SS	461.9625705999788	13.001657660352066			Left Leg		48.5			15	Heat-Stimulation			1
66	1651	2024_Feb_02_1203	M	2	r	MS SS	475.0220319000073	4.999570120126009			Left Leg					8	Post-Trial Jitter			1
67	1651	2024_Feb_02_1203	M	2	r	MS SS	480.05446360004134	5.0015073898248374			Left Leg					20	PainBinary	1.0337824998423457	1.0	1
68	1651	2024_Feb_02_1203	M	2	r	MS SS	485.0854209000245	5.00638718996197			Left Leg					21	IntensityRating	1.7004281000699848	42.96296296296296	1
69	1651	2024_Feb_02_1203	M	2	r	MS SS	490.1149255000055	5.014111290220171			Left Leg					20	AcceotBinary	0.7337189000099897	-1.0	1
70	1651	2024_Feb_02_1203	M	2	r	MS SS	495.13319239998236	7.01103276014328			Left Leg					9	Post-Q-Jitter			1
71	1651	2024_Feb_02_1203	M	2	r	MS SS	502.4795991999563	9.001756330253556			Left Leg					7	Pre-Trial Jitter			1
72	1651	2024_Feb_02_1203	M	2	r	MS SS	511.51949539990164	13.005502589978278			Left Leg		48.5			15	Heat-Stimulation			1
73	1651	2024_Feb_02_1203	M	2	r	MS SS	524.5743166999891	6.996065219864249			Left Leg					8	Post-Trial Jitter			1
74	1651	2024_Feb_02_1203	M	2	r	MS SS	531.6062332999427	4.999036689987406			Left Leg					20	PainBinary	0.9004507998470217	1.0	1
75	1651	2024_Feb_02_1203	M	2	r	MS SS	536.6363691000734	5.005527490051463			Left Leg					21	IntensityRating	3.0537612000480294	32.71604938271605	1
76	1651	2024_Feb_02_1203	M	2	r	MS SS	541.6638805998955	5.000621360028163			Left Leg					20	AcceotBinary	0.9530772001016885	1.0	1
77	1651	2024_Feb_02_1203	M	2	r	MS SS	546.6839773999527	7.010536159854382			Left Leg					9	Post-Q-Jitter			1
78	1651	2024_Feb_02_1203	M	2	r	MS SS	554.0604107999243	7.007846090244129			Left Leg					7	Pre-Trial Jitter			1
79	1651	2024_Feb_02_1203	M	2	r	MS SS	561.108081500046	12.996012890012935			Left Leg		48.5			15	Heat-Stimulation			1
80	1651	2024_Feb_02_1203	M	2	r	MS SS	574.1554028999526	7.001565919956192			Left Leg					8	Post-Trial Jitter			1
81	1651	2024_Feb_02_1203	M	2	r	MS SS	581.1882774000987	5.002611390082166			Left Leg					20	PainBinary	1.033773300005123	1.0	1
82	1651	2024_Feb_02_1203	M	2	r	MS SS	586.220448799897	5.005039290059358			Left Leg					21	IntensityRating	3.717105200048536	32.160493827160494	1
83	1651	2024_Feb_02_1203	M	2	r	MS SS	591.2472482000012	5.0015591599512845			Left Leg					20	AcceotBinary	1.8671100998762995	1.0	1
84	1651	2024_Feb_02_1203	M	2	r	MS SS	596.2675824998878	7.010799760231748			Left Leg					9	Post-Q-Jitter			1
85	1651	2024_Feb_02_1203	M	2	r	MS SS	603.6190909999423	7.007930260384455			Left Leg					7	Pre-Trial Jitter			1
86	1651	2024_Feb_02_1203	M	2	r	MS SS	610.6646290000062	13.00061089033261			Left Leg		48.5			15	Heat-Stimulation			1
87	1651	2024_Feb_02_1203	M	2	r	MS SS	623.721977399895	5.002779619768262			Left Leg					8	Post-Trial Jitter			1
88	1651	2024_Feb_02_1203	M	2	r	MS SS	628.7565754000098	5.000341790029779			Left Leg					20	PainBinary	2.333809799980372	-1.0	1
89	1651	2024_Feb_02_1203	M	2	r	MS SS	633.7878417000175	5.0046018899884075			Left Leg					21	IntensityRating	2.7171471999026835	25.432098765432098	1
90	1651	2024_Feb_02_1203	M	2	r	MS SS	638.8149222000502	5.000545360147953			Left Leg					20	AcceotBinary	0.7172171000856906	1.0	1
91	1651	2024_Feb_02_1203	M	2	r	MS SS	643.8349993999582	5.010471860179678			Left Leg					9	Post-Q-Jitter			1
92	1651	2024_Feb_02_1203	M	2	r	MS SS	649.2265298999846	9.010902420151979			Left Leg					7	Pre-Trial Jitter			1
93	1651	2024_Feb_02_1203	M	2	r	MS SS	658.2797089000233	13.00477269035764			Left Leg		48.5			15	Heat-Stimulation			1
94	1651	2024_Feb_02_1203	M	2	r	MS SS	671.3410622999072	6.99893142003566			Left Leg					8	Post-Trial Jitter			1
95	1651	2024_Feb_02_1203	M	2	r	MS SS	678.3734289000276	5.001000090036541			Left Leg					20	PainBinary	2.000440699979663	1.0	1
96	1651	2024_Feb_02_1203	M	2	r	MS SS	683.4049416999333	5.004709290107712			Left Leg					21	IntensityRating	3.183810699963942	27.71604938271605	1
97	1651	2024_Feb_02_1203	M	2	r	MS SS	688.4321355998982	5.00043736025691			Left Leg					20	AcceotBinary	1.283746900036931	1.0	1
98	1651	2024_Feb_02_1203	M	2	r	MS SS	693.4517222000286	9.011412660125643			Left Leg					9	Post-Q-Jitter			1
99	1651	2024_Feb_02_1203	M	2	r	MS SS	702.8578140998725	6.999428250128403			Left Leg					7	Pre-Trial Jitter			1
100	1651	2024_Feb_02_1203	M	2	r	MS SS	709.8886408999097	13.004638490267098			Left Leg		48.5			15	Heat-Stimulation			1
101	1651	2024_Feb_02_1203	M	2	r	MS SS	722.9418059000745	8.998519120039418			Left Leg					8	Post-Trial Jitter			1
102	1651	2024_Feb_02_1203	M	2	r	MS SS	731.9743132998701	5.0003369899932295			Left Leg					20	PainBinary	1.3004391000140458	1.0	1
103	1651	2024_Feb_02_1203	M	2	r	MS SS	737.0050812999252	5.00558359012939			Left Leg					21	IntensityRating	2.0169478999450803	33.086419753086425	1
104	1651	2024_Feb_02_1203	M	2	r	MS SS	742.0336265000515	5.015257990220562			Left Leg					20	AcceotBinary	2.2836809000000358	1.0	1
105	1651	2024_Feb_02_1203	M	2	r	MS SS	747.0528108999133	7.010331660276279			Left Leg					9	Post-Q-Jitter			1
106	1651	2024_Feb_02_1203	M	2	r	MS SS	754.4202701998875	5.008901390479878			Left Leg					7	Pre-Trial Jitter			1
107	1651	2024_Feb_02_1203	M	2	r	MS SS	759.492018399993	12.998898750171065			Left Leg		48.5			15	Heat-Stimulation			1
108	1651	2024_Feb_02_1203	M	2	r	MS SS	772.540832699975	7.001464319881052			Left Leg					8	Post-Trial Jitter			1
109	1651	2024_Feb_02_1203	M	2	r	MS SS	779.5735128000379	5.002928290050477			Left Leg					20	PainBinary	1.0671572000719607	1.0	1
110	1651	2024_Feb_02_1203	M	2	r	MS SS	784.6052109000739	5.006335189798847			Left Leg					21	IntensityRating	4.600734499981627	32.77777777777778	1
111	1651	2024_Feb_02_1203	M	2	r	MS SS	789.633609799901	5.0162852900102735			Left Leg					20	AcceotBinary	1.0534614999778569	1.0	1
112	1651	2024_Feb_02_1203	M	2	r	MS SS	794.65254619997	7.011854860233143			Left Leg					9	Post-Q-Jitter			1
113	1651	2024_Feb_02_1203	M	2	r	MS SS	801.7021117000841	3.7963353199884295			Left Leg					26	ComfortRating	3.7671229999978095	-15.308641975308646	1
114	1651	2024_Feb_02_1203	M	2	r	MS SS	805.5300439998973	2.9405308899004012			Left Leg					24	ValenceRating	2.9169809999875724	63.148148148148145	1
115	1651	2024_Feb_02_1203	M	2	r	MS SS	808.5042727999389	3.192141090054065			Left Leg					26	IntensityRating	3.1533174000214785	68.76543209876543	1
116	1651	2024_Feb_02_1203	M	2	r	MS SS	811.7248402000405	4.601075690239668			Left Leg					27	AvoidanceRating	4.5705013000406325	-31.358024691358025	1
117	1651	2024_Feb_02_1203	M	2	r	MS SS	816.3507596999407	3.5826383898966014			Left Leg					28	RelaxationRating	3.550485600018874	42.03703703703703	1
118	1651	2024_Feb_02_1203	M	2	r	MS SS	819.9581669999752	2.567912989994511			Left Leg					29	AttentionRating	2.5504540000110865	74.81481481481481	1
119	1651	2024_Feb_02_1203	M	2	r	MS SS	822.5517178999726	2.464187890291214			Left Leg					30	BoredomRating	2.4338161000050604	34.01234567901235	1
120	1651	2024_Feb_02_1203	M	2	r	MS SS	825.0376239998732	2.1090998898725957			Left Leg					31	AlertnessRating	2.083666800055653	31.111111111111114	1
121	1651	2024_Feb_02_1203	M	2	r	MS SS	827.1735678999685	1.553940090117976			Left Leg					32	PosThxRating	1.5338048001285642	-1.4814814814814667	1
122	1651	2024_Feb_02_1203	M	2	r	MS SS	828.7550699999556	0.4075955902226269			Left Leg					33	NegThxRating	0.38364379992708564	0.0	1
123	1651	2024_Feb_02_1203	M	2	r	MS SS	829.1880151999649	2.2917547901161015			Left Leg					34	SelfRating	2.2670107998419553	37.65432098765433	1
124	1651	2024_Feb_02_1203	M	2	r	MS SS	831.5053962999955	3.573734990088269			Left Leg					35	OtherRating	3.536891199881211	-49.382716049382715	1
125	1651	2024_Feb_02_1203	M	2	r	MS SS	835.1084640000481	2.950976389925927			Left Leg					32	ImageryRating	2.9198272000066936	-42.96296296296297	1
126	1651	2024_Feb_02_1203	M	2	r	MS SS	838.0941810000222	2.2629136899486184			Left Leg					37	PresentRating	2.23361389990896	48.39506172839506	1
