	SID	date	sex	session	handedness	scanner	onset	duration	repetition	rating	body_site	keys	temperature	conditionrt	mouseclick	biopac_channel	condition	rt	value
0	2946	2024_May_02_1906	m	1	r	SS MRS	2.7742043999023736	5.008610135642812								19	Instructions		
1	2946	2024_May_02_1906	m	1	r	SS MRS	9.021993499947712	1.9988316993694752								6	Cue		
2	2946	2024_May_02_1906	m	1	r	SS MRS	11.024131800048053	5.994821480009705								7	Pre-Jitter		
3	2946	2024_May_02_1906	m	1	r	SS MRS	17.062477099942043	15.001688039628789			Left Leg		48.0			15	Heat-Stimulation		
4	2946	2024_May_02_1906	m	1	r	SS MRS	32.158913099905476	5.009054980240762								8	Mid-Jitter		
5	2946	2024_May_02_1906	m	1	r	SS MRS	37.190652600023896	4.995782759971917								20	PainBinary	2.684201200027019	1.0
6	2946	2024_May_02_1906	m	1	r	SS MRS	42.20722549990751	5.0127334599383175								21	IntensityRating	3.0502279999200255	38.76543209876544
7	2946	2024_May_02_1906	m	1	r	SS MRS	47.237511300016195	5.002205759985372								22	ToleranceRating	3.3502416000701487	1.0
8	2946	2024_May_02_1906	m	1	r	SS MRS	52.24379889992997	5.006456180009991								9	Post-Q-Jitter		
9	2946	2024_May_02_1906	m	1	r	SS MRS	58.52639009989798	2.0078333595301956								6	Cue		
10	2946	2024_May_02_1906	m	1	r	SS MRS	60.539909299928695	3.997730080038309								7	Pre-Jitter		
11	2946	2024_May_02_1906	m	1	r	SS MRS	64.5912402998656	14.99535981984809			Left Leg		48.5			15	Heat-Stimulation		
12	2946	2024_May_02_1906	m	1	r	SS MRS	79.6748478000518	4.994934580055997								8	Mid-Jitter		
13	2946	2024_May_02_1906	m	1	r	SS MRS	84.69154589995742	5.011692960048094								20	PainBinary	2.650177399860695	1.0
14	2946	2024_May_02_1906	m	1	r	SS MRS	89.72386180004105	4.9971916598733515								21	IntensityRating	2.151104499818757	41.54320987654321
15	2946	2024_May_02_1906	m	1	r	SS MRS	94.73797230003402	5.002398659940809								22	ToleranceRating	2.4028310000430793	-1.0
16	2946	2024_May_02_1906	m	1	r	SS MRS	99.74404629995115	5.007043280173093								9	Post-Q-Jitter		
17	2946	2024_May_02_1906	m	1	r	SS MRS	106.03509570006281	2.008167039602995								6	Cue		
18	2946	2024_May_02_1906	m	1	r	SS MRS	108.0405820000451	7.997514379909262								7	Pre-Jitter		
19	2946	2024_May_02_1906	m	1	r	SS MRS	116.07019510003738	15.005220039747655			Left Leg		48.0			15	Heat-Stimulation		
20	2946	2024_May_02_1906	m	1	r	SS MRS	131.14941750001162	5.013640280114487								8	Mid-Jitter		
21	2946	2024_May_02_1906	m	1	r	SS MRS	136.17575389984995	5.011085059726611								20	PainBinary	2.1336300999391824	1.0
22	2946	2024_May_02_1906	m	1	r	SS MRS	141.20800719992258	5.01335826003924								21	IntensityRating	1.8336320000234991	44.19753086419753
23	2946	2024_May_02_1906	m	1	r	SS MRS	146.23860559985042	5.002274760045111								22	ToleranceRating	2.667034500045702	-1.0
24	2946	2024_May_02_1906	m	1	r	SS MRS	151.24430299992673	5.007654479937628								9	Post-Q-Jitter		
25	2946	2024_May_02_1906	m	1	r	SS MRS	157.5097958999686	2.0098624797537923								6	Cue		
26	2946	2024_May_02_1906	m	1	r	SS MRS	159.52411730005406	3.99816268007271								7	Pre-Jitter		
27	2946	2024_May_02_1906	m	1	r	SS MRS	163.54310519993305	14.9937822597567			Left Leg		47.5			15	Heat-Stimulation		
28	2946	2024_May_02_1906	m	1	r	SS MRS	178.6240087999031	4.99882637988776								8	Mid-Jitter		
29	2946	2024_May_02_1906	m	1	r	SS MRS	183.64319480000995	5.010584260104224								20	PainBinary	2.1335911999922246	1.0
30	2946	2024_May_02_1906	m	1	r	SS MRS	188.67574099986814	5.012304459931329								21	IntensityRating	2.150203000055626	37.65432098765433
31	2946	2024_May_02_1906	m	1	r	SS MRS	193.7061618999578	5.001532059861347								22	ToleranceRating	2.0835851998999715	1.0
32	2946	2024_May_02_1906	m	1	r	SS MRS	198.71216250001453	5.006201280048117								9	Post-Q-Jitter		
33	2946	2024_May_02_1906	m	1	r	SS MRS	204.9582712999545	2.01399159966968								6	Cue		
34	2946	2024_May_02_1906	m	1	r	SS MRS	206.97536400007084	5.996813979931176								7	Pre-Jitter		
35	2946	2024_May_02_1906	m	1	r	SS MRS	213.0018780999817	15.010698239551857			Left Leg		47.5			15	Heat-Stimulation		
36	2946	2024_May_02_1906	m	1	r	SS MRS	228.08681920007803	7.007708880119026								8	Mid-Jitter		
37	2946	2024_May_02_1906	m	1	r	SS MRS	235.11011589993723	5.0112821601796895								20	PainBinary	2.1668618000112474	1.0
38	2946	2024_May_02_1906	m	1	r	SS MRS	240.1421167999506	4.997372159967199								21	IntensityRating	2.3008115999400616	35.8641975308642
39	2946	2024_May_02_1906	m	1	r	SS MRS	245.15623059985228	5.002638660138473								22	ToleranceRating	1.0832915001083165	1.0
40	2946	2024_May_02_1906	m	1	r	SS MRS	250.16263430006802	7.006647179834545								9	Post-Q-Jitter		
41	2946	2024_May_02_1906	m	1	r	SS MRS	258.4100104998797	2.011643799720332								6	Cue		
42	2946	2024_May_02_1906	m	1	r	SS MRS	260.4257054000627	5.997201580088586								7	Pre-Jitter		
43	2946	2024_May_02_1906	m	1	r	SS MRS	266.46037849993445	14.994861739687622			Left Leg		47.5			15	Heat-Stimulation		
44	2946	2024_May_02_1906	m	1	r	SS MRS	281.53353390004486	7.015463979914784								8	Mid-Jitter		
45	2946	2024_May_02_1906	m	1	r	SS MRS	288.560785099864	5.011095659807324								20	PainBinary	2.24996370007284	1.0
46	2946	2024_May_02_1906	m	1	r	SS MRS	293.59282550006174	5.0138019600417465								21	IntensityRating	1.7002047998830676	38.7037037037037
47	2946	2024_May_02_1906	m	1	r	SS MRS	298.6239465000108	5.001684360206127								22	ToleranceRating	0.9501887999940664	1.0
48	2946	2024_May_02_1906	m	1	r	SS MRS	303.62985330005176	7.006684280000627								9	Post-Q-Jitter		
49	2946	2024_May_02_1906	m	1	r	SS MRS	311.2586775000673	1.9990125398617238								6	Cue		
50	2946	2024_May_02_1906	m	1	r	SS MRS	313.25995459989645	3.9966280800290406								7	Pre-Jitter		
51	2946	2024_May_02_1906	m	1	r	SS MRS	317.3042667999398	15.008209619671106			Left Leg		47.5			15	Heat-Stimulation		
52	2946	2024_May_02_1906	m	1	r	SS MRS	332.3850543999579	5.013449380174279								8	Mid-Jitter		
53	2946	2024_May_02_1906	m	1	r	SS MRS	337.4116299999878	5.01042335992679								20	PainBinary	2.016914200037718	1.0
54	2946	2024_May_02_1906	m	1	r	SS MRS	342.4429985000752	4.9979127598926425								21	IntensityRating	2.8507617998402566	40.24691358024692
55	2946	2024_May_02_1906	m	1	r	SS MRS	347.45782279991545	5.0016788598150015								22	ToleranceRating	1.6003156998194754	1.0
56	2946	2024_May_02_1906	m	1	r	SS MRS	352.46352880005725	5.007066079881042								9	Post-Q-Jitter		
57	2946	2024_May_02_1906	m	1	r	SS MRS	357.50274439994246	4.812169539975002								26	ComfortRating	4.7836850001476705	-10.12345679012347
58	2946	2024_May_02_1906	m	1	r	SS MRS	362.3311977998819	5.3219649598468095								24	ValenceRating	5.300011300016195	81.9753086419753
59	2946	2024_May_02_1906	m	1	r	SS MRS	367.67503719986416	2.6177581599913538								26	IntensityRating	2.600404700031504	82.4074074074074
60	2946	2024_May_02_1906	m	1	r	SS MRS	370.31087609985843	4.379556460073218								27	AvoidanceRating	4.350259999977425	55.67901234567901
61	2946	2024_May_02_1906	m	1	r	SS MRS	374.7071620998904	5.120364659931511								28	RelaxationRating	5.100360300159082	22.592592592592595
62	2946	2024_May_02_1906	m	1	r	SS MRS	379.8437550000381	4.780601359670982								29	AttentionRating	4.767090199980885	100.0
63	2946	2024_May_02_1906	m	1	r	SS MRS	384.641219999874	2.8691077600233257								30	BoredomRating	2.850326400017366	0.0
64	2946	2024_May_02_1906	m	1	r	SS MRS	387.52517129993066	4.651303160004318								31	AlertnessRating	4.633664400083944	100.0
65	2946	2024_May_02_1906	m	1	r	SS MRS	392.1928799999878	5.599358659936115								32	PosThxRating	5.56920380005613	-55.80246913580247
66	2946	2024_May_02_1906	m	1	r	SS MRS	397.80955770006403	2.7160724599380046								33	NegThxRating	2.7003735001198947	61.728395061728406
67	2946	2024_May_02_1906	m	1	r	SS MRS	400.5419447000604	2.818007660098374								34	SelfRating	2.800788599997759	-100.0
68	2946	2024_May_02_1906	m	1	r	SS MRS	403.3769101998769	2.5815226598642766								35	OtherRating	2.5675218000542372	-100.0
69	2946	2024_May_02_1906	m	1	r	SS MRS	405.97841789992526	3.028428460005671								32	ImageryRating	3.0001308999489993	-0.3703703703703667
70	2946	2024_May_02_1906	m	1	r	SS MRS	409.0289997998625	4.477366960141808								37	PresentRating	4.450241700047627	100.0
