RestT1,TaskT1,square,location,corrAns,counterbalancer.thisRepN,counterbalancer.thisTrialN,counterbalancer.thisN,counterbalancer.thisIndex,RestT1Loop.thisRepN,RestT1Loop.thisTrialN,RestT1Loop.thisN,RestT1Loop.thisIndex,TaskT1Loop.thisRepN,TaskT1Loop.thisTrialN,TaskT1Loop.thisN,TaskT1Loop.thisIndex,trials_2.thisRepN,trials_2.thisTrialN,trials_2.thisN,trials_2.thisIndex,NbackInstructions.started,NbackInstructions.stopped,NbackStart.keys,NbackStart.rt,NbackStart.started,NbackStart.stopped,fixation_2.started,fixation_2.stopped,response_2.x,response_2.y,response_2.leftButton,grid_lines_2.started,grid_lines_2.stopped,target_square_2.started,target_square_2.stopped,fixation_3.started,fixation_3.stopped,response_2.click,response_2.corr,response_2.started,response_2.stopped,fixation_1.started,fixation_1.stopped,subject number,gender,session,handedness,scanner,date,expName,psychopyVersion,frameRate,
0,1,,,,0,0,0,0,,,,,0,0,0,0,,,,,19.706252500007395,None,space,62.044786699989345,19.706252500007395,None,,,,,,,,,,,,,,,,,,1002,m,7,r,MS,2022_Feb_10_2157,WASABI Nback,2020.2.10,59.9973961001666,
0,1,5,"[0, 0]",None,0,0,0,0,,,,,0,0,0,0,0,0,0,0,,,,,,,None,None,None,None,[],None,None,None,None,None,None,[],[],None,None,,,1002,m,7,r,MS,2022_Feb_10_2157,WASABI Nback,2020.2.10,59.9973961001666,
0,1,2,"[0, 0.2]",None,0,0,0,0,,,,,0,0,0,0,0,1,1,1,,,,,,,,,None,None,[],None,None,None,None,None,None,[],[],None,None,,,1002,m,7,r,MS,2022_Feb_10_2157,WASABI Nback,2020.2.10,59.9973961001666,
0,1,6,"[0.2, 0]",None,0,0,0,0,,,,,0,0,0,0,0,2,2,2,,,,,,,,,None,None,[],None,None,None,None,None,None,[],[],None,None,,,1002,m,7,r,MS,2022_Feb_10_2157,WASABI Nback,2020.2.10,59.9973961001666,
0,1,9,"[0.2, -0.2]",None,0,0,0,0,,,,,0,0,0,0,0,3,3,3,,,,,,,,,None,None,0,90.53261390002444,None,90.53261390002444,None,None,None,0,1,90.53261390002444,None,,,1002,m,7,r,MS,2022_Feb_10_2157,WASABI Nback,2020.2.10,59.9973961001666,
0,1,3,"[0.2, 0.2]",None,0,0,0,0,,,,,0,0,0,0,0,4,4,4,,,,,,,,,None,None,0,90.79930319997948,None,90.79930319997948,91.79931099998066,91.78263570001582,92.78263680002419,0,1,90.79930319997948,None,,,1002,m,7,r,MS,2022_Feb_10_2157,WASABI Nback,2020.2.10,59.9973961001666,
0,1,9,"[0.2, -0.2]",1,0,0,0,0,,,,,0,0,0,0,0,5,5,5,,,,,,,,,None,None,0,92.7993108999799,None,92.7993108999799,93.79930130002322,93.7826523000258,94.78265730000567,0,0,92.7993108999799,None,,,1002,m,7,r,MS,2022_Feb_10_2157,WASABI Nback,2020.2.10,59.9973961001666,
0,1,7,"[-0.2, -0.2]",None,0,0,0,0,,,,,0,0,0,0,0,6,6,6,,,,,,,,,None,None,0,94.79933260002872,None,94.79933260002872,95.79932590003591,95.78266880003503,96.78267530002631,0,1,94.79933260002872,None,,,1002,m,7,r,MS,2022_Feb_10_2157,WASABI Nback,2020.2.10,59.9973961001666,
0,1,1,"[-0.2, 0.2]",None,0,0,0,0,,,,,0,0,0,0,0,7,7,7,,,,,,,,,None,None,0,96.79934710002271,None,96.79934710002271,97.79934750002576,97.78268990002107,98.78269219998037,0,1,96.79934710002271,None,,,1002,m,7,r,MS,2022_Feb_10_2157,WASABI Nback,2020.2.10,59.9973961001666,
0,1,5,"[0, 0]",None,0,0,0,0,,,,,0,0,0,0,0,8,8,8,,,,,,,,,None,None,0,98.79939080000622,None,98.79939080000622,99.79937050002627,99.78271380002843,100.78270580002572,0,1,98.79939080000622,None,,,1002,m,7,r,MS,2022_Feb_10_2157,WASABI Nback,2020.2.10,59.9973961001666,
0,1,7,"[-0.2, -0.2]",None,0,0,0,0,,,,,0,0,0,0,0,9,9,9,,,,,,,,,None,None,0,100.7993707000278,None,100.7993707000278,101.79937209998025,101.78272030001972,102.78272349998588,0,0,100.7993707000278,None,,,1002,m,7,r,MS,2022_Feb_10_2157,WASABI Nback,2020.2.10,59.9973961001666,
0,1,5,"[0, 0]",1,0,0,0,0,,,,,0,0,0,0,0,10,10,10,,,,,,,,,None,None,0,102.79938580002636,None,102.79938580002636,103.79940090002492,103.78272920002928,104.7827386999852,0,1,102.79938580002636,None,,,1002,m,7,r,MS,2022_Feb_10_2157,WASABI Nback,2020.2.10,59.9973961001666,
0,1,6,"[0.2, 0]",None,0,0,0,0,,,,,0,0,0,0,0,11,11,11,,,,,,,,,None,None,0,104.7994117999915,None,104.7994117999915,105.79939980001654,105.78273859998444,106.78276889998233,0,1,104.7994117999915,None,,,1002,m,7,r,MS,2022_Feb_10_2157,WASABI Nback,2020.2.10,59.9973961001666,
0,1,3,"[0.2, 0.2]",None,0,0,0,0,,,,,0,0,0,0,0,12,12,12,,,,,,,,,None,None,0,106.79942510003457,None,106.79942510003457,107.79942080000183,107.78276149998419,108.78276889998233,0,1,106.79942510003457,None,,,1002,m,7,r,MS,2022_Feb_10_2157,WASABI Nback,2020.2.10,59.9973961001666,
0,1,6,"[0.2, 0]",1,0,0,0,0,,,,,0,0,0,0,0,13,13,13,,,,,,,,,None,None,0,108.79944169998635,None,108.79944169998635,109.79945109999971,109.78276339999866,110.78278750000754,0,1,108.79944169998635,None,,,1002,m,7,r,MS,2022_Feb_10_2157,WASABI Nback,2020.2.10,59.9973961001666,
0,1,8,"[0, -0.2]",None,0,0,0,0,,,,,0,0,0,0,0,14,14,14,,,,,,,,,None,None,0,110.79944680002518,None,110.79944680002518,111.7994483000366,111.7827876000083,112.78281210002024,0,1,110.79944680002518,None,,,1002,m,7,r,MS,2022_Feb_10_2157,WASABI Nback,2020.2.10,59.9973961001666,
0,1,9,"[0.2, -0.2]",None,0,0,0,0,,,,,0,0,0,0,0,15,15,15,,,,,,,,,None,None,0,112.79947710002307,None,112.79947710002307,113.7994695000234,113.78283490001922,114.78281549998792,0,1,112.79947710002307,None,,,1002,m,7,r,MS,2022_Feb_10_2157,WASABI Nback,2020.2.10,59.9973961001666,
0,1,9,"[0.2, -0.2]",None,0,0,0,0,,,,,0,0,0,0,0,16,16,16,,,,,,,,,None,None,0,114.79949489998398,None,114.79949489998398,115.79949010000564,115.78283320000628,116.78283739998005,0,1,114.79949489998398,None,,,1002,m,7,r,MS,2022_Feb_10_2157,WASABI Nback,2020.2.10,59.9973961001666,
0,1,1,"[-0.2, 0.2]",None,0,0,0,0,,,,,0,0,0,0,0,17,17,17,,,,,,,,,None,None,0,116.79950480000116,None,116.79950480000116,117.79949330003001,117.78284930001246,118.78285750001669,0,1,116.79950480000116,None,,,1002,m,7,r,MS,2022_Feb_10_2157,WASABI Nback,2020.2.10,59.9973961001666,
0,1,3,"[0.2, 0.2]",None,0,0,0,0,,,,,0,0,0,0,0,18,18,18,,,,,,,,,None,None,0,118.79951340000844,None,118.79951340000844,119.79953230003593,119.78285140002845,120.7828673000331,0,1,118.79951340000844,None,,,1002,m,7,r,MS,2022_Feb_10_2157,WASABI Nback,2020.2.10,59.9973961001666,
0,1,5,"[0, 0]",None,0,0,0,0,,,,,0,0,0,0,0,19,19,19,,,,,,,,,None,None,0,120.79951470001834,None,120.79951470001834,121.79953670001123,121.78287970001111,122.78288499999326,0,1,120.79951470001834,None,,,1002,m,7,r,MS,2022_Feb_10_2157,WASABI Nback,2020.2.10,59.9973961001666,
0,1,3,"[0.2, 0.2]",1,0,0,0,0,,,,,0,0,0,0,0,20,20,20,,,,,,,,,None,None,0,122.79953389998991,None,122.79953389998991,123.7995641999878,123.782889300026,124.78289830003632,0,0,122.79953389998991,None,,,1002,m,7,r,MS,2022_Feb_10_2157,WASABI Nback,2020.2.10,59.9973961001666,
0,1,4,"[-0.2, 0]",None,0,0,0,0,,,,,0,0,0,0,0,21,21,21,,,,,,,,,None,None,0,124.79957030003425,None,124.79957030003425,125.79958009999245,125.78290580003522,126.78285529999994,0,1,124.79957030003425,None,,,1002,m,7,r,MS,2022_Feb_10_2157,WASABI Nback,2020.2.10,59.9973961001666,
0,1,7,"[-0.2, -0.2]",None,0,0,0,0,,,,,0,0,0,0,0,22,22,22,,,,,,,,,None,None,0,126.7995668000076,None,126.7995668000076,127.79959000000963,127.78293290000875,128.78292850003345,0,1,126.7995668000076,None,,,1002,m,7,r,MS,2022_Feb_10_2157,WASABI Nback,2020.2.10,59.9973961001666,
0,1,4,"[-0.2, 0]",1,0,0,0,0,,,,,0,0,0,0,0,23,23,23,,,,,,,,,None,None,0,128.79958659998374,None,128.79958659998374,129.79961240000557,129.78281180001795,130.78294900001492,0,0,128.79958659998374,None,,,1002,m,7,r,MS,2022_Feb_10_2157,WASABI Nback,2020.2.10,59.9973961001666,
0,1,4,"[-0.2, 0]",None,0,0,0,0,,,,,0,0,0,0,0,24,24,24,,,,,,,,,None,None,0,130.79964530002326,None,130.79964530002326,131.7996206000098,131.78295389999403,132.78296620002948,0,1,130.79964530002326,None,,,1002,m,7,r,MS,2022_Feb_10_2157,WASABI Nback,2020.2.10,59.9973961001666,
0,1,5,"[0, 0]",None,0,0,0,0,,,,,0,0,0,0,0,25,25,25,,,,,,,,,None,None,0,132.799613900017,None,132.799613900017,133.79964290000498,133.78297400003066,134.78298030002043,0,1,132.799613900017,None,,,1002,m,7,r,MS,2022_Feb_10_2157,WASABI Nback,2020.2.10,59.9973961001666,
0,1,2,"[0, 0.2]",None,0,0,0,0,,,,,0,0,0,0,0,26,26,26,,,,,,,,,None,None,0,134.79963780002436,None,134.79963780002436,135.7996012000367,135.78299179999158,136.7829967000289,0,1,134.79963780002436,None,,,1002,m,7,r,MS,2022_Feb_10_2157,WASABI Nback,2020.2.10,59.9973961001666,
0,1,6,"[0.2, 0]",None,0,0,0,0,,,,,0,0,0,0,0,27,27,27,,,,,,,,,None,None,0,136.79965900001116,None,136.79965900001116,137.7996597000165,137.78297070000554,138.7830205000355,0,1,136.79965900001116,None,,,1002,m,7,r,MS,2022_Feb_10_2157,WASABI Nback,2020.2.10,59.9973961001666,
0,1,7,"[-0.2, -0.2]",None,0,0,0,0,,,,,0,0,0,0,0,28,28,28,,,,,,,,,None,None,0,138.79968559998088,None,138.79968559998088,139.79970299999695,139.78302400000393,140.78302630002145,0,1,138.79968559998088,None,,,1002,m,7,r,MS,2022_Feb_10_2157,WASABI Nback,2020.2.10,59.9973961001666,
0,1,6,"[0.2, 0]",1,0,0,0,0,,,,,0,0,0,0,0,29,29,29,,,,,,,,,None,None,0,140.79972300003283,None,140.79972300003283,141.79968860000372,141.78304050001316,142.78307800000766,0,1,140.79972300003283,None,,,1002,m,7,r,MS,2022_Feb_10_2157,WASABI Nback,2020.2.10,59.9973961001666,
0,1,6,"[0.2, 0]",None,0,0,0,0,,,,,0,0,0,0,0,30,30,30,,,,,,,,,None,None,0,142.79973510000855,None,142.79973510000855,143.79972250002902,143.78305139997974,144.78305470000487,0,0,142.79973510000855,None,,,1002,m,7,r,MS,2022_Feb_10_2157,WASABI Nback,2020.2.10,59.9973961001666,
0,1,7,"[-0.2, -0.2]",None,0,0,0,0,,,,,0,0,0,0,0,31,31,31,,,,,,,,,None,None,0,144.79971079999814,None,144.79971079999814,145.7997365000192,145.78306300000986,146.78307020000648,0,1,144.79971079999814,None,,,1002,m,7,r,MS,2022_Feb_10_2157,WASABI Nback,2020.2.10,59.9973961001666,
0,1,6,"[0.2, 0]",1,0,0,0,0,,,,,0,0,0,0,0,32,32,32,,,,,,,,,None,None,0,146.79973249998875,None,146.79973249998875,147.79973229998723,147.78309620002983,148.7830893000355,0,0,146.79973249998875,None,,,1002,m,7,r,MS,2022_Feb_10_2157,WASABI Nback,2020.2.10,59.9973961001666,
0,1,2,"[0, 0.2]",None,0,0,0,0,,,,,0,0,0,0,0,33,33,33,,,,,,,,,None,None,0,148.79974719998427,None,148.79974719998427,149.79975390003528,149.78309620002983,150.78311580000445,0,1,148.79974719998427,None,,,1002,m,7,r,MS,2022_Feb_10_2157,WASABI Nback,2020.2.10,59.9973961001666,
0,1,5,"[0, 0]",None,0,0,0,0,,,,,0,0,0,0,0,34,34,34,,,,,,,,,None,None,0,150.7997796999989,None,150.7997796999989,151.79972599999746,151.7831378999981,152.78312720003305,0,1,150.7997796999989,None,,,1002,m,7,r,MS,2022_Feb_10_2157,WASABI Nback,2020.2.10,59.9973961001666,
0,1,4,"[-0.2, 0]",None,0,0,0,0,,,,,0,0,0,0,0,35,35,35,,,,,,,,,None,None,0,152.79979050002294,None,152.79979050002294,153.7998021999956,153.78312899998855,154.783141300024,0,1,152.79979050002294,None,,,1002,m,7,r,MS,2022_Feb_10_2157,WASABI Nback,2020.2.10,59.9973961001666,
0,1,4,"[-0.2, 0]",None,0,0,0,0,,,,,0,0,0,0,0,36,36,36,,,,,,,,,None,None,0,154.7998214000254,None,154.7998214000254,155.799803300004,155.7831513999845,156.7831540000043,0,1,154.7998214000254,None,,,1002,m,7,r,MS,2022_Feb_10_2157,WASABI Nback,2020.2.10,59.9973961001666,
0,1,7,"[-0.2, -0.2]",None,0,0,0,0,,,,,0,0,0,0,0,37,37,37,,,,,,,,,None,None,0,156.79982770001516,None,156.79982770001516,157.79982000001473,157.7831686999998,158.78317409998272,0,1,156.79982770001516,None,,,1002,m,7,r,MS,2022_Feb_10_2157,WASABI Nback,2020.2.10,59.9973961001666,
0,1,4,"[-0.2, 0]",1,0,0,0,0,,,,,0,0,0,0,0,38,38,38,,,,,,,,,None,None,0,158.7998423000099,None,158.7998423000099,159.79984849999892,159.78314469999168,160.7831884000334,0,0,158.7998423000099,None,,,1002,m,7,r,MS,2022_Feb_10_2157,WASABI Nback,2020.2.10,59.9973961001666,
0,1,3,"[0.2, 0.2]",None,0,0,0,0,,,,,0,0,0,0,0,39,39,39,,,,,,,,,None,None,0,160.79984410002362,None,160.79984410002362,161.799865900015,161.78319370001554,162.7832016000175,0,1,160.79984410002362,None,,,1002,m,7,r,MS,2022_Feb_10_2157,WASABI Nback,2020.2.10,59.9973961001666,
0,1,5,"[0, 0]",None,0,0,0,0,,,,,0,0,0,0,0,40,40,40,,,,,,,,,None,None,0,162.79976570000872,None,162.79976570000872,163.7998664000188,163.78320770000573,164.78321600001073,0,1,162.79976570000872,None,,,1002,m,7,r,MS,2022_Feb_10_2157,WASABI Nback,2020.2.10,59.9973961001666,
0,1,3,"[0.2, 0.2]",1,0,0,0,0,,,,,0,0,0,0,0,41,41,41,,,,,,,,,None,None,0,164.7998822000227,None,164.7998822000227,165.79987540002912,165.7832223000005,166.783230800007,0,0,164.7998822000227,None,,,1002,m,7,r,MS,2022_Feb_10_2157,WASABI Nback,2020.2.10,59.9973961001666,
0,1,1,"[-0.2, 0.2]",None,0,0,0,0,,,,,0,0,0,0,0,42,42,42,,,,,,,,,None,None,0,166.79990430001635,None,166.79990430001635,167.79991180001525,167.7832417000318,168.78324800002156,0,1,166.79990430001635,None,,,1002,m,7,r,MS,2022_Feb_10_2157,WASABI Nback,2020.2.10,59.9973961001666,
0,1,9,"[0.2, -0.2]",None,0,0,0,0,,,,,0,0,0,0,0,43,43,43,,,,,,,,,None,None,0,168.79990540002473,None,168.79990540002473,169.79991260002134,169.78325610002503,170.78325430001132,0,1,168.79990540002473,None,,,1002,m,7,r,MS,2022_Feb_10_2157,WASABI Nback,2020.2.10,59.9973961001666,
0,1,9,"[0.2, -0.2]",None,0,0,0,0,,,,,0,0,0,0,0,44,44,44,,,,,,,,,None,None,0,170.79994490003446,None,170.79994490003446,171.79994330002228,171.78327379998518,172.78328560001682,0,1,170.79994490003446,None,,,1002,m,7,r,MS,2022_Feb_10_2157,WASABI Nback,2020.2.10,59.9973961001666,
0,1,8,"[0, -0.2]",None,0,0,0,0,,,,,0,0,0,0,0,45,45,45,,,,,,,,,None,None,0,172.79996979999123,None,172.79996979999123,173.79996800003573,173.7832892999868,174.7832937000203,0,1,172.79996979999123,None,,,1002,m,7,r,MS,2022_Feb_10_2157,WASABI Nback,2020.2.10,59.9973961001666,
0,1,6,"[0.2, 0]",None,0,0,0,0,,,,,0,0,0,0,0,46,46,46,,,,,,,,,None,None,0,174.79996800003573,None,174.79996800003573,175.79997589997947,175.7833092000219,176.78331820003223,0,1,174.79996800003573,None,,,1002,m,7,r,MS,2022_Feb_10_2157,WASABI Nback,2020.2.10,59.9973961001666,
0,1,3,"[0.2, 0.2]",None,0,0,0,0,,,,,0,0,0,0,0,47,47,47,,,,,,,,,None,None,0,176.799976099981,None,176.799976099981,177.80001170001924,177.78331810003147,178.78332689998206,0,1,176.799976099981,None,,,1002,m,7,r,MS,2022_Feb_10_2157,WASABI Nback,2020.2.10,59.9973961001666,
0,1,6,"[0.2, 0]",1,0,0,0,0,,,,,0,0,0,0,0,48,48,48,,,,,,,,,None,None,0,178.80000470002415,None,178.80000470002415,179.80000930000097,179.7833069000044,180.78334399999585,0,1,178.80000470002415,None,,,1002,m,7,r,MS,2022_Feb_10_2157,WASABI Nback,2020.2.10,59.9973961001666,
0,1,5,"[0, 0]",None,0,0,0,0,,,,,0,0,0,0,0,49,49,49,,,,,,,,,None,None,0,180.80000799999107,None,180.80000799999107,181.8000271000201,181.7832506999839,182.78336130001117,0,1,180.80000799999107,None,,,1002,m,7,r,MS,2022_Feb_10_2157,WASABI Nback,2020.2.10,59.9973961001666,
0,1,7,"[-0.2, -0.2]",None,0,0,0,0,,,,,0,0,0,0,0,50,50,50,,,,,,,,,None,None,0,182.80003859999124,None,182.80003859999124,183.80002279998735,183.78336760000093,184.78337840002496,0,1,182.80003859999124,None,,,1002,m,7,r,MS,2022_Feb_10_2157,WASABI Nback,2020.2.10,59.9973961001666,
0,1,5,"[0, 0]",1,0,0,0,0,,,,,0,0,0,0,0,51,51,51,,,,,,,,,None,None,0,184.80004890001146,None,184.80004890001146,185.8000638000085,185.783378800028,186.78339240001515,0,1,184.80004890001146,None,,,1002,m,7,r,MS,2022_Feb_10_2157,WASABI Nback,2020.2.10,59.9973961001666,
0,1,1,"[-0.2, 0.2]",None,0,0,0,0,,,,,0,0,0,0,0,52,52,52,,,,,,,,,None,None,0,186.80005999997957,None,186.80005999997957,187.8000809000223,187.78339390002657,188.78340590000153,0,1,186.80005999997957,None,,,1002,m,7,r,MS,2022_Feb_10_2157,WASABI Nback,2020.2.10,59.9973961001666,
0,1,7,"[-0.2, -0.2]",None,0,0,0,0,,,,,0,0,0,0,0,53,53,53,,,,,,,,,None,None,0,188.80007549998118,None,188.80007549998118,189.80008770001587,189.78341460000956,190.7834236000199,0,1,188.80007549998118,None,,,1002,m,7,r,MS,2022_Feb_10_2157,WASABI Nback,2020.2.10,59.9973961001666,
0,1,9,"[0.2, -0.2]",None,0,0,0,0,,,,,0,0,0,0,0,54,54,54,,,,,,,,,None,None,0,190.80010120000225,None,190.80010120000225,191.80009909998626,191.78342829999747,192.78344339999603,0,1,190.80010120000225,None,,,1002,m,7,r,MS,2022_Feb_10_2157,WASABI Nback,2020.2.10,59.9973961001666,
0,1,3,"[0.2, 0.2]",None,0,0,0,0,,,,,0,0,0,0,0,55,55,55,,,,,,,,,None,None,0,192.80009269999573,None,192.80009269999573,193.80012760002865,193.78337419999298,194.78345029999036,0,1,192.80009269999573,None,,,1002,m,7,r,MS,2022_Feb_10_2157,WASABI Nback,2020.2.10,59.9973961001666,
0,1,9,"[0.2, -0.2]",1,0,0,0,0,,,,,0,0,0,0,0,56,56,56,,,,,,,,,None,None,0,194.80011800001375,None,194.80011800001375,195.80013590003364,195.7834603000083,196.78347650001524,0,1,194.80011800001375,None,,,1002,m,7,r,MS,2022_Feb_10_2157,WASABI Nback,2020.2.10,59.9973961001666,
0,1,6,"[0.2, 0]",None,0,0,0,0,,,,,0,0,0,0,0,57,57,57,,,,,,,,,None,None,0,196.8001457999926,None,196.8001457999926,197.80014280002797,197.78348290000577,198.7834846000187,0,1,196.8001457999926,None,,,1002,m,7,r,MS,2022_Feb_10_2157,WASABI Nback,2020.2.10,59.9973961001666,
0,1,2,"[0, 0.2]",None,0,0,0,0,,,,,0,0,0,0,0,58,58,58,,,,,,,,,None,None,0,198.800209500012,None,198.800209500012,199.80017330002738,199.78349020000314,200.78349800000433,0,1,198.800209500012,None,,,1002,m,7,r,MS,2022_Feb_10_2157,WASABI Nback,2020.2.10,59.9973961001666,
0,1,5,"[0, 0]",None,0,0,0,0,,,,,0,0,0,0,0,59,59,59,,,,,,,,,None,None,0,200.80016590002924,None,200.80016590002924,201.80018160003237,201.783505600004,202.78351919999113,0,1,200.80016590002924,None,,,1002,m,7,r,MS,2022_Feb_10_2157,WASABI Nback,2020.2.10,59.9973961001666,
0,1,5,"[0, 0]",None,0,0,0,0,,,,,0,0,0,0,0,60,60,60,,,,,,,,,None,None,0,202.80019540002104,None,202.80019540002104,203.80019229999743,203.78352050000103,204.78353439999046,0,1,202.80019540002104,None,,,1002,m,7,r,MS,2022_Feb_10_2157,WASABI Nback,2020.2.10,59.9973961001666,
0,1,2,"[0, 0.2]",None,0,0,0,0,,,,,0,0,0,0,0,61,61,61,,,,,,,,,None,None,0,204.80020629998762,None,204.80020629998762,205.80020629998762,205.78354899998521,206.78355089999968,0,0,204.80020629998762,None,,,1002,m,7,r,MS,2022_Feb_10_2157,WASABI Nback,2020.2.10,59.9973961001666,
0,1,6,"[0.2, 0]",None,0,0,0,0,,,,,0,0,0,0,0,62,62,62,,,,,,,,,None,None,0,206.80021650000708,None,206.80021650000708,207.8002333000186,207.78355819999706,208.78346609999426,0,1,206.80021650000708,None,,,1002,m,7,r,MS,2022_Feb_10_2157,WASABI Nback,2020.2.10,59.9973961001666,
0,1,9,"[0.2, -0.2]",None,0,0,0,0,,,,,0,0,0,0,0,63,63,63,,,,,,,,,None,None,0,208.80023550003534,None,208.80023550003534,209.80024680000497,209.78357189998496,210.7835808999953,0,1,208.80023550003534,None,,,1002,m,7,r,MS,2022_Feb_10_2157,WASABI Nback,2020.2.10,59.9973961001666,
0,1,3,"[0.2, 0.2]",None,0,0,0,0,,,,,0,0,0,0,0,64,64,64,,,,,,,,,None,None,0,210.8002518999856,None,210.8002518999856,211.8002523999894,211.783588899998,212.78359880001517,0,1,210.8002518999856,None,,,1002,m,7,r,MS,2022_Feb_10_2157,WASABI Nback,2020.2.10,59.9973961001666,
0,1,9,"[0.2, -0.2]",1,0,0,0,0,,,,,0,0,0,0,0,65,65,65,,,,,,,,,None,None,0,212.80025349999778,None,212.80025349999778,213.80027559999144,213.78361149999546,214.78360979998251,0,1,212.80025349999778,None,,,1002,m,7,r,MS,2022_Feb_10_2157,WASABI Nback,2020.2.10,59.9973961001666,
0,1,7,"[-0.2, -0.2]",None,0,0,0,0,,,,,0,0,0,0,0,66,66,66,,,,,,,,,None,None,0,214.80028949998086,None,214.80028949998086,215.8002751999884,215.78362110001035,216.7836303000222,0,1,214.80028949998086,None,,,1002,m,7,r,MS,2022_Feb_10_2157,WASABI Nback,2020.2.10,59.9973961001666,
0,1,1,"[-0.2, 0.2]",None,0,0,0,0,,,,,0,0,0,0,0,67,67,67,,,,,,,,,None,None,0,216.80030250002164,None,216.80030250002164,217.80031309998594,217.7836435000063,218.7836440000101,0,1,216.80030250002164,None,,,1002,m,7,r,MS,2022_Feb_10_2157,WASABI Nback,2020.2.10,59.9973961001666,
0,1,5,"[0, 0]",None,0,0,0,0,,,,,0,0,0,0,0,68,68,68,,,,,,,,,None,None,0,218.80031030002283,None,218.80031030002283,219.80032450001454,219.78365040000062,220.78366170002846,0,1,218.80031030002283,None,,,1002,m,7,r,MS,2022_Feb_10_2157,WASABI Nback,2020.2.10,59.9973961001666,
0,1,7,"[-0.2, -0.2]",None,0,0,0,0,,,,,0,0,0,0,0,69,69,69,,,,,,,,,None,None,0,220.80032270000083,None,220.80032270000083,221.8003417000291,221.7836716999882,222.78367550001713,0,0,220.80032270000083,None,,,1002,m,7,r,MS,2022_Feb_10_2157,WASABI Nback,2020.2.10,59.9973961001666,
0,1,5,"[0, 0]",1,0,0,0,0,,,,,0,0,0,0,0,70,70,70,,,,,,,,,None,None,0,222.80033090000506,None,222.80033090000506,223.80034369998612,223.78367989999242,224.78370010002982,0,0,222.80033090000506,None,,,1002,m,7,r,MS,2022_Feb_10_2157,WASABI Nback,2020.2.10,59.9973961001666,
0,1,6,"[0.2, 0]",None,0,0,0,0,,,,,0,0,0,0,0,71,71,71,,,,,,,,,None,None,0,224.8003669999889,None,224.8003669999889,225.8003717000247,225.78369970002677,226.78370279999217,0,1,224.8003669999889,None,,,1002,m,7,r,MS,2022_Feb_10_2157,WASABI Nback,2020.2.10,59.9973961001666,
0,1,3,"[0.2, 0.2]",None,0,0,0,0,,,,,0,0,0,0,0,72,72,72,,,,,,,,,None,None,0,226.80036629998358,None,226.80036629998358,227.8003835999989,227.78371779998997,228.7837229000288,0,1,226.80036629998358,None,,,1002,m,7,r,MS,2022_Feb_10_2157,WASABI Nback,2020.2.10,59.9973961001666,
0,1,6,"[0.2, 0]",1,0,0,0,0,,,,,0,0,0,0,0,73,73,73,,,,,,,,,None,None,0,228.8003761,None,228.8003761,229.80040700000245,229.78372820001096,230.78373890003422,0,0,228.8003761,None,,,1002,m,7,r,MS,2022_Feb_10_2157,WASABI Nback,2020.2.10,59.9973961001666,
0,1,8,"[0, -0.2]",None,0,0,0,0,,,,,0,0,0,0,0,74,74,74,,,,,,,,,None,None,0,230.80041140003596,None,230.80041140003596,231.80039330001455,231.78374430001713,232.78375250002136,0,1,230.80041140003596,None,,,1002,m,7,r,MS,2022_Feb_10_2157,WASABI Nback,2020.2.10,59.9973961001666,
0,1,9,"[0.2, -0.2]",None,0,0,0,0,,,,,0,0,0,0,0,75,75,75,,,,,,,,,None,None,0,232.8004260000307,None,232.8004260000307,233.80043459997978,233.78376989997923,234.78376190003473,0,1,232.8004260000307,None,,,1002,m,7,r,MS,2022_Feb_10_2157,WASABI Nback,2020.2.10,59.9973961001666,
0,1,9,"[0.2, -0.2]",None,0,0,0,0,,,,,0,0,0,0,0,76,76,76,,,,,,,,,None,None,0,234.8004245000193,None,234.8004245000193,235.8004500999814,235.7837859999854,236.78384980000556,0,1,234.8004245000193,None,,,1002,m,7,r,MS,2022_Feb_10_2157,WASABI Nback,2020.2.10,59.9973961001666,
0,1,1,"[-0.2, 0.2]",None,0,0,0,0,,,,,0,0,0,0,0,77,77,77,,,,,,,,,None,None,0,236.800459399994,None,236.800459399994,237.8004660999868,237.78379140002653,238.7837928000372,0,1,236.800459399994,None,,,1002,m,7,r,MS,2022_Feb_10_2157,WASABI Nback,2020.2.10,59.9973961001666,
0,1,3,"[0.2, 0.2]",None,0,0,0,0,,,,,0,0,0,0,0,78,78,78,,,,,,,,,None,None,0,238.80047220003325,None,238.80047220003325,239.80048480001278,239.78380670002662,240.7838507000124,0,1,238.80047220003325,None,,,1002,m,7,r,MS,2022_Feb_10_2157,WASABI Nback,2020.2.10,59.9973961001666,
0,1,5,"[0, 0]",None,0,0,0,0,,,,,0,0,0,0,0,79,79,79,,,,,,,,,None,None,0,240.80047140002716,None,240.80047140002716,241.80050050001591,241.7838360000169,242.78383380000014,0,1,240.80047140002716,None,,,1002,m,7,r,MS,2022_Feb_10_2157,WASABI Nback,2020.2.10,59.9973961001666,
0,1,3,"[0.2, 0.2]",1,0,0,0,0,,,,,0,0,0,0,0,80,80,80,,,,,,,,,None,None,0,242.80050670000492,None,242.80050670000492,243.8004938000231,243.78384729998652,244.78385760000674,0,0,242.80050670000492,None,,,1002,m,7,r,MS,2022_Feb_10_2157,WASABI Nback,2020.2.10,59.9973961001666,
0,1,4,"[-0.2, 0]",None,0,0,0,0,,,,,0,0,0,0,0,81,81,81,,,,,,,,,None,None,0,244.80052669998258,None,244.80052669998258,245.80054030002793,245.7838598000235,246.78387109999312,0,1,244.80052669998258,None,,,1002,m,7,r,MS,2022_Feb_10_2157,WASABI Nback,2020.2.10,59.9973961001666,
0,1,7,"[-0.2, -0.2]",None,0,0,0,0,,,,,0,0,0,0,0,82,82,82,,,,,,,,,None,None,0,246.80051820003428,None,246.80051820003428,247.80055139999604,247.783882800024,248.78388469998026,0,1,246.80051820003428,None,,,1002,m,7,r,MS,2022_Feb_10_2157,WASABI Nback,2020.2.10,59.9973961001666,
0,1,4,"[-0.2, 0]",1,0,0,0,0,,,,,0,0,0,0,0,83,83,83,,,,,,,,,None,None,0,248.8005391000188,None,248.8005391000188,249.80054359999485,249.7838608000311,250.7839043000131,0,1,248.8005391000188,None,,,1002,m,7,r,MS,2022_Feb_10_2157,WASABI Nback,2020.2.10,59.9973961001666,
0,1,4,"[-0.2, 0]",None,0,0,0,0,,,,,0,0,0,0,0,84,84,84,,,,,,,,,None,None,0,250.80057369999122,None,250.80057369999122,251.80057100002887,251.78390929999296,252.78391430003103,0,1,250.80057369999122,None,,,1002,m,7,r,MS,2022_Feb_10_2157,WASABI Nback,2020.2.10,59.9973961001666,
0,1,5,"[0, 0]",None,0,0,0,0,,,,,0,0,0,0,0,85,85,85,,,,,,,,,None,None,0,252.8005859000259,None,252.8005859000259,253.8006309000193,253.78392379998695,254.78392970003188,0,1,252.8005859000259,None,,,1002,m,7,r,MS,2022_Feb_10_2157,WASABI Nback,2020.2.10,59.9973961001666,
0,1,2,"[0, 0.2]",None,0,0,0,0,,,,,0,0,0,0,0,86,86,86,,,,,,,,,None,None,0,254.80060289998073,None,254.80060289998073,255.80061289999867,255.7839338000049,256.7839485000004,0,1,254.80060289998073,None,,,1002,m,7,r,MS,2022_Feb_10_2157,WASABI Nback,2020.2.10,59.9973961001666,
0,1,6,"[0.2, 0]",None,0,0,0,0,,,,,0,0,0,0,0,87,87,87,,,,,,,,,None,None,0,256.8006232000189,None,256.8006232000189,257.8006376000121,257.7839529000339,258.78396420000354,0,1,256.8006232000189,None,,,1002,m,7,r,MS,2022_Feb_10_2157,WASABI Nback,2020.2.10,59.9973961001666,
0,1,7,"[-0.2, -0.2]",None,0,0,0,0,,,,,0,0,0,0,0,88,88,88,,,,,,,,,None,None,0,258.80060930002946,None,258.80060930002946,259.8006500999909,259.7839841999812,260.7839803000097,0,1,258.80060930002946,None,,,1002,m,7,r,MS,2022_Feb_10_2157,WASABI Nback,2020.2.10,59.9973961001666,
0,1,6,"[0.2, 0]",1,0,0,0,0,,,,,0,0,0,0,0,89,89,89,,,,,,,,,None,None,0,260.8006485000369,None,260.8006485000369,261.80063880002126,261.78401669999585,262.7839945000014,0,1,260.8006485000369,None,,,1002,m,7,r,MS,2022_Feb_10_2157,WASABI Nback,2020.2.10,59.9973961001666,
0,1,6,"[0.2, 0]",None,0,0,0,0,,,,,0,0,0,0,0,90,90,90,,,,,,,,,None,None,0,262.8006480000331,None,262.8006480000331,263.800663800037,263.784007499984,264.7840176000027,0,1,262.8006480000331,None,,,1002,m,7,r,MS,2022_Feb_10_2157,WASABI Nback,2020.2.10,59.9973961001666,
0,1,7,"[-0.2, -0.2]",None,0,0,0,0,,,,,0,0,0,0,0,91,91,91,,,,,,,,,None,None,0,264.8006880999892,None,264.8006880999892,265.80068460002076,265.7840207000263,266.7840272000176,0,1,264.8006880999892,None,,,1002,m,7,r,MS,2022_Feb_10_2157,WASABI Nback,2020.2.10,59.9973961001666,
0,1,6,"[0.2, 0]",1,0,0,0,0,,,,,0,0,0,0,0,92,92,92,,,,,,,,,None,None,0,266.8006847000215,None,266.8006847000215,267.80068719998235,267.78403939999407,268.78404410002986,0,0,266.8006847000215,None,,,1002,m,7,r,MS,2022_Feb_10_2157,WASABI Nback,2020.2.10,59.9973961001666,
0,1,2,"[0, 0.2]",None,0,0,0,0,,,,,0,0,0,0,0,93,93,93,,,,,,,,,None,None,0,268.8007173999795,None,268.8007173999795,269.8007195999962,269.78404880000744,270.7840705999988,0,1,268.8007173999795,None,,,1002,m,7,r,MS,2022_Feb_10_2157,WASABI Nback,2020.2.10,59.9973961001666,
0,1,5,"[0, 0]",None,0,0,0,0,,,,,0,0,0,0,0,94,94,94,,,,,,,,,None,None,0,270.8007351999986,None,270.8007351999986,271.80073170003016,271.7840727000148,272.7839808000135,0,1,270.8007351999986,None,,,1002,m,7,r,MS,2022_Feb_10_2157,WASABI Nback,2020.2.10,59.9973961001666,
0,1,4,"[-0.2, 0]",None,0,0,0,0,,,,,0,0,0,0,0,95,95,95,,,,,,,,,None,None,0,272.8007405999815,None,272.8007405999815,273.8007571999915,273.78409590001684,274.78409169998486,0,1,272.8007405999815,None,,,1002,m,7,r,MS,2022_Feb_10_2157,WASABI Nback,2020.2.10,59.9973961001666,
0,1,4,"[-0.2, 0]",None,0,0,0,0,,,,,0,0,0,0,0,96,96,96,,,,,,,,,None,None,0,274.800745000015,None,274.800745000015,275.8007721999893,275.7841043000226,276.78411790000973,0,1,274.800745000015,None,,,1002,m,7,r,MS,2022_Feb_10_2157,WASABI Nback,2020.2.10,59.9973961001666,
0,1,7,"[-0.2, -0.2]",None,0,0,0,0,,,,,0,0,0,0,0,97,97,97,,,,,,,,,None,None,0,276.80077590001747,None,276.80077590001747,277.8007728999946,277.784115699993,278.7841271000216,0,1,276.80077590001747,None,,,1002,m,7,r,MS,2022_Feb_10_2157,WASABI Nback,2020.2.10,59.9973961001666,
0,1,4,"[-0.2, 0]",1,0,0,0,0,,,,,0,0,0,0,0,98,98,98,,,,,,,,,None,None,0,278.80079539999133,None,278.80079539999133,279.80083110003034,279.7841434000293,280.7841451999848,0,1,278.80079539999133,None,,,1002,m,7,r,MS,2022_Feb_10_2157,WASABI Nback,2020.2.10,59.9973961001666,
0,1,3,"[0.2, 0.2]",None,0,0,0,0,,,,,0,0,0,0,0,99,99,99,,,,,,,,,None,None,0,280.8007962999982,None,280.8007962999982,281.8008214000147,281.78414449997945,282.7841828999808,0,1,280.8007962999982,None,,,1002,m,7,r,MS,2022_Feb_10_2157,WASABI Nback,2020.2.10,59.9973961001666,
0,1,5,"[0, 0]",None,0,0,0,0,,,,,0,0,0,0,0,100,100,100,,,,,,,,,None,None,0,282.8008521000156,None,282.8008521000156,283.8008162000333,283.7841571000172,284.78416959999595,0,1,282.8008521000156,None,,,1002,m,7,r,MS,2022_Feb_10_2157,WASABI Nback,2020.2.10,59.9973961001666,
0,1,3,"[0.2, 0.2]",1,0,0,0,0,,,,,0,0,0,0,0,101,101,101,,,,,,,,,None,None,0,284.80073429999175,None,284.80073429999175,285.8008490999928,285.78418850002345,286.78418299998157,0,0,284.80073429999175,None,,,1002,m,7,r,MS,2022_Feb_10_2157,WASABI Nback,2020.2.10,59.9973961001666,
0,1,1,"[-0.2, 0.2]",None,0,0,0,0,,,,,0,0,0,0,0,102,102,102,,,,,,,,,None,None,0,286.80086210003356,None,286.80086210003356,287.8008434000076,287.78419780003605,288.78420679998817,0,1,286.80086210003356,None,,,1002,m,7,r,MS,2022_Feb_10_2157,WASABI Nback,2020.2.10,59.9973961001666,
0,1,9,"[0.2, -0.2]",None,0,0,0,0,,,,,0,0,0,0,0,103,103,103,,,,,,,,,None,None,0,288.80086160002975,None,288.80086160002975,289.80087300000014,289.7842157999985,290.78421880002134,0,0,288.80086160002975,None,,,1002,m,7,r,MS,2022_Feb_10_2157,WASABI Nback,2020.2.10,59.9973961001666,
0,1,9,"[0.2, -0.2]",None,0,0,0,0,,,,,0,0,0,0,0,104,104,104,,,,,,,,,None,None,0,290.80087430001004,None,290.80087430001004,291.80089830001816,291.78422909998335,292.7842316000024,0,1,290.80087430001004,None,,,1002,m,7,r,MS,2022_Feb_10_2157,WASABI Nback,2020.2.10,59.9973961001666,
0,1,8,"[0, -0.2]",None,0,0,0,0,,,,,0,0,0,0,0,105,105,105,,,,,,,,,None,None,0,292.8008631999837,None,292.8008631999837,293.8009150000289,293.78424000000814,294.78426220000256,0,1,292.8008631999837,None,,,1002,m,7,r,MS,2022_Feb_10_2157,WASABI Nback,2020.2.10,59.9973961001666,
0,1,6,"[0.2, 0]",None,0,0,0,0,,,,,0,0,0,0,0,106,106,106,,,,,,,,,None,None,0,294.80091950000497,None,294.80091950000497,295.80093189998297,295.7842623000033,296.78426400001626,0,1,294.80091950000497,None,,,1002,m,7,r,MS,2022_Feb_10_2157,WASABI Nback,2020.2.10,59.9973961001666,
0,1,3,"[0.2, 0.2]",None,0,0,0,0,,,,,0,0,0,0,0,107,107,107,,,,,,,,,None,None,0,296.800903299998,None,296.800903299998,297.80094390001614,297.78426119999494,298.78428530000383,0,1,296.800903299998,None,,,1002,m,7,r,MS,2022_Feb_10_2157,WASABI Nback,2020.2.10,59.9973961001666,
0,1,6,"[0.2, 0]",1,0,0,0,0,,,,,0,0,0,0,0,108,108,108,,,,,,,,,None,None,0,298.800961400033,None,298.800961400033,299.80096020002384,299.7843040000298,300.7842963000294,0,1,298.800961400033,None,,,1002,m,7,r,MS,2022_Feb_10_2157,WASABI Nback,2020.2.10,59.9973961001666,
0,1,5,"[0, 0]",None,0,0,0,0,,,,,0,0,0,0,0,109,109,109,,,,,,,,,None,None,0,300.80097470001783,None,300.80097470001783,301.8009693000349,301.7843004000024,302.7843095000135,0,1,300.80097470001783,None,,,1002,m,7,r,MS,2022_Feb_10_2157,WASABI Nback,2020.2.10,59.9973961001666,
0,1,7,"[-0.2, -0.2]",None,0,0,0,0,,,,,0,0,0,0,0,110,110,110,,,,,,,,,None,None,0,302.80100129998755,None,302.80100129998755,303.8009963000077,303.7843183000223,304.78432299999986,0,1,302.80100129998755,None,,,1002,m,7,r,MS,2022_Feb_10_2157,WASABI Nback,2020.2.10,59.9973961001666,
0,1,5,"[0, 0]",1,0,0,0,0,,,,,0,0,0,0,0,111,111,111,,,,,,,,,None,None,0,304.80099610000616,None,304.80099610000616,305.8009986000252,305.7843348000315,306.7842439999804,0,0,304.80099610000616,None,,,1002,m,7,r,MS,2022_Feb_10_2157,WASABI Nback,2020.2.10,59.9973961001666,
0,1,1,"[-0.2, 0.2]",None,0,0,0,0,,,,,0,0,0,0,0,112,112,112,,,,,,,,,None,None,0,306.8010296000284,None,306.8010296000284,307.80103909998434,307.7843503000331,308.7843380999984,0,1,306.8010296000284,None,,,1002,m,7,r,MS,2022_Feb_10_2157,WASABI Nback,2020.2.10,59.9973961001666,
0,1,7,"[-0.2, -0.2]",None,0,0,0,0,,,,,0,0,0,0,0,113,113,113,,,,,,,,,None,None,0,308.8010377000319,None,308.8010377000319,309.8010340000037,309.78435949998675,310.7843753999914,0,1,308.8010377000319,None,,,1002,m,7,r,MS,2022_Feb_10_2157,WASABI Nback,2020.2.10,59.9973961001666,
0,1,9,"[0.2, -0.2]",None,0,0,0,0,,,,,0,0,0,0,0,114,114,114,,,,,,,,,None,None,0,310.80102670000633,None,310.80102670000633,311.80105770000955,311.78438430000097,312.78439049998997,0,1,310.80102670000633,None,,,1002,m,7,r,MS,2022_Feb_10_2157,WASABI Nback,2020.2.10,59.9973961001666,
0,1,3,"[0.2, 0.2]",None,0,0,0,0,,,,,0,0,0,0,0,115,115,115,,,,,,,,,None,None,0,312.8010323999915,None,312.8010323999915,313.8010765000363,313.7843989999965,314.78432540001813,0,1,312.8010323999915,None,,,1002,m,7,r,MS,2022_Feb_10_2157,WASABI Nback,2020.2.10,59.9973961001666,
0,1,9,"[0.2, -0.2]",1,0,0,0,0,,,,,0,0,0,0,0,116,116,116,,,,,,,,,None,None,0,314.80108509998536,None,314.80108509998536,315.80108930001734,315.78441490000114,316.7844221999985,0,0,314.80108509998536,None,,,1002,m,7,r,MS,2022_Feb_10_2157,WASABI Nback,2020.2.10,59.9973961001666,
0,1,6,"[0.2, 0]",None,0,0,0,0,,,,,0,0,0,0,0,117,117,117,,,,,,,,,None,None,0,316.8010691999807,None,316.8010691999807,317.80111050000414,317.7844305000035,318.7844385000062,0,1,316.8010691999807,None,,,1002,m,7,r,MS,2022_Feb_10_2157,WASABI Nback,2020.2.10,59.9973961001666,
0,1,2,"[0, 0.2]",None,0,0,0,0,,,,,0,0,0,0,0,118,118,118,,,,,,,,,None,None,0,318.8010972000193,None,318.8010972000193,319.8011184000061,319.7844561000238,320.7844491000287,0,1,318.8010972000193,None,,,1002,m,7,r,MS,2022_Feb_10_2157,WASABI Nback,2020.2.10,59.9973961001666,
0,1,5,"[0, 0]",None,0,0,0,0,,,,,0,0,0,0,0,119,119,119,,,,,,,,,None,None,0,320.80113219999475,None,320.80113219999475,321.8011147000361,321.78443090000656,322.78447700000834,0,0,320.80113219999475,None,,,1002,m,7,r,MS,2022_Feb_10_2157,WASABI Nback,2020.2.10,59.9973961001666,
1,0,,,,0,1,1,1,0,0,0,0,,,,,,,,,,,,,,,,,,,,,,,,,,,,,,357.06808420002926,None,1002,m,7,r,MS,2022_Feb_10_2157,WASABI Nback,2020.2.10,59.9973961001666,
