	SID	date	sex	session	handedness	scanner	onset	duration	repetition	rating	body_site	keys	temperature	conditionrt	mouseclick	biopac_channel	condition	rt	value	skin_site
0	3114	2025_May_07_2004	f	2	r	ss mrs	2.778531300020404	4.999601590097882			Chest					41	Regulation Instruction			2
1	3114	2025_May_07_2004	f	2	r	ss mrs	8.874190300004557	9.02515006007161			Chest					7	Pre-Trial Jitter			2
2	3114	2025_May_07_2004	f	2	r	ss mrs	17.954286699998192	13.018441840074956			Chest		48.5			17	Heat-Stimulation			2
3	3114	2025_May_07_2004	f	2	r	ss mrs	31.0168479999993	5.000802930095233			Chest					8	Post-Trial Jitter			2
4	3114	2025_May_07_2004	f	2	r	ss mrs	36.041007500025444	5.001065919874236			Chest					20	PainBinary	0.9218594999983907	1.0	2
5	3114	2025_May_07_2004	f	2	r	ss mrs	41.05719289998524	5.000583119923249			Chest					21	IntensityRating	2.0569511000066996	40.0	2
6	3114	2025_May_07_2004	f	2	r	ss mrs	46.06875630002469	5.009216719889082			Chest					52	AcceptBinary	0.9533657999709249	1.0	2
7	3114	2025_May_07_2004	f	2	r	ss mrs	51.07634899998084	7.015504610026255			Chest					9	Post-Q-Jitter			2
8	3114	2025_May_07_2004	f	2	r	ss mrs	59.20736520003993	9.02823148004245			Chest					7	Pre-Trial Jitter			2
9	3114	2025_May_07_2004	f	2	r	ss mrs	68.26034689997323	13.008925530011766			Chest		48.5			17	Heat-Stimulation			2
10	3114	2025_May_07_2004	f	2	r	ss mrs	81.31006709998474	5.0002405300037935			Chest					8	Post-Trial Jitter			2
11	3114	2025_May_07_2004	f	2	r	ss mrs	86.33424630004447	5.000443419907242			Chest					20	PainBinary	1.1372820000397041	1.0	2
12	3114	2025_May_07_2004	f	2	r	ss mrs	91.35053609998431	4.999695920036174			Chest					21	IntensityRating	1.3713677999330685	38.99999999999999	2
13	3114	2025_May_07_2004	f	2	r	ss mrs	96.36195699998643	5.008713620016351			Chest					52	AcceptBinary	1.8060408999444917	1.0	2
14	3114	2025_May_07_2004	f	2	r	ss mrs	101.36973639996722	5.008240309893154			Chest					9	Post-Q-Jitter			2
15	3114	2025_May_07_2004	f	2	r	ss mrs	107.43547350005247	9.011412839987315			Chest					7	Pre-Trial Jitter			2
16	3114	2025_May_07_2004	f	2	r	ss mrs	116.47701529995538	13.01501603005454			Chest		48.5			17	Heat-Stimulation			2
17	3114	2025_May_07_2004	f	2	r	ss mrs	129.52704089996405	7.012038430082612			Chest					8	Post-Trial Jitter			2
18	3114	2025_May_07_2004	f	2	r	ss mrs	136.5626318999566	5.012493220041506			Chest					20	PainBinary	1.0703464000253007	1.0	2
19	3114	2025_May_07_2004	f	2	r	ss mrs	141.59284769999795	5.000653519993648			Chest					21	IntensityRating	1.6221265000058338	42.75	2
20	3114	2025_May_07_2004	f	2	r	ss mrs	146.605084800045	5.008018619846553			Chest					52	AcceptBinary	1.6722313999198377	1.0	2
21	3114	2025_May_07_2004	f	2	r	ss mrs	151.61168680002447	9.022649510065094			Chest					9	Post-Q-Jitter			2
22	3114	2025_May_07_2004	f	2	r	ss mrs	161.55237879999913	7.0147254599723965			Chest					7	Pre-Trial Jitter			2
23	3114	2025_May_07_2004	f	2	r	ss mrs	168.61737530003302	13.015204139985144			Chest		48.5			17	Heat-Stimulation			2
24	3114	2025_May_07_2004	f	2	r	ss mrs	181.67682189994957	7.010158630087972			Chest					8	Post-Trial Jitter			2
25	3114	2025_May_07_2004	f	2	r	ss mrs	188.70901740004774	5.000672119902447			Chest					20	PainBinary	0.8030746999429539	1.0	2
26	3114	2025_May_07_2004	f	2	r	ss mrs	193.72638280002866	4.99778161989525			Chest					21	IntensityRating	1.254157300107181	39.41666666666667	2
27	3114	2025_May_07_2004	f	2	r	ss mrs	198.73654329997953	5.009304319974035			Chest					52	AcceptBinary	0.7694152999902144	1.0	2
28	3114	2025_May_07_2004	f	2	r	ss mrs	203.74394299997948	5.009632510016672			Chest					9	Post-Q-Jitter			2
29	3114	2025_May_07_2004	f	2	r	ss mrs	209.88915069994982	7.014651490026154			Chest					7	Pre-Trial Jitter			2
30	3114	2025_May_07_2004	f	2	r	ss mrs	216.9346266000066	13.00399193004705			Chest		48.5			17	Heat-Stimulation			2
31	3114	2025_May_07_2004	f	2	r	ss mrs	229.97923239995725	9.018297030124813			Chest					8	Post-Trial Jitter			2
32	3114	2025_May_07_2004	f	2	r	ss mrs	239.02123620000202	5.012305220006965			Chest					20	PainBinary	1.287669200100936	1.0	2
33	3114	2025_May_07_2004	f	2	r	ss mrs	244.05224109999835	4.998859119950794			Chest					21	IntensityRating	1.2543155999155715	39.666666666666664	2
34	3114	2025_May_07_2004	f	2	r	ss mrs	249.06255160004366	5.010063319932669			Chest					52	AcceptBinary	2.0902517000213265	1.0	2
35	3114	2025_May_07_2004	f	2	r	ss mrs	254.0709772000555	9.021066709887236			Chest					9	Post-Q-Jitter			2
36	3114	2025_May_07_2004	f	2	r	ss mrs	263.3896601999877	5.0134940900607035			Chest					7	Pre-Trial Jitter			2
37	3114	2025_May_07_2004	f	2	r	ss mrs	268.43174400005955	13.003301730146632			Chest		48.5			17	Heat-Stimulation			2
38	3114	2025_May_07_2004	f	2	r	ss mrs	281.47681440005545	7.010297330096364			Chest					8	Post-Trial Jitter			2
39	3114	2025_May_07_2004	f	2	r	ss mrs	288.51018880004995	4.998470619902946			Chest					20	PainBinary	1.020310700056143	1.0	2
40	3114	2025_May_07_2004	f	2	r	ss mrs	293.52684710000176	4.996977119939402			Chest					21	IntensityRating	3.829550000024028	38.58333333333333	2
41	3114	2025_May_07_2004	f	2	r	ss mrs	298.53705100005027	5.008445319952443			Chest					52	AcceptBinary	0.9202104000141844	1.0	2
42	3114	2025_May_07_2004	f	2	r	ss mrs	303.5445208000019	5.008566809934564			Chest					9	Post-Q-Jitter			2
43	3114	2025_May_07_2004	f	2	r	ss mrs	309.4865820000414	7.0186374698532745			Chest					7	Pre-Trial Jitter			2
44	3114	2025_May_07_2004	f	2	r	ss mrs	316.54321729997173	13.019138639909215			Chest		48.5			17	Heat-Stimulation			2
45	3114	2025_May_07_2004	f	2	r	ss mrs	329.59617829998024	7.010320030036382			Chest					8	Post-Trial Jitter			2
46	3114	2025_May_07_2004	f	2	r	ss mrs	336.62840030004736	5.000801819842309			Chest					20	PainBinary	0.7693933999398723	1.0	2
47	3114	2025_May_07_2004	f	2	r	ss mrs	341.6450172000332	4.9992765199858695			Chest					21	IntensityRating	1.6555806999094784	42.5	2
48	3114	2025_May_07_2004	f	2	r	ss mrs	346.6560262000421	5.009107919875532			Chest					52	AcceptBinary	1.2710055999923497	1.0	2
49	3114	2025_May_07_2004	f	2	r	ss mrs	351.6630686999997	4.993530509993434			Chest					9	Post-Q-Jitter			2
50	3114	2025_May_07_2004	f	2	r	ss mrs	357.67494910000823	7.014416820020415			Chest					7	Pre-Trial Jitter			2
51	3114	2025_May_07_2004	f	2	r	ss mrs	364.71086420002393	13.022886430029757			Chest		48.5			17	Heat-Stimulation			2
52	3114	2025_May_07_2004	f	2	r	ss mrs	377.76588640001137	9.016269630054012			Chest					8	Post-Trial Jitter			2
53	3114	2025_May_07_2004	f	2	r	ss mrs	386.8060195000144	4.99727652000729			Chest					20	PainBinary	0.6524257999844849	1.0	2
54	3114	2025_May_07_2004	f	2	r	ss mrs	391.8219781999942	4.99730141996406			Chest					21	IntensityRating	2.2073804000392556	36.75	2
55	3114	2025_May_07_2004	f	2	r	ss mrs	396.8322268000338	5.008633719873615			Chest					52	AcceptBinary	0.7192585000302643	1.0	2
56	3114	2025_May_07_2004	f	2	r	ss mrs	401.8398702000268	7.014831710024737			Chest					9	Post-Q-Jitter			2
57	3114	2025_May_07_2004	f	2	r	ss mrs	409.1629018000094	5.008934990037233			Chest					7	Pre-Trial Jitter			2
58	3114	2025_May_07_2004	f	2	r	ss mrs	414.223825699999	13.011207140050828			Chest		48.5			17	Heat-Stimulation			2
59	3114	2025_May_07_2004	f	2	r	ss mrs	427.27282259997446	7.010336730163544			Chest					8	Post-Trial Jitter			2
60	3114	2025_May_07_2004	f	2	r	ss mrs	434.30751519999467	4.995873919920996			Chest					20	PainBinary	0.7026689000194892	1.0	2
61	3114	2025_May_07_2004	f	2	r	ss mrs	439.32279100001324	4.997126619913615			Chest					21	IntensityRating	2.240917699993588	35.333333333333336	2
62	3114	2025_May_07_2004	f	2	r	ss mrs	444.33334000001196	5.00790581991896			Chest					52	AcceptBinary	1.137218900024891	1.0	2
63	3114	2025_May_07_2004	f	2	r	ss mrs	449.34017560002394	5.0093693101080135			Chest					9	Post-Q-Jitter			2
64	3114	2025_May_07_2004	f	2	r	ss mrs	455.5499162999913	7.019014630117454			Chest					7	Pre-Trial Jitter			2
65	3114	2025_May_07_2004	f	2	r	ss mrs	462.59066019998863	13.017803530092351			Chest		48.5			17	Heat-Stimulation			2
66	3114	2025_May_07_2004	f	2	r	ss mrs	475.6424530999502	5.005092030041851			Chest					8	Post-Trial Jitter			2
67	3114	2025_May_07_2004	f	2	r	ss mrs	480.6694098999724	4.999727819929831			Chest					20	PainBinary	0.936624399968423	1.0	2
68	3114	2025_May_07_2004	f	2	r	ss mrs	485.6842191000469	5.001905019860715			Chest					21	IntensityRating	3.979624400031753	38.666666666666664	2
69	3114	2025_May_07_2004	f	2	r	ss mrs	490.6983491999563	5.005488620023243			Chest					52	AcceptBinary	0.8889336000429466	1.0	2
70	3114	2025_May_07_2004	f	2	r	ss mrs	495.70408990001306	7.0154887100216			Chest					9	Post-Q-Jitter			2
71	3114	2025_May_07_2004	f	2	r	ss mrs	503.00211060000584	9.022179680061527			Chest					7	Pre-Trial Jitter			2
72	3114	2025_May_07_2004	f	2	r	ss mrs	512.0554880000418	13.002147929975763			Chest		48.5			17	Heat-Stimulation			2
73	3114	2025_May_07_2004	f	2	r	ss mrs	525.0996864000335	7.010895229992457			Chest					8	Post-Trial Jitter			2
74	3114	2025_May_07_2004	f	2	r	ss mrs	532.1334265000187	4.99832371994853			Chest					20	PainBinary	0.7359541000332683	1.0	2
75	3114	2025_May_07_2004	f	2	r	ss mrs	537.1497490999755	4.99754051992204			Chest					21	IntensityRating	1.3718550000339746	40.5	2
76	3114	2025_May_07_2004	f	2	r	ss mrs	542.1624001000309	5.004090519854799			Chest					52	AcceptBinary	0.48519839998334646	1.0	2
77	3114	2025_May_07_2004	f	2	r	ss mrs	547.1673194000032	9.022018009913154			Chest					9	Post-Q-Jitter			2
78	3114	2025_May_07_2004	f	2	r	ss mrs	557.2280175000196	7.008210430038162			Chest					7	Pre-Trial Jitter			2
79	3114	2025_May_07_2004	f	2	r	ss mrs	564.2832650999771	13.011466940050013			Chest		48.5			17	Heat-Stimulation			2
80	3114	2025_May_07_2004	f	2	r	ss mrs	577.333323800005	5.002075030002743			Chest					8	Post-Trial Jitter			2
81	3114	2025_May_07_2004	f	2	r	ss mrs	582.3583387000253	5.000618219957687			Chest					20	PainBinary	1.321189400041476	1.0	2
82	3114	2025_May_07_2004	f	2	r	ss mrs	587.3745911000296	4.999938319902867			Chest					21	IntensityRating	2.543647199985571	35.75	2
83	3114	2025_May_07_2004	f	2	r	ss mrs	592.388134400011	5.004704619990662			Chest					52	AcceptBinary	0.7528094999724999	1.0	2
84	3114	2025_May_07_2004	f	2	r	ss mrs	597.393197300029	7.01610781007912			Chest					9	Post-Q-Jitter			2
85	3114	2025_May_07_2004	f	2	r	ss mrs	605.8216203000629	9.019284649984911			Chest					7	Pre-Trial Jitter			2
86	3114	2025_May_07_2004	f	2	r	ss mrs	614.9164422999602	13.016543649951927			Chest		48.5			17	Heat-Stimulation			2
87	3114	2025_May_07_2004	f	2	r	ss mrs	627.9767339000246	5.003411830053665			Chest					8	Post-Trial Jitter			2
88	3114	2025_May_07_2004	f	2	r	ss mrs	633.002645200002	5.000139719923027			Chest					20	PainBinary	0.7381691000191495	1.0	2
89	3114	2025_May_07_2004	f	2	r	ss mrs	638.0181211000308	5.0010170199675485			Chest					21	IntensityRating	2.2263531000353396	42.16666666666667	2
90	3114	2025_May_07_2004	f	2	r	ss mrs	643.0301814000122	5.008699520025402			Chest					52	AcceptBinary	0.5186828000005335	1.0	2
91	3114	2025_May_07_2004	f	2	r	ss mrs	648.0379534000531	9.021015309961513			Chest					9	Post-Q-Jitter			2
92	3114	2025_May_07_2004	f	2	r	ss mrs	658.2208817000501	9.019903899985366			Chest					7	Pre-Trial Jitter			2
93	3114	2025_May_07_2004	f	2	r	ss mrs	667.3044146000175	13.023117950069718			Chest		48.5			17	Heat-Stimulation			2
94	3114	2025_May_07_2004	f	2	r	ss mrs	680.3588031999534	9.01783593010623			Chest					8	Post-Trial Jitter			2
95	3114	2025_May_07_2004	f	2	r	ss mrs	689.3983174000168	5.000079320045188			Chest					20	PainBinary	1.9063756000250578	1.0	2
96	3114	2025_May_07_2004	f	2	r	ss mrs	694.4136849000352	5.001166519941762			Chest					21	IntensityRating	1.4215252000140026	41.333333333333336	2
97	3114	2025_May_07_2004	f	2	r	ss mrs	699.4265499999747	5.007260919897817			Chest					52	AcceptBinary	1.1205550000304356	1.0	2
98	3114	2025_May_07_2004	f	2	r	ss mrs	704.4331293000141	7.015600110054947			Chest					9	Post-Q-Jitter			2
99	3114	2025_May_07_2004	f	2	r	ss mrs	712.6255669000093	5.009805309935473			Chest					7	Pre-Trial Jitter			2
100	3114	2025_May_07_2004	f	2	r	ss mrs	717.6594625000143	13.015932819922455			Chest		48.5			17	Heat-Stimulation			2
101	3114	2025_May_07_2004	f	2	r	ss mrs	730.7191705000587	9.016717230086215			Chest					8	Post-Trial Jitter			2
102	3114	2025_May_07_2004	f	2	r	ss mrs	739.7584644999588	4.999382219975814			Chest					20	PainBinary	1.0370522000594065	1.0	2
103	3114	2025_May_07_2004	f	2	r	ss mrs	744.7762371000135	5.012396520003676			Chest					21	IntensityRating	1.254252899903804	39.58333333333333	2
104	3114	2025_May_07_2004	f	2	r	ss mrs	749.8027121999767	5.0080263200215995			Chest					52	AcceptBinary	0.7526559999678284	1.0	2
105	3114	2025_May_07_2004	f	2	r	ss mrs	754.8096951000625	9.02193891000934			Chest					9	Post-Q-Jitter			2
106	3114	2025_May_07_2004	f	2	r	ss mrs	764.9626791999908	5.000961280078627			Chest					7	Pre-Trial Jitter			2
107	3114	2025_May_07_2004	f	2	r	ss mrs	770.0025273000356	13.011876930017024			Chest		48.5			17	Heat-Stimulation			2
108	3114	2025_May_07_2004	f	2	r	ss mrs	783.0515323999571	7.011101430049166			Chest					8	Post-Trial Jitter			2
109	3114	2025_May_07_2004	f	2	r	ss mrs	790.085320299957	4.99844531994313			Chest					20	PainBinary	1.1373348000925034	1.0	2
110	3114	2025_May_07_2004	f	2	r	ss mrs	795.1028567999601	5.011959819938056			Chest					21	IntensityRating	2.274168199975975	39.166666666666664	2
111	3114	2025_May_07_2004	f	2	r	ss mrs	800.1289941000286	5.008211819920689			Chest					52	AcceptBinary	0.8028660999843851	1.0	2
112	3114	2025_May_07_2004	f	2	r	ss mrs	805.1360100000165	5.009333109948784			Chest					9	Post-Q-Jitter			2
113	3114	2025_May_07_2004	f	2	r	ss mrs	810.172393099987	3.6476949200732633			Chest					26	ComfortRating	3.628466499969363	-4.666666666666671	2
114	3114	2025_May_07_2004	f	2	r	ss mrs	813.8466668999754	3.772825119900517			Chest					24	ValenceRating	3.7455152000766248	56.333333333333336	2
115	3114	2025_May_07_2004	f	2	r	ss mrs	817.6356394999893	2.648671619943343			Chest					26	IntensityRating	2.625346199958585	62.16666666666667	2
116	3114	2025_May_07_2004	f	2	r	ss mrs	820.2955275999848	2.5789070200407878			Chest					27	AvoidanceRating	2.5584054000210017	25.666666666666657	2
117	3114	2025_May_07_2004	f	2	r	ss mrs	822.8855145999696	2.3814057200215757			Chest					28	RelaxationRating	2.3433315999573097	25.666666666666664	2
118	3114	2025_May_07_2004	f	2	r	ss mrs	825.2779711000621	4.652206619968638			Chest					29	AttentionRating	4.631708199973218	48.333333333333336	2
119	3114	2025_May_07_2004	f	2	r	ss mrs	829.9406975000165	2.917430519941263			Chest					30	BoredomRating	2.8927487999899313	23.583333333333336	2
120	3114	2025_May_07_2004	f	2	r	ss mrs	832.867334999959	2.414475220022723			Chest					31	AlertnessRating	2.3912509999936447	27.0	2
121	3114	2025_May_07_2004	f	2	r	ss mrs	835.2920004000189	1.8956550199072808			Chest					32	PosThxRating	1.8729835000121966	-26.666666666666657	2
122	3114	2025_May_07_2004	f	2	r	ss mrs	837.1978441999527	1.3777124199550599			Chest					33	NegThxRating	1.3546620999695733	17.5	2
123	3114	2025_May_07_2004	f	2	r	ss mrs	838.5867051000241	2.7632382198935375			Chest					34	SelfRating	2.742405700031668	26.0	2
124	3114	2025_May_07_2004	f	2	r	ss mrs	841.3612875000108	1.5444501199526712			Chest					35	OtherRating	1.5218054000288248	17.66666666666667	2
125	3114	2025_May_07_2004	f	2	r	ss mrs	842.9163904000307	2.63089091994334			Chest					32	ImageryRating	2.6086966999573633	-19.833333333333343	2
126	3114	2025_May_07_2004	f	2	r	ss mrs	845.5610329000046	1.5717154199955985			Chest					37	PresentRating	1.5552627000724897	51.66666666666666	2
