	SID	biopac_channel	body_site	condition	correct	date	duration	handedness	mouseclick	onset	rt	scanner	score	session	sex	skin_site	temperature	value
0	2570	51	Left Leg	Expectancy		2023_Mar_04_1610	5.0221881594043225	R		3.3195556001737714		MS MH		2	F	3		35.67901234567901
1	2570	45	Left Leg	2-back Instruction		2023_Mar_04_1610	4.997018489986658	R		8.767666200175881		MS MH		2	F	3		
2	2570	7	Left Leg	Pre-trial Jitter		2023_Mar_04_1610	7.01096534030512	R		13.778095500078052		MS MH		2	F	3		
3	2570	44.0	Left Leg	pretrialfixation		2023_Mar_04_1610	1.008720399811864	R		21.103747999994084		MS MH		2	F	3		
4	2570		Left Leg	2-back	1.0	2023_Mar_04_1610	1.9999787400010973	R		22.12532170000486		MS MH	12.5	2	F	3	47.5	
5	2570		Left Leg	2-back	0.0	2023_Mar_04_1610	1.9865825697779655	R	2	24.132051200140268	0.8795715998858213	MS MH	12.5	2	F	3	47.5	
6	2570		Left Leg	2-back	1.0	2023_Mar_04_1610	1.9877771700266749	R	2	26.13146290020086	0.930049000075087	MS MH	25.0	2	F	3	47.5	
7	2570		Left Leg	2-back	0.0	2023_Mar_04_1610	1.9877796699292958	R	0	28.131500500021502	0.8633955998811871	MS MH	25.0	2	F	3	47.5	
8	2570		Left Leg	2-back	0.0	2023_Mar_04_1610	1.987054169876501	R	2	30.1319008001592	1.0961849999148399	MS MH	25.0	2	F	3	47.5	
9	2570		Left Leg	2-back	1.0	2023_Mar_04_1610	1.9878948701079935	R	2	32.131485800025985	0.9132983000017703	MS MH	37.5	2	F	3	47.5	
10	2570		Left Leg	2-back	1.0	2023_Mar_04_1610	1.987428369699046	R	0	34.13174960017204	0.879969900008291	MS MH	50.0	2	F	3	47.5	
11	2570		Left Leg	2-back	1.0	2023_Mar_04_1610	1.9871064696926624	R	2	36.13192340009846	0.9801008999347687	MS MH	62.5	2	F	3	47.5	
12	2570	50.0	Left Leg	ScoreReport		2023_Mar_04_1610	5.0114024402573705	R		38.144752900116146		MS MH		2	F	3		
13	2570	8	Left Leg	Post-trial Jitter		2023_Mar_04_1610	6.993505079997703	R		43.20370279997587		MS MH		2	F	3		
14	2570	20	Left Leg	PainBinary		2023_Mar_04_1610	4.996744640171528	R		50.21886240015738	3.0170768999960274	MS MH		2	F	3		1.0
15	2570	21	Left Leg	IntensityRating		2023_Mar_04_1610	5.010782540077344	R		55.23689900012687	4.199947699904442	MS MH		2	F	3		31.35802469135803
16	2570	23	Left Leg	DistractBinary		2023_Mar_04_1610	5.002913339994848	R		60.26588369999081	1.6503073999192566	MS MH		2	F	3		1.0
17	2570	9	Left Leg	Post-Q-Jitter		2023_Mar_04_1610	6.9944714698940516	R		65.27018540003337		MS MH		2	F	3		
18	2570	51	Left Leg	Expectancy		2023_Mar_04_1610	5.008112719981	R		73.35328550008126	3.4168164001312107	MS MH		2	F	3		39.074074074074076
19	2570	45	Left Leg	2-back Instruction		2023_Mar_04_1610	5.015695919981226	R		78.77566729998216		MS MH		2	F	3		
20	2570	7	Left Leg	Pre-trial Jitter		2023_Mar_04_1610	7.004198570037261	R		83.79049450019374		MS MH		2	F	3		
21	2570	44.0	Left Leg	pretrialfixation		2023_Mar_04_1610	0.9928424300160259	R		91.10403780010529		MS MH		2	F	3		
22	2570		Left Leg	2-back	1.0	2023_Mar_04_1610	1.9892165698111057	R		92.10638080001809		MS MH	12.5	2	F	3	47.5	
23	2570		Left Leg	2-back	1.0	2023_Mar_04_1610	1.9873042698018253	R		94.11569280014373		MS MH	25.0	2	F	3	47.5	
24	2570		Left Leg	2-back	1.0	2023_Mar_04_1610	1.9876713699195534	R	2	96.11553640011698	0.9468368000816554	MS MH	37.5	2	F	3	47.5	
25	2570		Left Leg	2-back	1.0	2023_Mar_04_1610	1.9874068698845804	R	0	98.11568740010262	0.7800205999519676	MS MH	50.0	2	F	3	47.5	
26	2570		Left Leg	2-back	0.0	2023_Mar_04_1610	1.9877462696749717	R	0	100.11552010010928	0.980265999911353	MS MH	50.0	2	F	3	47.5	
27	2570		Left Leg	2-back	1.0	2023_Mar_04_1610	1.987316070124507	R	2	102.1157586001791	0.8466910999268293	MS MH	62.5	2	F	3	47.5	
28	2570		Left Leg	2-back	1.0	2023_Mar_04_1610	1.9867565699387342	R	2	104.11605360009708	0.7796518001705408	MS MH	75.0	2	F	3	47.5	
29	2570		Left Leg	2-back	1.0	2023_Mar_04_1610	1.9870613696984947	R	0	106.11592480004765	0.5499253000598401	MS MH	87.5	2	F	3	47.5	
30	2570	48.0	Left Leg	ScoreReport		2023_Mar_04_1610	5.009564540116116	R		108.12967230007052		MS MH		2	F	3		
31	2570	8	Left Leg	Post-trial Jitter		2023_Mar_04_1610	9.000818880274892	R		113.18408310017549		MS MH		2	F	3		
32	2570	20	Left Leg	PainBinary		2023_Mar_04_1610	4.999567840015516	R		122.20149980019778	3.016942699905485	MS MH		2	F	3		-1.0
33	2570	21	Left Leg	IntensityRating		2023_Mar_04_1610	5.002841640030965	R		127.22486850013956	4.716825400013477	MS MH		2	F	3		27.469135802469136
34	2570	9	Left Leg	Post-Q-Jitter		2023_Mar_04_1610	9.009795970050618	R		132.23817250016145		MS MH		2	F	3		
35	2570	51	Left Leg	Expectancy		2023_Mar_04_1610	5.0086902000475675	R		141.5716165001504	3.583429899998009	MS MH		2	F	3		38.88888888888889
36	2570	44	Left Leg	0-back Instruction		2023_Mar_04_1610	5.01407185010612	R		146.97716790018603		MS MH		2	F	3		
37	2570	7	Left Leg	Pre-Trial Jitter		2023_Mar_04_1610	5.001764570130035	R		151.99235590011813		MS MH		2	F	3		
38	2570	44.0	Left Leg	pretrialfixation		2023_Mar_04_1610	1.0027224600780755	R		157.29142899997532		MS MH		2	F	3		
39	2570		Left Leg	0-back	1.0	2023_Mar_04_1610	1.989383869804442	R	0.0	158.30692230002023	0.8630617999006063	MS MH	12.5	2	F	3	47.5	
40	2570		Left Leg	0-back	1.0	2023_Mar_04_1610	1.987516769906506	R	0.0	160.31621550000273	0.5468487001489848	MS MH	25.0	2	F	3	47.5	
41	2570		Left Leg	0-back	1.0	2023_Mar_04_1610	1.9888061699457467	R	0.0	162.31559170014225	0.44672739994712174	MS MH	37.5	2	F	3	47.5	
42	2570		Left Leg	0-back	1.0	2023_Mar_04_1610	1.9888313699048012	R	0.0	164.31559810019098	0.43023910000920296	MS MH	50.0	2	F	3	47.5	
43	2570		Left Leg	0-back	1.0	2023_Mar_04_1610	1.9880519697908312	R	0.0	166.31601120019332	0.43002880015410483	MS MH	62.5	2	F	3	47.5	
44	2570		Left Leg	0-back	1.0	2023_Mar_04_1610	1.9884975699242204	R	0.0	168.3158052000217	0.4966978000011295	MS MH	75.0	2	F	3	47.5	
45	2570		Left Leg	0-back	1.0	2023_Mar_04_1610	1.9888503700494766	R	0.0	170.31564939999953	0.31331119989044964	MS MH	87.5	2	F	3	47.5	
46	2570		Left Leg	0-back	1.0	2023_Mar_04_1610	1.988534769974649	R	0.0	172.31582500017248	0.4300755998119712	MS MH	100.0	2	F	3	47.5	
47	2570	48.0	Left Leg	ScoreReport		2023_Mar_04_1610	5.004635670222342	R		174.32438470004126		MS MH		2	F	3		
48	2570	8	Left Leg	Post-Trial Jitter		2023_Mar_04_1610	7.0014233803376555	R		179.38438970013522		MS MH		2	F	3		
49	2570	20	Left Leg	PainBinary		2023_Mar_04_1610	5.001467139925808	R		186.40115050016902	2.083650500047952	MS MH		2	F	3		1.0
50	2570	21	Left Leg	IntensityRating		2023_Mar_04_1610	5.011720239883289	R		191.42107360018417	3.5500119000207633	MS MH		2	F	3		33.7037037037037
51	2570	23	Left Leg	DistractBinary		2023_Mar_04_1610	5.001527240034193	R		196.45120280003175	1.7669073001015931	MS MH		2	F	3		1.0
52	2570	9	Left Leg	Post-Q-Jitter		2023_Mar_04_1610	7.009306370047852	R		201.45573100005277		MS MH		2	F	3		
53	2570	51	Left Leg	Expectancy		2023_Mar_04_1610	5.010632100049406	R		208.7795846001245	2.719789900118485	MS MH		2	F	3		38.641975308641975
54	2570	44	Left Leg	0-back Instruction		2023_Mar_04_1610	5.011292849900201	R		214.1791807000991		MS MH		2	F	3		
55	2570	7	Left Leg	Pre-Trial Jitter		2023_Mar_04_1610	7.002250569872558	R		219.19276530016214		MS MH		2	F	3		
56	2570	44.0	Left Leg	pretrialfixation		2023_Mar_04_1610	0.9940048600547016	R		226.48811989999376		MS MH		2	F	3		
57	2570		Left Leg	0-back	0.0	2023_Mar_04_1610	1.9894390699919313	R		227.4908921001479		MS MH	0.0	2	F	3	47.5	
58	2570		Left Leg	0-back	1.0	2023_Mar_04_1610	1.9867003697436303	R	0	229.50060870009474	0.5967111999634653	MS MH	12.5	2	F	3	47.5	
59	2570		Left Leg	0-back	1.0	2023_Mar_04_1610	1.987269870005548	R	0	231.50034460006282	0.36778469989076257	MS MH	25.0	2	F	3	47.5	
60	2570		Left Leg	0-back	1.0	2023_Mar_04_1610	1.9871073698159307	R	0	233.50044340011664	0.4468478001654148	MS MH	37.5	2	F	3	47.5	
61	2570		Left Leg	0-back	1.0	2023_Mar_04_1610	1.9860144699923694	R	0	235.50101030012593	0.4171533999033272	MS MH	50.0	2	F	3	47.5	
62	2570		Left Leg	0-back	1.0	2023_Mar_04_1610	1.9874998698942363	R	0	237.5002958001569	0.4631043002009392	MS MH	62.5	2	F	3	47.5	
63	2570		Left Leg	0-back	1.0	2023_Mar_04_1610	1.986613170010969	R	0	239.50075020012446	0.7129546999931335	MS MH	75.0	2	F	3	47.5	
64	2570		Left Leg	0-back	1.0	2023_Mar_04_1610	1.987201170064509	R	0	241.5005268000532	0.6511615999042988	MS MH	87.5	2	F	3	47.5	
65	2570	48.0	Left Leg	ScoreReport		2023_Mar_04_1610	5.010885240277275	R		243.5136600001715		MS MH		2	F	3		
66	2570	8	Left Leg	Post-Trial Jitter		2023_Mar_04_1610	6.998525779927149	R		248.56983739999123		MS MH		2	F	3		
67	2570	20	Left Leg	PainBinary		2023_Mar_04_1610	5.001033840235323	R		255.58534300001338	2.066988700069487	MS MH		2	F	3		1.0
68	2570	21	Left Leg	IntensityRating		2023_Mar_04_1610	5.009846939938143	R		260.60603420017287		MS MH		2	F	3		31.913580246913583
69	2570	23	Left Leg	DistractBinary		2023_Mar_04_1610	5.003806140040979	R		265.6340626999736	1.4169517001137137	MS MH		2	F	3		1.0
70	2570	9	Left Leg	Post-Q-Jitter		2023_Mar_04_1610	6.993646969785914	R		270.639235700015		MS MH		2	F	3		
71	2570	51	Left Leg	Expectancy		2023_Mar_04_1610	5.011733869789168	R		277.9630324000027	3.0836537000723183	MS MH		2	F	3		38.148148148148145
72	2570	45	Left Leg	2-back Instruction		2023_Mar_04_1610	5.004742050077766	R		283.36646480020136		MS MH		2	F	3		
73	2570	7	Left Leg	Pre-trial Jitter		2023_Mar_04_1610	7.001744470093399	R		288.3770049000159		MS MH		2	F	3		
74	2570	44.0	Left Leg	pretrialfixation		2023_Mar_04_1610	0.9909845998045057	R		295.70689920010045		MS MH		2	F	3		
75	2570		Left Leg	2-back	1.0	2023_Mar_04_1610	1.9883307698182762	R		296.7087702001445		MS MH	12.5	2	F	3	47.5	
76	2570		Left Leg	2-back	1.0	2023_Mar_04_1610	1.9868522700853646	R		298.7178733001929		MS MH	25.0	2	F	3	47.5	
77	2570		Left Leg	2-back	1.0	2023_Mar_04_1610	1.9874710699077696	R	0	300.71757790003903	0.5299472999759018	MS MH	37.5	2	F	3	47.5	
78	2570		Left Leg	2-back	1.0	2023_Mar_04_1610	1.9875585697591305	R	2	302.7175545000937	0.5509497001767159	MS MH	50.0	2	F	3	47.5	
79	2570		Left Leg	2-back	0.0	2023_Mar_04_1610	1.9873066700529307	R	0	304.71770390006714	0.8164296001195908	MS MH	50.0	2	F	3	47.5	
80	2570		Left Leg	2-back	1.0	2023_Mar_04_1610	1.987448469735682	R	2	306.7176636001095	0.7799072000198066	MS MH	62.5	2	F	3	47.5	
81	2570		Left Leg	2-back	1.0	2023_Mar_04_1610	1.9865799699909985	R	0	308.7181125001516	0.7801381000317633	MS MH	75.0	2	F	3	47.5	
82	2570		Left Leg	2-back	0.0	2023_Mar_04_1610	1.9871445698663592	R	2	310.71778710000217	0.7795551000162959	MS MH	75.0	2	F	3	47.5	
83	2570	48.0	Left Leg	ScoreReport		2023_Mar_04_1610	5.011343540390953	R		312.7307441001758		MS MH		2	F	3		
84	2570	8	Left Leg	Post-trial Jitter		2023_Mar_04_1610	9.00055037997663	R		317.78616210003383		MS MH		2	F	3		
85	2570	20	Left Leg	PainBinary		2023_Mar_04_1610	4.999731339979917	R		326.80337960016914	2.883673100033775	MS MH		2	F	3		1.0
86	2570	21	Left Leg	IntensityRating		2023_Mar_04_1610	5.010704139946029	R		331.82293590018526	3.6000275001861155	MS MH		2	F	3		28.271604938271604
87	2570	23	Left Leg	DistractBinary		2023_Mar_04_1610	5.003541840007529	R		336.85155310016125	1.3669718001037836	MS MH		2	F	3		1.0
88	2570	9	Left Leg	Post-Q-Jitter		2023_Mar_04_1610	8.993157469900325	R		341.8568351001013		MS MH		2	F	3		
89	2570	51	Left Leg	Expectancy		2023_Mar_04_1610	5.015360730001703	R		351.9772435000632	3.1668817000463605	MS MH		2	F	3		37.160493827160494
90	2570	45	Left Leg	2-back Instruction		2023_Mar_04_1610	5.016154049895704	R		357.3781408001669		MS MH		2	F	3		
91	2570	7	Left Leg	Pre-trial Jitter		2023_Mar_04_1610	5.001457270001993	R		362.3945238001179		MS MH		2	F	3		
92	2570	44.0	Left Leg	pretrialfixation		2023_Mar_04_1610	1.003343660151586	R		367.69311400013976		MS MH		2	F	3		
93	2570		Left Leg	2-back	1.0	2023_Mar_04_1610	1.9889518700074404	R		368.70916200010106		MS MH	12.5	2	F	3	47.5	
94	2570		Left Leg	2-back	1.0	2023_Mar_04_1610	1.9869142698589712	R		370.71855040010996		MS MH	25.0	2	F	3	47.5	
95	2570		Left Leg	2-back	1.0	2023_Mar_04_1610	1.9881118698976934	R	0	372.71796360006556	0.4169825999997556	MS MH	37.5	2	F	3	47.5	
96	2570		Left Leg	2-back	1.0	2023_Mar_04_1610	1.9868913700338453	R	2	374.7185891000554	0.6003012999426574	MS MH	50.0	2	F	3	47.5	
97	2570		Left Leg	2-back	1.0	2023_Mar_04_1610	1.986322869779542	R	0	376.71891749999486	0.830117000034079	MS MH	62.5	2	F	3	47.5	
98	2570		Left Leg	2-back	1.0	2023_Mar_04_1610	1.9862385699525476	R	2	378.7189679001458	0.7134392000734806	MS MH	75.0	2	F	3	47.5	
99	2570		Left Leg	2-back	1.0	2023_Mar_04_1610	1.987102669896558	R	2	380.71853830013424	0.5300879999995232	MS MH	87.5	2	F	3	47.5	
100	2570		Left Leg	2-back	0.0	2023_Mar_04_1610	1.9866875698789954	R	0	382.71876149997115	0.6300747999921441	MS MH	87.5	2	F	3	47.5	
101	2570	48.0	Left Leg	ScoreReport		2023_Mar_04_1610	5.009967040037736	R		384.73213880020194		MS MH		2	F	3		
102	2570	8	Left Leg	Post-trial Jitter		2023_Mar_04_1610	8.998191280290484	R		389.7880403001327		MS MH		2	F	3		
103	2570	20	Left Leg	PainBinary		2023_Mar_04_1610	5.001056340057403	R		398.80337640014477	2.735524500021711	MS MH		2	F	3		1.0
104	2570	21	Left Leg	IntensityRating		2023_Mar_04_1610	5.011928739957511	R		403.823018199997	4.33383659995161	MS MH		2	F	3		26.111111111111114
105	2570	23	Left Leg	DistractBinary		2023_Mar_04_1610	5.002910140203312	R		408.8525839999784	1.7003050001803786	MS MH		2	F	3		1.0
106	2570	9	Left Leg	Post-Q-Jitter		2023_Mar_04_1610	8.992439769906923	R		413.85788390017115		MS MH		2	F	3		
107	2570	42	Left Leg	0-back Instruction		2023_Mar_04_1610	5.007494840305299	R		422.8754132001195		MS MH		2	F	3		
108	2570	7	Left Leg	Pre-Trial Jitter		2023_Mar_04_1610	5.010888240067288	R		427.8987640000414		MS MH		2	F	3		
109	2570	44.0	Left Leg	pretrialfixation		2023_Mar_04_1610	1.0051959198899567	R		433.15957820019685		MS MH		2	F	3		
110	2570		Left Leg	0-back	1.0	2023_Mar_04_1610	1.990336969960481	R	0.0	434.175789100118	0.912933100014925	MS MH	12.5	2	F	3	32.0	
111	2570		Left Leg	0-back	1.0	2023_Mar_04_1610	1.9871904700994492	R	0.0	436.18570490018465	0.43017870001494884	MS MH	25.0	2	F	3	32.0	
112	2570		Left Leg	0-back	1.0	2023_Mar_04_1610	1.989114669850096	R	0.0	438.18476540013216	0.634206699905917	MS MH	37.5	2	F	3	32.0	
113	2570		Left Leg	0-back	1.0	2023_Mar_04_1610	1.9878889699466527	R	0.0	440.1854018000886	0.45089690014719963	MS MH	50.0	2	F	3	32.0	
114	2570		Left Leg	0-back	1.0	2023_Mar_04_1610	1.9890221699606627	R	0.0	442.184841300128	0.413341699866578	MS MH	62.5	2	F	3	32.0	
115	2570		Left Leg	0-back	1.0	2023_Mar_04_1610	1.9884360700380057	R	0.0	444.18516230001114	0.5635695999953896	MS MH	75.0	2	F	3	32.0	
116	2570		Left Leg	0-back	1.0	2023_Mar_04_1610	1.9889430697076023	R	0.0	446.1849211000372	0.49620710010640323	MS MH	87.5	2	F	3	32.0	
117	2570		Left Leg	0-back	1.0	2023_Mar_04_1610	1.9884252699557692	R	0.0	448.18520220019855	0.4005212001502514	MS MH	100.0	2	F	3	32.0	
118	2570	48.0	Left Leg	ScoreReport		2023_Mar_04_1610	5.005398069741204	R		450.19341440009885		MS MH		2	F	3		
119	2570	8	Left Leg	Post-Trial Jitter		2023_Mar_04_1610	8.996874580159783	R		455.2560068999883		MS MH		2	F	3		
120	2570	42	Left Leg	0-back Instruction		2023_Mar_04_1610	5.007440540008247	R		464.2758106000256		MS MH		2	F	3		
121	2570	7	Left Leg	Pre-Trial Jitter		2023_Mar_04_1610	5.002155169844627	R		469.2952262000181		MS MH		2	F	3		
122	2570	44.0	Left Leg	pretrialfixation		2023_Mar_04_1610	1.0110815898515284	R		474.56536370003596		MS MH		2	F	3		
123	2570		Left Leg	0-back	1.0	2023_Mar_04_1610	1.9890762700233608	R	0.0	475.5768345000688	0.5296136999968439	MS MH	12.5	2	F	3	32.0	
124	2570		Left Leg	0-back	1.0	2023_Mar_04_1610	1.9878302700817585	R	0.0	477.58579510007985	0.44670219998806715	MS MH	25.0	2	F	3	32.0	
125	2570		Left Leg	0-back	1.0	2023_Mar_04_1610	1.9889240697957575	R	0.0	479.5852576000616	0.4673947000410408	MS MH	37.5	2	F	3	32.0	
126	2570		Left Leg	0-back	1.0	2023_Mar_04_1610	1.9885253699030727	R	0.0	481.58548260014504	0.31352920015342534	MS MH	50.0	2	F	3	32.0	
127	2570		Left Leg	0-back	1.0	2023_Mar_04_1610	1.9882926701102406	R	0.0	483.5856319000013	0.33016090001910925	MS MH	62.5	2	F	3	32.0	
128	2570		Left Leg	0-back	1.0	2023_Mar_04_1610	1.9887784700840712	R	0.0	485.58539380016737	0.4799192000646144	MS MH	75.0	2	F	3	32.0	
129	2570		Left Leg	0-back	1.0	2023_Mar_04_1610	1.9886508700437844	R	0.0	487.5854850001633	0.43287250003777444	MS MH	87.5	2	F	3	32.0	
130	2570		Left Leg	0-back	1.0	2023_Mar_04_1610	1.9876631698571146	R	0.0	489.5859342000913	0.4799472999293357	MS MH	100.0	2	F	3	32.0	
131	2570	48.0	Left Leg	ScoreReport		2023_Mar_04_1610	5.004612869815901	R		491.5942272001412		MS MH		2	F	3		
132	2570	8	Left Leg	Post-Trial Jitter		2023_Mar_04_1610	5.001241880003363	R		496.6542108000722		MS MH		2	F	3		
133	2570	51	Left Leg	Expectancy		2023_Mar_04_1610	5.006219919770956	R		502.89976800000295	2.900277999928221	MS MH		2	F	3		36.48148148148149
134	2570	44	Left Leg	0-back Instruction		2023_Mar_04_1610	5.0024734798353165	R		508.29481940018013		MS MH		2	F	3		
135	2570	7	Left Leg	Pre-Trial Jitter		2023_Mar_04_1610	9.00101796980016	R		513.3129153000191		MS MH		2	F	3		
136	2570	44.0	Left Leg	pretrialfixation		2023_Mar_04_1610	1.0029331599362195	R		522.6115423000883		MS MH		2	F	3		
137	2570		Left Leg	0-back	1.0	2023_Mar_04_1610	1.9893565701786429	R	0.0	523.627154600108	0.8630653000436723	MS MH	12.5	2	F	3	47.5	
138	2570		Left Leg	0-back	1.0	2023_Mar_04_1610	1.9880255700554699	R	0.0	525.6361730000935	0.5633877997752279	MS MH	25.0	2	F	3	47.5	
139	2570		Left Leg	0-back	1.0	2023_Mar_04_1610	1.9877201698254794	R	0.0	527.6363811001647	0.4133713999763131	MS MH	37.5	2	F	3	47.5	
140	2570		Left Leg	0-back	1.0	2023_Mar_04_1610	1.9884693699423224	R	0.0	529.6359939000104	0.5291949000675231	MS MH	50.0	2	F	3	47.5	
141	2570		Left Leg	0-back	1.0	2023_Mar_04_1610	1.9883543697651476	R	0.0	531.6360695001204	0.38015129999257624	MS MH	62.5	2	F	3	47.5	
142	2570		Left Leg	0-back	1.0	2023_Mar_04_1610	1.9884621701203287	R	0.0	533.6360386000015	0.4666670998558402	MS MH	75.0	2	F	3	47.5	
143	2570		Left Leg	0-back	1.0	2023_Mar_04_1610	1.9871717698406428	R	0.0	535.6366985000204	0.46346610016189516	MS MH	87.5	2	F	3	47.5	
144	2570		Left Leg	0-back	1.0	2023_Mar_04_1610	1.988995169987902	R	0.0	537.6357935001142	0.5299325999803841	MS MH	100.0	2	F	3	47.5	
145	2570	48.0	Left Leg	ScoreReport		2023_Mar_04_1610	5.004516570130363	R		539.6447466001846		MS MH		2	F	3		
146	2570	8	Left Leg	Post-Trial Jitter		2023_Mar_04_1610	7.000346980057657	R		544.7051163001452		MS MH		2	F	3		
147	2570	20	Left Leg	PainBinary		2023_Mar_04_1610	5.000168840168044	R		551.7219951001462	1.369467199780047	MS MH		2	F	3		1.0
148	2570	21	Left Leg	IntensityRating		2023_Mar_04_1610	5.011967140017077	R		556.7411474001128	3.3333217999897897	MS MH		2	F	3		36.79012345679012
149	2570	23	Left Leg	DistractBinary		2023_Mar_04_1610	5.002579140011221	R		561.7708789000753	1.5003224001266062	MS MH		2	F	3		1.0
150	2570	9	Left Leg	Post-Q-Jitter		2023_Mar_04_1610	6.993894370039925	R		566.7753163001034		MS MH		2	F	3		
151	2570	51	Left Leg	Expectancy		2023_Mar_04_1610	5.015464799944311	R		574.0807444001548	3.3856135001406074	MS MH		2	F	3		38.51851851851851
152	2570	44	Left Leg	0-back Instruction		2023_Mar_04_1610	5.010729749919847	R		579.4830273000989		MS MH		2	F	3		
153	2570	7	Left Leg	Pre-Trial Jitter		2023_Mar_04_1610	7.001305969897658	R		584.4967946000397		MS MH		2	F	3		
154	2570	44.0	Left Leg	pretrialfixation		2023_Mar_04_1610	0.9975670003332198	R		591.823166300077		MS MH		2	F	3		
155	2570		Left Leg	0-back	1.0	2023_Mar_04_1610	1.9867417698260397	R	0.0	592.8291272001807	0.5966125999111682	MS MH	12.5	2	F	3	47.5	
156	2570		Left Leg	0-back	1.0	2023_Mar_04_1610	1.9874669699929655	R	0.0	594.8371232000645	0.46336370008066297	MS MH	25.0	2	F	3	47.5	
157	2570		Left Leg	0-back	1.0	2023_Mar_04_1610	1.987995569827035	R	0.0	596.8368794000708	0.4301700000651181	MS MH	37.5	2	F	3	47.5	
158	2570		Left Leg	0-back	1.0	2023_Mar_04_1610	1.989183769794181	R	0.0	598.836303899996	0.7468613001983613	MS MH	50.0	2	F	3	47.5	
159	2570		Left Leg	0-back	1.0	2023_Mar_04_1610	1.9886080699507147	R	0.0	600.8365846001543	0.3467001998797059	MS MH	62.5	2	F	3	47.5	
160	2570		Left Leg	0-back	1.0	2023_Mar_04_1610	1.9882193699013442	R	0.0	602.836823800113	0.44623320014216006	MS MH	75.0	2	F	3	47.5	
161	2570		Left Leg	0-back	1.0	2023_Mar_04_1610	1.9884973699226975	R	0.0	604.8367105000652	0.6797624998725951	MS MH	87.5	2	F	3	47.5	
162	2570		Left Leg	0-back	1.0	2023_Mar_04_1610	1.9884379697032273	R	0.0	606.8367642001249	0.5340813999064267	MS MH	100.0	2	F	3	47.5	
163	2570	48.0	Left Leg	ScoreReport		2023_Mar_04_1610	5.005225769942626	R		608.84506219998		MS MH		2	F	3		
164	2570	8	Left Leg	Post-Trial Jitter		2023_Mar_04_1610	4.998479480156675	R		613.9067566001322		MS MH		2	F	3		
165	2570	20	Left Leg	PainBinary		2023_Mar_04_1610	4.999863039935008	R		618.9228230000008	1.4836309999227524	MS MH		2	F	3		1.0
166	2570	21	Left Leg	IntensityRating		2023_Mar_04_1610	5.011727040167898	R		623.9419379001483	2.6500142998993397	MS MH		2	F	3		32.77777777777778
167	2570	23	Left Leg	DistractBinary		2023_Mar_04_1610	5.003745140042156	R		628.9709746001754	2.685825499938801	MS MH		2	F	3		-1.0
168	2570	9	Left Leg	Post-Q-Jitter		2023_Mar_04_1610	5.0101489699445665	R		633.976176999975		MS MH		2	F	3		
169	2570	43	Left Leg	2-back Instruction		2023_Mar_04_1610	5.0049898403231055	R		639.0121025000699		MS MH		2	F	3		
170	2570	7	Left Leg	Pre-trial Jitter		2023_Mar_04_1610	9.00223476998508	R		644.0302488000598		MS MH		2	F	3		
171	2570	44.0	Left Leg	pretrialfixation		2023_Mar_04_1610	1.008086419897154	R		653.2936452999711		MS MH		2	F	3		
172	2570		Left Leg	2-back	1.0	2023_Mar_04_1610	1.9886191699188203	R		654.3121388000436		MS MH	12.5	2	F	3	32.0	
173	2570		Left Leg	2-back	1.0	2023_Mar_04_1610	1.9871000698767602	R		656.3212513001636		MS MH	25.0	2	F	3	32.0	
174	2570		Left Leg	2-back	1.0	2023_Mar_04_1610	1.9880039698909968	R	0	658.3208262000699	0.49647370004095137	MS MH	37.5	2	F	3	32.0	
175	2570		Left Leg	2-back	1.0	2023_Mar_04_1610	1.9876139699481428	R	2	660.3210486001335	0.6468295999802649	MS MH	50.0	2	F	3	32.0	
176	2570		Left Leg	2-back	1.0	2023_Mar_04_1610	1.9874764699488878	R	0	662.3211268000305	0.5463634999468923	MS MH	62.5	2	F	3	32.0	
177	2570		Left Leg	2-back	1.0	2023_Mar_04_1610	1.9877834699582309	R	2	664.3209852001164	0.8131564999930561	MS MH	75.0	2	F	3	32.0	
178	2570		Left Leg	2-back	1.0	2023_Mar_04_1610	1.9875771701335907	R	2	666.3211282000411	0.6467720998916775	MS MH	87.5	2	F	3	32.0	
179	2570		Left Leg	2-back	1.0	2023_Mar_04_1610	1.9875432699918747	R	2	668.3211414001416	1.0003317000810057	MS MH	100.0	2	F	3	32.0	
180	2570	48.0	Left Leg	ScoreReport		2023_Mar_04_1610	5.00149956997484	R		670.3308573001996		MS MH		2	F	3		
181	2570	8	Left Leg	Post-trial Jitter		2023_Mar_04_1610	4.999879579991102	R		675.3899718001485		MS MH		2	F	3		
182	2570	43	Left Leg	2-back Instruction		2023_Mar_04_1610	5.008374840021133	R		680.4108502001036		MS MH		2	F	3		
183	2570	7	Left Leg	Pre-trial Jitter		2023_Mar_04_1610	9.016321339877322	R		685.4319408000447		MS MH		2	F	3		
184	2570	44.0	Left Leg	pretrialfixation		2023_Mar_04_1610	1.006867720047012	R		694.6946578000207		MS MH		2	F	3		
185	2570		Left Leg	2-back	1.0	2023_Mar_04_1610	1.9899047696962953	R		695.7119262001943		MS MH	12.5	2	F	3	32.0	
186	2570		Left Leg	2-back	1.0	2023_Mar_04_1610	1.9855178699363023	R		697.7224497999996		MS MH	25.0	2	F	3	32.0	
187	2570		Left Leg	2-back	1.0	2023_Mar_04_1610	1.9880648700054735	R	2	699.7212019001599	0.6297780000604689	MS MH	37.5	2	F	3	32.0	
188	2570		Left Leg	2-back	1.0	2023_Mar_04_1610	1.9876800698693842	R	0	701.7214097001124	0.5801338001620024	MS MH	50.0	2	F	3	32.0	
189	2570		Left Leg	2-back	1.0	2023_Mar_04_1610	1.9874864697922021	R	2	703.7215365001466	0.6967255000490695	MS MH	62.5	2	F	3	32.0	
190	2570		Left Leg	2-back	1.0	2023_Mar_04_1610	1.9874942698515952	R	2	705.7215335001238	0.8467287998646498	MS MH	75.0	2	F	3	32.0	
191	2570		Left Leg	2-back	1.0	2023_Mar_04_1610	1.9877378700766712	R	2	707.7214401001111	0.7628947999328375	MS MH	87.5	2	F	3	32.0	
192	2570		Left Leg	2-back	1.0	2023_Mar_04_1610	1.9877532699611038	R	0	709.7214528999757	0.4132918000686914	MS MH	100.0	2	F	3	32.0	
193	2570	48.0	Left Leg	ScoreReport		2023_Mar_04_1610	5.002042169915512	R		711.7310124000069		MS MH		2	F	3		
194	2570	8	Left Leg	Post-trial Jitter		2023_Mar_04_1610	9.000940980156884	R		716.7898764000274		MS MH		2	F	3		
195	2570	26	Left Leg	ComfortRating		2023_Mar_04_1610	9.582321709720418	R		725.8160314999986	9.550417500082403	MS MH		2	F	3		-8.518518518518519
196	2570	24	Left Leg	ValenceRating		2023_Mar_04_1610	5.299322109902278	R		735.4159438000061	5.266724799992517	MS MH		2	F	3		61.296296296296305
197	2570	26	Left Leg	IntensityRating		2023_Mar_04_1610	3.594973440049216	R		740.7264996999875	3.5666823000647128	MS MH		2	F	3		56.2962962962963
198	2570	27	Left Leg	AvoidanceRating		2023_Mar_04_1610	6.509071340085939	R		744.3445396001916	6.483415399910882	MS MH		2	F	3		18.518518518518505
199	2570	28	Left Leg	RelaxationRating		2023_Mar_04_1610	6.132430940167978	R		750.8745887000114	6.117059199837968	MS MH		2	F	3		44.75308641975309
200	2570	29	Left Leg	AttentionRating		2023_Mar_04_1610	4.753514839801937	R		757.0307556001935	4.7333474000915885	MS MH		2	F	3		56.79012345679012
201	2570	30	Left Leg	BoredomRating		2023_Mar_04_1610	5.665068740025163	R		761.8083393000998	5.636420799884945	MS MH		2	F	3		42.46913580246914
202	2570	31	Left Leg	AlertnessRating		2023_Mar_04_1610	6.181923440191895	R		767.491642100038	6.167037800187245	MS MH		2	F	3		-22.09876543209876
203	2570	32	Left Leg	PosThxRating		2023_Mar_04_1610	3.4235722401645035	R		773.6958884000778	3.4000826999545097	MS MH		2	F	3		1.1111111111111143
204	2570	33	Left Leg	NegThxRating		2023_Mar_04_1610	2.7259714400861412	R		777.1447187000886	2.7000288001727313	MS MH		2	F	3		-1.4814814814814667
205	2570	34	Left Leg	SelfRating		2023_Mar_04_1610	4.677426239941269	R		779.8940211001318	4.650080600054935	MS MH		2	F	3		29.75308641975306
206	2570	35	Left Leg	OtherRating		2023_Mar_04_1610	2.4781059401575476	R		784.5937100001611	2.4500307000707835	MS MH		2	F	3		-26.666666666666657
207	2570	32	Left Leg	ImageryRating		2023_Mar_04_1610	5.924815040081739	R		787.0953873000108	5.9000853998586535	MS MH		2	F	3		3.827160493827165
208	2570	37	Left Leg	PresentRating		2023_Mar_04_1610	6.302340139867738	R		793.0483672001865	6.2834429000504315	MS MH		2	F	3		38.271604938271594
