runSeq,trial_type,runLoop.thisRepN,runLoop.thisTrialN,runLoop.thisN,runLoop.thisIndex,trials.thisRepN,trials.thisTrialN,trials.thisN,trials.thisIndex,Begin.started,Begin.stopped,BeginTask.keys,BeginTask.rt,BeginTask.started,BeginTask.stopped,BodySiteInstructionText.started,BodySiteImg.started,BodySiteImg.stopped,BodySiteInstructionRead.keys,BodySiteInstructionRead.rt,BodySiteInstructionRead.started,BodySiteInstructionRead.stopped,ImagineInstructionText.started,ImaginationInstructionRead.keys,ImaginationInstructionRead.rt,ImaginationInstructionRead.started,ImaginationInstructionRead.stopped,BodySiteCue.started,BodySiteCue.stopped,NonStimTrialText.started,NonStimTrialText.stopped,fix_cross.started,fix_cross.stopped,ValenceRating.response,ValenceRating.rt,ValenceRating.started,ValenceRating.stopped,IntensityRating.response,IntensityRating.rt,IntensityRating.started,IntensityRating.stopped,ComfortRating.response,ComfortRating.rt,ComfortRating.started,ComfortRating.stopped,EndingText.started,EndingText.stopped,ConfirmEnd.keys,ConfirmEnd.rt,ConfirmEnd.started,ConfirmEnd.stopped,subject number,gender,session,handedness,scanner,date,expName,psychopyVersion,frameRate,body_site_order,
,,,,,,,,,,89.11938669998199,None,space,2.4380119000561535,89.11938669998199,None,,,,,,,,,,,,,,,,,,,,,,,,,,,,,,,,,,,,,1,M,1,r,CIB,2021_Apr_16_1247,bodysite,2020.2.5,60.016660695976555,"['Left Leg', 'Right Arm', 'Right Face', 'Abdomen', 'Right Leg', 'Chest', 'Left Arm', 'Left Face']",
stimuli/orders/stimOrder15.xlsx,3,0,0,0,7,0,0,0,0,,,,,,,91.67549300007522,91.67549300007522,None,space,134.5358549002558,91.67549300007522,None,226.24317250028253,space,202.38665620004758,226.24317250028253,None,467.2284093000926,None,467.2284093000926,None,,,,,,,,,,,,,,,,,,,,,1,M,1,r,CIB,2021_Apr_16_1247,bodysite,2020.2.5,60.016660695976555,"['Left Leg', 'Right Arm', 'Right Face', 'Abdomen', 'Right Leg', 'Chest', 'Left Arm', 'Left Face']",
stimuli/orders/stimOrder15.xlsx,3,0,0,0,7,0,2,2,2,,,,,,,,,,,,,,,,,,,493.74538790015504,None,493.74538790015504,None,480.22849560016766,None,,,,,,,,,,,,,,,,,,,1,M,1,r,CIB,2021_Apr_16_1247,bodysite,2020.2.5,60.016660695976555,"['Left Leg', 'Right Arm', 'Right Face', 'Abdomen', 'Right Leg', 'Chest', 'Left Arm', 'Left Face']",
stimuli/orders/stimOrder15.xlsx,3,0,0,0,7,0,6,6,6,,,,,,,,,,,,,,,,,,,546.078856300097,None,546.078856300097,None,533.0622518002056,None,,,,,,,,,,,,,,,,,,,1,M,1,r,CIB,2021_Apr_16_1247,bodysite,2020.2.5,60.016660695976555,"['Left Leg', 'Right Arm', 'Right Face', 'Abdomen', 'Right Leg', 'Chest', 'Left Arm', 'Left Face']",
stimuli/orders/stimOrder15.xlsx,3,0,0,0,7,0,8,8,8,,,,,,,,,,,,,,,,,,,572.8792981998995,None,572.8792981998995,None,559.0790987000801,None,,,,,,,,,,,,,,,,,,,1,M,1,r,CIB,2021_Apr_16_1247,bodysite,2020.2.5,60.016660695976555,"['Left Leg', 'Right Arm', 'Right Face', 'Abdomen', 'Right Leg', 'Chest', 'Left Arm', 'Left Face']",
stimuli/orders/stimOrder15.xlsx,3,0,0,0,7,0,24,24,24,,,,,,,,,,,,,,,,,,,783.9976498000324,None,783.9976498000324,None,770.1141210002825,770.1141210002825,,,,,,,,,,,,,,,,,,,1,M,1,r,CIB,2021_Apr_16_1247,bodysite,2020.2.5,60.016660695976555,"['Left Leg', 'Right Arm', 'Right Face', 'Abdomen', 'Right Leg', 'Chest', 'Left Arm', 'Left Face']",
stimuli/orders/stimOrder15.xlsx,3,0,0,0,7,0,29,29,29,,,,,,,,,,,,,,,,,,,849.8315051002428,None,849.8315051002428,None,836.8312627002597,836.8312627002597,,,,,,,,,,,,,,,,,,,1,M,1,r,CIB,2021_Apr_16_1247,bodysite,2020.2.5,60.016660695976555,"['Left Leg', 'Right Arm', 'Right Face', 'Abdomen', 'Right Leg', 'Chest', 'Left Arm', 'Left Face']",
stimuli/orders/stimOrder15.xlsx,3,0,0,0,7,0,30,30,30,,,,,,,,,,,,,,,,,,,863.6149665000848,863.6149665000848,863.6149665000848,863.6149665000848,,,,,,,,,,,,,,,,,,,,,1,M,1,r,CIB,2021_Apr_16_1247,bodysite,2020.2.5,60.016660695976555,"['Left Leg', 'Right Arm', 'Right Face', 'Abdomen', 'Right Leg', 'Chest', 'Left Arm', 'Left Face']",
stimuli/orders/stimOrder15.xlsx,3,0,0,0,7,0,32,32,32,,,,,,,,,,,,,,,,,,,889.9485190999694,None,889.9485190999694,None,876.6149201001972,None,,,,,,,,,,,,,,,,,,,1,M,1,r,CIB,2021_Apr_16_1247,bodysite,2020.2.5,60.016660695976555,"['Left Leg', 'Right Arm', 'Right Face', 'Abdomen', 'Right Leg', 'Chest', 'Left Arm', 'Left Face']",
stimuli/orders/stimOrder15.xlsx,3,0,0,0,7,0,34,34,34,,,,,,,,,,,,,,,,,,,915.9486357001588,None,915.9486357001588,None,902.948455600068,None,,,,,,,,,,,,,,,,,,,1,M,1,r,CIB,2021_Apr_16_1247,bodysite,2020.2.5,60.016660695976555,"['Left Leg', 'Right Arm', 'Right Face', 'Abdomen', 'Right Leg', 'Chest', 'Left Arm', 'Left Face']",
stimuli/orders/stimOrder15.xlsx,3,0,0,0,7,0,35,35,35,,,,,,,,,,,,,,,,,,,929.7820758000016,929.7820758000016,929.7820758000016,929.7820758000016,,,,,,,,,,,,,,,,,,,,,1,M,1,r,CIB,2021_Apr_16_1247,bodysite,2020.2.5,60.016660695976555,"['Left Leg', 'Right Arm', 'Right Face', 'Abdomen', 'Right Leg', 'Chest', 'Left Arm', 'Left Face']",
stimuli/orders/stimOrder15.xlsx,3,0,0,0,7,0,37,37,37,,,,,,,,,,,,,,,,,,,955.8155239000916,None,955.8155239000916,None,942.7821078002453,None,,,,,,,,,,,,,,,,,,,1,M,1,r,CIB,2021_Apr_16_1247,bodysite,2020.2.5,60.016660695976555,"['Left Leg', 'Right Arm', 'Right Face', 'Abdomen', 'Right Leg', 'Chest', 'Left Arm', 'Left Face']",
stimuli/orders/stimOrder15.xlsx,3,0,0,0,7,0,44,44,44,,,,,,,,,,,,,,,,,,,1047.4163015000522,None,1047.4163015000522,None,1034.4161594002508,None,,,,,,,,,,,,,,,,,,,1,M,1,r,CIB,2021_Apr_16_1247,bodysite,2020.2.5,60.016660695976555,"['Left Leg', 'Right Arm', 'Right Face', 'Abdomen', 'Right Leg', 'Chest', 'Left Arm', 'Left Face']",
stimuli/orders/stimOrder15.xlsx,3,0,0,0,7,0,45,45,45,,,,,,,,,,,,,,,,,,,1061.2493644002825,1061.2493644002825,1061.2493644002825,1061.2493644002825,,,,,,,,,,,,,,,,,,,,,1,M,1,r,CIB,2021_Apr_16_1247,bodysite,2020.2.5,60.016660695976555,"['Left Leg', 'Right Arm', 'Right Face', 'Abdomen', 'Right Leg', 'Chest', 'Left Arm', 'Left Face']",
stimuli/orders/stimOrder15.xlsx,3,0,0,0,7,0,47,47,47,,,,,,,,,,,,,,,,,,,1087.2500231000595,None,1087.2500231000595,None,1074.2497974000871,None,,,,,,,,,,,,,,,,,,,1,M,1,r,CIB,2021_Apr_16_1247,bodysite,2020.2.5,60.016660695976555,"['Left Leg', 'Right Arm', 'Right Face', 'Abdomen', 'Right Leg', 'Chest', 'Left Arm', 'Left Face']",
stimuli/orders/stimOrder15.xlsx,,0,0,0,7,,,,,,,,,,,,,,,,,,,,,,,,,,,,,-22.55144032921811,1107.7896692897193,,,,,,,,,,,,,,,,,1,M,1,r,CIB,2021_Apr_16_1247,bodysite,2020.2.5,60.016660695976555,"['Left Leg', 'Right Arm', 'Right Face', 'Abdomen', 'Right Leg', 'Chest', 'Left Arm', 'Left Face']",
stimuli/orders/stimOrder15.xlsx,,0,0,0,7,,,,,,,,,,,,,,,,,,,,,,,,,,,,,,,0.013859310187399387,None,30.65843621399177,1110.941661189776,,,,,,,,,,,,,1,M,1,r,CIB,2021_Apr_16_1247,bodysite,2020.2.5,60.016660695976555,"['Left Leg', 'Right Arm', 'Right Face', 'Abdomen', 'Right Leg', 'Chest', 'Left Arm', 'Left Face']",
stimuli/orders/stimOrder15.xlsx,,0,0,0,7,,,,,,,,,,,,,,,,,,,,,,,,,,,,,,,,,,,0.011906310450285673,None,54.19753086419753,1116.8911547893658,,,,,,,,,1,M,1,r,CIB,2021_Apr_16_1247,bodysite,2020.2.5,60.016660695976555,"['Left Leg', 'Right Arm', 'Right Face', 'Abdomen', 'Right Leg', 'Chest', 'Left Arm', 'Left Face']",
stimuli/orders/stimOrder5.xlsx,3,0,1,1,2,0,2,2,2,,,,,,,1229.684557700064,1229.684557700064,None,space,131.44800059963018,1229.684557700064,None,,,,,,1641.0041940002702,None,1641.0041940002702,None,1627.9707460999489,1627.9707460999489,,,,,,,,,,,0.01249381061643362,None,,,,,,,1,M,1,r,CIB,2021_Apr_16_1247,bodysite,2020.2.5,60.016660695976555,"['Left Leg', 'Right Arm', 'Right Face', 'Abdomen', 'Right Leg', 'Chest', 'Left Arm', 'Left Face']",
stimuli/orders/stimOrder5.xlsx,3,0,1,1,2,0,6,6,6,,,,,,,,,,,,,,,,,,,1693.6380198001862,None,1693.6380198001862,None,1680.6378454999067,1680.6378454999067,,,,,,,,,,,,,,,,,,,1,M,1,r,CIB,2021_Apr_16_1247,bodysite,2020.2.5,60.016660695976555,"['Left Leg', 'Right Arm', 'Right Face', 'Abdomen', 'Right Leg', 'Chest', 'Left Arm', 'Left Face']",
stimuli/orders/stimOrder5.xlsx,3,0,1,1,2,0,7,7,7,,,,,,,,,,,,,,,,,,,1706.7877644002438,1706.7877644002438,1706.7877644002438,1706.7877644002438,,,,,,,,,,,,,,,,,,,,,1,M,1,r,CIB,2021_Apr_16_1247,bodysite,2020.2.5,60.016660695976555,"['Left Leg', 'Right Arm', 'Right Face', 'Abdomen', 'Right Leg', 'Chest', 'Left Arm', 'Left Face']",
stimuli/orders/stimOrder5.xlsx,3,0,1,1,2,0,9,9,9,,,,,,,,,,,,,,,,,,,1732.921613899991,None,1732.921613899991,None,1719.788096500095,None,,,,,,,,,,,,,,,,,,,1,M,1,r,CIB,2021_Apr_16_1247,bodysite,2020.2.5,60.016660695976555,"['Left Leg', 'Right Arm', 'Right Face', 'Abdomen', 'Right Leg', 'Chest', 'Left Arm', 'Left Face']",
stimuli/orders/stimOrder5.xlsx,3,0,1,1,2,0,15,15,15,,,,,,,,,,,,,,,,,,,1811.7222730000503,None,1811.7222730000503,None,1798.0553808999248,1798.0553808999248,,,,,,,,,,,,,,,,,,,1,M,1,r,CIB,2021_Apr_16_1247,bodysite,2020.2.5,60.016660695976555,"['Left Leg', 'Right Arm', 'Right Face', 'Abdomen', 'Right Leg', 'Chest', 'Left Arm', 'Left Face']",
stimuli/orders/stimOrder5.xlsx,3,0,1,1,2,0,21,21,21,,,,,,,,,,,,,,,,,,,1890.989737499971,None,1890.989737499971,None,1877.372661600355,None,,,,,,,,,,,,,,,,,,,1,M,1,r,CIB,2021_Apr_16_1247,bodysite,2020.2.5,60.016660695976555,"['Left Leg', 'Right Arm', 'Right Face', 'Abdomen', 'Right Leg', 'Chest', 'Left Arm', 'Left Face']",
stimuli/orders/stimOrder5.xlsx,3,0,1,1,2,0,25,25,25,,,,,,,,,,,,,,,,,,,1943.1232823003083,None,1943.1232823003083,None,1929.9897305001505,1929.9897305001505,,,,,,,,,,,,,,,,,,,1,M,1,r,CIB,2021_Apr_16_1247,bodysite,2020.2.5,60.016660695976555,"['Left Leg', 'Right Arm', 'Right Face', 'Abdomen', 'Right Leg', 'Chest', 'Left Arm', 'Left Face']",
stimuli/orders/stimOrder5.xlsx,3,0,1,1,2,0,30,30,30,,,,,,,,,,,,,,,,,,,2008.7904596002772,None,2008.7904596002772,None,1995.156883600168,1995.156883600168,,,,,,,,,,,,,,,,,,,1,M,1,r,CIB,2021_Apr_16_1247,bodysite,2020.2.5,60.016660695976555,"['Left Leg', 'Right Arm', 'Right Face', 'Abdomen', 'Right Leg', 'Chest', 'Left Arm', 'Left Face']",
stimuli/orders/stimOrder5.xlsx,3,0,1,1,2,0,33,33,33,,,,,,,,,,,,,,,,,,,2048.4241345003247,None,2048.4241345003247,None,2034.7905371002853,2034.7905371002853,,,,,,,,,,,,,,,,,,,1,M,1,r,CIB,2021_Apr_16_1247,bodysite,2020.2.5,60.016660695976555,"['Left Leg', 'Right Arm', 'Right Face', 'Abdomen', 'Right Leg', 'Chest', 'Left Arm', 'Left Face']",
stimuli/orders/stimOrder5.xlsx,3,0,1,1,2,0,35,35,35,,,,,,,,,,,,,,,,,,,2074.424238699954,None,2074.424238699954,None,2061.424074599985,None,,,,,,,,,,,,,,,,,,,1,M,1,r,CIB,2021_Apr_16_1247,bodysite,2020.2.5,60.016660695976555,"['Left Leg', 'Right Arm', 'Right Face', 'Abdomen', 'Right Leg', 'Chest', 'Left Arm', 'Left Face']",
stimuli/orders/stimOrder5.xlsx,3,0,1,1,2,0,38,38,38,,,,,,,,,,,,,,,,,,,2113.691219400149,None,2113.691219400149,None,2100.557713100221,None,,,,,,,,,,,,,,,,,,,1,M,1,r,CIB,2021_Apr_16_1247,bodysite,2020.2.5,60.016660695976555,"['Left Leg', 'Right Arm', 'Right Face', 'Abdomen', 'Right Leg', 'Chest', 'Left Arm', 'Left Face']",
stimuli/orders/stimOrder5.xlsx,3,0,1,1,2,0,40,40,40,,,,,,,,,,,,,,,,,,,2139.691297700163,None,2139.691297700163,None,2126.691234299913,None,,,,,,,,,,,,,,,,,,,1,M,1,r,CIB,2021_Apr_16_1247,bodysite,2020.2.5,60.016660695976555,"['Left Leg', 'Right Arm', 'Right Face', 'Abdomen', 'Right Leg', 'Chest', 'Left Arm', 'Left Face']",
stimuli/orders/stimOrder5.xlsx,3,0,1,1,2,0,43,43,43,,,,,,,,,,,,,,,,,,,2178.8250426999293,None,2178.8250426999293,None,2165.824872700032,None,,,,,,,,,,,,,,,,,,,1,M,1,r,CIB,2021_Apr_16_1247,bodysite,2020.2.5,60.016660695976555,"['Left Leg', 'Right Arm', 'Right Face', 'Abdomen', 'Right Leg', 'Chest', 'Left Arm', 'Left Face']",
stimuli/orders/stimOrder5.xlsx,3,0,1,1,2,0,46,46,46,,,,,,,,,,,,,,,,,,,2217.9753493000753,None,2217.9753493000753,None,2204.9584912001155,2204.9584912001155,,,,,,,,,,,,,,,,,,,1,M,1,r,CIB,2021_Apr_16_1247,bodysite,2020.2.5,60.016660695976555,"['Left Leg', 'Right Arm', 'Right Face', 'Abdomen', 'Right Leg', 'Chest', 'Left Arm', 'Left Face']",
stimuli/orders/stimOrder5.xlsx,,0,1,1,2,,,,,,,,,,,,,,,,,,,,,,,,,,,2230.9754723003134,None,0.0,2251.5986327896826,,,,,,,,,,,,,,,,,1,M,1,r,CIB,2021_Apr_16_1247,bodysite,2020.2.5,60.016660695976555,"['Left Leg', 'Right Arm', 'Right Face', 'Abdomen', 'Right Leg', 'Chest', 'Left Arm', 'Left Face']",
stimuli/orders/stimOrder5.xlsx,,0,1,1,2,,,,,,,,,,,,,,,,,,,,,,,,,,,,,,,0.01376121025532484,10.010947510134429,20.370370370370374,2261.6008251900785,,,,,,,,,,,,,1,M,1,r,CIB,2021_Apr_16_1247,bodysite,2020.2.5,60.016660695976555,"['Left Leg', 'Right Arm', 'Right Face', 'Abdomen', 'Right Leg', 'Chest', 'Left Arm', 'Left Face']",
stimuli/orders/stimOrder5.xlsx,,0,1,1,2,,,,,,,,,,,,,,,,,,,,,,,,,,,,,,,,,,,0.011630409862846136,10.006611810065806,68.93004115226337,2269.8672596896067,,,,,,,,,1,M,1,r,CIB,2021_Apr_16_1247,bodysite,2020.2.5,60.016660695976555,"['Left Leg', 'Right Arm', 'Right Face', 'Abdomen', 'Right Leg', 'Chest', 'Left Arm', 'Left Face']",
stimuli/orders/stimOrder7.xlsx,3,0,2,2,3,0,2,2,2,,,,,,,2336.8430860000663,2336.8430860000663,None,space,216.5865141004324,2336.8430860000663,None,,,,,,2712.42909780005,None,2712.42909780005,None,2699.4123372002505,None,,,,,,,,,,,0.011936910450458527,None,,,,,,,1,M,1,r,CIB,2021_Apr_16_1247,bodysite,2020.2.5,60.016660695976555,"['Left Leg', 'Right Arm', 'Right Face', 'Abdomen', 'Right Leg', 'Chest', 'Left Arm', 'Left Face']",
stimuli/orders/stimOrder7.xlsx,3,0,2,2,3,0,4,4,4,,,,,,,,,,,,,,,,,,,2739.029310000129,None,2739.029310000129,None,2725.429192200303,None,,,,,,,,,,,,,,,,,,,1,M,1,r,CIB,2021_Apr_16_1247,bodysite,2020.2.5,60.016660695976555,"['Left Leg', 'Right Arm', 'Right Face', 'Abdomen', 'Right Leg', 'Chest', 'Left Arm', 'Left Face']",
stimuli/orders/stimOrder7.xlsx,3,0,2,2,3,0,6,6,6,,,,,,,,,,,,,,,,,,,2765.596090000123,None,2765.596090000123,None,2752.029414200224,None,,,,,,,,,,,,,,,,,,,1,M,1,r,CIB,2021_Apr_16_1247,bodysite,2020.2.5,60.016660695976555,"['Left Leg', 'Right Arm', 'Right Face', 'Abdomen', 'Right Leg', 'Chest', 'Left Arm', 'Left Face']",
stimuli/orders/stimOrder7.xlsx,3,0,2,2,3,0,14,14,14,,,,,,,,,,,,,,,,,,,2869.880421699956,None,2869.880421699956,None,2856.8802161999047,2856.8802161999047,,,,,,,,,,,,,,,,,,,1,M,1,r,CIB,2021_Apr_16_1247,bodysite,2020.2.5,60.016660695976555,"['Left Leg', 'Right Arm', 'Right Face', 'Abdomen', 'Right Leg', 'Chest', 'Left Arm', 'Left Face']",
stimuli/orders/stimOrder7.xlsx,3,0,2,2,3,0,15,15,15,,,,,,,,,,,,,,,,,,,2883.0471680001356,2883.0471680001356,2883.0471680001356,2883.0471680001356,,,,,,,,,,,,,,,,,,,,,1,M,1,r,CIB,2021_Apr_16_1247,bodysite,2020.2.5,60.016660695976555,"['Left Leg', 'Right Arm', 'Right Face', 'Abdomen', 'Right Leg', 'Chest', 'Left Arm', 'Left Face']",
stimuli/orders/stimOrder7.xlsx,3,0,2,2,3,0,17,17,17,,,,,,,,,,,,,,,,,,,2909.047371200286,None,2909.047371200286,None,2896.0471697999164,None,,,,,,,,,,,,,,,,,,,1,M,1,r,CIB,2021_Apr_16_1247,bodysite,2020.2.5,60.016660695976555,"['Left Leg', 'Right Arm', 'Right Face', 'Abdomen', 'Right Leg', 'Chest', 'Left Arm', 'Left Face']",
stimuli/orders/stimOrder7.xlsx,3,0,2,2,3,0,20,20,20,,,,,,,,,,,,,,,,,,,2948.197627400048,None,2948.197627400048,None,2935.1808221000247,2935.1808221000247,,,,,,,,,,,,,,,,,,,1,M,1,r,CIB,2021_Apr_16_1247,bodysite,2020.2.5,60.016660695976555,"['Left Leg', 'Right Arm', 'Right Face', 'Abdomen', 'Right Leg', 'Chest', 'Left Arm', 'Left Face']",
stimuli/orders/stimOrder7.xlsx,3,0,2,2,3,0,22,22,22,,,,,,,,,,,,,,,,,,,2974.881267200224,None,2974.881267200224,None,2961.1976910000667,None,,,,,,,,,,,,,,,,,,,1,M,1,r,CIB,2021_Apr_16_1247,bodysite,2020.2.5,60.016660695976555,"['Left Leg', 'Right Arm', 'Right Face', 'Abdomen', 'Right Leg', 'Chest', 'Left Arm', 'Left Face']",
stimuli/orders/stimOrder7.xlsx,3,0,2,2,3,0,25,25,25,,,,,,,,,,,,,,,,,,,3014.014851400163,None,3014.014851400163,None,3000.8813291001134,3000.8813291001134,,,,,,,,,,,,,,,,,,,1,M,1,r,CIB,2021_Apr_16_1247,bodysite,2020.2.5,60.016660695976555,"['Left Leg', 'Right Arm', 'Right Face', 'Abdomen', 'Right Leg', 'Chest', 'Left Arm', 'Left Face']",
stimuli/orders/stimOrder7.xlsx,3,0,2,2,3,0,27,27,27,,,,,,,,,,,,,,,,,,,3040.031507200096,None,3040.031507200096,None,3027.0148698999546,None,,,,,,,,,,,,,,,,,,,1,M,1,r,CIB,2021_Apr_16_1247,bodysite,2020.2.5,60.016660695976555,"['Left Leg', 'Right Arm', 'Right Face', 'Abdomen', 'Right Leg', 'Chest', 'Left Arm', 'Left Face']",
stimuli/orders/stimOrder7.xlsx,3,0,2,2,3,0,29,29,29,,,,,,,,,,,,,,,,,,,3066.031923600007,None,3066.031923600007,None,3053.0317265000194,None,,,,,,,,,,,,,,,,,,,1,M,1,r,CIB,2021_Apr_16_1247,bodysite,2020.2.5,60.016660695976555,"['Left Leg', 'Right Arm', 'Right Face', 'Abdomen', 'Right Leg', 'Chest', 'Left Arm', 'Left Face']",
stimuli/orders/stimOrder7.xlsx,3,0,2,2,3,0,35,35,35,,,,,,,,,,,,,,,,,,,3144.815851100255,None,3144.815851100255,None,3131.8156731002964,None,,,,,,,,,,,,,,,,,,,1,M,1,r,CIB,2021_Apr_16_1247,bodysite,2020.2.5,60.016660695976555,"['Left Leg', 'Right Arm', 'Right Face', 'Abdomen', 'Right Leg', 'Chest', 'Left Arm', 'Left Face']",
stimuli/orders/stimOrder7.xlsx,3,0,2,2,3,0,41,41,41,,,,,,,,,,,,,,,,,,,3223.233244200237,None,3223.233244200237,None,3210.116297200322,None,,,,,,,,,,,,,,,,,,,1,M,1,r,CIB,2021_Apr_16_1247,bodysite,2020.2.5,60.016660695976555,"['Left Leg', 'Right Arm', 'Right Face', 'Abdomen', 'Right Leg', 'Chest', 'Left Arm', 'Left Face']",
stimuli/orders/stimOrder7.xlsx,3,0,2,2,3,0,46,46,46,,,,,,,,,,,,,,,,,,,3288.500300399959,None,3288.500300399959,None,3275.350115099922,3275.350115099922,,,,,,,,,,,,,,,,,,,1,M,1,r,CIB,2021_Apr_16_1247,bodysite,2020.2.5,60.016660695976555,"['Left Leg', 'Right Arm', 'Right Face', 'Abdomen', 'Right Leg', 'Chest', 'Left Arm', 'Left Face']",
stimuli/orders/stimOrder7.xlsx,,0,2,2,3,,,,,,,,,,,,,,,,,,,,,,,,,,,3301.500316900201,None,31.934156378600818,3322.122979589738,,,,,,,,,,,,,,,,,1,M,1,r,CIB,2021_Apr_16_1247,bodysite,2020.2.5,60.016660695976555,"['Left Leg', 'Right Arm', 'Right Face', 'Abdomen', 'Right Leg', 'Chest', 'Left Arm', 'Left Face']",
stimuli/orders/stimOrder7.xlsx,,0,2,2,3,,,,,,,,,,,,,,,,,,,,,,,,,,,,,,,0.014356510248035192,10.012167510110885,13.37448559670782,3330.208200789988,,,,,,,,,,,,,1,M,1,r,CIB,2021_Apr_16_1247,bodysite,2020.2.5,60.016660695976555,"['Left Leg', 'Right Arm', 'Right Face', 'Abdomen', 'Right Leg', 'Chest', 'Left Arm', 'Left Face']",
stimuli/orders/stimOrder7.xlsx,,0,2,2,3,,,,,,,,,,,,,,,,,,,,,,,,,,,,,,,,,,,0.01248711021617055,None,71.64609053497942,3335.9919401900843,,,,,,,,,1,M,1,r,CIB,2021_Apr_16_1247,bodysite,2020.2.5,60.016660695976555,"['Left Leg', 'Right Arm', 'Right Face', 'Abdomen', 'Right Leg', 'Chest', 'Left Arm', 'Left Face']",
stimuli/orders/stimOrder13.xlsx,3,0,3,3,6,0,0,0,0,,,,,,,3343.5841983999126,3343.5841983999126,None,space,172.5424790000543,3343.5841983999126,None,,,,,,3583.8192230002023,None,3583.8192230002023,None,,,,,,,,,,,,,0.012129609938710928,None,,,,,,,1,M,1,r,CIB,2021_Apr_16_1247,bodysite,2020.2.5,60.016660695976555,"['Left Leg', 'Right Arm', 'Right Face', 'Abdomen', 'Right Leg', 'Chest', 'Left Arm', 'Left Face']",
stimuli/orders/stimOrder13.xlsx,3,0,3,3,6,0,2,2,2,,,,,,,,,,,,,,,,,,,3609.8194987000898,None,3609.8194987000898,None,3596.8192952000536,None,,,,,,,,,,,,,,,,,,,1,M,1,r,CIB,2021_Apr_16_1247,bodysite,2020.2.5,60.016660695976555,"['Left Leg', 'Right Arm', 'Right Face', 'Abdomen', 'Right Leg', 'Chest', 'Left Arm', 'Left Face']",
stimuli/orders/stimOrder13.xlsx,3,0,3,3,6,0,5,5,5,,,,,,,,,,,,,,,,,,,3649.119910799898,None,3649.119910799898,None,3635.986254800111,3635.986254800111,,,,,,,,,,,,,,,,,,,1,M,1,r,CIB,2021_Apr_16_1247,bodysite,2020.2.5,60.016660695976555,"['Left Leg', 'Right Arm', 'Right Face', 'Abdomen', 'Right Leg', 'Chest', 'Left Arm', 'Left Face']",
stimuli/orders/stimOrder13.xlsx,3,0,3,3,6,0,7,7,7,,,,,,,,,,,,,,,,,,,3675.319983900059,None,3675.319983900059,None,3662.1198113001883,None,,,,,,,,,,,,,,,,,,,1,M,1,r,CIB,2021_Apr_16_1247,bodysite,2020.2.5,60.016660695976555,"['Left Leg', 'Right Arm', 'Right Face', 'Abdomen', 'Right Leg', 'Chest', 'Left Arm', 'Left Face']",
stimuli/orders/stimOrder13.xlsx,3,0,3,3,6,0,11,11,11,,,,,,,,,,,,,,,,,,,3727.670440299902,None,3727.670440299902,None,3714.4702105000615,3714.4702105000615,,,,,,,,,,,,,,,,,,,1,M,1,r,CIB,2021_Apr_16_1247,bodysite,2020.2.5,60.016660695976555,"['Left Leg', 'Right Arm', 'Right Face', 'Abdomen', 'Right Leg', 'Chest', 'Left Arm', 'Left Face']",
stimuli/orders/stimOrder13.xlsx,3,0,3,3,6,0,14,14,14,,,,,,,,,,,,,,,,,,,3766.820658800192,None,3766.820658800192,None,3753.670513600111,3753.670513600111,,,,,,,,,,,,,,,,,,,1,M,1,r,CIB,2021_Apr_16_1247,bodysite,2020.2.5,60.016660695976555,"['Left Leg', 'Right Arm', 'Right Face', 'Abdomen', 'Right Leg', 'Chest', 'Left Arm', 'Left Face']",
stimuli/orders/stimOrder13.xlsx,3,0,3,3,6,0,19,19,19,,,,,,,,,,,,,,,,,,,3832.62115170015,None,3832.62115170015,None,3819.4710226999596,3819.4710226999596,,,,,,,,,,,,,,,,,,,1,M,1,r,CIB,2021_Apr_16_1247,bodysite,2020.2.5,60.016660695976555,"['Left Leg', 'Right Arm', 'Right Face', 'Abdomen', 'Right Leg', 'Chest', 'Left Arm', 'Left Face']",
stimuli/orders/stimOrder13.xlsx,3,0,3,3,6,0,26,26,26,,,,,,,,,,,,,,,,,,,3923.888518900145,None,3923.888518900145,None,3910.8883859002963,3910.8883859002963,,,,,,,,,,,,,,,,,,,1,M,1,r,CIB,2021_Apr_16_1247,bodysite,2020.2.5,60.016660695976555,"['Left Leg', 'Right Arm', 'Right Face', 'Abdomen', 'Right Leg', 'Chest', 'Left Arm', 'Left Face']",
stimuli/orders/stimOrder13.xlsx,3,0,3,3,6,0,31,31,31,,,,,,,,,,,,,,,,,,,3989.3557816999964,None,3989.3557816999964,None,3976.1555730002,None,,,,,,,,,,,,,,,,,,,1,M,1,r,CIB,2021_Apr_16_1247,bodysite,2020.2.5,60.016660695976555,"['Left Leg', 'Right Arm', 'Right Face', 'Abdomen', 'Right Leg', 'Chest', 'Left Arm', 'Left Face']",
stimuli/orders/stimOrder13.xlsx,3,0,3,3,6,0,39,39,39,,,,,,,,,,,,,,,,,,,4094.3232370000333,None,4094.3232370000333,None,4081.3230584999546,None,,,,,,,,,,,,,,,,,,,1,M,1,r,CIB,2021_Apr_16_1247,bodysite,2020.2.5,60.016660695976555,"['Left Leg', 'Right Arm', 'Right Face', 'Abdomen', 'Right Leg', 'Chest', 'Left Arm', 'Left Face']",
stimuli/orders/stimOrder13.xlsx,3,0,3,3,6,0,40,40,40,,,,,,,,,,,,,,,,,,,4107.4900128999725,4107.4900128999725,4107.4900128999725,4107.4900128999725,,,,,,,,,,,,,,,,,,,,,1,M,1,r,CIB,2021_Apr_16_1247,bodysite,2020.2.5,60.016660695976555,"['Left Leg', 'Right Arm', 'Right Face', 'Abdomen', 'Right Leg', 'Chest', 'Left Arm', 'Left Face']",
stimuli/orders/stimOrder13.xlsx,3,0,3,3,6,0,42,42,42,,,,,,,,,,,,,,,,,,,4133.490182999987,None,4133.490182999987,None,4120.490060000215,None,,,,,,,,,,,,,,,,,,,1,M,1,r,CIB,2021_Apr_16_1247,bodysite,2020.2.5,60.016660695976555,"['Left Leg', 'Right Arm', 'Right Face', 'Abdomen', 'Right Leg', 'Chest', 'Left Arm', 'Left Face']",
stimuli/orders/stimOrder13.xlsx,3,0,3,3,6,0,43,43,43,,,,,,,,,,,,,,,,,,,4147.05799560016,4147.05799560016,4147.05799560016,4147.05799560016,,,,,,,,,,,,,,,,,,,,,1,M,1,r,CIB,2021_Apr_16_1247,bodysite,2020.2.5,60.016660695976555,"['Left Leg', 'Right Arm', 'Right Face', 'Abdomen', 'Right Leg', 'Chest', 'Left Arm', 'Left Face']",
stimuli/orders/stimOrder13.xlsx,3,0,3,3,6,0,45,45,45,,,,,,,,,,,,,,,,,,,4173.257200200111,None,4173.257200200111,None,4160.057023399975,None,,,,,,,,,,,,,,,,,,,1,M,1,r,CIB,2021_Apr_16_1247,bodysite,2020.2.5,60.016660695976555,"['Left Leg', 'Right Arm', 'Right Face', 'Abdomen', 'Right Leg', 'Chest', 'Left Arm', 'Left Face']",
stimuli/orders/stimOrder13.xlsx,,0,3,3,6,,,,,,,,,,,,,,,,,,,,,,,,,,,4199.257331599947,4199.257331599947,0.0,4219.880068589933,,,,,,,,,,,,,,,,,1,M,1,r,CIB,2021_Apr_16_1247,bodysite,2020.2.5,60.016660695976555,"['Left Leg', 'Right Arm', 'Right Face', 'Abdomen', 'Right Leg', 'Chest', 'Left Arm', 'Left Face']",
stimuli/orders/stimOrder13.xlsx,,0,3,3,6,,,,,,,,,,,,,,,,,,,,,,,,,,,,,,,0.01430740999057889,10.012088410090655,50.0,4229.882293889765,,,,,,,,,,,,,1,M,1,r,CIB,2021_Apr_16_1247,bodysite,2020.2.5,60.016660695976555,"['Left Leg', 'Right Arm', 'Right Face', 'Abdomen', 'Right Leg', 'Chest', 'Left Arm', 'Left Face']",
stimuli/orders/stimOrder13.xlsx,,0,3,3,6,,,,,,,,,,,,,,,,,,,,,,,,,,,,,,,,,,,0.012088910210877657,10.007479710038751,71.48148148148148,4239.882716590073,,,,,,,,,1,M,1,r,CIB,2021_Apr_16_1247,bodysite,2020.2.5,60.016660695976555,"['Left Leg', 'Right Arm', 'Right Face', 'Abdomen', 'Right Leg', 'Chest', 'Left Arm', 'Left Face']",
stimuli/orders/stimOrder11.xlsx,3,0,4,4,5,0,0,0,0,,,,,,,4250.49129340006,4250.49129340006,None,space,153.3643351001665,4250.49129340006,None,,,,,,4502.743165600114,None,4502.743165600114,None,,,,,,,,,,,,,0.011776309926062822,10.006997209973633,,,,,,,1,M,1,r,CIB,2021_Apr_16_1247,bodysite,2020.2.5,60.016660695976555,"['Left Leg', 'Right Arm', 'Right Face', 'Abdomen', 'Right Leg', 'Chest', 'Left Arm', 'Left Face']",
stimuli/orders/stimOrder11.xlsx,3,0,4,4,5,0,3,3,3,,,,,,,,,,,,,,,,,,,4542.376790500246,None,4542.376790500246,None,4528.743241100106,4528.743241100106,,,,,,,,,,,,,,,,,,,1,M,1,r,CIB,2021_Apr_16_1247,bodysite,2020.2.5,60.016660695976555,"['Left Leg', 'Right Arm', 'Right Face', 'Abdomen', 'Right Leg', 'Chest', 'Left Arm', 'Left Face']",
stimuli/orders/stimOrder11.xlsx,3,0,4,4,5,0,5,5,5,,,,,,,,,,,,,,,,,,,4569.026895199902,None,4569.026895199902,None,4555.376775499899,None,,,,,,,,,,,,,,,,,,,1,M,1,r,CIB,2021_Apr_16_1247,bodysite,2020.2.5,60.016660695976555,"['Left Leg', 'Right Arm', 'Right Face', 'Abdomen', 'Right Leg', 'Chest', 'Left Arm', 'Left Face']",
stimuli/orders/stimOrder11.xlsx,3,0,4,4,5,0,9,9,9,,,,,,,,,,,,,,,,,,,4621.177381299902,None,4621.177381299902,None,4608.043756800238,4608.043756800238,,,,,,,,,,,,,,,,,,,1,M,1,r,CIB,2021_Apr_16_1247,bodysite,2020.2.5,60.016660695976555,"['Left Leg', 'Right Arm', 'Right Face', 'Abdomen', 'Right Leg', 'Chest', 'Left Arm', 'Left Face']",
stimuli/orders/stimOrder11.xlsx,3,0,4,4,5,0,17,17,17,,,,,,,,,,,,,,,,,,,4725.461500199977,None,4725.461500199977,None,4712.4613358001225,None,,,,,,,,,,,,,,,,,,,1,M,1,r,CIB,2021_Apr_16_1247,bodysite,2020.2.5,60.016660695976555,"['Left Leg', 'Right Arm', 'Right Face', 'Abdomen', 'Right Leg', 'Chest', 'Left Arm', 'Left Face']",
stimuli/orders/stimOrder11.xlsx,3,0,4,4,5,0,18,18,18,,,,,,,,,,,,,,,,,,,4738.578246300109,4738.578246300109,4738.578246300109,4738.578246300109,,,,,,,,,,,,,,,,,,,,,1,M,1,r,CIB,2021_Apr_16_1247,bodysite,2020.2.5,60.016660695976555,"['Left Leg', 'Right Arm', 'Right Face', 'Abdomen', 'Right Leg', 'Chest', 'Left Arm', 'Left Face']",
stimuli/orders/stimOrder11.xlsx,3,0,4,4,5,0,22,22,22,,,,,,,,,,,,,,,,,,,4790.7619990003295,None,4790.7619990003295,None,4777.611861000303,4777.611861000303,,,,,,,,,,,,,,,,,,,1,M,1,r,CIB,2021_Apr_16_1247,bodysite,2020.2.5,60.016660695976555,"['Left Leg', 'Right Arm', 'Right Face', 'Abdomen', 'Right Leg', 'Chest', 'Left Arm', 'Left Face']",
stimuli/orders/stimOrder11.xlsx,3,0,4,4,5,0,32,32,32,,,,,,,,,,,,,,,,,,,4922.296353400219,None,4922.296353400219,None,4909.129461400211,4909.129461400211,,,,,,,,,,,,,,,,,,,1,M,1,r,CIB,2021_Apr_16_1247,bodysite,2020.2.5,60.016660695976555,"['Left Leg', 'Right Arm', 'Right Face', 'Abdomen', 'Right Leg', 'Chest', 'Left Arm', 'Left Face']",
stimuli/orders/stimOrder11.xlsx,3,0,4,4,5,0,34,34,34,,,,,,,,,,,,,,,,,,,4948.296597900335,None,4948.296597900335,None,4935.296424400061,None,,,,,,,,,,,,,,,,,,,1,M,1,r,CIB,2021_Apr_16_1247,bodysite,2020.2.5,60.016660695976555,"['Left Leg', 'Right Arm', 'Right Face', 'Abdomen', 'Right Leg', 'Chest', 'Left Arm', 'Left Face']",
stimuli/orders/stimOrder11.xlsx,3,0,4,4,5,0,37,37,37,,,,,,,,,,,,,,,,,,,4987.9801837001,None,4987.9801837001,None,4974.980078400113,4974.980078400113,,,,,,,,,,,,,,,,,,,1,M,1,r,CIB,2021_Apr_16_1247,bodysite,2020.2.5,60.016660695976555,"['Left Leg', 'Right Arm', 'Right Face', 'Abdomen', 'Right Leg', 'Chest', 'Left Arm', 'Left Face']",
stimuli/orders/stimOrder11.xlsx,3,0,4,4,5,0,38,38,38,,,,,,,,,,,,,,,,,,,5001.147056099959,5001.147056099959,5001.147056099959,5001.147056099959,,,,,,,,,,,,,,,,,,,,,1,M,1,r,CIB,2021_Apr_16_1247,bodysite,2020.2.5,60.016660695976555,"['Left Leg', 'Right Arm', 'Right Face', 'Abdomen', 'Right Leg', 'Chest', 'Left Arm', 'Left Face']",
stimuli/orders/stimOrder11.xlsx,3,0,4,4,5,0,40,40,40,,,,,,,,,,,,,,,,,,,5027.780568399932,None,5027.780568399932,None,5014.147045799997,None,,,,,,,,,,,,,,,,,,,1,M,1,r,CIB,2021_Apr_16_1247,bodysite,2020.2.5,60.016660695976555,"['Left Leg', 'Right Arm', 'Right Face', 'Abdomen', 'Right Leg', 'Chest', 'Left Arm', 'Left Face']",
stimuli/orders/stimOrder11.xlsx,3,0,4,4,5,0,43,43,43,,,,,,,,,,,,,,,,,,,5066.914173800033,None,5066.914173800033,None,5053.780686500017,5053.780686500017,,,,,,,,,,,,,,,,,,,1,M,1,r,CIB,2021_Apr_16_1247,bodysite,2020.2.5,60.016660695976555,"['Left Leg', 'Right Arm', 'Right Face', 'Abdomen', 'Right Leg', 'Chest', 'Left Arm', 'Left Face']",
stimuli/orders/stimOrder11.xlsx,3,0,4,4,5,0,45,45,45,,,,,,,,,,,,,,,,,,,5092.914353,None,5092.914353,None,5079.914226100314,None,,,,,,,,,,,,,,,,,,,1,M,1,r,CIB,2021_Apr_16_1247,bodysite,2020.2.5,60.016660695976555,"['Left Leg', 'Right Arm', 'Right Face', 'Abdomen', 'Right Leg', 'Chest', 'Left Arm', 'Left Face']",
stimuli/orders/stimOrder11.xlsx,,0,4,4,5,,,,,,,,,,,,,,,,,,,,,,,,,,,5119.047885700129,5119.047885700129,9.876543209876544,5138.420819989871,,,,,,,,,,,,,,,,,1,M,1,r,CIB,2021_Apr_16_1247,bodysite,2020.2.5,60.016660695976555,"['Left Leg', 'Right Arm', 'Right Face', 'Abdomen', 'Right Leg', 'Chest', 'Left Arm', 'Left Face']",
stimuli/orders/stimOrder11.xlsx,,0,4,4,5,,,,,,,,,,,,,,,,,,,,,,,,,,,,,,,0.01406031008809805,None,23.086419753086417,5141.75678828964,,,,,,,,,,,,,1,M,1,r,CIB,2021_Apr_16_1247,bodysite,2020.2.5,60.016660695976555,"['Left Leg', 'Right Arm', 'Right Face', 'Abdomen', 'Right Leg', 'Chest', 'Left Arm', 'Left Face']",
stimuli/orders/stimOrder11.xlsx,,0,4,4,5,,,,,,,,,,,,,,,,,,,,,,,,,,,,,,,,,,,0.011420110240578651,None,58.230452674897116,5147.223647990264,,,,,,,,,1,M,1,r,CIB,2021_Apr_16_1247,bodysite,2020.2.5,60.016660695976555,"['Left Leg', 'Right Arm', 'Right Face', 'Abdomen', 'Right Leg', 'Chest', 'Left Arm', 'Left Face']",
stimuli/orders/stimOrder1.xlsx,3,0,5,5,0,0,0,0,0,,,,,,,5156.848190300167,5156.848190300167,None,space,138.40796220023185,5156.848190300167,None,,,,,,5382.749984499998,None,5382.749984499998,None,,,,,,,,,,,,,0.01131990971043706,None,,,,,,,1,M,1,r,CIB,2021_Apr_16_1247,bodysite,2020.2.5,60.016660695976555,"['Left Leg', 'Right Arm', 'Right Face', 'Abdomen', 'Right Leg', 'Chest', 'Left Arm', 'Left Face']",
stimuli/orders/stimOrder1.xlsx,3,0,5,5,0,0,2,2,2,,,,,,,,,,,,,,,,,,,5408.750137200113,None,5408.750137200113,None,5395.750051599927,None,,,,,,,,,,,,,,,,,,,1,M,1,r,CIB,2021_Apr_16_1247,bodysite,2020.2.5,60.016660695976555,"['Left Leg', 'Right Arm', 'Right Face', 'Abdomen', 'Right Leg', 'Chest', 'Left Arm', 'Left Face']",
stimuli/orders/stimOrder1.xlsx,3,0,5,5,0,0,4,4,4,,,,,,,,,,,,,,,,,,,5434.750397900119,None,5434.750397900119,None,5421.750255200081,None,,,,,,,,,,,,,,,,,,,1,M,1,r,CIB,2021_Apr_16_1247,bodysite,2020.2.5,60.016660695976555,"['Left Leg', 'Right Arm', 'Right Face', 'Abdomen', 'Right Leg', 'Chest', 'Left Arm', 'Left Face']",
stimuli/orders/stimOrder1.xlsx,3,0,5,5,0,0,10,10,10,,,,,,,,,,,,,,,,,,,5513.03433750011,None,5513.03433750011,None,5500.01753260009,5500.01753260009,,,,,,,,,,,,,,,,,,,1,M,1,r,CIB,2021_Apr_16_1247,bodysite,2020.2.5,60.016660695976555,"['Left Leg', 'Right Arm', 'Right Face', 'Abdomen', 'Right Leg', 'Chest', 'Left Arm', 'Left Face']",
stimuli/orders/stimOrder1.xlsx,3,0,5,5,0,0,12,12,12,,,,,,,,,,,,,,,,,,,5539.7012837002985,None,5539.7012837002985,None,5526.034410899971,None,,,,,,,,,,,,,,,,,,,1,M,1,r,CIB,2021_Apr_16_1247,bodysite,2020.2.5,60.016660695976555,"['Left Leg', 'Right Arm', 'Right Face', 'Abdomen', 'Right Leg', 'Chest', 'Left Arm', 'Left Face']",
stimuli/orders/stimOrder1.xlsx,3,0,5,5,0,0,18,18,18,,,,,,,,,,,,,,,,,,,5618.418492900208,None,5618.418492900208,None,5605.418347000144,5605.418347000144,,,,,,,,,,,,,,,,,,,1,M,1,r,CIB,2021_Apr_16_1247,bodysite,2020.2.5,60.016660695976555,"['Left Leg', 'Right Arm', 'Right Face', 'Abdomen', 'Right Leg', 'Chest', 'Left Arm', 'Left Face']",
stimuli/orders/stimOrder1.xlsx,3,0,5,5,0,0,23,23,23,,,,,,,,,,,,,,,,,,,5684.685614600312,None,5684.685614600312,None,5671.1020742002875,None,,,,,,,,,,,,,,,,,,,1,M,1,r,CIB,2021_Apr_16_1247,bodysite,2020.2.5,60.016660695976555,"['Left Leg', 'Right Arm', 'Right Face', 'Abdomen', 'Right Leg', 'Chest', 'Left Arm', 'Left Face']",
stimuli/orders/stimOrder1.xlsx,3,0,5,5,0,0,25,25,25,,,,,,,,,,,,,,,,,,,5710.685917499941,None,5710.685917499941,None,5697.685800100211,None,,,,,,,,,,,,,,,,,,,1,M,1,r,CIB,2021_Apr_16_1247,bodysite,2020.2.5,60.016660695976555,"['Left Leg', 'Right Arm', 'Right Face', 'Abdomen', 'Right Leg', 'Chest', 'Left Arm', 'Left Face']",
stimuli/orders/stimOrder1.xlsx,3,0,5,5,0,0,26,26,26,,,,,,,,,,,,,,,,,,,5723.835995899979,5723.835995899979,5723.835995899979,5723.835995899979,,,,,,,,,,,,,,,,,,,,,1,M,1,r,CIB,2021_Apr_16_1247,bodysite,2020.2.5,60.016660695976555,"['Left Leg', 'Right Arm', 'Right Face', 'Abdomen', 'Right Leg', 'Chest', 'Left Arm', 'Left Face']",
stimuli/orders/stimOrder1.xlsx,3,0,5,5,0,0,29,29,29,,,,,,,,,,,,,,,,,,,5762.986347400118,None,5762.986347400118,None,5749.836182300001,5749.836182300001,,,,,,,,,,,,,,,,,,,1,M,1,r,CIB,2021_Apr_16_1247,bodysite,2020.2.5,60.016660695976555,"['Left Leg', 'Right Arm', 'Right Face', 'Abdomen', 'Right Leg', 'Chest', 'Left Arm', 'Left Face']",
stimuli/orders/stimOrder1.xlsx,3,0,5,5,0,0,31,31,31,,,,,,,,,,,,,,,,,,,5789.019786800258,None,5789.019786800258,None,5775.9863660000265,None,,,,,,,,,,,,,,,,,,,1,M,1,r,CIB,2021_Apr_16_1247,bodysite,2020.2.5,60.016660695976555,"['Left Leg', 'Right Arm', 'Right Face', 'Abdomen', 'Right Leg', 'Chest', 'Left Arm', 'Left Face']",
stimuli/orders/stimOrder1.xlsx,3,0,5,5,0,0,35,35,35,,,,,,,,,,,,,,,,,,,5841.170225800015,None,5841.170225800015,None,5828.170111000072,None,,,,,,,,,,,,,,,,,,,1,M,1,r,CIB,2021_Apr_16_1247,bodysite,2020.2.5,60.016660695976555,"['Left Leg', 'Right Arm', 'Right Face', 'Abdomen', 'Right Leg', 'Chest', 'Left Arm', 'Left Face']",
stimuli/orders/stimOrder1.xlsx,3,0,5,5,0,0,43,43,43,,,,,,,,,,,,,,,,,,,5945.754279500339,None,5945.754279500339,None,5932.720920000225,5932.720920000225,,,,,,,,,,,,,,,,,,,1,M,1,r,CIB,2021_Apr_16_1247,bodysite,2020.2.5,60.016660695976555,"['Left Leg', 'Right Arm', 'Right Face', 'Abdomen', 'Right Leg', 'Chest', 'Left Arm', 'Left Face']",
stimuli/orders/stimOrder1.xlsx,3,0,5,5,0,0,46,46,46,,,,,,,,,,,,,,,,,,,5985.004624600057,None,5985.004624600057,None,5971.754559500143,5971.754559500143,,,,,,,,,,,,,,,,,,,1,M,1,r,CIB,2021_Apr_16_1247,bodysite,2020.2.5,60.016660695976555,"['Left Leg', 'Right Arm', 'Right Face', 'Abdomen', 'Right Leg', 'Chest', 'Left Arm', 'Left Face']",
stimuli/orders/stimOrder1.xlsx,,0,5,5,0,,,,,,,,,,,,,,,,,,,,,,,,,,,5998.00477749994,None,-16.790123456790113,6017.910594389774,,,,,,,,,,,,,,,,,1,M,1,r,CIB,2021_Apr_16_1247,bodysite,2020.2.5,60.016660695976555,"['Left Leg', 'Right Arm', 'Right Face', 'Abdomen', 'Right Leg', 'Chest', 'Left Arm', 'Left Face']",
stimuli/orders/stimOrder1.xlsx,,0,5,5,0,,,,,,,,,,,,,,,,,,,,,,,,,,,,,,,0.014510210137814283,None,36.50205761316872,6021.679515090305,,,,,,,,,,,,,1,M,1,r,CIB,2021_Apr_16_1247,bodysite,2020.2.5,60.016660695976555,"['Left Leg', 'Right Arm', 'Right Face', 'Abdomen', 'Right Leg', 'Chest', 'Left Arm', 'Left Face']",
stimuli/orders/stimOrder1.xlsx,,0,5,5,0,,,,,,,,,,,,,,,,,,,,,,,,,,,,,,,,,,,0.012258509639650583,None,55.925925925925924,6025.49622078985,,,,,,,,,1,M,1,r,CIB,2021_Apr_16_1247,bodysite,2020.2.5,60.016660695976555,"['Left Leg', 'Right Arm', 'Right Face', 'Abdomen', 'Right Leg', 'Chest', 'Left Arm', 'Left Face']",
stimuli/orders/stimOrder3.xlsx,3,0,6,6,1,0,2,2,2,,,,,,,6039.255331700202,6039.255331700202,None,space,124.79353979974985,6039.255331700202,None,,,,,,6259.490163300186,None,6259.490163300186,None,6246.473381900229,None,,,,,,,,,,,0.012260810006409883,None,,,,,,,1,M,1,r,CIB,2021_Apr_16_1247,bodysite,2020.2.5,60.016660695976555,"['Left Leg', 'Right Arm', 'Right Face', 'Abdomen', 'Right Leg', 'Chest', 'Left Arm', 'Left Face']",
stimuli/orders/stimOrder3.xlsx,3,0,6,6,1,0,15,15,15,,,,,,,,,,,,,,,,,,,6430.408221099991,None,6430.408221099991,None,6417.224736399949,None,,,,,,,,,,,,,,,,,,,1,M,1,r,CIB,2021_Apr_16_1247,bodysite,2020.2.5,60.016660695976555,"['Left Leg', 'Right Arm', 'Right Face', 'Abdomen', 'Right Leg', 'Chest', 'Left Arm', 'Left Face']",
stimuli/orders/stimOrder3.xlsx,3,0,6,6,1,0,19,19,19,,,,,,,,,,,,,,,,,,,6482.758606899995,None,6482.758606899995,None,6469.5751489000395,6469.5751489000395,,,,,,,,,,,,,,,,,,,1,M,1,r,CIB,2021_Apr_16_1247,bodysite,2020.2.5,60.016660695976555,"['Left Leg', 'Right Arm', 'Right Face', 'Abdomen', 'Right Leg', 'Chest', 'Left Arm', 'Left Face']",
stimuli/orders/stimOrder3.xlsx,3,0,6,6,1,0,23,23,23,,,,,,,,,,,,,,,,,,,6535.059047000017,None,6535.059047000017,None,6521.908876300324,None,,,,,,,,,,,,,,,,,,,1,M,1,r,CIB,2021_Apr_16_1247,bodysite,2020.2.5,60.016660695976555,"['Left Leg', 'Right Arm', 'Right Face', 'Abdomen', 'Right Leg', 'Chest', 'Left Arm', 'Left Face']",
stimuli/orders/stimOrder3.xlsx,3,0,6,6,1,0,25,25,25,,,,,,,,,,,,,,,,,,,6561.2425950001925,None,6561.2425950001925,None,6548.059079499915,None,,,,,,,,,,,,,,,,,,,1,M,1,r,CIB,2021_Apr_16_1247,bodysite,2020.2.5,60.016660695976555,"['Left Leg', 'Right Arm', 'Right Face', 'Abdomen', 'Right Leg', 'Chest', 'Left Arm', 'Left Face']",
stimuli/orders/stimOrder3.xlsx,3,0,6,6,1,0,27,27,27,,,,,,,,,,,,,,,,,,,6587.376265400089,None,6587.376265400089,None,6574.2426287001,None,,,,,,,,,,,,,,,,,,,1,M,1,r,CIB,2021_Apr_16_1247,bodysite,2020.2.5,60.016660695976555,"['Left Leg', 'Right Arm', 'Right Face', 'Abdomen', 'Right Leg', 'Chest', 'Left Arm', 'Left Face']",
stimuli/orders/stimOrder3.xlsx,3,0,6,6,1,0,31,31,31,,,,,,,,,,,,,,,,,,,6639.676485400181,None,6639.676485400181,None,6626.5263885003515,6626.5263885003515,,,,,,,,,,,,,,,,,,,1,M,1,r,CIB,2021_Apr_16_1247,bodysite,2020.2.5,60.016660695976555,"['Left Leg', 'Right Arm', 'Right Face', 'Abdomen', 'Right Leg', 'Chest', 'Left Arm', 'Left Face']",
stimuli/orders/stimOrder3.xlsx,3,0,6,6,1,0,34,34,34,,,,,,,,,,,,,,,,,,,6679.343486499973,None,6679.343486499973,None,6665.676665999927,6665.676665999927,,,,,,,,,,,,,,,,,,,1,M,1,r,CIB,2021_Apr_16_1247,bodysite,2020.2.5,60.016660695976555,"['Left Leg', 'Right Arm', 'Right Face', 'Abdomen', 'Right Leg', 'Chest', 'Left Arm', 'Left Face']",
stimuli/orders/stimOrder3.xlsx,3,0,6,6,1,0,36,36,36,,,,,,,,,,,,,,,,,,,6705.343718800228,None,6705.343718800228,None,6692.343546300195,None,,,,,,,,,,,,,,,,,,,1,M,1,r,CIB,2021_Apr_16_1247,bodysite,2020.2.5,60.016660695976555,"['Left Leg', 'Right Arm', 'Right Face', 'Abdomen', 'Right Leg', 'Chest', 'Left Arm', 'Left Face']",
stimuli/orders/stimOrder3.xlsx,3,0,6,6,1,0,37,37,37,,,,,,,,,,,,,,,,,,,6718.4936494999565,6718.4936494999565,6718.4936494999565,6718.4936494999565,,,,,,,,,,,,,,,,,,,,,1,M,1,r,CIB,2021_Apr_16_1247,bodysite,2020.2.5,60.016660695976555,"['Left Leg', 'Right Arm', 'Right Face', 'Abdomen', 'Right Leg', 'Chest', 'Left Arm', 'Left Face']",
stimuli/orders/stimOrder3.xlsx,3,0,6,6,1,0,39,39,39,,,,,,,,,,,,,,,,,,,6744.494030599948,None,6744.494030599948,None,6731.493864300195,None,,,,,,,,,,,,,,,,,,,1,M,1,r,CIB,2021_Apr_16_1247,bodysite,2020.2.5,60.016660695976555,"['Left Leg', 'Right Arm', 'Right Face', 'Abdomen', 'Right Leg', 'Chest', 'Left Arm', 'Left Face']",
stimuli/orders/stimOrder3.xlsx,3,0,6,6,1,0,40,40,40,,,,,,,,,,,,,,,,,,,6757.660812899936,6757.660812899936,6757.660812899936,6757.660812899936,,,,,,,,,,,,,,,,,,,,,1,M,1,r,CIB,2021_Apr_16_1247,bodysite,2020.2.5,60.016660695976555,"['Left Leg', 'Right Arm', 'Right Face', 'Abdomen', 'Right Leg', 'Chest', 'Left Arm', 'Left Face']",
stimuli/orders/stimOrder3.xlsx,3,0,6,6,1,0,43,43,43,,,,,,,,,,,,,,,,,,,6796.794452700298,None,6796.794452700298,None,6783.66092699999,6783.66092699999,,,,,,,,,,,,,,,,,,,1,M,1,r,CIB,2021_Apr_16_1247,bodysite,2020.2.5,60.016660695976555,"['Left Leg', 'Right Arm', 'Right Face', 'Abdomen', 'Right Leg', 'Chest', 'Left Arm', 'Left Face']",
stimuli/orders/stimOrder3.xlsx,3,0,6,6,1,0,47,47,47,,,,,,,,,,,,,,,,,,,6848.944804300088,None,6848.944804300088,None,6835.944678700063,6835.944678700063,,,,,,,,,,,,,,,,,,,1,M,1,r,CIB,2021_Apr_16_1247,bodysite,2020.2.5,60.016660695976555,"['Left Leg', 'Right Arm', 'Right Face', 'Abdomen', 'Right Leg', 'Chest', 'Left Arm', 'Left Face']",
stimuli/orders/stimOrder3.xlsx,,0,6,6,1,,,,,,,,,,,,,,,,,,,,,,,,,,,,,-11.522633744855966,6867.8846018901095,,,,,,,,,,,,,,,,,1,M,1,r,CIB,2021_Apr_16_1247,bodysite,2020.2.5,60.016660695976555,"['Left Leg', 'Right Arm', 'Right Face', 'Abdomen', 'Right Leg', 'Chest', 'Left Arm', 'Left Face']",
stimuli/orders/stimOrder3.xlsx,,0,6,6,1,,,,,,,,,,,,,,,,,,,,,,,,,,,,,,,0.013818310108035803,None,22.674897119341566,6870.970057789702,,,,,,,,,,,,,1,M,1,r,CIB,2021_Apr_16_1247,bodysite,2020.2.5,60.016660695976555,"['Left Leg', 'Right Arm', 'Right Face', 'Abdomen', 'Right Leg', 'Chest', 'Left Arm', 'Left Face']",
stimuli/orders/stimOrder3.xlsx,,0,6,6,1,,,,,,,,,,,,,,,,,,,,,,,,,,,,,,,,,,,0.011715410277247429,None,60.288065843621396,6873.386788390111,,,,,,,,,1,M,1,r,CIB,2021_Apr_16_1247,bodysite,2020.2.5,60.016660695976555,"['Left Leg', 'Right Arm', 'Right Face', 'Abdomen', 'Right Leg', 'Chest', 'Left Arm', 'Left Face']",
stimuli/orders/stimOrder9.xlsx,3,0,7,7,4,0,2,2,2,,,,,,,6879.02855100017,6879.02855100017,None,space,235.27732220012695,6879.02855100017,None,,,,,,7582.733789599966,None,7582.733789599966,None,7569.150327000301,7569.150327000301,,,,,,,,,,,0.01169531000778079,None,,,,,,,1,M,1,r,CIB,2021_Apr_16_1247,bodysite,2020.2.5,60.016660695976555,"['Left Leg', 'Right Arm', 'Right Face', 'Abdomen', 'Right Leg', 'Chest', 'Left Arm', 'Left Face']",
stimuli/orders/stimOrder9.xlsx,3,0,7,7,4,0,5,5,5,,,,,,,,,,,,,,,,,,,7621.867359000258,None,7621.867359000258,None,7608.73396660015,7608.73396660015,,,,,,,,,,,,,,,,,,,1,M,1,r,CIB,2021_Apr_16_1247,bodysite,2020.2.5,60.016660695976555,"['Left Leg', 'Right Arm', 'Right Face', 'Abdomen', 'Right Leg', 'Chest', 'Left Arm', 'Left Face']",
stimuli/orders/stimOrder9.xlsx,3,0,7,7,4,0,11,11,11,,,,,,,,,,,,,,,,,,,7700.568010500167,None,7700.568010500167,None,7687.534565700218,7687.534565700218,,,,,,,,,,,,,,,,,,,1,M,1,r,CIB,2021_Apr_16_1247,bodysite,2020.2.5,60.016660695976555,"['Left Leg', 'Right Arm', 'Right Face', 'Abdomen', 'Right Leg', 'Chest', 'Left Arm', 'Left Face']",
stimuli/orders/stimOrder9.xlsx,3,0,7,7,4,0,13,13,13,,,,,,,,,,,,,,,,,,,7726.568199600093,None,7726.568199600093,None,7713.568099800032,None,,,,,,,,,,,,,,,,,,,1,M,1,r,CIB,2021_Apr_16_1247,bodysite,2020.2.5,60.016660695976555,"['Left Leg', 'Right Arm', 'Right Face', 'Abdomen', 'Right Leg', 'Chest', 'Left Arm', 'Left Face']",
stimuli/orders/stimOrder9.xlsx,3,0,7,7,4,0,16,16,16,,,,,,,,,,,,,,,,,,,7766.368518000003,None,7766.368518000003,None,7753.201721200254,None,,,,,,,,,,,,,,,,,,,1,M,1,r,CIB,2021_Apr_16_1247,bodysite,2020.2.5,60.016660695976555,"['Left Leg', 'Right Arm', 'Right Face', 'Abdomen', 'Right Leg', 'Chest', 'Left Arm', 'Left Face']",
stimuli/orders/stimOrder9.xlsx,3,0,7,7,4,0,20,20,20,,,,,,,,,,,,,,,,,,,7818.50219239993,None,7818.50219239993,None,7805.502143099904,None,,,,,,,,,,,,,,,,,,,1,M,1,r,CIB,2021_Apr_16_1247,bodysite,2020.2.5,60.016660695976555,"['Left Leg', 'Right Arm', 'Right Face', 'Abdomen', 'Right Leg', 'Chest', 'Left Arm', 'Left Face']",
stimuli/orders/stimOrder9.xlsx,3,0,7,7,4,0,21,21,21,,,,,,,,,,,,,,,,,,,7831.635724700056,7831.635724700056,7831.635724700056,7831.635724700056,,,,,,,,,,,,,,,,,,,,,1,M,1,r,CIB,2021_Apr_16_1247,bodysite,2020.2.5,60.016660695976555,"['Left Leg', 'Right Arm', 'Right Face', 'Abdomen', 'Right Leg', 'Chest', 'Left Arm', 'Left Face']",
stimuli/orders/stimOrder9.xlsx,3,0,7,7,4,0,23,23,23,,,,,,,,,,,,,,,,,,,7857.652543600183,None,7857.652543600183,None,7844.635761199985,None,,,,,,,,,,,,,,,,,,,1,M,1,r,CIB,2021_Apr_16_1247,bodysite,2020.2.5,60.016660695976555,"['Left Leg', 'Right Arm', 'Right Face', 'Abdomen', 'Right Leg', 'Chest', 'Left Arm', 'Left Face']",
stimuli/orders/stimOrder9.xlsx,3,0,7,7,4,0,25,25,25,,,,,,,,,,,,,,,,,,,7883.652762799989,None,7883.652762799989,None,7870.652623500209,None,,,,,,,,,,,,,,,,,,,1,M,1,r,CIB,2021_Apr_16_1247,bodysite,2020.2.5,60.016660695976555,"['Left Leg', 'Right Arm', 'Right Face', 'Abdomen', 'Right Leg', 'Chest', 'Left Arm', 'Left Face']",
stimuli/orders/stimOrder9.xlsx,3,0,7,7,4,0,29,29,29,,,,,,,,,,,,,,,,,,,7935.953221800271,None,7935.953221800271,None,7922.786356800236,7922.786356800236,,,,,,,,,,,,,,,,,,,1,M,1,r,CIB,2021_Apr_16_1247,bodysite,2020.2.5,60.016660695976555,"['Left Leg', 'Right Arm', 'Right Face', 'Abdomen', 'Right Leg', 'Chest', 'Left Arm', 'Left Face']",
stimuli/orders/stimOrder9.xlsx,3,0,7,7,4,0,35,35,35,,,,,,,,,,,,,,,,,,,8015.237159400247,None,8015.237159400247,None,8001.570312600117,8001.570312600117,,,,,,,,,,,,,,,,,,,1,M,1,r,CIB,2021_Apr_16_1247,bodysite,2020.2.5,60.016660695976555,"['Left Leg', 'Right Arm', 'Right Face', 'Abdomen', 'Right Leg', 'Chest', 'Left Arm', 'Left Face']",
stimuli/orders/stimOrder9.xlsx,3,0,7,7,4,0,39,39,39,,,,,,,,,,,,,,,,,,,8067.254202600103,None,8067.254202600103,None,8054.254049300216,None,,,,,,,,,,,,,,,,,,,1,M,1,r,CIB,2021_Apr_16_1247,bodysite,2020.2.5,60.016660695976555,"['Left Leg', 'Right Arm', 'Right Face', 'Abdomen', 'Right Leg', 'Chest', 'Left Arm', 'Left Face']",
stimuli/orders/stimOrder9.xlsx,3,0,7,7,4,0,40,40,40,,,,,,,,,,,,,,,,,,,8080.9209531000815,8080.9209531000815,8080.9209531000815,8080.9209531000815,,,,,,,,,,,,,,,,,,,,,1,M,1,r,CIB,2021_Apr_16_1247,bodysite,2020.2.5,60.016660695976555,"['Left Leg', 'Right Arm', 'Right Face', 'Abdomen', 'Right Leg', 'Chest', 'Left Arm', 'Left Face']",
stimuli/orders/stimOrder9.xlsx,3,0,7,7,4,0,42,42,42,,,,,,,,,,,,,,,,,,,8107.571185499895,None,8107.571185499895,None,8093.921027100179,None,,,,,,,,,,,,,,,,,,,1,M,1,r,CIB,2021_Apr_16_1247,bodysite,2020.2.5,60.016660695976555,"['Left Leg', 'Right Arm', 'Right Face', 'Abdomen', 'Right Leg', 'Chest', 'Left Arm', 'Left Face']",
stimuli/orders/stimOrder9.xlsx,,0,7,7,4,,,,,,,,,,,,,,,,,,,,,,,,,,,8173.121643600054,8173.121643600054,24.691358024691354,8189.928044890054,,,,,,,,,,,,,,,,,1,M,1,r,CIB,2021_Apr_16_1247,bodysite,2020.2.5,60.016660695976555,"['Left Leg', 'Right Arm', 'Right Face', 'Abdomen', 'Right Leg', 'Chest', 'Left Arm', 'Left Face']",
stimuli/orders/stimOrder9.xlsx,,0,7,7,4,,,,,,,,,,,,,,,,,,,,,,,,,,,,,,,0.013886009808629751,None,15.267489711934154,8199.380382289644,,,,,,,,,,,,,1,M,1,r,CIB,2021_Apr_16_1247,bodysite,2020.2.5,60.016660695976555,"['Left Leg', 'Right Arm', 'Right Face', 'Abdomen', 'Right Leg', 'Chest', 'Left Arm', 'Left Face']",
stimuli/orders/stimOrder9.xlsx,,0,7,7,4,,,,,,,,,,,,,,,,,,,,,,,,,,,,,,,,,,,0.011607710272073746,None,68.76543209876543,8202.930349090137,,,,,,,,,1,M,1,r,CIB,2021_Apr_16_1247,bodysite,2020.2.5,60.016660695976555,"['Left Leg', 'Right Arm', 'Right Face', 'Abdomen', 'Right Leg', 'Chest', 'Left Arm', 'Left Face']",
,,,,,,,,,,,,,,,,,,,,,,,,,,,,,,,,,,,,,,,,,,,,0.011685609817504883,None,8210.205261100084,None,space,322.2241530995816,8210.205261100084,None,1,M,1,r,CIB,2021_Apr_16_1247,bodysite,2020.2.5,60.016660695976555,"['Left Leg', 'Right Arm', 'Right Face', 'Abdomen', 'Right Leg', 'Chest', 'Left Arm', 'Left Face']",
