	SID	day	sex	session	handedness	scanner	onset	duration	value	body_site	skin_site	temperature	condition	keys	rt	phase	biopac_channel
0	2543	3	f	3	r	MS MH			73.9506172839506	Chest	2	46.5	Threat		3.767320000100881	Placebo	
1	2543	3	f	3	r	MS MH			14.876543209876539	Chest	2	46.5	Stress		4.5022283999715	Placebo	
2	2543	3	f	3	r	MS MH			14.444444444444446	Chest	2	46.5	PainAnxiety		3.267037099925801	Placebo	
3	2543	3	f	3	r	MS MH			14.629629629629628	Chest	2	46.5	OtherAnxiety		4.116983300074935	Placebo	
4	2543	3	f	3	r	MS MH			67.34567901234568	Chest	2	46.5	PainConfidence		3.8503509999718517	Placebo	
5	2543	3	f	3	r	MS MH	2.774128899909556	5.0115738972090185		Chest	2	46.5	Instructions			Placebo	19
6	2543	3	f	3	r	MS MH	8.94224809994921	5.0078881091903895	28.76543209876543	Chest	2	46.5	Expectancy		3.1196310999803245	Placebo	51
7	2543	3	f	3	r	MS MH	14.33382699987851	2.0081013396847993		Chest	2	46.5	Cue			Placebo	6
8	2543	3	f	3	r	MS MH	16.350177799817175	4.0087307097855955		Chest	2	46.5	Pre-Jitter			Placebo	7
9	2543	3	f	3	r	MS MH	20.40545989992097	15.0150283400435		Chest	2	46.5	Placebo Heat 			Placebo	17
10	2543	3	f	3	r	MS MH	35.41473550000228	6.9967075099702924		Chest	2	46.5	Mid-Jitter			Placebo	8
11	2543	3	f	3	r	MS MH	42.43439770000987	5.007505820132792	1.0	Chest	2	46.5	PainBinary		1.2833253999706358	Placebo	20
12	2543	3	f	3	r	MS MH	47.464954999974	4.996579120168462	39.50617283950617	Chest	2	46.5	IntensityRating			Placebo	21
13	2543	3	f	3	r	MS MH	52.468044799985364	7.007075009867549		Chest	2	46.5	Post-Q-Jitter			Placebo	9
14	2543	3	f	3	r	MS MH	60.633403699845076	5.009893099078909	25.61728395061728	Chest	2	46.5	Expectancy		3.616656400030479	Placebo	51
15	2543	3	f	3	r	MS MH	66.03448029980063	2.0077954398002476		Chest	2	46.5	Cue			Placebo	6
16	2543	3	f	3	r	MS MH	68.05180020001717	8.006548509933054		Chest	2	46.5	Pre-Jitter			Placebo	7
17	2543	3	f	3	r	MS MH	76.10732359997928	15.012402739841491		Chest	2	46.5	Placebo Heat 			Placebo	17
18	2543	3	f	3	r	MS MH	91.11602119985037	4.99519100994803		Chest	2	46.5	Mid-Jitter			Placebo	8
19	2543	3	f	3	r	MS MH	96.13469829992391	5.00795931997709	1.0	Chest	2	46.5	PainBinary		1.4333093999885023	Placebo	20
20	2543	3	f	3	r	MS MH	101.16569980001077	5.012726520188153	31.48148148148148	Chest	2	46.5	IntensityRating		4.966691700043157	Placebo	21
21	2543	3	f	3	r	MS MH	106.18534639989957	5.006781910080463		Chest	2	46.5	Post-Q-Jitter			Placebo	9
22	2543	3	f	3	r	MS MH	111.4981712999288	5.014616989763454	24.629629629629633	Chest	2	46.5	Expectancy		3.3333483000751585	Placebo	51
23	2543	3	f	3	r	MS MH	116.88931929995306	2.015783139737323		Chest	2	46.5	Cue			Placebo	6
24	2543	3	f	3	r	MS MH	118.90281589981169	4.005480909720063		Chest	2	46.5	Pre-Jitter			Placebo	7
25	2543	3	f	3	r	MS MH	122.94505349989049	15.004534830106422		Chest	2	46.5	Placebo Heat 			Placebo	17
26	2543	3	f	3	r	MS MH	137.9500209998805	8.994841809850186		Chest	2	46.5	Mid-Jitter			Placebo	8
27	2543	3	f	3	r	MS MH	146.96809510001913	5.008871919941157	-1.0	Chest	2	46.5	PainBinary		1.2666102999355644	Placebo	20
28	2543	3	f	3	r	MS MH	156.9909274999518	9.013704016804695		Chest	2	46.5	Post-Q-Jitter			Placebo	9
29	2543	3	f	3	r	MS MH	166.32508149999194	5.012059709755704	20.308641975308642	Chest	2	46.5	Expectancy			Placebo	51
30	2543	3	f	3	r	MS MH	171.72007629997097	2.005357639864087		Chest	2	46.5	Cue			Placebo	6
31	2543	3	f	3	r	MS MH	173.7357456998434	4.00738260964863		Chest	2	46.5	Pre-Jitter			Placebo	7
32	2543	3	f	3	r	MS MH	177.7764088998083	15.009609429864213		Chest	2	46.5	Placebo Heat 			Placebo	17
33	2543	3	f	3	r	MS MH	192.7830328999553	6.996591710019857		Chest	2	46.5	Mid-Jitter			Placebo	8
34	2543	3	f	3	r	MS MH	199.80130239995196	5.01018182002008	-1.0	Chest	2	46.5	PainBinary		1.833322400227189	Placebo	20
35	2543	3	f	3	r	MS MH	209.8250191998668	7.013222616631538		Chest	2	46.5	Post-Q-Jitter			Placebo	9
36	2543	3	f	3	r	MS MH	217.17097189999186	5.00455860956572	18.765432098765434	Chest	2	46.5	Expectancy		4.033368699951097	Placebo	51
37	2543	3	f	3	r	MS MH	222.56389799993485	2.002118539530784		Chest	2	46.5	Cue			Placebo	6
38	2543	3	f	3	r	MS MH	224.5697085999418	6.007175009930506		Chest	2	46.5	Pre-Jitter			Placebo	7
39	2543	3	f	3	r	MS MH	230.62265609996393	15.001469430048019		Chest	2	46.5	Placebo Heat 			Placebo	17
40	2543	3	f	3	r	MS MH	245.63373889983632	8.996217109961435		Chest	2	46.5	Mid-Jitter			Placebo	8
41	2543	3	f	3	r	MS MH	254.65276869991794	5.008339519845322	-1.0	Chest	2	46.5	PainBinary		1.1359332001302391	Placebo	20
42	2543	3	f	3	r	MS MH	264.6768926999066	9.010608216747642		Chest	2	46.5	Post-Q-Jitter			Placebo	9
43	2543	3	f	3	r	MS MH	274.86638659983873	5.014904119540006	16.11111111111111	Chest	2	46.5	Expectancy		3.9669466000050306	Placebo	51
44	2543	3	f	3	r	MS MH	280.2527561997995	2.0088514296803623		Chest	2	46.5	Cue			Placebo	6
45	2543	3	f	3	r	MS MH	282.27047129999846	8.006821709917858		Chest	2	46.5	Pre-Jitter			Placebo	7
46	2543	3	f	3	r	MS MH	290.34113199985586	15.015747650060803		Chest	2	46.5	Placebo Heat 			Placebo	17
47	2543	3	f	3	r	MS MH	305.3518379998859	8.994547510053962		Chest	2	46.5	Mid-Jitter			Placebo	8
48	2543	3	f	3	r	MS MH	314.3709118999541	5.006551620084792	-1.0	Chest	2	46.5	PainBinary		0.9833231999073178	Placebo	20
49	2543	3	f	3	r	MS MH	324.3926585998852	9.01359351654537		Chest	2	46.5	Post-Q-Jitter			Placebo	9
50	2543	3	f	3	r	MS MH	333.42628999985754	3.6129601299762726	28.148148148148152	Chest	2	46.5	ComfortRating		3.5837751999497414	Placebo	26
51	2543	3	f	3	r	MS MH	337.05589099996723	3.9704878199845552	19.38271604938272	Chest	2	46.5	ValenceRating		3.949999399948865	Placebo	24
52	2543	3	f	3	r	MS MH	341.0504315998405	3.9981536199338734	20.679012345679013	Chest	2	46.5	IntensityRating		3.983640099875629	Placebo	26
53	2543	3	f	3	r	MS MH	345.06826479989104	4.662600520066917	15.925925925925924	Chest	2	46.5	AvoidanceRating		4.6501615000888705	Placebo	27
54	2543	3	f	3	r	MS MH	349.7486943998374	2.785173720214516	65.12345679012346	Chest	2	46.5	RelaxationRating		2.7670057001523674	Placebo	28
55	2543	3	f	3	r	MS MH	352.5518186998088	3.1623266201931983	24.444444444444443	Chest	2	46.5	AttentionRating		3.118906799936667	Placebo	29
56	2543	3	f	3	r	MS MH	355.73181519983336	4.652411620132625	44.69135802469136	Chest	2	46.5	BoredomRating		4.633785600075498	Placebo	30
57	2543	3	f	3	r	MS MH	360.400507299928	3.398469820152968	-97.1604938271605	Chest	2	46.5	AlertnessRating		3.3842637999914587	Placebo	31
58	2543	3	f	3	r	MS MH	363.8180320998654	5.463512419955805	49.87654320987653	Chest	2	46.5	PosThxRating		5.4334060999099165	Placebo	32
59	2543	3	f	3	r	MS MH	369.3006766999606	3.5982608201447874	-62.46913580246913	Chest	2	46.5	NegThxRating		3.583723200019449	Placebo	33
60	2543	3	f	3	r	MS MH	372.9177810999099	3.9974275201093405	-40.24691358024691	Chest	2	46.5	SelfRating		3.9520429000258446	Placebo	34
61	2543	3	f	3	r	MS MH	376.9331634999253	2.116754119982943	92.46913580246911	Chest	2	46.5	OtherRating		2.0860972001682967	Placebo	35
62	2543	3	f	3	r	MS MH	379.0673215999268	4.965179919963703	-57.901234567901234	Chest	2	46.5	ImageryRating		4.95118510001339	Placebo	32
63	2543	3	f	3	r	MS MH	384.05264059989713	3.627968220040202	-66.66666666666667	Chest	2	46.5	PresentRating		3.600047599989921	Placebo	37
