	SID	date	sex	session	handedness	scanner	onset	duration	repetition	rating	body_site	keys	temperature	conditionrt	mouseclick	biopac_channel	condition	rt	value
0	3063	2024_Oct_16_1226	m	1	r	TS SS	2.774254799936898	5.0125259443884715								19	Instructions		
1	3063	2024_Oct_16_1226	m	1	r	TS SS	9.057902300031856	2.012242420227267								6	Cue		
2	3063	2024_Oct_16_1226	m	1	r	TS SS	11.075217599980533	8.011085859965533								7	Pre-Jitter		
3	3063	2024_Oct_16_1226	m	1	r	TS SS	19.133823600015603	15.010859239962883			Right Arm		48.0			14	Heat-Stimulation		
4	3063	2024_Oct_16_1226	m	1	r	TS SS	34.217106199939735	7.0112600601278245								8	Mid-Jitter		
5	3063	2024_Oct_16_1226	m	1	r	TS SS	41.24096099997405	4.996979620074853								20	PainBinary	1.3503154000500217	1.0
6	3063	2024_Oct_16_1226	m	1	r	TS SS	46.257187200011685	5.0146824199473485								21	IntensityRating	3.133367999922484	61.72839506172839
7	3063	2024_Oct_16_1226	m	1	r	TS SS	51.28985489998013	4.999474420095794								22	ToleranceRating	1.3503211999777704	1.0
8	3063	2024_Oct_16_1226	m	1	r	TS SS	56.29440050001722	7.007082060095854								9	Post-Q-Jitter		
9	3063	2024_Oct_16_1226	m	1	r	TS SS	64.56044609996025	2.00838906026911								6	Cue		
10	3063	2024_Oct_16_1226	m	1	r	TS SS	66.57397389994003	5.998221159912646								7	Pre-Jitter		
11	3063	2024_Oct_16_1226	m	1	r	TS SS	72.61564219999127	15.015234739985317			Right Arm		48.5			14	Heat-Stimulation		
12	3063	2024_Oct_16_1226	m	1	r	TS SS	87.70696219999809	6.999520660028793								8	Mid-Jitter		
13	3063	2024_Oct_16_1226	m	1	r	TS SS	94.72421729995403	4.998491119942628								20	PainBinary	1.4003191998926923	1.0
14	3063	2024_Oct_16_1226	m	1	r	TS SS	99.74142610002309	5.014182519982569								21	IntensityRating	2.3502069000387564	61.72839506172839
15	3063	2024_Oct_16_1226	m	1	r	TS SS	104.77107779996004	5.005001520155929								22	ToleranceRating	1.2670193000230938	1.0
16	3063	2024_Oct_16_1226	m	1	r	TS SS	109.77833040000405	7.007304860046133								9	Post-Q-Jitter		
17	3063	2024_Oct_16_1226	m	1	r	TS SS	118.09879970003385	2.0165034002857283								6	Cue		
18	3063	2024_Oct_16_1226	m	1	r	TS SS	120.10848039994016	7.997277759946883								7	Pre-Jitter		
19	3063	2024_Oct_16_1226	m	1	r	TS SS	128.1577549999347	14.999067539931275			Right Arm		48.5			14	Heat-Stimulation		
20	3063	2024_Oct_16_1226	m	1	r	TS SS	143.23395589995198	7.013603160041384								8	Mid-Jitter		
21	3063	2024_Oct_16_1226	m	1	r	TS SS	150.25858260004316	4.997788920067251								20	PainBinary	1.1503216000273824	1.0
22	3063	2024_Oct_16_1226	m	1	r	TS SS	155.27428240003064	4.99985421996098								21	IntensityRating	2.2836759999627247	60.432098765432094
23	3063	2024_Oct_16_1226	m	1	r	TS SS	160.28886540001258	5.004227620083839								22	ToleranceRating	2.3837271999800578	1.0
24	3063	2024_Oct_16_1226	m	1	r	TS SS	165.29509949998464	7.008569659898058								9	Post-Q-Jitter		
25	3063	2024_Oct_16_1226	m	1	r	TS SS	173.64815559994895	2.002502160263248								6	Cue		
26	3063	2024_Oct_16_1226	m	1	r	TS SS	175.65956509998068	3.9964392599649727								7	Pre-Jitter		
27	3063	2024_Oct_16_1226	m	1	r	TS SS	179.69149600004312	14.999454980134033			Right Arm		48.5			14	Heat-Stimulation		
28	3063	2024_Oct_16_1226	m	1	r	TS SS	194.76750590000302	7.014396460028365								8	Mid-Jitter		
29	3063	2024_Oct_16_1226	m	1	r	TS SS	201.79269249993376	4.997545720078051								20	PainBinary	1.2005362999625504	1.0
30	3063	2024_Oct_16_1226	m	1	r	TS SS	206.8083009000402	4.999743220047094								21	IntensityRating	2.8836502000922337	55.98765432098766
31	3063	2024_Oct_16_1226	m	1	r	TS SS	211.82276999996975	5.004311320139095								22	ToleranceRating	1.2503634999739006	1.0
32	3063	2024_Oct_16_1226	m	1	r	TS SS	216.82988189999014	7.006902160006575								9	Post-Q-Jitter		
33	3063	2024_Oct_16_1226	m	1	r	TS SS	225.17412770004012	2.001832260284573								6	Cue		
34	3063	2024_Oct_16_1226	m	1	r	TS SS	227.17631659994368	5.9975670599378645								7	Pre-Jitter		
35	3063	2024_Oct_16_1226	m	1	r	TS SS	233.2019906999776	15.01314028003253			Right Arm		48.5			14	Heat-Stimulation		
36	3063	2024_Oct_16_1226	m	1	r	TS SS	248.2875510000158	7.008956159930676								8	Mid-Jitter		
37	3063	2024_Oct_16_1226	m	1	r	TS SS	255.31077390001155	5.012681120075285								20	PainBinary	1.2501544000115246	1.0
38	3063	2024_Oct_16_1226	m	1	r	TS SS	260.34215769998264	5.000012520002201								21	IntensityRating	1.7669525999808684	56.604938271604944
39	3063	2024_Oct_16_1226	m	1	r	TS SS	265.35643569997046	5.004932320094667								22	ToleranceRating	1.5168681999202818	1.0
40	3063	2024_Oct_16_1226	m	1	r	TS SS	270.3636845999863	7.0072747599333525								9	Post-Q-Jitter		
41	3063	2024_Oct_16_1226	m	1	r	TS SS	278.80272749997675	2.012612020364031								6	Cue		
42	3063	2024_Oct_16_1226	m	1	r	TS SS	280.8105977999512	5.996985959936865								7	Pre-Jitter		
43	3063	2024_Oct_16_1226	m	1	r	TS SS	286.8713289999869	15.009129200014286			Right Arm		48.5			14	Heat-Stimulation		
44	3063	2024_Oct_16_1226	m	1	r	TS SS	301.95086440001614	9.000371599919163								8	Mid-Jitter		
45	3063	2024_Oct_16_1226	m	1	r	TS SS	310.97927669994533	5.010376219986938								20	PainBinary	1.2001989000709727	1.0
46	3063	2024_Oct_16_1226	m	1	r	TS SS	316.01071009994484	4.997655419982038								21	IntensityRating	1.800226999912411	57.96296296296296
47	3063	2024_Oct_16_1226	m	1	r	TS SS	321.0241105000023	5.004322519991547								22	ToleranceRating	1.1834760999772698	1.0
48	3063	2024_Oct_16_1226	m	1	r	TS SS	326.03091640002094	9.007553559960797								9	Post-Q-Jitter		
49	3063	2024_Oct_16_1226	m	1	r	TS SS	336.459975500009	2.0162647604011								6	Cue		
50	3063	2024_Oct_16_1226	m	1	r	TS SS	338.47714370000176	7.998701560078189								7	Pre-Jitter		
51	3063	2024_Oct_16_1226	m	1	r	TS SS	346.50917870004196	15.001587480073795			Right Arm		48.5			14	Heat-Stimulation		
52	3063	2024_Oct_16_1226	m	1	r	TS SS	361.586280599935	7.014372460078448								8	Mid-Jitter		
53	3063	2024_Oct_16_1226	m	1	r	TS SS	368.61157970002387	4.997226019972004								20	PainBinary	1.2836486999876797	1.0
54	3063	2024_Oct_16_1226	m	1	r	TS SS	373.6295351999579	5.0114386200439185								21	IntensityRating	2.416847600019537	58.95061728395062
55	3063	2024_Oct_16_1226	m	1	r	TS SS	378.65797709999606	5.004654120071791								22	ToleranceRating	1.8836562000215054	1.0
56	3063	2024_Oct_16_1226	m	1	r	TS SS	383.66526859998703	7.0069060599198565								9	Post-Q-Jitter		
57	3063	2024_Oct_16_1226	m	1	r	TS SS	390.7043529000366	5.029010280035436								26	ComfortRating	4.9859588000690565	-40.61728395061729
58	3063	2024_Oct_16_1226	m	1	r	TS SS	395.74772440001834	2.4256804200122133								24	ValenceRating	2.4001859000418335	69.19753086419753
59	3063	2024_Oct_16_1226	m	1	r	TS SS	398.1929117999971	2.585368820116855								26	IntensityRating	2.5527045999187976	57.03703703703703
60	3063	2024_Oct_16_1226	m	1	r	TS SS	400.7962386000436	4.17879822012037								27	AvoidanceRating	4.1502192000625655	86.79012345679013
61	3063	2024_Oct_16_1226	m	1	r	TS SS	404.9900952000171	4.141185119980946								28	RelaxationRating	4.117007800028659	0.0
62	3063	2024_Oct_16_1226	m	1	r	TS SS	409.1440158999758	4.283435820136219								29	AttentionRating	4.266971300006844	6.481481481481481
63	3063	2024_Oct_16_1226	m	1	r	TS SS	413.4404955999926	4.423871519975364								30	BoredomRating	4.40033560001757	0.0
64	3063	2024_Oct_16_1226	m	1	r	TS SS	417.87515279999934	4.8047083200654015								31	AlertnessRating	4.769002499990165	100.0
65	3063	2024_Oct_16_1226	m	1	r	TS SS	422.6950743000489	4.581658420036547								32	PosThxRating	4.568193000042811	-100.0
66	3063	2024_Oct_16_1226	m	1	r	TS SS	427.29344339994714	3.8016823200741783								33	NegThxRating	3.7837119000032544	91.97530864197532
67	3063	2024_Oct_16_1226	m	1	r	TS SS	431.11038810003083	3.75124271993991								34	SelfRating	3.7336757000302896	94.5679012345679
68	3063	2024_Oct_16_1226	m	1	r	TS SS	434.87830069998745	3.898845420102589								35	OtherRating	3.8841061999555677	87.90123456790121
69	3063	2024_Oct_16_1226	m	1	r	TS SS	438.7957449000096	5.564043220016174								32	ImageryRating	5.533525700098835	19.87654320987656
70	3063	2024_Oct_16_1226	m	1	r	TS SS	444.37890969996806	7.014536220114678								37	PresentRating	6.983564399997704	-62.839506172839506
