	SID	date	sex	session	handedness	scanner	onset	duration	repetition	rating	body_site	keys	temperature	conditionrt	mouseclick	biopac_channel	condition	rt	value
0	3063	2024_Oct_16_1226	m	1	r	TS SS	2.774224199936725	5.009560444275849								19	Instructions		
1	3063	2024_Oct_16_1226	m	1	r	TS SS	9.081773999962024	2.011455240426585								6	Cue		
2	3063	2024_Oct_16_1226	m	1	r	TS SS	11.090458799968474	4.010820259922184								7	Pre-Jitter		
3	3063	2024_Oct_16_1226	m	1	r	TS SS	15.131618599989451	15.012100580031984			Left Leg		48.0			15	Heat-Stimulation		
4	3063	2024_Oct_16_1226	m	1	r	TS SS	30.224107299931347	7.010748259956017								8	Mid-Jitter		
5	3063	2024_Oct_16_1226	m	1	r	TS SS	37.2559449999826	4.997175620053895								20	PainBinary	1.7502643000334501	1.0
6	3063	2024_Oct_16_1226	m	1	r	TS SS	42.27280719997361	5.01363292010501								21	IntensityRating		84.01234567901236
7	3063	2024_Oct_16_1226	m	1	r	TS SS	47.302499099983834	5.004369319998659								22	ToleranceRating	3.9837586999638006	1.0
8	3063	2024_Oct_16_1226	m	1	r	TS SS	52.309322500019334	7.007540559978224								9	Post-Q-Jitter		
9	3063	2024_Oct_16_1226	m	1	r	TS SS	60.59903659997508	2.0114588802680373								6	Cue		
10	3063	2024_Oct_16_1226	m	1	r	TS SS	62.60577269992791	7.998132759821601								7	Pre-Jitter		
11	3063	2024_Oct_16_1226	m	1	r	TS SS	70.6374555999646	15.001803780090995			Left Leg		48.5			15	Heat-Stimulation		
12	3063	2024_Oct_16_1226	m	1	r	TS SS	85.71867349999957	7.0062949599232525								8	Mid-Jitter		
13	3063	2024_Oct_16_1226	m	1	r	TS SS	92.74050690000877	5.01277922000736								20	PainBinary	1.283504500053823	1.0
14	3063	2024_Oct_16_1226	m	1	r	TS SS	97.77208619995508	4.999725220142864								21	IntensityRating	4.283691699965857	75.98765432098766
15	3063	2024_Oct_16_1226	m	1	r	TS SS	102.78684790001716	5.003665319993161								22	ToleranceRating	1.8003185000270605	1.0
16	3063	2024_Oct_16_1226	m	1	r	TS SS	107.79329489998054	7.00759656005539								9	Post-Q-Jitter		
17	3063	2024_Oct_16_1226	m	1	r	TS SS	116.08963039994705	2.0150096802972257								6	Cue		
18	3063	2024_Oct_16_1226	m	1	r	TS SS	118.10650300001726	3.9980439599603415								7	Pre-Jitter		
19	3063	2024_Oct_16_1226	m	1	r	TS SS	122.13064440002199	15.016671680030413			Left Leg		48.5			15	Heat-Stimulation		
20	3063	2024_Oct_16_1226	m	1	r	TS SS	137.21526309999172	9.014381359913386								8	Mid-Jitter		
21	3063	2024_Oct_16_1226	m	1	r	TS SS	146.24094809999224	4.996548319933936								20	PainBinary	1.3348625999642536	1.0
22	3063	2024_Oct_16_1226	m	1	r	TS SS	151.25769310002215	5.0132078198948875								21	IntensityRating	4.466846099938266	81.72839506172839
23	3063	2024_Oct_16_1226	m	1	r	TS SS	156.28725439996924	5.004191020037979								22	ToleranceRating	1.8003737999824807	1.0
24	3063	2024_Oct_16_1226	m	1	r	TS SS	161.29398429999128	9.007554960087873								9	Post-Q-Jitter		
25	3063	2024_Oct_16_1226	m	1	r	TS SS	171.58695109991822	2.005087180179544								6	Cue		
26	3063	2024_Oct_16_1226	m	1	r	TS SS	173.59056839998811	5.997959760017693								7	Pre-Jitter		
27	3063	2024_Oct_16_1226	m	1	r	TS SS	179.63400989992078	15.011347440071404			Left Leg		48.5			15	Heat-Stimulation		
28	3063	2024_Oct_16_1226	m	1	r	TS SS	194.72297569992952	9.000389460008591								8	Mid-Jitter		
29	3063	2024_Oct_16_1226	m	1	r	TS SS	203.74293119995855	5.010655120015144								20	PainBinary	1.4501172000309452	1.0
30	3063	2024_Oct_16_1226	m	1	r	TS SS	208.77469470002688	5.013967620092444								21	IntensityRating	4.433485900051892	76.72839506172839
31	3063	2024_Oct_16_1226	m	1	r	TS SS	213.80508820002433	5.00330802006647								22	ToleranceRating	1.4836367999669164	1.0
32	3063	2024_Oct_16_1226	m	1	r	TS SS	218.81059459992684	9.009006559848785								9	Post-Q-Jitter		
33	3063	2024_Oct_16_1226	m	1	r	TS SS	229.10041890002321	2.012802280136384								6	Cue		
34	3063	2024_Oct_16_1226	m	1	r	TS SS	231.10836720000952	7.997141359956004								7	Pre-Jitter		
35	3063	2024_Oct_16_1226	m	1	r	TS SS	239.15335829998367	15.007441640016623			Left Leg		48.5			15	Heat-Stimulation		
36	3063	2024_Oct_16_1226	m	1	r	TS SS	254.23290589998942	5.015257759951055								8	Mid-Jitter		
37	3063	2024_Oct_16_1226	m	1	r	TS SS	259.2594012999907	5.012420820072293								20	PainBinary	1.5169697999954224	1.0
38	3063	2024_Oct_16_1226	m	1	r	TS SS	264.291857299977	5.0143211199902								21	IntensityRating	3.7668498000130057	77.65432098765432
39	3063	2024_Oct_16_1226	m	1	r	TS SS	269.3219985999167	5.004171120002866								22	ToleranceRating	1.3168458000291139	1.0
40	3063	2024_Oct_16_1226	m	1	r	TS SS	274.32789850002155	5.009133959887549								9	Post-Q-Jitter		
41	3063	2024_Oct_16_1226	m	1	r	TS SS	280.6485932000214	2.0011819403152913								6	Cue		
42	3063	2024_Oct_16_1226	m	1	r	TS SS	282.65890199993737	5.9973447599913925								7	Pre-Jitter		
43	3063	2024_Oct_16_1226	m	1	r	TS SS	288.6921608999837	14.997739979997277			Left Leg		48.5			15	Heat-Stimulation		
44	3063	2024_Oct_16_1226	m	1	r	TS SS	303.7729488000041	7.0030825599096715								8	Mid-Jitter		
45	3063	2024_Oct_16_1226	m	1	r	TS SS	310.7923743999563	4.99772942007985								20	PainBinary	1.3836683999979869	1.0
46	3063	2024_Oct_16_1226	m	1	r	TS SS	315.8097766999854	5.013088720035739								21	IntensityRating	4.4002927999245	75.55555555555556
47	3063	2024_Oct_16_1226	m	1	r	TS SS	320.838734799996	5.005297520081513								22	ToleranceRating	1.3170280000194907	1.0
48	3063	2024_Oct_16_1226	m	1	r	TS SS	325.84596790000796	7.00763665989507								9	Post-Q-Jitter		
49	3063	2024_Oct_16_1226	m	1	r	TS SS	334.0681686999742	2.0133468402782455								6	Cue		
50	3063	2024_Oct_16_1226	m	1	r	TS SS	336.0755897000199	3.9985729600302875								7	Pre-Jitter		
51	3063	2024_Oct_16_1226	m	1	r	TS SS	340.10614879999775	15.004352279938757			Left Leg		48.5			15	Heat-Stimulation		
52	3063	2024_Oct_16_1226	m	1	r	TS SS	355.18529529997613	9.013011960079893								8	Mid-Jitter		
53	3063	2024_Oct_16_1226	m	1	r	TS SS	364.2111006999621	5.011606720159762								20	PainBinary	1.2501459000632167	1.0
54	3063	2024_Oct_16_1226	m	1	r	TS SS	369.2444069000194	5.0117910200497136								21	IntensityRating	3.4003185000037774	73.58024691358024
55	3063	2024_Oct_16_1226	m	1	r	TS SS	374.2731259999564	5.004459420102648								22	ToleranceRating	2.966978200012818	1.0
56	3063	2024_Oct_16_1226	m	1	r	TS SS	379.28005189995747	9.007467560004443								9	Post-Q-Jitter		
57	3063	2024_Oct_16_1226	m	1	r	TS SS	388.3176470999606	7.6159278800478205								26	ComfortRating	7.583560200058855	-17.407407407407405
58	3063	2024_Oct_16_1226	m	1	r	TS SS	395.94643779995386	4.408494220115244								24	ValenceRating	4.383661200059578	81.91358024691357
59	3063	2024_Oct_16_1226	m	1	r	TS SS	400.37370569992345	4.33737402013503								26	IntensityRating	4.317016700049862	93.27160493827161
60	3063	2024_Oct_16_1226	m	1	r	TS SS	404.7271981999511	6.71385062020272								27	AvoidanceRating	6.6835837999824435	63.08641975308643
61	3063	2024_Oct_16_1226	m	1	r	TS SS	411.45510000002105	4.941556019941345								28	RelaxationRating	4.916861800011247	7.592592592592595
62	3063	2024_Oct_16_1226	m	1	r	TS SS	416.4087126000086	7.184478520066477								29	AttentionRating	7.166960500064306	59.44444444444444
63	3063	2024_Oct_16_1226	m	1	r	TS SS	423.60584530001506	5.80702821991872								30	BoredomRating	5.783717900048941	0.0
64	3063	2024_Oct_16_1226	m	1	r	TS SS	429.4242678999435	5.753663220210001								31	AlertnessRating	5.733710799948312	100.0
65	3063	2024_Oct_16_1226	m	1	r	TS SS	435.1915974000003	5.435799720115028								32	PosThxRating	5.4170627000276	-87.03703703703704
66	3063	2024_Oct_16_1226	m	1	r	TS SS	440.64147679996677	2.9194702201057225								33	NegThxRating	2.900466699968092	24.691358024691354
67	3063	2024_Oct_16_1226	m	1	r	TS SS	443.57401159999426	4.9711640200112015								34	SelfRating	4.950371599989012	87.03703703703701
68	3063	2024_Oct_16_1226	m	1	r	TS SS	448.55773799994495	3.1038262200308964								35	OtherRating	3.083686900092289	-33.08641975308642
69	3063	2024_Oct_16_1226	m	1	r	TS SS	451.67487220000476	11.119743720046245								32	ImageryRating	11.10047080006916	87.16049382716048
70	3063	2024_Oct_16_1226	m	1	r	TS SS	462.81172420002986	4.429587820079178								37	PresentRating	4.400222399970517	86.2962962962963
