square,location,corrAns,TaskT1Loop.thisRepN,TaskT1Loop.thisTrialN,TaskT1Loop.thisN,TaskT1Loop.thisIndex,trials.thisRepN,trials.thisTrialN,trials.thisN,trials.thisIndex,trials_2.thisRepN,trials_2.thisTrialN,trials_2.thisN,trials_2.thisIndex,runLoop.thisRepN,runLoop.thisTrialN,runLoop.thisN,runLoop.thisIndex,runSeq,fixation_1.started,fixation_1.stopped,grid_lines.started,grid_lines.stopped,target_square.started,target_square.stopped,fixation_2.started,fixation_2.stopped,response.corr,response.x,response.y,response.leftButton,response.click_left,response.click_right,response.started,response.stopped,ScoreReportText.started,ScoreReportText.stopped,ScoreReportResponse.keys,ScoreReportResponse.started,ScoreReportResponse.stopped,response_2.x,response_2.y,response_2.leftButton,grid_lines_2.started,grid_lines_2.stopped,target_square_2.started,target_square_2.stopped,fixation_3.started,fixation_3.stopped,response_2.rt_left,response_2.rt_right,response_2.click,response_2.corr,response_2.started,response_2.stopped,BodySiteInstructionText.started,BodySiteImg.started,BodySiteImg.stopped,BodySiteInstructionRead.keys,BodySiteInstructionRead.rt,BodySiteInstructionRead.started,BodySiteInstructionRead.stopped,subject number,gender,session,handedness,scanner,date,expName,psychopyVersion,frameRate,body_site_order,
6,"[0.2, 0]",None,0,0,0,0,0,0,0,0,,,,,,,,,,153.67710840003565,None,154.71045009978116,None,154.71045009978116,155.71045009978116,155.69376819999889,None,1,-0.21851851851851853,0.12962962962962962,"[0, 0, 0]",0,0,154.71045009978116,None,,,,,,,,,,,,,,,,,,,,,,,,,,,,99,M,1,r,CIB,2021_Aug_10_1443,WASABI distractmap,2020.2.10,60.003444209952825,"['Right Face', 'Chest', 'Left Leg', 'Right Arm', 'Right Face', 'Abdomen', 'Left Face', 'Right Leg', 'Left Arm', 'Left Arm', 'Left Face', 'Chest', 'Right Arm', 'Abdomen', 'Right Leg', 'Left Leg']",
6,"[0.2, 0]",1,0,0,0,0,0,1,1,1,,,,,,,,,,,,156.6937806000933,None,156.6937806000933,157.69379319995642,157.67710499977693,158.6771185998805,1,-0.21851851851851853,0.12962962962962962,"[0, 0, 0]",0,0,156.6937806000933,None,,,,,,,,,,,,,,,,,,,,,,,,,,,,99,M,1,r,CIB,2021_Aug_10_1443,WASABI distractmap,2020.2.10,60.003444209952825,"['Right Face', 'Chest', 'Left Leg', 'Right Arm', 'Right Face', 'Abdomen', 'Left Face', 'Right Leg', 'Left Arm', 'Left Arm', 'Left Face', 'Chest', 'Right Arm', 'Abdomen', 'Right Leg', 'Left Leg']",
2,"[0, 0.2]",0,0,0,0,0,0,2,2,2,,,,,,,,,,,,158.69377969997004,None,158.69377969997004,159.693820099812,159.67713460000232,160.6771303997375,1,-0.21851851851851853,0.12962962962962962,"[0, 0, 0]",0,0,158.69377969997004,None,,,,,,,,,,,,,,,,,,,,,,,,,,,,99,M,1,r,CIB,2021_Aug_10_1443,WASABI distractmap,2020.2.10,60.003444209952825,"['Right Face', 'Chest', 'Left Leg', 'Right Arm', 'Right Face', 'Abdomen', 'Left Face', 'Right Leg', 'Left Arm', 'Left Arm', 'Left Face', 'Chest', 'Right Arm', 'Abdomen', 'Right Leg', 'Left Leg']",
9,"[0.2, -0.2]",0,0,0,0,0,0,3,3,3,,,,,,,,,,,,160.69379589986056,None,160.69379589986056,161.69379719998688,161.6771428999491,162.67716760002077,1,-0.21851851851851853,0.12962962962962962,"[0, 0, 0]",0,0,160.69379589986056,None,,,,,,,,,,,,,,,,,,,,,,,,,,,,99,M,1,r,CIB,2021_Aug_10_1443,WASABI distractmap,2020.2.10,60.003444209952825,"['Right Face', 'Chest', 'Left Leg', 'Right Arm', 'Right Face', 'Abdomen', 'Left Face', 'Right Leg', 'Left Arm', 'Left Arm', 'Left Face', 'Chest', 'Right Arm', 'Abdomen', 'Right Leg', 'Left Leg']",
9,"[0.2, -0.2]",1,0,0,0,0,0,4,4,4,,,,,,,,,,,,162.6938229999505,None,162.6938229999505,163.6938428999856,163.67709789983928,164.67718270001933,1,-0.21851851851851853,0.12962962962962962,"[0, 0, 0]",0,0,162.6938229999505,None,,,,,,,,,,,,,,,,,,,,,,,,,,,,99,M,1,r,CIB,2021_Aug_10_1443,WASABI distractmap,2020.2.10,60.003444209952825,"['Right Face', 'Chest', 'Left Leg', 'Right Arm', 'Right Face', 'Abdomen', 'Left Face', 'Right Leg', 'Left Arm', 'Left Arm', 'Left Face', 'Chest', 'Right Arm', 'Abdomen', 'Right Leg', 'Left Leg']",
6,"[0.2, 0]",0,0,0,0,0,0,5,5,5,,,,,,,,,,,,164.69377959985286,None,164.69377959985286,165.69382559973747,165.67716399999335,166.67716010008007,1,-0.21851851851851853,0.12962962962962962,"[0, 0, 0]",0,0,164.69377959985286,None,,,,,,,,,,,,,,,,,,,,,,,,,,,,99,M,1,r,CIB,2021_Aug_10_1443,WASABI distractmap,2020.2.10,60.003444209952825,"['Right Face', 'Chest', 'Left Leg', 'Right Arm', 'Right Face', 'Abdomen', 'Left Face', 'Right Leg', 'Left Arm', 'Left Arm', 'Left Face', 'Chest', 'Right Arm', 'Abdomen', 'Right Leg', 'Left Leg']",
4,"[-0.2, 0]",0,0,0,0,0,0,6,6,6,,,,,,,,,,,,166.69383460003883,None,166.69383460003883,167.6938616000116,167.67720349971205,168.67720789974555,1,-0.21851851851851853,0.12962962962962962,"[0, 0, 0]",0,0,166.69383460003883,None,,,,,,,,,,,,,,,,,,,,,,,,,,,,99,M,1,r,CIB,2021_Aug_10_1443,WASABI distractmap,2020.2.10,60.003444209952825,"['Right Face', 'Chest', 'Left Leg', 'Right Arm', 'Right Face', 'Abdomen', 'Left Face', 'Right Leg', 'Left Arm', 'Left Arm', 'Left Face', 'Chest', 'Right Arm', 'Abdomen', 'Right Leg', 'Left Leg']",
3,"[0.2, 0.2]",0,0,0,0,0,0,7,7,7,,,,,,,,,,,,168.6938459998928,None,168.6938459998928,169.69386029988527,169.67718520015478,170.67722250008956,1,-0.21851851851851853,0.12962962962962962,"[0, 0, 0]",0,0,168.6938459998928,None,,,,,,,,,,,,,,,,,,,,,,,,,,,,99,M,1,r,CIB,2021_Aug_10_1443,WASABI distractmap,2020.2.10,60.003444209952825,"['Right Face', 'Chest', 'Left Leg', 'Right Arm', 'Right Face', 'Abdomen', 'Left Face', 'Right Leg', 'Left Arm', 'Left Arm', 'Left Face', 'Chest', 'Right Arm', 'Abdomen', 'Right Leg', 'Left Leg']",
3,"[0.2, 0.2]",1,0,0,0,0,0,8,8,8,,,,,,,,,,,,170.69387509999797,None,170.69387509999797,171.6938660996966,171.67722330009565,172.67719860002398,1,-0.21851851851851853,0.12962962962962962,"[0, 0, 0]",0,0,170.69387509999797,None,,,,,,,,,,,,,,,,,,,,,,,,,,,,99,M,1,r,CIB,2021_Aug_10_1443,WASABI distractmap,2020.2.10,60.003444209952825,"['Right Face', 'Chest', 'Left Leg', 'Right Arm', 'Right Face', 'Abdomen', 'Left Face', 'Right Leg', 'Left Arm', 'Left Arm', 'Left Face', 'Chest', 'Right Arm', 'Abdomen', 'Right Leg', 'Left Leg']",
8,"[0, -0.2]",0,0,0,0,0,0,9,9,9,,,,,,,,,,,,172.69383649993688,None,172.69383649993688,173.69389749970287,173.67722319997847,174.67722909990698,1,-0.21851851851851853,0.12962962962962962,"[0, 0, 0]",0,0,172.69383649993688,None,,,,,,,,,,,,,,,,,,,,,,,,,,,,99,M,1,r,CIB,2021_Aug_10_1443,WASABI distractmap,2020.2.10,60.003444209952825,"['Right Face', 'Chest', 'Left Leg', 'Right Arm', 'Right Face', 'Abdomen', 'Left Face', 'Right Leg', 'Left Arm', 'Left Arm', 'Left Face', 'Chest', 'Right Arm', 'Abdomen', 'Right Leg', 'Left Leg']",
1,"[-0.2, 0.2]",0,0,0,0,0,0,10,10,10,,,,,,,,,,,,174.69389599980786,None,174.69389599980786,175.69392170011997,175.67724160011858,176.67724120011553,1,-0.21851851851851853,0.12962962962962962,"[0, 0, 0]",0,0,174.69389599980786,None,,,,,,,,,,,,,,,,,,,,,,,,,,,,99,M,1,r,CIB,2021_Aug_10_1443,WASABI distractmap,2020.2.10,60.003444209952825,"['Right Face', 'Chest', 'Left Leg', 'Right Arm', 'Right Face', 'Abdomen', 'Left Face', 'Right Leg', 'Left Arm', 'Left Arm', 'Left Face', 'Chest', 'Right Arm', 'Abdomen', 'Right Leg', 'Left Leg']",
2,"[0, 0.2]",0,0,0,0,0,0,11,11,11,,,,,,,,,,,,176.6938940999098,None,176.6938940999098,177.69391799997538,177.67725089984015,178.67723979987204,1,-0.21851851851851853,0.12962962962962962,"[0, 0, 0]",0,0,176.6938940999098,None,,,,,,,,,,,,,,,,,,,,,,,,,,,,99,M,1,r,CIB,2021_Aug_10_1443,WASABI distractmap,2020.2.10,60.003444209952825,"['Right Face', 'Chest', 'Left Leg', 'Right Arm', 'Right Face', 'Abdomen', 'Left Face', 'Right Leg', 'Left Arm', 'Left Arm', 'Left Face', 'Chest', 'Right Arm', 'Abdomen', 'Right Leg', 'Left Leg']",
4,"[-0.2, 0]",0,0,0,0,0,0,12,12,12,,,,,,,,,,,,178.6939348001033,None,178.6939348001033,179.69393489975482,179.6772897997871,180.6772867999971,1,-0.21851851851851853,0.12962962962962962,"[0, 0, 0]",0,0,178.6939348001033,None,,,,,,,,,,,,,,,,,,,,,,,,,,,,99,M,1,r,CIB,2021_Aug_10_1443,WASABI distractmap,2020.2.10,60.003444209952825,"['Right Face', 'Chest', 'Left Leg', 'Right Arm', 'Right Face', 'Abdomen', 'Left Face', 'Right Leg', 'Left Arm', 'Left Arm', 'Left Face', 'Chest', 'Right Arm', 'Abdomen', 'Right Leg', 'Left Leg']",
4,"[-0.2, 0]",1,0,0,0,0,0,13,13,13,,,,,,,,,,,,180.69393339985982,None,180.69393339985982,181.69395919982344,181.67727009998634,182.67730419989675,1,-0.21851851851851853,0.12962962962962962,"[0, 0, 0]",0,0,180.69393339985982,None,,,,,,,,,,,,,,,,,,,,,,,,,,,,99,M,1,r,CIB,2021_Aug_10_1443,WASABI distractmap,2020.2.10,60.003444209952825,"['Right Face', 'Chest', 'Left Leg', 'Right Arm', 'Right Face', 'Abdomen', 'Left Face', 'Right Leg', 'Left Arm', 'Left Arm', 'Left Face', 'Chest', 'Right Arm', 'Abdomen', 'Right Leg', 'Left Leg']",
8,"[0, -0.2]",0,0,0,0,0,0,14,14,14,,,,,,,,,,,,182.6939483997412,None,182.6939483997412,183.69398629991338,183.67730489978567,184.67729800008237,1,-0.21851851851851853,0.12962962962962962,"[0, 0, 0]",0,0,182.6939483997412,None,,,,,,,,,,,,,,,,,,,,,,,,,,,,99,M,1,r,CIB,2021_Aug_10_1443,WASABI distractmap,2020.2.10,60.003444209952825,"['Right Face', 'Chest', 'Left Leg', 'Right Arm', 'Right Face', 'Abdomen', 'Left Face', 'Right Leg', 'Left Arm', 'Left Arm', 'Left Face', 'Chest', 'Right Arm', 'Abdomen', 'Right Leg', 'Left Leg']",
5,"[0, 0]",0,0,0,0,0,0,15,15,15,,,,,,,,,,,,184.69396329997107,None,184.69396329997107,185.69396260008216,185.6773044001311,186.67732500005513,1,-0.21851851851851853,0.12962962962962962,"[0, 0, 0]",0,0,184.69396329997107,None,,,,,,,,,,,,,,,,,,,,,,,,,,,,99,M,1,r,CIB,2021_Aug_10_1443,WASABI distractmap,2020.2.10,60.003444209952825,"['Right Face', 'Chest', 'Left Leg', 'Right Arm', 'Right Face', 'Abdomen', 'Left Face', 'Right Leg', 'Left Arm', 'Left Arm', 'Left Face', 'Chest', 'Right Arm', 'Abdomen', 'Right Leg', 'Left Leg']",
5,"[0, 0]",1,0,0,0,0,0,16,16,16,,,,,,,,,,,,186.69399149995297,None,186.69399149995297,187.69398629991338,187.6772038997151,188.67735290015116,1,-0.21851851851851853,0.12962962962962962,"[0, 0, 0]",0,0,186.69399149995297,None,,,,,,,,,,,,,,,,,,,,,,,,,,,,99,M,1,r,CIB,2021_Aug_10_1443,WASABI distractmap,2020.2.10,60.003444209952825,"['Right Face', 'Chest', 'Left Leg', 'Right Arm', 'Right Face', 'Abdomen', 'Left Face', 'Right Leg', 'Left Arm', 'Left Arm', 'Left Face', 'Chest', 'Right Arm', 'Abdomen', 'Right Leg', 'Left Leg']",
1,"[-0.2, 0.2]",0,0,0,0,0,0,17,17,17,,,,,,,,,,,,188.6939920000732,None,188.6939920000732,189.6940016001463,189.67734050005674,190.67734939977527,1,-0.21851851851851853,0.12962962962962962,"[0, 0, 0]",0,0,188.6939920000732,None,,,,,,,,,,,,,,,,,,,,,,,,,,,,99,M,1,r,CIB,2021_Aug_10_1443,WASABI distractmap,2020.2.10,60.003444209952825,"['Right Face', 'Chest', 'Left Leg', 'Right Arm', 'Right Face', 'Abdomen', 'Left Face', 'Right Leg', 'Left Arm', 'Left Arm', 'Left Face', 'Chest', 'Right Arm', 'Abdomen', 'Right Leg', 'Left Leg']",
3,"[0.2, 0.2]",0,0,0,0,0,0,18,18,18,,,,,,,,,,,,190.6939993998967,None,190.6939993998967,191.69401740003377,191.677364599891,192.67728650011122,1,-0.21851851851851853,0.12962962962962962,"[0, 0, 0]",0,0,190.6939993998967,None,,,,,,,,,,,,,,,,,,,,,,,,,,,,99,M,1,r,CIB,2021_Aug_10_1443,WASABI distractmap,2020.2.10,60.003444209952825,"['Right Face', 'Chest', 'Left Leg', 'Right Arm', 'Right Face', 'Abdomen', 'Left Face', 'Right Leg', 'Left Arm', 'Left Arm', 'Left Face', 'Chest', 'Right Arm', 'Abdomen', 'Right Leg', 'Left Leg']",
6,"[0.2, 0]",0,0,0,0,0,0,19,19,19,,,,,,,,,,,,192.69402909977362,None,192.69402909977362,193.69402580009773,193.67735539982095,194.67739079985768,1,-0.21851851851851853,0.12962962962962962,"[0, 0, 0]",0,0,192.69402909977362,None,,,,,,,,,,,,,,,,,,,,,,,,,,,,99,M,1,r,CIB,2021_Aug_10_1443,WASABI distractmap,2020.2.10,60.003444209952825,"['Right Face', 'Chest', 'Left Leg', 'Right Arm', 'Right Face', 'Abdomen', 'Left Face', 'Right Leg', 'Left Arm', 'Left Arm', 'Left Face', 'Chest', 'Right Arm', 'Abdomen', 'Right Leg', 'Left Leg']",
1,"[-0.2, 0.2]",0,0,0,0,0,0,20,20,20,,,,,,,,,,,,194.69404039997607,None,194.69404039997607,195.6940381997265,195.67741680005565,196.6774075999856,1,-0.21851851851851853,0.12962962962962962,"[0, 0, 0]",0,0,194.69404039997607,None,,,,,,,,,,,,,,,,,,,,,,,,,,,,99,M,1,r,CIB,2021_Aug_10_1443,WASABI distractmap,2020.2.10,60.003444209952825,"['Right Face', 'Chest', 'Left Leg', 'Right Arm', 'Right Face', 'Abdomen', 'Left Face', 'Right Leg', 'Left Arm', 'Left Arm', 'Left Face', 'Chest', 'Right Arm', 'Abdomen', 'Right Leg', 'Left Leg']",
1,"[-0.2, 0.2]",1,0,0,0,0,0,21,21,21,,,,,,,,,,,,196.69406040012836,None,196.69406040012836,197.69406400015578,197.67741170013323,198.67741749994457,1,-0.21851851851851853,0.12962962962962962,"[0, 0, 0]",0,0,196.69406040012836,None,,,,,,,,,,,,,,,,,,,,,,,,,,,,99,M,1,r,CIB,2021_Aug_10_1443,WASABI distractmap,2020.2.10,60.003444209952825,"['Right Face', 'Chest', 'Left Leg', 'Right Arm', 'Right Face', 'Abdomen', 'Left Face', 'Right Leg', 'Left Arm', 'Left Arm', 'Left Face', 'Chest', 'Right Arm', 'Abdomen', 'Right Leg', 'Left Leg']",
1,"[-0.2, 0.2]",1,0,0,0,0,0,22,22,22,,,,,,,,,,,,198.69405849976465,None,198.69405849976465,199.69405320007354,199.67743639973924,200.67741699982435,1,-0.21851851851851853,0.12962962962962962,"[0, 0, 0]",0,0,198.69405849976465,None,,,,,,,,,,,,,,,,,,,,,,,,,,,,99,M,1,r,CIB,2021_Aug_10_1443,WASABI distractmap,2020.2.10,60.003444209952825,"['Right Face', 'Chest', 'Left Leg', 'Right Arm', 'Right Face', 'Abdomen', 'Left Face', 'Right Leg', 'Left Arm', 'Left Arm', 'Left Face', 'Chest', 'Right Arm', 'Abdomen', 'Right Leg', 'Left Leg']",
3,"[0.2, 0.2]",0,0,0,0,0,0,23,23,23,,,,,,,,,,,,200.69407769991085,None,200.69407769991085,201.69407679978758,201.67746139969677,202.67743969988078,1,-0.21851851851851853,0.12962962962962962,"[0, 0, 0]",0,0,200.69407769991085,None,,,,,,,,,,,,,,,,,,,,,,,,,,,,99,M,1,r,CIB,2021_Aug_10_1443,WASABI distractmap,2020.2.10,60.003444209952825,"['Right Face', 'Chest', 'Left Leg', 'Right Arm', 'Right Face', 'Abdomen', 'Left Face', 'Right Leg', 'Left Arm', 'Left Arm', 'Left Face', 'Chest', 'Right Arm', 'Abdomen', 'Right Leg', 'Left Leg']",
2,"[0, 0.2]",0,0,0,0,0,0,24,24,24,,,,,,,,,,,,202.6940832999535,None,202.6940832999535,203.69409789983183,203.67745180008933,204.6774462000467,1,-0.21851851851851853,0.12962962962962962,"[0, 0, 0]",0,0,202.6940832999535,None,,,,,,,,,,,,,,,,,,,,,,,,,,,,99,M,1,r,CIB,2021_Aug_10_1443,WASABI distractmap,2020.2.10,60.003444209952825,"['Right Face', 'Chest', 'Left Leg', 'Right Arm', 'Right Face', 'Abdomen', 'Left Face', 'Right Leg', 'Left Arm', 'Left Arm', 'Left Face', 'Chest', 'Right Arm', 'Abdomen', 'Right Leg', 'Left Leg']",
1,"[-0.2, 0.2]",0,0,0,0,0,0,25,25,25,,,,,,,,,,,,204.6941039999947,None,204.6941039999947,205.69412249978632,205.6774705001153,206.67746219970286,1,-0.21851851851851853,0.12962962962962962,"[0, 0, 0]",0,0,204.6941039999947,None,,,,,,,,,,,,,,,,,,,,,,,,,,,,99,M,1,r,CIB,2021_Aug_10_1443,WASABI distractmap,2020.2.10,60.003444209952825,"['Right Face', 'Chest', 'Left Leg', 'Right Arm', 'Right Face', 'Abdomen', 'Left Face', 'Right Leg', 'Left Arm', 'Left Arm', 'Left Face', 'Chest', 'Right Arm', 'Abdomen', 'Right Leg', 'Left Leg']",
7,"[-0.2, -0.2]",0,0,0,0,0,0,26,26,26,,,,,,,,,,,,206.6941698999144,None,206.6941698999144,207.6941204997711,207.67746930010617,208.67749409982935,1,-0.21851851851851853,0.12962962962962962,"[0, 0, 0]",0,0,206.6941698999144,None,,,,,,,,,,,,,,,,,,,,,,,,,,,,99,M,1,r,CIB,2021_Aug_10_1443,WASABI distractmap,2020.2.10,60.003444209952825,"['Right Face', 'Chest', 'Left Leg', 'Right Arm', 'Right Face', 'Abdomen', 'Left Face', 'Right Leg', 'Left Arm', 'Left Arm', 'Left Face', 'Chest', 'Right Arm', 'Abdomen', 'Right Leg', 'Left Leg']",
7,"[-0.2, -0.2]",1,0,0,0,0,0,27,27,27,,,,,,,,,,,,208.69414300005883,None,208.69414300005883,209.69413750013337,209.6774816000834,210.67748710000888,1,-0.21851851851851853,0.12962962962962962,"[0, 0, 0]",0,0,208.69414300005883,None,,,,,,,,,,,,,,,,,,,,,,,,,,,,99,M,1,r,CIB,2021_Aug_10_1443,WASABI distractmap,2020.2.10,60.003444209952825,"['Right Face', 'Chest', 'Left Leg', 'Right Arm', 'Right Face', 'Abdomen', 'Left Face', 'Right Leg', 'Left Arm', 'Left Arm', 'Left Face', 'Chest', 'Right Arm', 'Abdomen', 'Right Leg', 'Left Leg']",
2,"[0, 0.2]",0,0,0,0,0,0,28,28,28,,,,,,,,,,,,210.69414220005274,None,210.69414220005274,211.69413299998268,211.677515800111,212.67751529999077,1,-0.21851851851851853,0.12962962962962962,"[0, 0, 0]",0,0,210.69414220005274,None,,,,,,,,,,,,,,,,,,,,,,,,,,,,99,M,1,r,CIB,2021_Aug_10_1443,WASABI distractmap,2020.2.10,60.003444209952825,"['Right Face', 'Chest', 'Left Leg', 'Right Arm', 'Right Face', 'Abdomen', 'Left Face', 'Right Leg', 'Left Arm', 'Left Arm', 'Left Face', 'Chest', 'Right Arm', 'Abdomen', 'Right Leg', 'Left Leg']",
6,"[0.2, 0]",0,0,0,0,0,0,29,29,29,,,,,,,,,,,,212.69415410002694,None,212.69415410002694,213.69418839970604,213.6775194001384,214.67752829985693,1,-0.21851851851851853,0.12962962962962962,"[0, 0, 0]",0,0,212.69415410002694,None,,,,,,,,,,,,,,,,,,,,,,,,,,,,99,M,1,r,CIB,2021_Aug_10_1443,WASABI distractmap,2020.2.10,60.003444209952825,"['Right Face', 'Chest', 'Left Leg', 'Right Arm', 'Right Face', 'Abdomen', 'Left Face', 'Right Leg', 'Left Arm', 'Left Arm', 'Left Face', 'Chest', 'Right Arm', 'Abdomen', 'Right Leg', 'Left Leg']",
,,,0,0,0,0,,,,,,,,,,,,,,,,,,,,,,,,,,,,,,214.72754220012575,None,space,214.72754220012575,None,,,,,,,,,,,,,,,,,,,,,,,99,M,1,r,CIB,2021_Aug_10_1443,WASABI distractmap,2020.2.10,60.003444209952825,"['Right Face', 'Chest', 'Left Leg', 'Right Arm', 'Right Face', 'Abdomen', 'Left Face', 'Right Leg', 'Left Arm', 'Left Arm', 'Left Face', 'Chest', 'Right Arm', 'Abdomen', 'Right Leg', 'Left Leg']",
6,"[0.2, 0]",None,,,,,,,,,0,0,0,0,,,,,,359.5785179999657,None,,,,,,,,,,,,,,,,,,,,None,None,"[0, 0, 1]",360.5952018001117,None,360.5952018001117,361.59518940001726,361.5785676999949,362.57854419993237,0.0,1.9502588002942502,"[0, 0, 1]",0,360.5952018001117,None,,,,,,,,99,M,1,r,CIB,2021_Aug_10_1443,WASABI distractmap,2020.2.10,60.003444209952825,"['Right Face', 'Chest', 'Left Leg', 'Right Arm', 'Right Face', 'Abdomen', 'Left Face', 'Right Leg', 'Left Arm', 'Left Arm', 'Left Face', 'Chest', 'Right Arm', 'Abdomen', 'Right Leg', 'Left Leg']",
7,"[-0.2, -0.2]",None,,,,,,,,,0,1,1,1,,,,,,,,,,,,,,,,,,,,,,,,,,,None,None,"[0, 0, 0]",362.59521970013157,364.5952901998535,362.59521970013157,363.5951974000782,363.57856589974836,364.578561599832,,,"[0, 0, 0]",0,362.59521970013157,364.5952901998535,,,,,,,,99,M,1,r,CIB,2021_Aug_10_1443,WASABI distractmap,2020.2.10,60.003444209952825,"['Right Face', 'Chest', 'Left Leg', 'Right Arm', 'Right Face', 'Abdomen', 'Left Face', 'Right Leg', 'Left Arm', 'Left Arm', 'Left Face', 'Chest', 'Right Arm', 'Abdomen', 'Right Leg', 'Left Leg']",
6,"[0.2, 0]",1,,,,,,,,,0,2,2,2,,,,,,,,,,,,,,,,,,,,,,,,,,,None,None,"[0, 0, 0]",364.6118764998391,366.61177839990705,364.6118764998391,365.61188270011917,365.5951779996976,366.59523760015145,,,"[0, 0, 0]",0,364.6118764998391,366.61177839990705,,,,,,,,99,M,1,r,CIB,2021_Aug_10_1443,WASABI distractmap,2020.2.10,60.003444209952825,"['Right Face', 'Chest', 'Left Leg', 'Right Arm', 'Right Face', 'Abdomen', 'Left Face', 'Right Leg', 'Left Arm', 'Left Arm', 'Left Face', 'Chest', 'Right Arm', 'Abdomen', 'Right Leg', 'Left Leg']",
2,"[0, 0.2]",0,,,,,,,,,0,3,3,3,,,,,,,,,,,,,,,,,,,,,,,,,,,None,None,"[0, 0, 0]",366.62856379989535,368.6285878997296,366.62856379989535,367.6285743000917,367.61193849984556,368.6119099999778,,,"[0, 0, 0]",0,366.62856379989535,368.6285878997296,,,,,,,,99,M,1,r,CIB,2021_Aug_10_1443,WASABI distractmap,2020.2.10,60.003444209952825,"['Right Face', 'Chest', 'Left Leg', 'Right Arm', 'Right Face', 'Abdomen', 'Left Face', 'Right Leg', 'Left Arm', 'Left Arm', 'Left Face', 'Chest', 'Right Arm', 'Abdomen', 'Right Leg', 'Left Leg']",
5,"[0, 0]",0,,,,,,,,,0,4,4,4,,,,,,,,,,,,,,,,,,,,,,,,,,,None,None,"[0, 0, 0]",368.6452516997233,370.6452552000992,368.6452516997233,369.6451367000118,369.6286047999747,370.6285886997357,,,"[0, 0, 0]",0,368.6452516997233,370.6452552000992,,,,,,,,99,M,1,r,CIB,2021_Aug_10_1443,WASABI distractmap,2020.2.10,60.003444209952825,"['Right Face', 'Chest', 'Left Leg', 'Right Arm', 'Right Face', 'Abdomen', 'Left Face', 'Right Leg', 'Left Arm', 'Left Arm', 'Left Face', 'Chest', 'Right Arm', 'Abdomen', 'Right Leg', 'Left Leg']",
4,"[-0.2, 0]",0,,,,,,,,,0,5,5,5,,,,,,,,,,,,,,,,,,,,,,,,,,,None,None,"[0, 0, 0]",370.6619115001522,372.6619473998435,370.6619115001522,371.6619278998114,371.64526310004294,372.6452766000293,,,"[0, 0, 0]",0,370.6619115001522,372.6619473998435,,,,,,,,99,M,1,r,CIB,2021_Aug_10_1443,WASABI distractmap,2020.2.10,60.003444209952825,"['Right Face', 'Chest', 'Left Leg', 'Right Arm', 'Right Face', 'Abdomen', 'Left Face', 'Right Leg', 'Left Arm', 'Left Arm', 'Left Face', 'Chest', 'Right Arm', 'Abdomen', 'Right Leg', 'Left Leg']",
4,"[-0.2, 0]",0,,,,,,,,,0,6,6,6,,,,,,,,,,,,,,,,,,,,,,,,,,,None,None,"[0, 0, 0]",372.6786022000015,374.6786197000183,372.6786022000015,373.6786182997748,373.66196319973096,374.66194849973544,,,"[0, 0, 0]",0,372.6786022000015,374.6786197000183,,,,,,,,99,M,1,r,CIB,2021_Aug_10_1443,WASABI distractmap,2020.2.10,60.003444209952825,"['Right Face', 'Chest', 'Left Leg', 'Right Arm', 'Right Face', 'Abdomen', 'Left Face', 'Right Leg', 'Left Arm', 'Left Arm', 'Left Face', 'Chest', 'Right Arm', 'Abdomen', 'Right Leg', 'Left Leg']",
7,"[-0.2, -0.2]",0,,,,,,,,,0,7,7,7,,,,,,,,,,,,,,,,,,,,,,,,,,,None,None,"[0, 0, 0]",374.69528539991006,376.6952872001566,374.69528539991006,375.6952856001444,375.67863299977034,376.6786977001466,,,"[0, 0, 0]",1,374.69528539991006,376.6952872001566,,,,,,,,99,M,1,r,CIB,2021_Aug_10_1443,WASABI distractmap,2020.2.10,60.003444209952825,"['Right Face', 'Chest', 'Left Leg', 'Right Arm', 'Right Face', 'Abdomen', 'Left Face', 'Right Leg', 'Left Arm', 'Left Arm', 'Left Face', 'Chest', 'Right Arm', 'Abdomen', 'Right Leg', 'Left Leg']",
4,"[-0.2, 0]",1,,,,,,,,,0,8,8,8,,,,,,,,,,,,,,,,,,,,,,,,,,,None,None,"[0, 0, 0]",376.71196840004995,378.71199369989336,376.71196840004995,377.7119971998036,377.69530869973823,378.6953082000837,,,"[0, 0, 0]",0,376.71196840004995,378.71199369989336,,,,,,,,99,M,1,r,CIB,2021_Aug_10_1443,WASABI distractmap,2020.2.10,60.003444209952825,"['Right Face', 'Chest', 'Left Leg', 'Right Arm', 'Right Face', 'Abdomen', 'Left Face', 'Right Leg', 'Left Arm', 'Left Arm', 'Left Face', 'Chest', 'Right Arm', 'Abdomen', 'Right Leg', 'Left Leg']",
3,"[0.2, 0.2]",0,,,,,,,,,0,9,9,9,,,,,,,,,,,,,,,,,,,,,,,,,,,None,None,"[0, 0, 0]",378.72866699984297,380.728664400056,378.72866699984297,379.7286561001092,379.71192929986864,380.71201370004565,,,"[0, 0, 0]",0,378.72866699984297,380.728664400056,,,,,,,,99,M,1,r,CIB,2021_Aug_10_1443,WASABI distractmap,2020.2.10,60.003444209952825,"['Right Face', 'Chest', 'Left Leg', 'Right Arm', 'Right Face', 'Abdomen', 'Left Face', 'Right Leg', 'Left Arm', 'Left Arm', 'Left Face', 'Chest', 'Right Arm', 'Abdomen', 'Right Leg', 'Left Leg']",
5,"[0, 0]",0,,,,,,,,,0,10,10,10,,,,,,,,,,,,,,,,,,,,,,,,,,,None,None,"[0, 0, 0]",380.745332499966,382.7453528000042,380.745332499966,381.7453386001289,381.7286638999358,382.72867160011083,,,"[0, 0, 0]",1,380.745332499966,382.7453528000042,,,,,,,,99,M,1,r,CIB,2021_Aug_10_1443,WASABI distractmap,2020.2.10,60.003444209952825,"['Right Face', 'Chest', 'Left Leg', 'Right Arm', 'Right Face', 'Abdomen', 'Left Face', 'Right Leg', 'Left Arm', 'Left Arm', 'Left Face', 'Chest', 'Right Arm', 'Abdomen', 'Right Leg', 'Left Leg']",
3,"[0.2, 0.2]",1,,,,,,,,,0,11,11,11,,,,,,,,,,,,,,,,,,,,,,,,,,,None,None,"[0, 0, 0]",382.7619965998456,384.76201099995524,382.7619965998456,383.7619580999017,383.7453503999859,384.74536289973184,,,"[0, 0, 0]",0,382.7619965998456,384.76201099995524,,,,,,,,99,M,1,r,CIB,2021_Aug_10_1443,WASABI distractmap,2020.2.10,60.003444209952825,"['Right Face', 'Chest', 'Left Leg', 'Right Arm', 'Right Face', 'Abdomen', 'Left Face', 'Right Leg', 'Left Arm', 'Left Arm', 'Left Face', 'Chest', 'Right Arm', 'Abdomen', 'Right Leg', 'Left Leg']",
1,"[-0.2, 0.2]",0,,,,,,,,,0,12,12,12,,,,,,,,,,,,,,,,,,,,,,,,,,,None,None,"[0, 0, 0]",384.778688499704,386.7786962999962,384.778688499704,385.77871249988675,385.7620211998001,386.76203189976513,,,"[0, 0, 0]",1,384.778688499704,386.7786962999962,,,,,,,,99,M,1,r,CIB,2021_Aug_10_1443,WASABI distractmap,2020.2.10,60.003444209952825,"['Right Face', 'Chest', 'Left Leg', 'Right Arm', 'Right Face', 'Abdomen', 'Left Face', 'Right Leg', 'Left Arm', 'Left Arm', 'Left Face', 'Chest', 'Right Arm', 'Abdomen', 'Right Leg', 'Left Leg']",
9,"[0.2, -0.2]",0,,,,,,,,,0,13,13,13,,,,,,,,,,,,,,,,,,,,,,,,,,,None,None,"[0, 0, 0]",386.79537189984694,388.795449399855,386.79537189984694,387.7953968998045,387.77871030010283,388.7787775998004,,,"[0, 0, 0]",1,386.79537189984694,388.795449399855,,,,,,,,99,M,1,r,CIB,2021_Aug_10_1443,WASABI distractmap,2020.2.10,60.003444209952825,"['Right Face', 'Chest', 'Left Leg', 'Right Arm', 'Right Face', 'Abdomen', 'Left Face', 'Right Leg', 'Left Arm', 'Left Arm', 'Left Face', 'Chest', 'Right Arm', 'Abdomen', 'Right Leg', 'Left Leg']",
9,"[0.2, -0.2]",0,,,,,,,,,0,14,14,14,,,,,,,,,,,,,,,,,,,,,,,,,,,None,None,"[0, 0, 0]",388.81205719988793,390.8120724000037,388.81205719988793,389.812065300066,389.79541999986395,390.7954107997939,,,"[0, 0, 0]",1,388.81205719988793,390.8120724000037,,,,,,,,99,M,1,r,CIB,2021_Aug_10_1443,WASABI distractmap,2020.2.10,60.003444209952825,"['Right Face', 'Chest', 'Left Leg', 'Right Arm', 'Right Face', 'Abdomen', 'Left Face', 'Right Leg', 'Left Arm', 'Left Arm', 'Left Face', 'Chest', 'Right Arm', 'Abdomen', 'Right Leg', 'Left Leg']",
8,"[0, -0.2]",0,,,,,,,,,0,15,15,15,,,,,,,,,,,,,,,,,,,,,,,,,,,None,None,"[0, 0, 0]",390.82873039972037,392.82876450009644,390.82873039972037,391.8287264998071,391.8120924998075,392.8120916998014,,,"[0, 0, 0]",1,390.82873039972037,392.82876450009644,,,,,,,,99,M,1,r,CIB,2021_Aug_10_1443,WASABI distractmap,2020.2.10,60.003444209952825,"['Right Face', 'Chest', 'Left Leg', 'Right Arm', 'Right Face', 'Abdomen', 'Left Face', 'Right Leg', 'Left Arm', 'Left Arm', 'Left Face', 'Chest', 'Right Arm', 'Abdomen', 'Right Leg', 'Left Leg']",
6,"[0.2, 0]",0,,,,,,,,,0,16,16,16,,,,,,,,,,,,,,,,,,,,,,,,,,,None,None,"[0, 0, 0]",392.845460599754,394.8454418000765,392.845460599754,393.84542459994555,393.8287587999366,394.82876229984686,,,"[0, 0, 0]",1,392.845460599754,394.8454418000765,,,,,,,,99,M,1,r,CIB,2021_Aug_10_1443,WASABI distractmap,2020.2.10,60.003444209952825,"['Right Face', 'Chest', 'Left Leg', 'Right Arm', 'Right Face', 'Abdomen', 'Left Face', 'Right Leg', 'Left Arm', 'Left Arm', 'Left Face', 'Chest', 'Right Arm', 'Abdomen', 'Right Leg', 'Left Leg']",
3,"[0.2, 0.2]",0,,,,,,,,,0,17,17,17,,,,,,,,,,,,,,,,,,,,,,,,,,,None,None,"[0, 0, 0]",394.86208549980074,396.86210619984195,394.86208549980074,395.86212470009923,395.84544620011,396.84543849993497,,,"[0, 0, 0]",1,394.86208549980074,396.86210619984195,,,,,,,,99,M,1,r,CIB,2021_Aug_10_1443,WASABI distractmap,2020.2.10,60.003444209952825,"['Right Face', 'Chest', 'Left Leg', 'Right Arm', 'Right Face', 'Abdomen', 'Left Face', 'Right Leg', 'Left Arm', 'Left Arm', 'Left Face', 'Chest', 'Right Arm', 'Abdomen', 'Right Leg', 'Left Leg']",
6,"[0.2, 0]",1,,,,,,,,,0,18,18,18,,,,,,,,,,,,,,,,,,,,,,,,,,,None,None,"[0, 0, 0]",396.87879069987684,398.87878479994833,396.87879069987684,397.87877780012786,397.86211280012503,398.862141800113,,,"[0, 0, 0]",0,396.87879069987684,398.87878479994833,,,,,,,,99,M,1,r,CIB,2021_Aug_10_1443,WASABI distractmap,2020.2.10,60.003444209952825,"['Right Face', 'Chest', 'Left Leg', 'Right Arm', 'Right Face', 'Abdomen', 'Left Face', 'Right Leg', 'Left Arm', 'Left Arm', 'Left Face', 'Chest', 'Right Arm', 'Abdomen', 'Right Leg', 'Left Leg']",
5,"[0, 0]",0,,,,,,,,,0,19,19,19,,,,,,,,,,,,,,,,,,,,,,,,,,,None,None,"[0, 0, 0]",398.8954739999026,400.895468799863,398.8954739999026,399.89550109999254,399.8788052997552,400.87882470013574,,,"[0, 0, 0]",1,398.8954739999026,400.895468799863,,,,,,,,99,M,1,r,CIB,2021_Aug_10_1443,WASABI distractmap,2020.2.10,60.003444209952825,"['Right Face', 'Chest', 'Left Leg', 'Right Arm', 'Right Face', 'Abdomen', 'Left Face', 'Right Leg', 'Left Arm', 'Left Arm', 'Left Face', 'Chest', 'Right Arm', 'Abdomen', 'Right Leg', 'Left Leg']",
7,"[-0.2, -0.2]",0,,,,,,,,,0,20,20,20,,,,,,,,,,,,,,,,,,,,,,,,,,,None,None,"[0, 0, 0]",400.9121407000348,402.9121436998248,400.9121407000348,401.91213870001957,401.89551790012047,402.89548970013857,,,"[0, 0, 0]",1,400.9121407000348,402.9121436998248,,,,,,,,99,M,1,r,CIB,2021_Aug_10_1443,WASABI distractmap,2020.2.10,60.003444209952825,"['Right Face', 'Chest', 'Left Leg', 'Right Arm', 'Right Face', 'Abdomen', 'Left Face', 'Right Leg', 'Left Arm', 'Left Arm', 'Left Face', 'Chest', 'Right Arm', 'Abdomen', 'Right Leg', 'Left Leg']",
5,"[0, 0]",1,,,,,,,,,0,21,21,21,,,,,,,,,,,,,,,,,,,,,,,,,,,None,None,"[0, 0, 0]",402.92882170015946,404.92883739992976,402.92882170015946,403.9288465999998,403.91209300002083,404.91218200000003,,,"[0, 0, 0]",0,402.92882170015946,404.92883739992976,,,,,,,,99,M,1,r,CIB,2021_Aug_10_1443,WASABI distractmap,2020.2.10,60.003444209952825,"['Right Face', 'Chest', 'Left Leg', 'Right Arm', 'Right Face', 'Abdomen', 'Left Face', 'Right Leg', 'Left Arm', 'Left Arm', 'Left Face', 'Chest', 'Right Arm', 'Abdomen', 'Right Leg', 'Left Leg']",
1,"[-0.2, 0.2]",0,,,,,,,,,0,22,22,22,,,,,,,,,,,,,,,,,,,,,,,,,,,None,None,"[0, 0, 0]",404.94551909994334,406.94552109995857,404.94551909994334,405.9455291000195,405.9288276997395,406.92886719992384,,,"[0, 0, 0]",1,404.94551909994334,406.94552109995857,,,,,,,,99,M,1,r,CIB,2021_Aug_10_1443,WASABI distractmap,2020.2.10,60.003444209952825,"['Right Face', 'Chest', 'Left Leg', 'Right Arm', 'Right Face', 'Abdomen', 'Left Face', 'Right Leg', 'Left Arm', 'Left Arm', 'Left Face', 'Chest', 'Right Arm', 'Abdomen', 'Right Leg', 'Left Leg']",
7,"[-0.2, -0.2]",0,,,,,,,,,0,23,23,23,,,,,,,,,,,,,,,,,,,,,,,,,,,None,None,"[0, 0, 0]",406.9621792999096,408.96218929998577,406.9621792999096,407.9621958001517,407.94551880005747,408.945561000146,,,"[0, 0, 0]",1,406.9621792999096,408.96218929998577,,,,,,,,99,M,1,r,CIB,2021_Aug_10_1443,WASABI distractmap,2020.2.10,60.003444209952825,"['Right Face', 'Chest', 'Left Leg', 'Right Arm', 'Right Face', 'Abdomen', 'Left Face', 'Right Leg', 'Left Arm', 'Left Arm', 'Left Face', 'Chest', 'Right Arm', 'Abdomen', 'Right Leg', 'Left Leg']",
9,"[0.2, -0.2]",0,,,,,,,,,0,24,24,24,,,,,,,,,,,,,,,,,,,,,,,,,,,None,None,"[0, 0, 0]",408.97886879974976,410.97888340009376,408.97886879974976,409.9788440000266,409.9622096000239,410.96221979986876,,,"[0, 0, 0]",1,408.97886879974976,410.97888340009376,,,,,,,,99,M,1,r,CIB,2021_Aug_10_1443,WASABI distractmap,2020.2.10,60.003444209952825,"['Right Face', 'Chest', 'Left Leg', 'Right Arm', 'Right Face', 'Abdomen', 'Left Face', 'Right Leg', 'Left Arm', 'Left Arm', 'Left Face', 'Chest', 'Right Arm', 'Abdomen', 'Right Leg', 'Left Leg']",
3,"[0.2, 0.2]",0,,,,,,,,,0,25,25,25,,,,,,,,,,,,,,,,,,,,,,,,,,,None,None,"[0, 0, 0]",410.99555240012705,412.9955679997802,410.99555240012705,411.9955500001088,411.97877099970356,412.9788763001561,,,"[0, 0, 0]",1,410.99555240012705,412.9955679997802,,,,,,,,99,M,1,r,CIB,2021_Aug_10_1443,WASABI distractmap,2020.2.10,60.003444209952825,"['Right Face', 'Chest', 'Left Leg', 'Right Arm', 'Right Face', 'Abdomen', 'Left Face', 'Right Leg', 'Left Arm', 'Left Arm', 'Left Face', 'Chest', 'Right Arm', 'Abdomen', 'Right Leg', 'Left Leg']",
9,"[0.2, -0.2]",1,,,,,,,,,0,26,26,26,,,,,,,,,,,,,,,,,,,,,,,,,,,None,None,"[0, 0, 0]",413.01224379986525,415.0122485999018,413.01224379986525,414.01223250012845,413.9955676998943,414.9955552997999,,,"[0, 0, 0]",0,413.01224379986525,415.0122485999018,,,,,,,,99,M,1,r,CIB,2021_Aug_10_1443,WASABI distractmap,2020.2.10,60.003444209952825,"['Right Face', 'Chest', 'Left Leg', 'Right Arm', 'Right Face', 'Abdomen', 'Left Face', 'Right Leg', 'Left Arm', 'Left Arm', 'Left Face', 'Chest', 'Right Arm', 'Abdomen', 'Right Leg', 'Left Leg']",
6,"[0.2, 0]",0,,,,,,,,,0,27,27,27,,,,,,,,,,,,,,,,,,,,,,,,,,,None,None,"[0, 0, 1]",415.02890449995175,417.0289219999686,415.02890449995175,416.0289261001162,416.01224360009655,417.0122440000996,0.0,1.9365706997923553,"[0, 0, 1]",1,415.02890449995175,417.0289219999686,,,,,,,,99,M,1,r,CIB,2021_Aug_10_1443,WASABI distractmap,2020.2.10,60.003444209952825,"['Right Face', 'Chest', 'Left Leg', 'Right Arm', 'Right Face', 'Abdomen', 'Left Face', 'Right Leg', 'Left Arm', 'Left Arm', 'Left Face', 'Chest', 'Right Arm', 'Abdomen', 'Right Leg', 'Left Leg']",
2,"[0, 0.2]",0,,,,,,,,,0,28,28,28,,,,,,,,,,,,,,,,,,,,,,,,,,,None,None,"[0, 0, 0]",417.0455857999623,419.0456073000096,417.0455857999623,418.04560159984976,418.02894249977544,419.0289338999428,,,"[0, 0, 0]",1,417.0455857999623,419.0456073000096,,,,,,,,99,M,1,r,CIB,2021_Aug_10_1443,WASABI distractmap,2020.2.10,60.003444209952825,"['Right Face', 'Chest', 'Left Leg', 'Right Arm', 'Right Face', 'Abdomen', 'Left Face', 'Right Leg', 'Left Arm', 'Left Arm', 'Left Face', 'Chest', 'Right Arm', 'Abdomen', 'Right Leg', 'Left Leg']",
5,"[0, 0]",0,,,,,,,,,0,29,29,29,,,,,,,,,,,,,,,,,,,,,,,,,,,None,None,"[0, 0, 0]",419.06228019995615,421.06227190000936,419.06228019995615,420.06227129977196,420.04562290012836,421.0456131999381,,,"[0, 0, 0]",1,419.06228019995615,421.06227190000936,,,,,,,,99,M,1,r,CIB,2021_Aug_10_1443,WASABI distractmap,2020.2.10,60.003444209952825,"['Right Face', 'Chest', 'Left Leg', 'Right Arm', 'Right Face', 'Abdomen', 'Left Face', 'Right Leg', 'Left Arm', 'Left Arm', 'Left Face', 'Chest', 'Right Arm', 'Abdomen', 'Right Leg', 'Left Leg']",
,,,,,,,,,,,,,,,,,,,,,,,,,,,,,,,,,,,,421.0956288999878,None,space,421.0956288999878,None,,,,,,,,,,,,,,,,,,,,,,,99,M,1,r,CIB,2021_Aug_10_1443,WASABI distractmap,2020.2.10,60.003444209952825,"['Right Face', 'Chest', 'Left Leg', 'Right Arm', 'Right Face', 'Abdomen', 'Left Face', 'Right Leg', 'Left Arm', 'Left Arm', 'Left Face', 'Chest', 'Right Arm', 'Abdomen', 'Right Leg', 'Left Leg']",
6,"[0.2, 0]",None,,,,,,,,,0,0,0,0,,,,,,426.36230719974265,None,,,,,,,,,,,,,,,,,,,,None,None,"[0, 0, 0]",427.3790504997596,None,427.3790504997596,428.3790194001049,428.3623350998387,429.36233789986,,,"[0, 0, 0]",1,427.3790504997596,None,,,,,,,,99,M,1,r,CIB,2021_Aug_10_1443,WASABI distractmap,2020.2.10,60.003444209952825,"['Right Face', 'Chest', 'Left Leg', 'Right Arm', 'Right Face', 'Abdomen', 'Left Face', 'Right Leg', 'Left Arm', 'Left Arm', 'Left Face', 'Chest', 'Right Arm', 'Abdomen', 'Right Leg', 'Left Leg']",
7,"[-0.2, -0.2]",None,,,,,,,,,0,1,1,1,,,,,,,,,,,,,,,,,,,,,,,,,,,None,None,"[0, 0, 0]",429.37899889983237,431.37901449995115,429.37899889983237,430.3790023000911,430.3623393001035,431.36235819989815,,,"[0, 0, 0]",1,429.37899889983237,431.37901449995115,,,,,,,,99,M,1,r,CIB,2021_Aug_10_1443,WASABI distractmap,2020.2.10,60.003444209952825,"['Right Face', 'Chest', 'Left Leg', 'Right Arm', 'Right Face', 'Abdomen', 'Left Face', 'Right Leg', 'Left Arm', 'Left Arm', 'Left Face', 'Chest', 'Right Arm', 'Abdomen', 'Right Leg', 'Left Leg']",
6,"[0.2, 0]",1,,,,,,,,,0,2,2,2,,,,,,,,,,,,,,,,,,,,,,,,,,,None,None,"[0, 0, 0]",431.39567689970136,433.39573899982497,431.39567689970136,432.3956777998246,432.3790365001187,433.3790400000289,,,"[0, 0, 0]",1,431.39567689970136,433.39573899982497,,,,,,,,99,M,1,r,CIB,2021_Aug_10_1443,WASABI distractmap,2020.2.10,60.003444209952825,"['Right Face', 'Chest', 'Left Leg', 'Right Arm', 'Right Face', 'Abdomen', 'Left Face', 'Right Leg', 'Left Arm', 'Left Arm', 'Left Face', 'Chest', 'Right Arm', 'Abdomen', 'Right Leg', 'Left Leg']",
2,"[0, 0.2]",0,,,,,,,,,0,3,3,3,,,,,,,,,,,,,,,,,,,,,,,,,,,None,None,"[0, 0, 0]",433.4123706999235,435.4123919000849,433.4123706999235,434.41237109992653,434.3957107998431,435.395708499942,,,"[0, 0, 0]",1,433.4123706999235,435.4123919000849,,,,,,,,99,M,1,r,CIB,2021_Aug_10_1443,WASABI distractmap,2020.2.10,60.003444209952825,"['Right Face', 'Chest', 'Left Leg', 'Right Arm', 'Right Face', 'Abdomen', 'Left Face', 'Right Leg', 'Left Arm', 'Left Arm', 'Left Face', 'Chest', 'Right Arm', 'Abdomen', 'Right Leg', 'Left Leg']",
5,"[0, 0]",0,,,,,,,,,0,4,4,4,,,,,,,,,,,,,,,,,,,,,,,,,,,None,None,"[0, 0, 0]",435.429063399788,437.42905559996143,435.429063399788,436.42906650016084,436.4123907000758,437.4123996999115,,,"[0, 0, 0]",1,435.429063399788,437.42905559996143,,,,,,,,99,M,1,r,CIB,2021_Aug_10_1443,WASABI distractmap,2020.2.10,60.003444209952825,"['Right Face', 'Chest', 'Left Leg', 'Right Arm', 'Right Face', 'Abdomen', 'Left Face', 'Right Leg', 'Left Arm', 'Left Arm', 'Left Face', 'Chest', 'Right Arm', 'Abdomen', 'Right Leg', 'Left Leg']",
4,"[-0.2, 0]",0,,,,,,,,,0,5,5,5,,,,,,,,,,,,,,,,,,,,,,,,,,,None,None,"[0, 0, 0]",437.44570640008897,439.4457442997955,437.44570640008897,438.4457203000784,438.42908710008487,439.4290672997013,,,"[0, 0, 0]",1,437.44570640008897,439.4457442997955,,,,,,,,99,M,1,r,CIB,2021_Aug_10_1443,WASABI distractmap,2020.2.10,60.003444209952825,"['Right Face', 'Chest', 'Left Leg', 'Right Arm', 'Right Face', 'Abdomen', 'Left Face', 'Right Leg', 'Left Arm', 'Left Arm', 'Left Face', 'Chest', 'Right Arm', 'Abdomen', 'Right Leg', 'Left Leg']",
4,"[-0.2, 0]",0,,,,,,,,,0,6,6,6,,,,,,,,,,,,,,,,,,,,,,,,,,,None,None,"[0, 0, 0]",439.4624246000312,441.46242060000077,439.4624246000312,440.4624159997329,440.44574290001765,441.44575119996443,,,"[0, 0, 0]",1,439.4624246000312,441.46242060000077,,,,,,,,99,M,1,r,CIB,2021_Aug_10_1443,WASABI distractmap,2020.2.10,60.003444209952825,"['Right Face', 'Chest', 'Left Leg', 'Right Arm', 'Right Face', 'Abdomen', 'Left Face', 'Right Leg', 'Left Arm', 'Left Arm', 'Left Face', 'Chest', 'Right Arm', 'Abdomen', 'Right Leg', 'Left Leg']",
7,"[-0.2, -0.2]",0,,,,,,,,,0,7,7,7,,,,,,,,,,,,,,,,,,,,,,,,,,,None,None,"[0, 0, 0]",441.47906669974327,443.4791160998866,441.47906669974327,442.4791025999002,442.46244749985635,443.46243269974366,,,"[0, 0, 0]",1,441.47906669974327,443.4791160998866,,,,,,,,99,M,1,r,CIB,2021_Aug_10_1443,WASABI distractmap,2020.2.10,60.003444209952825,"['Right Face', 'Chest', 'Left Leg', 'Right Arm', 'Right Face', 'Abdomen', 'Left Face', 'Right Leg', 'Left Arm', 'Left Arm', 'Left Face', 'Chest', 'Right Arm', 'Abdomen', 'Right Leg', 'Left Leg']",
4,"[-0.2, 0]",1,,,,,,,,,0,8,8,8,,,,,,,,,,,,,,,,,,,,,,,,,,,None,None,"[0, 0, 0]",443.4957709996961,445.4957902999595,443.4957709996961,444.4957738998346,444.47910510003567,445.47911780001596,,,"[0, 0, 0]",1,443.4957709996961,445.4957902999595,,,,,,,,99,M,1,r,CIB,2021_Aug_10_1443,WASABI distractmap,2020.2.10,60.003444209952825,"['Right Face', 'Chest', 'Left Leg', 'Right Arm', 'Right Face', 'Abdomen', 'Left Face', 'Right Leg', 'Left Arm', 'Left Arm', 'Left Face', 'Chest', 'Right Arm', 'Abdomen', 'Right Leg', 'Left Leg']",
3,"[0.2, 0.2]",0,,,,,,,,,0,9,9,9,,,,,,,,,,,,,,,,,,,,,,,,,,,None,None,"[0, 0, 0]",445.51246629981324,447.512484499719,445.51246629981324,446.512474199757,446.4957940997556,447.4958101999946,,,"[0, 0, 0]",1,445.51246629981324,447.512484499719,,,,,,,,99,M,1,r,CIB,2021_Aug_10_1443,WASABI distractmap,2020.2.10,60.003444209952825,"['Right Face', 'Chest', 'Left Leg', 'Right Arm', 'Right Face', 'Abdomen', 'Left Face', 'Right Leg', 'Left Arm', 'Left Arm', 'Left Face', 'Chest', 'Right Arm', 'Abdomen', 'Right Leg', 'Left Leg']",
5,"[0, 0]",0,,,,,,,,,0,10,10,10,,,,,,,,,,,,,,,,,,,,,,,,,,,None,None,"[0, 0, 0]",447.5291464999318,449.5291376998648,447.5291464999318,448.52913049981,448.5124909998849,449.5124923000112,,,"[0, 0, 0]",1,447.5291464999318,449.5291376998648,,,,,,,,99,M,1,r,CIB,2021_Aug_10_1443,WASABI distractmap,2020.2.10,60.003444209952825,"['Right Face', 'Chest', 'Left Leg', 'Right Arm', 'Right Face', 'Abdomen', 'Left Face', 'Right Leg', 'Left Arm', 'Left Arm', 'Left Face', 'Chest', 'Right Arm', 'Abdomen', 'Right Leg', 'Left Leg']",
3,"[0.2, 0.2]",1,,,,,,,,,0,11,11,11,,,,,,,,,,,,,,,,,,,,,,,,,,,None,None,"[0, 0, 0]",449.54580499976873,451.5458223000169,449.54580499976873,450.5458170999773,450.5291718998924,451.5291511998512,,,"[0, 0, 0]",1,449.54580499976873,451.5458223000169,,,,,,,,99,M,1,r,CIB,2021_Aug_10_1443,WASABI distractmap,2020.2.10,60.003444209952825,"['Right Face', 'Chest', 'Left Leg', 'Right Arm', 'Right Face', 'Abdomen', 'Left Face', 'Right Leg', 'Left Arm', 'Left Arm', 'Left Face', 'Chest', 'Right Arm', 'Abdomen', 'Right Leg', 'Left Leg']",
1,"[-0.2, 0.2]",0,,,,,,,,,0,12,12,12,,,,,,,,,,,,,,,,,,,,,,,,,,,None,None,"[0, 0, 0]",451.5625053001568,453.56251000007614,451.5625053001568,452.562511799857,452.5458259000443,453.54586059972644,,,"[0, 0, 0]",1,451.5625053001568,453.56251000007614,,,,,,,,99,M,1,r,CIB,2021_Aug_10_1443,WASABI distractmap,2020.2.10,60.003444209952825,"['Right Face', 'Chest', 'Left Leg', 'Right Arm', 'Right Face', 'Abdomen', 'Left Face', 'Right Leg', 'Left Arm', 'Left Arm', 'Left Face', 'Chest', 'Right Arm', 'Abdomen', 'Right Leg', 'Left Leg']",
9,"[0.2, -0.2]",0,,,,,,,,,0,13,13,13,,,,,,,,,,,,,,,,,,,,,,,,,,,None,None,"[0, 0, 0]",453.57917369995266,455.5791527000256,453.57917369995266,454.5791994999163,454.5625116000883,455.5625177999027,,,"[0, 0, 0]",1,453.57917369995266,455.5791527000256,,,,,,,,99,M,1,r,CIB,2021_Aug_10_1443,WASABI distractmap,2020.2.10,60.003444209952825,"['Right Face', 'Chest', 'Left Leg', 'Right Arm', 'Right Face', 'Abdomen', 'Left Face', 'Right Leg', 'Left Arm', 'Left Arm', 'Left Face', 'Chest', 'Right Arm', 'Abdomen', 'Right Leg', 'Left Leg']",
9,"[0.2, -0.2]",0,,,,,,,,,0,14,14,14,,,,,,,,,,,,,,,,,,,,,,,,,,,None,None,"[0, 0, 0]",455.59586340002716,457.5958579997532,455.59586340002716,456.5958496998064,456.57921830005944,457.5792016000487,,,"[0, 0, 0]",1,455.59586340002716,457.5958579997532,,,,,,,,99,M,1,r,CIB,2021_Aug_10_1443,WASABI distractmap,2020.2.10,60.003444209952825,"['Right Face', 'Chest', 'Left Leg', 'Right Arm', 'Right Face', 'Abdomen', 'Left Face', 'Right Leg', 'Left Arm', 'Left Arm', 'Left Face', 'Chest', 'Right Arm', 'Abdomen', 'Right Leg', 'Left Leg']",
8,"[0, -0.2]",0,,,,,,,,,0,15,15,15,,,,,,,,,,,,,,,,,,,,,,,,,,,None,None,"[0, 0, 0]",457.61253000004217,459.61256429972127,457.61253000004217,458.6125425999053,458.5958644999191,459.5958704999648,,,"[0, 0, 0]",1,457.61253000004217,459.61256429972127,,,,,,,,99,M,1,r,CIB,2021_Aug_10_1443,WASABI distractmap,2020.2.10,60.003444209952825,"['Right Face', 'Chest', 'Left Leg', 'Right Arm', 'Right Face', 'Abdomen', 'Left Face', 'Right Leg', 'Left Arm', 'Left Arm', 'Left Face', 'Chest', 'Right Arm', 'Abdomen', 'Right Leg', 'Left Leg']",
6,"[0.2, 0]",0,,,,,,,,,0,16,16,16,,,,,,,,,,,,,,,,,,,,,,,,,,,None,None,"[0, 0, 0]",459.6292111999355,461.6292412998155,459.6292111999355,460.6292419000529,460.6125682001002,461.61256439983845,,,"[0, 0, 0]",0,459.6292111999355,461.6292412998155,,,,,,,,99,M,1,r,CIB,2021_Aug_10_1443,WASABI distractmap,2020.2.10,60.003444209952825,"['Right Face', 'Chest', 'Left Leg', 'Right Arm', 'Right Face', 'Abdomen', 'Left Face', 'Right Leg', 'Left Arm', 'Left Arm', 'Left Face', 'Chest', 'Right Arm', 'Abdomen', 'Right Leg', 'Left Leg']",
3,"[0.2, 0.2]",0,,,,,,,,,0,17,17,17,,,,,,,,,,,,,,,,,,,,,,,,,,,None,None,"[0, 0, 0]",461.64589639985934,463.64591560000554,461.64589639985934,462.64588590012863,462.62923630001023,463.62926340010017,,,"[0, 0, 0]",0,461.64589639985934,463.64591560000554,,,,,,,,99,M,1,r,CIB,2021_Aug_10_1443,WASABI distractmap,2020.2.10,60.003444209952825,"['Right Face', 'Chest', 'Left Leg', 'Right Arm', 'Right Face', 'Abdomen', 'Left Face', 'Right Leg', 'Left Arm', 'Left Arm', 'Left Face', 'Chest', 'Right Arm', 'Abdomen', 'Right Leg', 'Left Leg']",
6,"[0.2, 0]",1,,,,,,,,,0,18,18,18,,,,,,,,,,,,,,,,,,,,,,,,,,,None,None,"[0, 0, 0]",463.66258510015905,465.66258289990947,463.66258510015905,464.6625886997208,464.6459286999889,465.6459403997287,,,"[0, 0, 0]",0,463.66258510015905,465.66258289990947,,,,,,,,99,M,1,r,CIB,2021_Aug_10_1443,WASABI distractmap,2020.2.10,60.003444209952825,"['Right Face', 'Chest', 'Left Leg', 'Right Arm', 'Right Face', 'Abdomen', 'Left Face', 'Right Leg', 'Left Arm', 'Left Arm', 'Left Face', 'Chest', 'Right Arm', 'Abdomen', 'Right Leg', 'Left Leg']",
5,"[0, 0]",0,,,,,,,,,0,19,19,19,,,,,,,,,,,,,,,,,,,,,,,,,,,None,None,"[0, 0, 0]",465.6792814997025,467.67927110008895,465.6792814997025,466.6792522999458,466.66259719990194,467.6625906000845,,,"[0, 0, 0]",0,465.6792814997025,467.67927110008895,,,,,,,,99,M,1,r,CIB,2021_Aug_10_1443,WASABI distractmap,2020.2.10,60.003444209952825,"['Right Face', 'Chest', 'Left Leg', 'Right Arm', 'Right Face', 'Abdomen', 'Left Face', 'Right Leg', 'Left Arm', 'Left Arm', 'Left Face', 'Chest', 'Right Arm', 'Abdomen', 'Right Leg', 'Left Leg']",
7,"[-0.2, -0.2]",0,,,,,,,,,0,20,20,20,,,,,,,,,,,,,,,,,,,,,,,,,,,None,None,"[0, 0, 0]",467.6959310998209,469.6959724999033,467.6959310998209,468.69595429999754,468.67929490003735,469.67927910014987,,,"[0, 0, 0]",0,467.6959310998209,469.6959724999033,,,,,,,,99,M,1,r,CIB,2021_Aug_10_1443,WASABI distractmap,2020.2.10,60.003444209952825,"['Right Face', 'Chest', 'Left Leg', 'Right Arm', 'Right Face', 'Abdomen', 'Left Face', 'Right Leg', 'Left Arm', 'Left Arm', 'Left Face', 'Chest', 'Right Arm', 'Abdomen', 'Right Leg', 'Left Leg']",
5,"[0, 0]",1,,,,,,,,,0,21,21,21,,,,,,,,,,,,,,,,,,,,,,,,,,,None,None,"[0, 0, 0]",469.71263800002635,471.7125947000459,469.71263800002635,470.71262469980866,470.69596119970083,471.6959644998424,,,"[0, 0, 0]",1,469.71263800002635,471.7125947000459,,,,,,,,99,M,1,r,CIB,2021_Aug_10_1443,WASABI distractmap,2020.2.10,60.003444209952825,"['Right Face', 'Chest', 'Left Leg', 'Right Arm', 'Right Face', 'Abdomen', 'Left Face', 'Right Leg', 'Left Arm', 'Left Arm', 'Left Face', 'Chest', 'Right Arm', 'Abdomen', 'Right Leg', 'Left Leg']",
1,"[-0.2, 0.2]",0,,,,,,,,,0,22,22,22,,,,,,,,,,,,,,,,,,,,,,,,,,,None,None,"[0, 0, 0]",471.72931369999424,473.72930260002613,471.72931369999424,472.72931660013273,472.7126525999047,473.71266929991543,,,"[0, 0, 0]",0,471.72931369999424,473.72930260002613,,,,,,,,99,M,1,r,CIB,2021_Aug_10_1443,WASABI distractmap,2020.2.10,60.003444209952825,"['Right Face', 'Chest', 'Left Leg', 'Right Arm', 'Right Face', 'Abdomen', 'Left Face', 'Right Leg', 'Left Arm', 'Left Arm', 'Left Face', 'Chest', 'Right Arm', 'Abdomen', 'Right Leg', 'Left Leg']",
7,"[-0.2, -0.2]",0,,,,,,,,,0,23,23,23,,,,,,,,,,,,,,,,,,,,,,,,,,,None,None,"[0, 0, 0]",473.7459964998998,475.74599369987845,473.7459964998998,474.7458685999736,474.7293312000111,475.7293420997448,,,"[0, 0, 0]",0,473.7459964998998,475.74599369987845,,,,,,,,99,M,1,r,CIB,2021_Aug_10_1443,WASABI distractmap,2020.2.10,60.003444209952825,"['Right Face', 'Chest', 'Left Leg', 'Right Arm', 'Right Face', 'Abdomen', 'Left Face', 'Right Leg', 'Left Arm', 'Left Arm', 'Left Face', 'Chest', 'Right Arm', 'Abdomen', 'Right Leg', 'Left Leg']",
9,"[0.2, -0.2]",0,,,,,,,,,0,24,24,24,,,,,,,,,,,,,,,,,,,,,,,,,,,None,None,"[0, 0, 0]",475.76267249975353,477.76266139978543,475.76267249975353,476.76266400003806,476.7460252000019,477.7460193000734,,,"[0, 0, 0]",0,475.76267249975353,477.76266139978543,,,,,,,,99,M,1,r,CIB,2021_Aug_10_1443,WASABI distractmap,2020.2.10,60.003444209952825,"['Right Face', 'Chest', 'Left Leg', 'Right Arm', 'Right Face', 'Abdomen', 'Left Face', 'Right Leg', 'Left Arm', 'Left Arm', 'Left Face', 'Chest', 'Right Arm', 'Abdomen', 'Right Leg', 'Left Leg']",
3,"[0.2, 0.2]",0,,,,,,,,,0,25,25,25,,,,,,,,,,,,,,,,,,,,,,,,,,,None,None,"[0, 0, 0]",477.779343099799,479.779353399761,477.779343099799,478.77935229986906,478.7626906000078,479.76268710009754,,,"[0, 0, 0]",0,477.779343099799,479.779353399761,,,,,,,,99,M,1,r,CIB,2021_Aug_10_1443,WASABI distractmap,2020.2.10,60.003444209952825,"['Right Face', 'Chest', 'Left Leg', 'Right Arm', 'Right Face', 'Abdomen', 'Left Face', 'Right Leg', 'Left Arm', 'Left Arm', 'Left Face', 'Chest', 'Right Arm', 'Abdomen', 'Right Leg', 'Left Leg']",
9,"[0.2, -0.2]",1,,,,,,,,,0,26,26,26,,,,,,,,,,,,,,,,,,,,,,,,,,,None,None,"[0, 0, 0]",479.7960163997486,481.7960358001292,479.7960163997486,480.796040199697,480.7793697998859,481.7794147999957,,,"[0, 0, 0]",0,479.7960163997486,481.7960358001292,,,,,,,,99,M,1,r,CIB,2021_Aug_10_1443,WASABI distractmap,2020.2.10,60.003444209952825,"['Right Face', 'Chest', 'Left Leg', 'Right Arm', 'Right Face', 'Abdomen', 'Left Face', 'Right Leg', 'Left Arm', 'Left Arm', 'Left Face', 'Chest', 'Right Arm', 'Abdomen', 'Right Leg', 'Left Leg']",
6,"[0.2, 0]",0,,,,,,,,,0,27,27,27,,,,,,,,,,,,,,,,,,,,,,,,,,,None,None,"[0, 0, 0]",481.81272519985214,483.81271479977295,481.81272519985214,482.81272429972887,482.7960394998081,483.79606560012326,,,"[0, 0, 0]",0,481.81272519985214,483.81271479977295,,,,,,,,99,M,1,r,CIB,2021_Aug_10_1443,WASABI distractmap,2020.2.10,60.003444209952825,"['Right Face', 'Chest', 'Left Leg', 'Right Arm', 'Right Face', 'Abdomen', 'Left Face', 'Right Leg', 'Left Arm', 'Left Arm', 'Left Face', 'Chest', 'Right Arm', 'Abdomen', 'Right Leg', 'Left Leg']",
2,"[0, 0.2]",0,,,,,,,,,0,28,28,28,,,,,,,,,,,,,,,,,,,,,,,,,,,None,None,"[0, 0, 0]",483.8293841998093,485.8294216999784,483.8293841998093,484.8294011000544,484.8127446998842,485.81273690005764,,,"[0, 0, 0]",0,483.8293841998093,485.8294216999784,,,,,,,,99,M,1,r,CIB,2021_Aug_10_1443,WASABI distractmap,2020.2.10,60.003444209952825,"['Right Face', 'Chest', 'Left Leg', 'Right Arm', 'Right Face', 'Abdomen', 'Left Face', 'Right Leg', 'Left Arm', 'Left Arm', 'Left Face', 'Chest', 'Right Arm', 'Abdomen', 'Right Leg', 'Left Leg']",
5,"[0, 0]",0,,,,,,,,,0,29,29,29,,,,,,,,,,,,,,,,,,,,,,,,,,,None,None,"[0, 0, 0]",485.845985500142,487.84609110001475,485.845985500142,486.8460730998777,486.82941629970446,487.8294128999114,,,"[0, 0, 0]",0,485.845985500142,487.84609110001475,,,,,,,,99,M,1,r,CIB,2021_Aug_10_1443,WASABI distractmap,2020.2.10,60.003444209952825,"['Right Face', 'Chest', 'Left Leg', 'Right Arm', 'Right Face', 'Abdomen', 'Left Face', 'Right Leg', 'Left Arm', 'Left Arm', 'Left Face', 'Chest', 'Right Arm', 'Abdomen', 'Right Leg', 'Left Leg']",
,,,,,,,,,,,,,,,,,,,,,,,,,,,,,,,,,,,,487.8627344998531,None,space,487.8627344998531,None,,,,,,,,,,,,,,,,,,,,,,,99,M,1,r,CIB,2021_Aug_10_1443,WASABI distractmap,2020.2.10,60.003444209952825,"['Right Face', 'Chest', 'Left Leg', 'Right Arm', 'Right Face', 'Abdomen', 'Left Face', 'Right Leg', 'Left Arm', 'Left Arm', 'Left Face', 'Chest', 'Right Arm', 'Abdomen', 'Right Leg', 'Left Leg']",
6,"[0.2, 0]",None,,,,,,,,,0,0,0,0,,,,,,491.3627856997773,None,,,,,,,,,,,,,,,,,,,,None,None,"[0, 0, 0]",492.3794776997529,None,492.3794776997529,493.3794680000283,493.3628047998063,494.36279409984127,,,"[0, 0, 0]",1,492.3794776997529,None,,,,,,,,99,M,1,r,CIB,2021_Aug_10_1443,WASABI distractmap,2020.2.10,60.003444209952825,"['Right Face', 'Chest', 'Left Leg', 'Right Arm', 'Right Face', 'Abdomen', 'Left Face', 'Right Leg', 'Left Arm', 'Left Arm', 'Left Face', 'Chest', 'Right Arm', 'Abdomen', 'Right Leg', 'Left Leg']",
7,"[-0.2, -0.2]",None,,,,,,,,,0,1,1,1,,,,,,,,,,,,,,,,,,,,,,,,,,,None,None,"[0, 0, 0]",494.37945930007845,496.3795071998611,494.37945930007845,495.3794753998518,495.3627419001423,496.3628056999296,,,"[0, 0, 0]",1,494.37945930007845,496.3795071998611,,,,,,,,99,M,1,r,CIB,2021_Aug_10_1443,WASABI distractmap,2020.2.10,60.003444209952825,"['Right Face', 'Chest', 'Left Leg', 'Right Arm', 'Right Face', 'Abdomen', 'Left Face', 'Right Leg', 'Left Arm', 'Left Arm', 'Left Face', 'Chest', 'Right Arm', 'Abdomen', 'Right Leg', 'Left Leg']",
6,"[0.2, 0]",1,,,,,,,,,0,2,2,2,,,,,,,,,,,,,,,,,,,,,,,,,,,None,None,"[0, 0, 0]",496.3961583999917,498.39614629978314,496.3961583999917,497.3961388999596,497.3794844998047,498.3795036999509,,,"[0, 0, 0]",0,496.3961583999917,498.39614629978314,,,,,,,,99,M,1,r,CIB,2021_Aug_10_1443,WASABI distractmap,2020.2.10,60.003444209952825,"['Right Face', 'Chest', 'Left Leg', 'Right Arm', 'Right Face', 'Abdomen', 'Left Face', 'Right Leg', 'Left Arm', 'Left Arm', 'Left Face', 'Chest', 'Right Arm', 'Abdomen', 'Right Leg', 'Left Leg']",
2,"[0, 0.2]",0,,,,,,,,,0,3,3,3,,,,,,,,,,,,,,,,,,,,,,,,,,,None,None,"[0, 0, 0]",498.41281579993665,500.4128414001316,498.41281579993665,499.4126931997016,499.3961680000648,500.3961875997484,,,"[0, 0, 0]",0,498.41281579993665,500.4128414001316,,,,,,,,99,M,1,r,CIB,2021_Aug_10_1443,WASABI distractmap,2020.2.10,60.003444209952825,"['Right Face', 'Chest', 'Left Leg', 'Right Arm', 'Right Face', 'Abdomen', 'Left Face', 'Right Leg', 'Left Arm', 'Left Arm', 'Left Face', 'Chest', 'Right Arm', 'Abdomen', 'Right Leg', 'Left Leg']",
5,"[0, 0]",0,,,,,,,,,0,4,4,4,,,,,,,,,,,,,,,,,,,,,,,,,,,None,None,"[0, 0, 0]",500.42953389976174,502.4295414998196,500.42953389976174,501.4295451999642,501.41285800002515,502.4128636997193,,,"[0, 0, 0]",0,500.42953389976174,502.4295414998196,,,,,,,,99,M,1,r,CIB,2021_Aug_10_1443,WASABI distractmap,2020.2.10,60.003444209952825,"['Right Face', 'Chest', 'Left Leg', 'Right Arm', 'Right Face', 'Abdomen', 'Left Face', 'Right Leg', 'Left Arm', 'Left Arm', 'Left Face', 'Chest', 'Right Arm', 'Abdomen', 'Right Leg', 'Left Leg']",
4,"[-0.2, 0]",0,,,,,,,,,0,5,5,5,,,,,,,,,,,,,,,,,,,,,,,,,,,None,None,"[0, 0, 0]",502.44617739971727,504.4461949998513,502.44617739971727,503.4462176999077,503.42956109996885,504.4295608997345,,,"[0, 0, 0]",0,502.44617739971727,504.4461949998513,,,,,,,,99,M,1,r,CIB,2021_Aug_10_1443,WASABI distractmap,2020.2.10,60.003444209952825,"['Right Face', 'Chest', 'Left Leg', 'Right Arm', 'Right Face', 'Abdomen', 'Left Face', 'Right Leg', 'Left Arm', 'Left Arm', 'Left Face', 'Chest', 'Right Arm', 'Abdomen', 'Right Leg', 'Left Leg']",
4,"[-0.2, 0]",0,,,,,,,,,0,6,6,6,,,,,,,,,,,,,,,,,,,,,,,,,,,None,None,"[0, 0, 0]",504.46288490016013,506.4628769000992,504.46288490016013,505.4628928997554,505.44620929984376,506.44622489996254,,,"[0, 0, 0]",0,504.46288490016013,506.4628769000992,,,,,,,,99,M,1,r,CIB,2021_Aug_10_1443,WASABI distractmap,2020.2.10,60.003444209952825,"['Right Face', 'Chest', 'Left Leg', 'Right Arm', 'Right Face', 'Abdomen', 'Left Face', 'Right Leg', 'Left Arm', 'Left Arm', 'Left Face', 'Chest', 'Right Arm', 'Abdomen', 'Right Leg', 'Left Leg']",
7,"[-0.2, -0.2]",0,,,,,,,,,0,7,7,7,,,,,,,,,,,,,,,,,,,,,,,,,,,None,None,"[0, 0, 0]",506.47955540008843,508.4795555998571,506.47955540008843,507.4795584999956,507.46290270006284,508.46288349991664,,,"[0, 0, 0]",0,506.47955540008843,508.4795555998571,,,,,,,,99,M,1,r,CIB,2021_Aug_10_1443,WASABI distractmap,2020.2.10,60.003444209952825,"['Right Face', 'Chest', 'Left Leg', 'Right Arm', 'Right Face', 'Abdomen', 'Left Face', 'Right Leg', 'Left Arm', 'Left Arm', 'Left Face', 'Chest', 'Right Arm', 'Abdomen', 'Right Leg', 'Left Leg']",
4,"[-0.2, 0]",1,,,,,,,,,0,8,8,8,,,,,,,,,,,,,,,,,,,,,,,,,,,None,None,"[1, 0, 0]",508.4962128000334,510.49658549996093,508.4962128000334,509.49623529985547,509.47955300007015,510.4799524997361,1.9503638003952801,0.0,"[1, 0, 0]",1,508.4962128000334,510.49658549996093,,,,,,,,99,M,1,r,CIB,2021_Aug_10_1443,WASABI distractmap,2020.2.10,60.003444209952825,"['Right Face', 'Chest', 'Left Leg', 'Right Arm', 'Right Face', 'Abdomen', 'Left Face', 'Right Leg', 'Left Arm', 'Left Arm', 'Left Face', 'Chest', 'Right Arm', 'Abdomen', 'Right Leg', 'Left Leg']",
3,"[0.2, 0.2]",0,,,,,,,,,0,9,9,9,,,,,,,,,,,,,,,,,,,,,,,,,,,None,None,"[0, 0, 0]",510.5129025001079,512.5129293999635,510.5129025001079,511.51293230010197,511.49623980000615,512.496250399854,,,"[0, 0, 0]",0,510.5129025001079,512.5129293999635,,,,,,,,99,M,1,r,CIB,2021_Aug_10_1443,WASABI distractmap,2020.2.10,60.003444209952825,"['Right Face', 'Chest', 'Left Leg', 'Right Arm', 'Right Face', 'Abdomen', 'Left Face', 'Right Leg', 'Left Arm', 'Left Arm', 'Left Face', 'Chest', 'Right Arm', 'Abdomen', 'Right Leg', 'Left Leg']",
5,"[0, 0]",0,,,,,,,,,0,10,10,10,,,,,,,,,,,,,,,,,,,,,,,,,,,None,None,"[0, 0, 0]",512.5296982997097,514.5296041001566,512.5296982997097,513.5296132001095,513.5129263997078,514.5129555999301,,,"[0, 0, 0]",0,512.5296982997097,514.5296041001566,,,,,,,,99,M,1,r,CIB,2021_Aug_10_1443,WASABI distractmap,2020.2.10,60.003444209952825,"['Right Face', 'Chest', 'Left Leg', 'Right Arm', 'Right Face', 'Abdomen', 'Left Face', 'Right Leg', 'Left Arm', 'Left Arm', 'Left Face', 'Chest', 'Right Arm', 'Abdomen', 'Right Leg', 'Left Leg']",
3,"[0.2, 0.2]",1,,,,,,,,,0,11,11,11,,,,,,,,,,,,,,,,,,,,,,,,,,,None,None,"[0, 0, 0]",514.5462865000591,516.5462774997577,514.5462865000591,515.5462667001411,515.5295998998918,516.5296391998418,,,"[0, 0, 0]",1,514.5462865000591,516.5462774997577,,,,,,,,99,M,1,r,CIB,2021_Aug_10_1443,WASABI distractmap,2020.2.10,60.003444209952825,"['Right Face', 'Chest', 'Left Leg', 'Right Arm', 'Right Face', 'Abdomen', 'Left Face', 'Right Leg', 'Left Arm', 'Left Arm', 'Left Face', 'Chest', 'Right Arm', 'Abdomen', 'Right Leg', 'Left Leg']",
1,"[-0.2, 0.2]",0,,,,,,,,,0,12,12,12,,,,,,,,,,,,,,,,,,,,,,,,,,,None,None,"[0, 0, 0]",516.5629564998671,518.5629793000408,516.5629564998671,517.5629565999843,517.5462942998856,518.546297899913,,,"[0, 0, 0]",0,516.5629564998671,518.5629793000408,,,,,,,,99,M,1,r,CIB,2021_Aug_10_1443,WASABI distractmap,2020.2.10,60.003444209952825,"['Right Face', 'Chest', 'Left Leg', 'Right Arm', 'Right Face', 'Abdomen', 'Left Face', 'Right Leg', 'Left Arm', 'Left Arm', 'Left Face', 'Chest', 'Right Arm', 'Abdomen', 'Right Leg', 'Left Leg']",
9,"[0.2, -0.2]",0,,,,,,,,,0,13,13,13,,,,,,,,,,,,,,,,,,,,,,,,,,,None,None,"[0, 0, 0]",518.5796539001167,520.5796567997895,518.5796539001167,519.5796503997408,519.5630268999375,520.5629778997973,,,"[0, 0, 0]",0,518.5796539001167,520.5796567997895,,,,,,,,99,M,1,r,CIB,2021_Aug_10_1443,WASABI distractmap,2020.2.10,60.003444209952825,"['Right Face', 'Chest', 'Left Leg', 'Right Arm', 'Right Face', 'Abdomen', 'Left Face', 'Right Leg', 'Left Arm', 'Left Arm', 'Left Face', 'Chest', 'Right Arm', 'Abdomen', 'Right Leg', 'Left Leg']",
9,"[0.2, -0.2]",0,,,,,,,,,0,14,14,14,,,,,,,,,,,,,,,,,,,,,,,,,,,None,None,"[0, 0, 0]",520.5963272000663,522.5963181997649,520.5963272000663,521.5963433999568,521.5796551001258,522.5796587998047,,,"[0, 0, 0]",0,520.5963272000663,522.5963181997649,,,,,,,,99,M,1,r,CIB,2021_Aug_10_1443,WASABI distractmap,2020.2.10,60.003444209952825,"['Right Face', 'Chest', 'Left Leg', 'Right Arm', 'Right Face', 'Abdomen', 'Left Face', 'Right Leg', 'Left Arm', 'Left Arm', 'Left Face', 'Chest', 'Right Arm', 'Abdomen', 'Right Leg', 'Left Leg']",
8,"[0, -0.2]",0,,,,,,,,,0,15,15,15,,,,,,,,,,,,,,,,,,,,,,,,,,,None,None,"[0, 0, 0]",522.6130129997618,524.6130101997405,522.6130129997618,523.6129467999563,523.5963356001303,524.596353400033,,,"[0, 0, 0]",0,522.6130129997618,524.6130101997405,,,,,,,,99,M,1,r,CIB,2021_Aug_10_1443,WASABI distractmap,2020.2.10,60.003444209952825,"['Right Face', 'Chest', 'Left Leg', 'Right Arm', 'Right Face', 'Abdomen', 'Left Face', 'Right Leg', 'Left Arm', 'Left Arm', 'Left Face', 'Chest', 'Right Arm', 'Abdomen', 'Right Leg', 'Left Leg']",
6,"[0.2, 0]",0,,,,,,,,,0,16,16,16,,,,,,,,,,,,,,,,,,,,,,,,,,,None,None,"[0, 0, 0]",524.6296946997754,526.629716000054,524.6296946997754,525.6296850997023,525.6130065000616,526.6130205998197,,,"[0, 0, 0]",0,524.6296946997754,526.629716000054,,,,,,,,99,M,1,r,CIB,2021_Aug_10_1443,WASABI distractmap,2020.2.10,60.003444209952825,"['Right Face', 'Chest', 'Left Leg', 'Right Arm', 'Right Face', 'Abdomen', 'Left Face', 'Right Leg', 'Left Arm', 'Left Arm', 'Left Face', 'Chest', 'Right Arm', 'Abdomen', 'Right Leg', 'Left Leg']",
3,"[0.2, 0.2]",0,,,,,,,,,0,17,17,17,,,,,,,,,,,,,,,,,,,,,,,,,,,None,None,"[0, 0, 0]",526.6463453997858,528.6463883998804,526.6463453997858,527.6463544000871,527.6297013000585,528.6297138999216,,,"[0, 0, 0]",0,526.6463453997858,528.6463883998804,,,,,,,,99,M,1,r,CIB,2021_Aug_10_1443,WASABI distractmap,2020.2.10,60.003444209952825,"['Right Face', 'Chest', 'Left Leg', 'Right Arm', 'Right Face', 'Abdomen', 'Left Face', 'Right Leg', 'Left Arm', 'Left Arm', 'Left Face', 'Chest', 'Right Arm', 'Abdomen', 'Right Leg', 'Left Leg']",
6,"[0.2, 0]",1,,,,,,,,,0,18,18,18,,,,,,,,,,,,,,,,,,,,,,,,,,,None,None,"[0, 0, 0]",528.6630377001129,530.663044499699,528.6630377001129,529.6630299999379,529.6463894997723,530.646403899882,,,"[0, 0, 0]",0,528.6630377001129,530.663044499699,,,,,,,,99,M,1,r,CIB,2021_Aug_10_1443,WASABI distractmap,2020.2.10,60.003444209952825,"['Right Face', 'Chest', 'Left Leg', 'Right Arm', 'Right Face', 'Abdomen', 'Left Face', 'Right Leg', 'Left Arm', 'Left Arm', 'Left Face', 'Chest', 'Right Arm', 'Abdomen', 'Right Leg', 'Left Leg']",
5,"[0, 0]",0,,,,,,,,,0,19,19,19,,,,,,,,,,,,,,,,,,,,,,,,,,,None,None,"[0, 0, 0]",530.6797152999789,532.6797362999059,530.6797152999789,531.6797279999591,531.6630925000645,532.6630859998986,,,"[0, 0, 0]",0,530.6797152999789,532.6797362999059,,,,,,,,99,M,1,r,CIB,2021_Aug_10_1443,WASABI distractmap,2020.2.10,60.003444209952825,"['Right Face', 'Chest', 'Left Leg', 'Right Arm', 'Right Face', 'Abdomen', 'Left Face', 'Right Leg', 'Left Arm', 'Left Arm', 'Left Face', 'Chest', 'Right Arm', 'Abdomen', 'Right Leg', 'Left Leg']",
7,"[-0.2, -0.2]",0,,,,,,,,,0,20,20,20,,,,,,,,,,,,,,,,,,,,,,,,,,,None,None,"[0, 0, 0]",532.6964165000245,534.6964336000383,532.6964165000245,533.6963991001248,533.6796254999936,534.6797405998223,,,"[0, 0, 0]",0,532.6964165000245,534.6964336000383,,,,,,,,99,M,1,r,CIB,2021_Aug_10_1443,WASABI distractmap,2020.2.10,60.003444209952825,"['Right Face', 'Chest', 'Left Leg', 'Right Arm', 'Right Face', 'Abdomen', 'Left Face', 'Right Leg', 'Left Arm', 'Left Arm', 'Left Face', 'Chest', 'Right Arm', 'Abdomen', 'Right Leg', 'Left Leg']",
5,"[0, 0]",1,,,,,,,,,0,21,21,21,,,,,,,,,,,,,,,,,,,,,,,,,,,None,None,"[0, 0, 0]",534.7130825999193,536.7130078999326,534.7130825999193,535.7130875997245,535.6964398999698,536.6964254998602,,,"[0, 0, 0]",0,534.7130825999193,536.7130078999326,,,,,,,,99,M,1,r,CIB,2021_Aug_10_1443,WASABI distractmap,2020.2.10,60.003444209952825,"['Right Face', 'Chest', 'Left Leg', 'Right Arm', 'Right Face', 'Abdomen', 'Left Face', 'Right Leg', 'Left Arm', 'Left Arm', 'Left Face', 'Chest', 'Right Arm', 'Abdomen', 'Right Leg', 'Left Leg']",
1,"[-0.2, 0.2]",0,,,,,,,,,0,22,22,22,,,,,,,,,,,,,,,,,,,,,,,,,,,None,None,"[0, 0, 0]",536.7297664000653,538.7297839000821,536.7297664000653,537.7296337001026,537.7130919001065,538.7131011998281,,,"[0, 0, 0]",0,536.7297664000653,538.7297839000821,,,,,,,,99,M,1,r,CIB,2021_Aug_10_1443,WASABI distractmap,2020.2.10,60.003444209952825,"['Right Face', 'Chest', 'Left Leg', 'Right Arm', 'Right Face', 'Abdomen', 'Left Face', 'Right Leg', 'Left Arm', 'Left Arm', 'Left Face', 'Chest', 'Right Arm', 'Abdomen', 'Right Leg', 'Left Leg']",
7,"[-0.2, -0.2]",0,,,,,,,,,0,23,23,23,,,,,,,,,,,,,,,,,,,,,,,,,,,None,None,"[0, 0, 0]",538.7464487999678,540.7464494998567,538.7464487999678,539.7464719000272,539.7297931001522,540.7298085000366,,,"[0, 0, 0]",0,538.7464487999678,540.7464494998567,,,,,,,,99,M,1,r,CIB,2021_Aug_10_1443,WASABI distractmap,2020.2.10,60.003444209952825,"['Right Face', 'Chest', 'Left Leg', 'Right Arm', 'Right Face', 'Abdomen', 'Left Face', 'Right Leg', 'Left Arm', 'Left Arm', 'Left Face', 'Chest', 'Right Arm', 'Abdomen', 'Right Leg', 'Left Leg']",
9,"[0.2, -0.2]",0,,,,,,,,,0,24,24,24,,,,,,,,,,,,,,,,,,,,,,,,,,,None,None,"[0, 0, 0]",540.7631385000423,542.7631362997927,540.7631385000423,541.7631222000346,541.7464260999113,542.7464788998477,,,"[0, 0, 0]",0,540.7631385000423,542.7631362997927,,,,,,,,99,M,1,r,CIB,2021_Aug_10_1443,WASABI distractmap,2020.2.10,60.003444209952825,"['Right Face', 'Chest', 'Left Leg', 'Right Arm', 'Right Face', 'Abdomen', 'Left Face', 'Right Leg', 'Left Arm', 'Left Arm', 'Left Face', 'Chest', 'Right Arm', 'Abdomen', 'Right Leg', 'Left Leg']",
3,"[0.2, 0.2]",0,,,,,,,,,0,25,25,25,,,,,,,,,,,,,,,,,,,,,,,,,,,None,None,"[0, 0, 0]",542.7798175001517,544.7798427999951,542.7798175001517,543.7798107000999,543.7631626999937,544.7631339998916,,,"[0, 0, 0]",0,542.7798175001517,544.7798427999951,,,,,,,,99,M,1,r,CIB,2021_Aug_10_1443,WASABI distractmap,2020.2.10,60.003444209952825,"['Right Face', 'Chest', 'Left Leg', 'Right Arm', 'Right Face', 'Abdomen', 'Left Face', 'Right Leg', 'Left Arm', 'Left Arm', 'Left Face', 'Chest', 'Right Arm', 'Abdomen', 'Right Leg', 'Left Leg']",
9,"[0.2, -0.2]",1,,,,,,,,,0,26,26,26,,,,,,,,,,,,,,,,,,,,,,,,,,,None,None,"[0, 0, 0]",544.7965072998777,546.7965194997378,544.7965072998777,545.7965144999325,545.7798219998367,546.7798325000331,,,"[0, 0, 0]",0,544.7965072998777,546.7965194997378,,,,,,,,99,M,1,r,CIB,2021_Aug_10_1443,WASABI distractmap,2020.2.10,60.003444209952825,"['Right Face', 'Chest', 'Left Leg', 'Right Arm', 'Right Face', 'Abdomen', 'Left Face', 'Right Leg', 'Left Arm', 'Left Arm', 'Left Face', 'Chest', 'Right Arm', 'Abdomen', 'Right Leg', 'Left Leg']",
6,"[0.2, 0]",0,,,,,,,,,0,27,27,27,,,,,,,,,,,,,,,,,,,,,,,,,,,None,None,"[0, 0, 0]",546.8131602001376,548.8131927000359,546.8131602001376,547.8131912001409,547.7965234997682,548.7965136999264,,,"[0, 0, 0]",0,546.8131602001376,548.8131927000359,,,,,,,,99,M,1,r,CIB,2021_Aug_10_1443,WASABI distractmap,2020.2.10,60.003444209952825,"['Right Face', 'Chest', 'Left Leg', 'Right Arm', 'Right Face', 'Abdomen', 'Left Face', 'Right Leg', 'Left Arm', 'Left Arm', 'Left Face', 'Chest', 'Right Arm', 'Abdomen', 'Right Leg', 'Left Leg']",
2,"[0, 0.2]",0,,,,,,,,,0,28,28,28,,,,,,,,,,,,,,,,,,,,,,,,,,,None,None,"[0, 0, 0]",548.8298852997832,550.8298508999869,548.8298852997832,549.8298566001467,549.8131816997193,550.8132317997515,,,"[0, 0, 0]",0,548.8298852997832,550.8298508999869,,,,,,,,99,M,1,r,CIB,2021_Aug_10_1443,WASABI distractmap,2020.2.10,60.003444209952825,"['Right Face', 'Chest', 'Left Leg', 'Right Arm', 'Right Face', 'Abdomen', 'Left Face', 'Right Leg', 'Left Arm', 'Left Arm', 'Left Face', 'Chest', 'Right Arm', 'Abdomen', 'Right Leg', 'Left Leg']",
5,"[0, 0]",0,,,,,,,,,0,29,29,29,,,,,,,,,,,,,,,,,,,,,,,,,,,None,None,"[0, 0, 0]",550.8465351997875,552.8465406997129,550.8465351997875,551.8465448999777,551.8298907997087,552.8298732000403,,,"[0, 0, 0]",0,550.8465351997875,552.8465406997129,,,,,,,,99,M,1,r,CIB,2021_Aug_10_1443,WASABI distractmap,2020.2.10,60.003444209952825,"['Right Face', 'Chest', 'Left Leg', 'Right Arm', 'Right Face', 'Abdomen', 'Left Face', 'Right Leg', 'Left Arm', 'Left Arm', 'Left Face', 'Chest', 'Right Arm', 'Abdomen', 'Right Leg', 'Left Leg']",
,,,,,,,,,,,,,,,,,,,,,,,,,,,,,,,,,,,,552.8632284998894,None,space,552.8632284998894,None,,,,,,,,,,,,,,,,,,,,,,,99,M,1,r,CIB,2021_Aug_10_1443,WASABI distractmap,2020.2.10,60.003444209952825,"['Right Face', 'Chest', 'Left Leg', 'Right Arm', 'Right Face', 'Abdomen', 'Left Face', 'Right Leg', 'Left Arm', 'Left Arm', 'Left Face', 'Chest', 'Right Arm', 'Abdomen', 'Right Leg', 'Left Leg']",
6,"[0.2, 0]",None,,,,,,,,,0,0,0,0,,,,,,563.8632799996994,None,,,,,,,,,,,,,,,,,,,,None,None,"[0, 0, 0]",564.8799768998288,None,564.8799768998288,565.8799924999475,565.8633125000633,566.8633737997152,,,"[0, 0, 0]",1,564.8799768998288,None,,,,,,,,99,M,1,r,CIB,2021_Aug_10_1443,WASABI distractmap,2020.2.10,60.003444209952825,"['Right Face', 'Chest', 'Left Leg', 'Right Arm', 'Right Face', 'Abdomen', 'Left Face', 'Right Leg', 'Left Arm', 'Left Arm', 'Left Face', 'Chest', 'Right Arm', 'Abdomen', 'Right Leg', 'Left Leg']",
7,"[-0.2, -0.2]",None,,,,,,,,,0,1,1,1,,,,,,,,,,,,,,,,,,,,,,,,,,,None,None,"[0, 0, 0]",566.8800335000269,568.8799390001222,566.8800335000269,567.8799846000038,567.8633173997514,568.8633336001076,,,"[0, 0, 0]",1,566.8800335000269,568.8799390001222,,,,,,,,99,M,1,r,CIB,2021_Aug_10_1443,WASABI distractmap,2020.2.10,60.003444209952825,"['Right Face', 'Chest', 'Left Leg', 'Right Arm', 'Right Face', 'Abdomen', 'Left Face', 'Right Leg', 'Left Arm', 'Left Arm', 'Left Face', 'Chest', 'Right Arm', 'Abdomen', 'Right Leg', 'Left Leg']",
6,"[0.2, 0]",1,,,,,,,,,0,2,2,2,,,,,,,,,,,,,,,,,,,,,,,,,,,None,None,"[0, 0, 0]",568.8966520000249,570.8966696001589,568.8966520000249,569.896675599739,569.8799970000982,570.880025499966,,,"[0, 0, 0]",0,568.8966520000249,570.8966696001589,,,,,,,,99,M,1,r,CIB,2021_Aug_10_1443,WASABI distractmap,2020.2.10,60.003444209952825,"['Right Face', 'Chest', 'Left Leg', 'Right Arm', 'Right Face', 'Abdomen', 'Left Face', 'Right Leg', 'Left Arm', 'Left Arm', 'Left Face', 'Chest', 'Right Arm', 'Abdomen', 'Right Leg', 'Left Leg']",
2,"[0, 0.2]",0,,,,,,,,,0,3,3,3,,,,,,,,,,,,,,,,,,,,,,,,,,,None,None,"[0, 0, 0]",570.9133299998939,572.9133481001481,570.9133299998939,571.9133385997266,571.8966692001559,572.8966970997863,,,"[0, 0, 0]",0,570.9133299998939,572.9133481001481,,,,,,,,99,M,1,r,CIB,2021_Aug_10_1443,WASABI distractmap,2020.2.10,60.003444209952825,"['Right Face', 'Chest', 'Left Leg', 'Right Arm', 'Right Face', 'Abdomen', 'Left Face', 'Right Leg', 'Left Arm', 'Left Arm', 'Left Face', 'Chest', 'Right Arm', 'Abdomen', 'Right Leg', 'Left Leg']",
5,"[0, 0]",0,,,,,,,,,0,4,4,4,,,,,,,,,,,,,,,,,,,,,,,,,,,None,None,"[0, 0, 0]",572.9299165997654,574.9300466999412,572.9299165997654,573.9300369000994,573.913379999809,574.9133747001179,,,"[0, 0, 0]",0,572.9299165997654,574.9300466999412,,,,,,,,99,M,1,r,CIB,2021_Aug_10_1443,WASABI distractmap,2020.2.10,60.003444209952825,"['Right Face', 'Chest', 'Left Leg', 'Right Arm', 'Right Face', 'Abdomen', 'Left Face', 'Right Leg', 'Left Arm', 'Left Arm', 'Left Face', 'Chest', 'Right Arm', 'Abdomen', 'Right Leg', 'Left Leg']",
4,"[-0.2, 0]",0,,,,,,,,,0,5,5,5,,,,,,,,,,,,,,,,,,,,,,,,,,,None,None,"[0, 0, 0]",574.9466979997233,576.9467285000719,574.9466979997233,575.94670329988,575.9300569999032,576.9300445001572,,,"[0, 0, 0]",0,574.9466979997233,576.9467285000719,,,,,,,,99,M,1,r,CIB,2021_Aug_10_1443,WASABI distractmap,2020.2.10,60.003444209952825,"['Right Face', 'Chest', 'Left Leg', 'Right Arm', 'Right Face', 'Abdomen', 'Left Face', 'Right Leg', 'Left Arm', 'Left Arm', 'Left Face', 'Chest', 'Right Arm', 'Abdomen', 'Right Leg', 'Left Leg']",
4,"[-0.2, 0]",0,,,,,,,,,0,6,6,6,,,,,,,,,,,,,,,,,,,,,,,,,,,None,None,"[0, 0, 0]",576.9634162001312,578.963400399778,576.9634162001312,577.9634031997994,577.9467384000309,578.9467253996991,,,"[0, 0, 0]",0,576.9634162001312,578.963400399778,,,,,,,,99,M,1,r,CIB,2021_Aug_10_1443,WASABI distractmap,2020.2.10,60.003444209952825,"['Right Face', 'Chest', 'Left Leg', 'Right Arm', 'Right Face', 'Abdomen', 'Left Face', 'Right Leg', 'Left Arm', 'Left Arm', 'Left Face', 'Chest', 'Right Arm', 'Abdomen', 'Right Leg', 'Left Leg']",
7,"[-0.2, -0.2]",0,,,,,,,,,0,7,7,7,,,,,,,,,,,,,,,,,,,,,,,,,,,None,None,"[0, 0, 0]",578.9800575999543,580.9800840998068,578.9800575999543,579.980074999854,579.963415000122,580.963417599909,,,"[0, 0, 0]",0,578.9800575999543,580.9800840998068,,,,,,,,99,M,1,r,CIB,2021_Aug_10_1443,WASABI distractmap,2020.2.10,60.003444209952825,"['Right Face', 'Chest', 'Left Leg', 'Right Arm', 'Right Face', 'Abdomen', 'Left Face', 'Right Leg', 'Left Arm', 'Left Arm', 'Left Face', 'Chest', 'Right Arm', 'Abdomen', 'Right Leg', 'Left Leg']",
4,"[-0.2, 0]",1,,,,,,,,,0,8,8,8,,,,,,,,,,,,,,,,,,,,,,,,,,,None,None,"[0, 0, 0]",580.9967585001141,582.9967497996986,580.9967585001141,581.9967449000105,581.9799870997667,582.9800982000306,,,"[0, 0, 0]",0,580.9967585001141,582.9967497996986,,,,,,,,99,M,1,r,CIB,2021_Aug_10_1443,WASABI distractmap,2020.2.10,60.003444209952825,"['Right Face', 'Chest', 'Left Leg', 'Right Arm', 'Right Face', 'Abdomen', 'Left Face', 'Right Leg', 'Left Arm', 'Left Arm', 'Left Face', 'Chest', 'Right Arm', 'Abdomen', 'Right Leg', 'Left Leg']",
3,"[0.2, 0.2]",0,,,,,,,,,0,9,9,9,,,,,,,,,,,,,,,,,,,,,,,,,,,None,None,"[0, 0, 0]",583.0134340999648,585.0134791997261,583.0134340999648,584.0134523999877,583.9967943998054,584.9967523999512,,,"[0, 0, 0]",0,583.0134340999648,585.0134791997261,,,,,,,,99,M,1,r,CIB,2021_Aug_10_1443,WASABI distractmap,2020.2.10,60.003444209952825,"['Right Face', 'Chest', 'Left Leg', 'Right Arm', 'Right Face', 'Abdomen', 'Left Face', 'Right Leg', 'Left Arm', 'Left Arm', 'Left Face', 'Chest', 'Right Arm', 'Abdomen', 'Right Leg', 'Left Leg']",
5,"[0, 0]",0,,,,,,,,,0,10,10,10,,,,,,,,,,,,,,,,,,,,,,,,,,,None,None,"[0, 0, 0]",585.0301095000468,587.0301185999997,585.0301095000468,586.030042400118,586.0134557001293,587.0134740001522,,,"[0, 0, 0]",0,585.0301095000468,587.0301185999997,,,,,,,,99,M,1,r,CIB,2021_Aug_10_1443,WASABI distractmap,2020.2.10,60.003444209952825,"['Right Face', 'Chest', 'Left Leg', 'Right Arm', 'Right Face', 'Abdomen', 'Left Face', 'Right Leg', 'Left Arm', 'Left Arm', 'Left Face', 'Chest', 'Right Arm', 'Abdomen', 'Right Leg', 'Left Leg']",
3,"[0.2, 0.2]",1,,,,,,,,,0,11,11,11,,,,,,,,,,,,,,,,,,,,,,,,,,,None,None,"[0, 0, 0]",587.0467811999843,589.0468137999997,587.0467811999843,588.0468167997897,588.0301260999404,589.0301477997564,,,"[0, 0, 0]",0,587.0467811999843,589.0468137999997,,,,,,,,99,M,1,r,CIB,2021_Aug_10_1443,WASABI distractmap,2020.2.10,60.003444209952825,"['Right Face', 'Chest', 'Left Leg', 'Right Arm', 'Right Face', 'Abdomen', 'Left Face', 'Right Leg', 'Left Arm', 'Left Arm', 'Left Face', 'Chest', 'Right Arm', 'Abdomen', 'Right Leg', 'Left Leg']",
1,"[-0.2, 0.2]",0,,,,,,,,,0,12,12,12,,,,,,,,,,,,,,,,,,,,,,,,,,,None,None,"[0, 0, 0]",589.063492400106,591.0635075997561,589.063492400106,590.0634918999858,590.0468218000606,591.0468280999921,,,"[0, 0, 0]",0,589.063492400106,591.0635075997561,,,,,,,,99,M,1,r,CIB,2021_Aug_10_1443,WASABI distractmap,2020.2.10,60.003444209952825,"['Right Face', 'Chest', 'Left Leg', 'Right Arm', 'Right Face', 'Abdomen', 'Left Face', 'Right Leg', 'Left Arm', 'Left Arm', 'Left Face', 'Chest', 'Right Arm', 'Abdomen', 'Right Leg', 'Left Leg']",
9,"[0.2, -0.2]",0,,,,,,,,,0,13,13,13,,,,,,,,,,,,,,,,,,,,,,,,,,,None,None,"[0, 0, 0]",591.0801590001211,593.0801824000664,591.0801590001211,592.0801625000313,592.0635116999038,593.0635059000924,,,"[0, 0, 0]",0,591.0801590001211,593.0801824000664,,,,,,,,99,M,1,r,CIB,2021_Aug_10_1443,WASABI distractmap,2020.2.10,60.003444209952825,"['Right Face', 'Chest', 'Left Leg', 'Right Arm', 'Right Face', 'Abdomen', 'Left Face', 'Right Leg', 'Left Arm', 'Left Arm', 'Left Face', 'Chest', 'Right Arm', 'Abdomen', 'Right Leg', 'Left Leg']",
9,"[0.2, -0.2]",0,,,,,,,,,0,14,14,14,,,,,,,,,,,,,,,,,,,,,,,,,,,None,None,"[0, 0, 0]",593.0968165998347,595.0968577000313,593.0968165998347,594.096829699818,594.0801881998777,595.0801765997894,,,"[0, 0, 0]",0,593.0968165998347,595.0968577000313,,,,,,,,99,M,1,r,CIB,2021_Aug_10_1443,WASABI distractmap,2020.2.10,60.003444209952825,"['Right Face', 'Chest', 'Left Leg', 'Right Arm', 'Right Face', 'Abdomen', 'Left Face', 'Right Leg', 'Left Arm', 'Left Arm', 'Left Face', 'Chest', 'Right Arm', 'Abdomen', 'Right Leg', 'Left Leg']",
8,"[0, -0.2]",0,,,,,,,,,0,15,15,15,,,,,,,,,,,,,,,,,,,,,,,,,,,None,None,"[0, 0, 0]",595.1135260998271,597.1135402000509,595.1135260998271,596.113522300031,596.0968388998881,597.0968466997147,,,"[0, 0, 0]",0,595.1135260998271,597.1135402000509,,,,,,,,99,M,1,r,CIB,2021_Aug_10_1443,WASABI distractmap,2020.2.10,60.003444209952825,"['Right Face', 'Chest', 'Left Leg', 'Right Arm', 'Right Face', 'Abdomen', 'Left Face', 'Right Leg', 'Left Arm', 'Left Arm', 'Left Face', 'Chest', 'Right Arm', 'Abdomen', 'Right Leg', 'Left Leg']",
6,"[0.2, 0]",0,,,,,,,,,0,16,16,16,,,,,,,,,,,,,,,,,,,,,,,,,,,None,None,"[0, 0, 0]",597.1301949000917,599.1302000000142,597.1301949000917,598.1302223000675,598.1135650998913,599.1135577000678,,,"[0, 0, 0]",0,597.1301949000917,599.1302000000142,,,,,,,,99,M,1,r,CIB,2021_Aug_10_1443,WASABI distractmap,2020.2.10,60.003444209952825,"['Right Face', 'Chest', 'Left Leg', 'Right Arm', 'Right Face', 'Abdomen', 'Left Face', 'Right Leg', 'Left Arm', 'Left Arm', 'Left Face', 'Chest', 'Right Arm', 'Abdomen', 'Right Leg', 'Left Leg']",
3,"[0.2, 0.2]",0,,,,,,,,,0,17,17,17,,,,,,,,,,,,,,,,,,,,,,,,,,,None,None,"[0, 0, 0]",599.1468877997249,601.1468919999897,599.1468877997249,600.146877199877,600.1302092000842,601.1302195996977,,,"[0, 0, 0]",0,599.1468877997249,601.1468919999897,,,,,,,,99,M,1,r,CIB,2021_Aug_10_1443,WASABI distractmap,2020.2.10,60.003444209952825,"['Right Face', 'Chest', 'Left Leg', 'Right Arm', 'Right Face', 'Abdomen', 'Left Face', 'Right Leg', 'Left Arm', 'Left Arm', 'Left Face', 'Chest', 'Right Arm', 'Abdomen', 'Right Leg', 'Left Leg']",
6,"[0.2, 0]",1,,,,,,,,,0,18,18,18,,,,,,,,,,,,,,,,,,,,,,,,,,,None,None,"[0, 0, 0]",601.1635122997686,603.1635643998161,601.1635122997686,602.1634455998428,602.1469128001481,603.1469069998711,,,"[0, 0, 0]",0,601.1635122997686,603.1635643998161,,,,,,,,99,M,1,r,CIB,2021_Aug_10_1443,WASABI distractmap,2020.2.10,60.003444209952825,"['Right Face', 'Chest', 'Left Leg', 'Right Arm', 'Right Face', 'Abdomen', 'Left Face', 'Right Leg', 'Left Arm', 'Left Arm', 'Left Face', 'Chest', 'Right Arm', 'Abdomen', 'Right Leg', 'Left Leg']",
5,"[0, 0]",0,,,,,,,,,0,19,19,19,,,,,,,,,,,,,,,,,,,,,,,,,,,None,None,"[0, 0, 0]",603.1802353998646,605.1802511997521,603.1802353998646,604.1802407000214,604.1635937998071,605.1635716999881,,,"[0, 0, 0]",0,603.1802353998646,605.1802511997521,,,,,,,,99,M,1,r,CIB,2021_Aug_10_1443,WASABI distractmap,2020.2.10,60.003444209952825,"['Right Face', 'Chest', 'Left Leg', 'Right Arm', 'Right Face', 'Abdomen', 'Left Face', 'Right Leg', 'Left Arm', 'Left Arm', 'Left Face', 'Chest', 'Right Arm', 'Abdomen', 'Right Leg', 'Left Leg']",
7,"[-0.2, -0.2]",0,,,,,,,,,0,20,20,20,,,,,,,,,,,,,,,,,,,,,,,,,,,None,None,"[0, 0, 0]",605.196907099802,607.1969343000092,605.196907099802,606.1969368001446,606.1802623998374,607.1802568999119,,,"[0, 0, 0]",0,605.196907099802,607.1969343000092,,,,,,,,99,M,1,r,CIB,2021_Aug_10_1443,WASABI distractmap,2020.2.10,60.003444209952825,"['Right Face', 'Chest', 'Left Leg', 'Right Arm', 'Right Face', 'Abdomen', 'Left Face', 'Right Leg', 'Left Arm', 'Left Arm', 'Left Face', 'Chest', 'Right Arm', 'Abdomen', 'Right Leg', 'Left Leg']",
5,"[0, 0]",1,,,,,,,,,0,21,21,21,,,,,,,,,,,,,,,,,,,,,,,,,,,None,None,"[0, 0, 0]",607.2136126998812,609.2136225998402,607.2136126998812,608.2136097997427,608.1969368997961,609.1969584999606,,,"[0, 0, 0]",0,607.2136126998812,609.2136225998402,,,,,,,,99,M,1,r,CIB,2021_Aug_10_1443,WASABI distractmap,2020.2.10,60.003444209952825,"['Right Face', 'Chest', 'Left Leg', 'Right Arm', 'Right Face', 'Abdomen', 'Left Face', 'Right Leg', 'Left Arm', 'Left Arm', 'Left Face', 'Chest', 'Right Arm', 'Abdomen', 'Right Leg', 'Left Leg']",
1,"[-0.2, 0.2]",0,,,,,,,,,0,22,22,22,,,,,,,,,,,,,,,,,,,,,,,,,,,None,None,"[0, 0, 0]",609.2302696998231,611.2302961000241,609.2302696998231,610.2302965000272,610.2136300001293,611.2136408998631,,,"[0, 0, 0]",0,609.2302696998231,611.2302961000241,,,,,,,,99,M,1,r,CIB,2021_Aug_10_1443,WASABI distractmap,2020.2.10,60.003444209952825,"['Right Face', 'Chest', 'Left Leg', 'Right Arm', 'Right Face', 'Abdomen', 'Left Face', 'Right Leg', 'Left Arm', 'Left Arm', 'Left Face', 'Chest', 'Right Arm', 'Abdomen', 'Right Leg', 'Left Leg']",
7,"[-0.2, -0.2]",0,,,,,,,,,0,23,23,23,,,,,,,,,,,,,,,,,,,,,,,,,,,None,None,"[0, 0, 0]",611.2469616997987,613.2469747001305,611.2469616997987,612.2469673999585,612.2302951999009,613.2303069997579,,,"[0, 0, 0]",0,611.2469616997987,613.2469747001305,,,,,,,,99,M,1,r,CIB,2021_Aug_10_1443,WASABI distractmap,2020.2.10,60.003444209952825,"['Right Face', 'Chest', 'Left Leg', 'Right Arm', 'Right Face', 'Abdomen', 'Left Face', 'Right Leg', 'Left Arm', 'Left Arm', 'Left Face', 'Chest', 'Right Arm', 'Abdomen', 'Right Leg', 'Left Leg']",
9,"[0.2, -0.2]",0,,,,,,,,,0,24,24,24,,,,,,,,,,,,,,,,,,,,,,,,,,,None,None,"[0, 0, 0]",613.2636587000452,615.2636595000513,613.2636587000452,614.2636668998748,614.246930600144,615.2469851998612,,,"[0, 0, 0]",0,613.2636587000452,615.2636595000513,,,,,,,,99,M,1,r,CIB,2021_Aug_10_1443,WASABI distractmap,2020.2.10,60.003444209952825,"['Right Face', 'Chest', 'Left Leg', 'Right Arm', 'Right Face', 'Abdomen', 'Left Face', 'Right Leg', 'Left Arm', 'Left Arm', 'Left Face', 'Chest', 'Right Arm', 'Abdomen', 'Right Leg', 'Left Leg']",
3,"[0.2, 0.2]",0,,,,,,,,,0,25,25,25,,,,,,,,,,,,,,,,,,,,,,,,,,,None,None,"[0, 0, 0]",615.2803428997286,617.2803338998929,615.2803428997286,616.2803472997621,616.263655200135,617.2636845000088,,,"[0, 0, 0]",0,615.2803428997286,617.2803338998929,,,,,,,,99,M,1,r,CIB,2021_Aug_10_1443,WASABI distractmap,2020.2.10,60.003444209952825,"['Right Face', 'Chest', 'Left Leg', 'Right Arm', 'Right Face', 'Abdomen', 'Left Face', 'Right Leg', 'Left Arm', 'Left Arm', 'Left Face', 'Chest', 'Right Arm', 'Abdomen', 'Right Leg', 'Left Leg']",
9,"[0.2, -0.2]",1,,,,,,,,,0,26,26,26,,,,,,,,,,,,,,,,,,,,,,,,,,,None,None,"[0, 0, 0]",617.2969916998409,619.2970139998943,617.2969916998409,618.2970126001164,618.2803643997759,619.280365999788,,,"[0, 0, 0]",0,617.2969916998409,619.2970139998943,,,,,,,,99,M,1,r,CIB,2021_Aug_10_1443,WASABI distractmap,2020.2.10,60.003444209952825,"['Right Face', 'Chest', 'Left Leg', 'Right Arm', 'Right Face', 'Abdomen', 'Left Face', 'Right Leg', 'Left Arm', 'Left Arm', 'Left Face', 'Chest', 'Right Arm', 'Abdomen', 'Right Leg', 'Left Leg']",
6,"[0.2, 0]",0,,,,,,,,,0,27,27,27,,,,,,,,,,,,,,,,,,,,,,,,,,,None,None,"[0, 0, 0]",619.3135727997869,621.3136917999946,619.3135727997869,620.3136853999458,620.2970215999521,621.2970341998152,,,"[0, 0, 0]",0,619.3135727997869,621.3136917999946,,,,,,,,99,M,1,r,CIB,2021_Aug_10_1443,WASABI distractmap,2020.2.10,60.003444209952825,"['Right Face', 'Chest', 'Left Leg', 'Right Arm', 'Right Face', 'Abdomen', 'Left Face', 'Right Leg', 'Left Arm', 'Left Arm', 'Left Face', 'Chest', 'Right Arm', 'Abdomen', 'Right Leg', 'Left Leg']",
2,"[0, 0.2]",0,,,,,,,,,0,28,28,28,,,,,,,,,,,,,,,,,,,,,,,,,,,None,None,"[0, 0, 0]",621.3303600000218,623.3303996999748,621.3303600000218,622.3304010997526,622.3137105000205,623.3137076999992,,,"[0, 0, 0]",0,621.3303600000218,623.3303996999748,,,,,,,,99,M,1,r,CIB,2021_Aug_10_1443,WASABI distractmap,2020.2.10,60.003444209952825,"['Right Face', 'Chest', 'Left Leg', 'Right Arm', 'Right Face', 'Abdomen', 'Left Face', 'Right Leg', 'Left Arm', 'Left Arm', 'Left Face', 'Chest', 'Right Arm', 'Abdomen', 'Right Leg', 'Left Leg']",
5,"[0, 0]",0,,,,,,,,,0,29,29,29,,,,,,,,,,,,,,,,,,,,,,,,,,,None,None,"[0, 0, 0]",623.3470426998101,625.3470474998467,623.3470426998101,624.3470554999076,624.330395899713,625.3304177001119,,,"[0, 0, 0]",0,623.3470426998101,625.3470474998467,,,,,,,,99,M,1,r,CIB,2021_Aug_10_1443,WASABI distractmap,2020.2.10,60.003444209952825,"['Right Face', 'Chest', 'Left Leg', 'Right Arm', 'Right Face', 'Abdomen', 'Left Face', 'Right Leg', 'Left Arm', 'Left Arm', 'Left Face', 'Chest', 'Right Arm', 'Abdomen', 'Right Leg', 'Left Leg']",
,,,,,,,,,,,,,,,,,,,,,,,,,,,,,,,,,,,,625.3636463000439,None,space,625.3636463000439,None,,,,,,,,,,,,,,,,,,,,,,,99,M,1,r,CIB,2021_Aug_10_1443,WASABI distractmap,2020.2.10,60.003444209952825,"['Right Face', 'Chest', 'Left Leg', 'Right Arm', 'Right Face', 'Abdomen', 'Left Face', 'Right Leg', 'Left Arm', 'Left Arm', 'Left Face', 'Chest', 'Right Arm', 'Abdomen', 'Right Leg', 'Left Leg']",
,,,,,,,,,,,,,,,,,,,,,,,,,,,,,,,,,,,,,,,,,,,,,,,,,,,,,,,,836.8320753998123,836.8320753998123,None,space,6.532232600264251,836.8320753998123,None,,,,,,,,,,,
