square,location,corrAns,runSeq,TaskT1Loop.thisRepN,TaskT1Loop.thisTrialN,TaskT1Loop.thisN,TaskT1Loop.thisIndex,trials.thisRepN,trials.thisTrialN,trials.thisN,trials.thisIndex,trials_2.thisRepN,trials_2.thisTrialN,trials_2.thisN,trials_2.thisIndex,runLoop.thisRepN,runLoop.thisTrialN,runLoop.thisN,runLoop.thisIndex,fixation_1.started,fixation_1.stopped,grid_lines.started,grid_lines.stopped,target_square.started,target_square.stopped,fixation_2.started,fixation_2.stopped,response.corr,response.x,response.y,response.leftButton,response.click_left,response.click_right,response.started,response.stopped,ScoreReportText.started,ScoreReportText.stopped,ScoreReportResponse.keys,ScoreReportResponse.started,ScoreReportResponse.stopped,response_2.x,response_2.y,response_2.leftButton,grid_lines_2.started,grid_lines_2.stopped,target_square_2.started,target_square_2.stopped,fixation_3.started,fixation_3.stopped,response_2.click,response_2.corr,response_2.started,response_2.stopped,BodySiteInstructionText.started,BodySiteImg.started,BodySiteImg.stopped,BodySiteInstructionRead.keys,BodySiteInstructionRead.rt,BodySiteInstructionRead.started,BodySiteInstructionRead.stopped,response.click,IntensityRating.response,IntensityRating.rt,IntensityRating.started,IntensityRating.stopped,response.rt_left,response.rt_right,response_2.rt_left,response_2.rt_right,subject number,gender,session,handedness,scanner,date,expName,psychopyVersion,frameRate,body_site_order,
6,"[0.2, 0]",None,,0,0,0,0,0,0,0,0,,,,,,,,,39.634639099705964,None,40.65050600003451,None,40.65050600003451,41.65134450001642,41.65134450001642,None,1,-0.18888888888888888,0.026851851851851852,"[0, 0, 0]",0,0,40.65050600003451,None,,,,,,,,,,,,,,,,,,,,,,,,,,,,,,,,,,,99,M,1,r,CIB,2021_Aug_10_1459,WASABI distractmap,2020.2.10,59.99718001328324,"['Chest', 'Left Face', 'Abdomen', 'Chest', 'Right Face', 'Right Leg', 'Left Arm', 'Right Face', 'Left Arm', 'Right Leg', 'Right Arm', 'Right Arm', 'Left Leg', 'Left Face', 'Left Leg', 'Abdomen']",
6,"[0.2, 0]",1,,0,0,0,0,0,1,1,1,,,,,,,,,,,42.65132510010153,None,42.65132510010153,43.651350299827754,43.634682399686426,44.634682399686426,1,-0.18888888888888888,0.026851851851851852,"[0, 0, 0]",0,0,42.65132510010153,None,,,,,,,,,,,,,,,,,,,,,,,,,,,,,,,,,,,99,M,1,r,CIB,2021_Aug_10_1459,WASABI distractmap,2020.2.10,59.99718001328324,"['Chest', 'Left Face', 'Abdomen', 'Chest', 'Right Face', 'Right Leg', 'Left Arm', 'Right Face', 'Left Arm', 'Right Leg', 'Right Arm', 'Right Arm', 'Left Leg', 'Left Face', 'Left Leg', 'Abdomen']",
2,"[0, 0.2]",0,,0,0,0,0,0,2,2,2,,,,,,,,,,,44.65135099971667,None,44.65135099971667,45.65135019971058,45.634684399701655,46.63470669975504,1,-0.18888888888888888,0.026851851851851852,"[0, 0, 0]",0,0,44.65135099971667,None,,,,,,,,,,,,,,,,,,,,,,,,,,,,,,,,,,,99,M,1,r,CIB,2021_Aug_10_1459,WASABI distractmap,2020.2.10,59.99718001328324,"['Chest', 'Left Face', 'Abdomen', 'Chest', 'Right Face', 'Right Leg', 'Left Arm', 'Right Face', 'Left Arm', 'Right Leg', 'Right Arm', 'Right Arm', 'Left Leg', 'Left Face', 'Left Leg', 'Abdomen']",
9,"[0.2, -0.2]",0,,0,0,0,0,0,3,3,3,,,,,,,,,,,46.65137859992683,None,46.65137859992683,47.65136889973655,47.634716199710965,48.63467480009422,1,-0.18888888888888888,0.026851851851851852,"[0, 0, 0]",0,0,46.65137859992683,None,,,,,,,,,,,,,,,,,,,,,,,,,,,,,,,,,,,99,M,1,r,CIB,2021_Aug_10_1459,WASABI distractmap,2020.2.10,59.99718001328324,"['Chest', 'Left Face', 'Abdomen', 'Chest', 'Right Face', 'Right Leg', 'Left Arm', 'Right Face', 'Left Arm', 'Right Leg', 'Right Arm', 'Right Arm', 'Left Leg', 'Left Face', 'Left Leg', 'Abdomen']",
9,"[0.2, -0.2]",1,,0,0,0,0,0,4,4,4,,,,,,,,,,,48.6513795000501,None,48.6513795000501,49.65140089998022,49.63473009970039,50.6347298999317,1,-0.18888888888888888,0.026851851851851852,"[0, 0, 0]",0,0,48.6513795000501,None,,,,,,,,,,,,,,,,,,,,,,,,,,,,,,,,,,,99,M,1,r,CIB,2021_Aug_10_1459,WASABI distractmap,2020.2.10,59.99718001328324,"['Chest', 'Left Face', 'Abdomen', 'Chest', 'Right Face', 'Right Leg', 'Left Arm', 'Right Face', 'Left Arm', 'Right Leg', 'Right Arm', 'Right Arm', 'Left Leg', 'Left Face', 'Left Leg', 'Abdomen']",
6,"[0.2, 0]",0,,0,0,0,0,0,5,5,5,,,,,,,,,,,50.65138399973512,None,50.65138399973512,51.65138190006837,51.63474759971723,52.63474499993026,1,-0.18888888888888888,0.026851851851851852,"[0, 0, 0]",0,0,50.65138399973512,None,,,,,,,,,,,,,,,,,,,,,,,,,,,,,,,,,,,99,M,1,r,CIB,2021_Aug_10_1459,WASABI distractmap,2020.2.10,59.99718001328324,"['Chest', 'Left Face', 'Abdomen', 'Chest', 'Right Face', 'Right Leg', 'Left Arm', 'Right Face', 'Left Arm', 'Right Leg', 'Right Arm', 'Right Arm', 'Left Leg', 'Left Face', 'Left Leg', 'Abdomen']",
4,"[-0.2, 0]",0,,0,0,0,0,0,6,6,6,,,,,,,,,,,52.65130699984729,None,52.65130699984729,53.651418999768794,53.63474259991199,54.63475070009008,1,-0.18888888888888888,0.026851851851851852,"[0, 0, 0]",0,0,52.65130699984729,None,,,,,,,,,,,,,,,,,,,,,,,,,,,,,,,,,,,99,M,1,r,CIB,2021_Aug_10_1459,WASABI distractmap,2020.2.10,59.99718001328324,"['Chest', 'Left Face', 'Abdomen', 'Chest', 'Right Face', 'Right Leg', 'Left Arm', 'Right Face', 'Left Arm', 'Right Leg', 'Right Arm', 'Right Arm', 'Left Leg', 'Left Face', 'Left Leg', 'Abdomen']",
3,"[0.2, 0.2]",0,,0,0,0,0,0,7,7,7,,,,,,,,,,,54.65141090005636,None,54.65141090005636,55.65143849980086,55.63476700009778,56.63477539969608,1,-0.18888888888888888,0.026851851851851852,"[0, 0, 0]",0,0,54.65141090005636,None,,,,,,,,,,,,,,,,,,,,,,,,,,,,,,,,,,,99,M,1,r,CIB,2021_Aug_10_1459,WASABI distractmap,2020.2.10,59.99718001328324,"['Chest', 'Left Face', 'Abdomen', 'Chest', 'Right Face', 'Right Leg', 'Left Arm', 'Right Face', 'Left Arm', 'Right Leg', 'Right Arm', 'Right Arm', 'Left Leg', 'Left Face', 'Left Leg', 'Abdomen']",
3,"[0.2, 0.2]",1,,0,0,0,0,0,8,8,8,,,,,,,,,,,56.6514329998754,None,56.6514329998754,57.65148309990764,57.634779799729586,58.63478960003704,1,-0.18888888888888888,0.026851851851851852,"[0, 0, 0]",0,0,56.6514329998754,None,,,,,,,,,,,,,,,,,,,,,,,,,,,,,,,,,,,99,M,1,r,CIB,2021_Aug_10_1459,WASABI distractmap,2020.2.10,59.99718001328324,"['Chest', 'Left Face', 'Abdomen', 'Chest', 'Right Face', 'Right Leg', 'Left Arm', 'Right Face', 'Left Arm', 'Right Leg', 'Right Arm', 'Right Arm', 'Left Leg', 'Left Face', 'Left Leg', 'Abdomen']",
8,"[0, -0.2]",0,,0,0,0,0,0,9,9,9,,,,,,,,,,,58.65146079985425,None,58.65146079985425,59.65145940007642,59.63479829998687,60.6347929998301,1,-0.18888888888888888,0.026851851851851852,"[0, 0, 0]",0,0,58.65146079985425,None,,,,,,,,,,,,,,,,,,,,,,,,,,,,,,,,,,,99,M,1,r,CIB,2021_Aug_10_1459,WASABI distractmap,2020.2.10,59.99718001328324,"['Chest', 'Left Face', 'Abdomen', 'Chest', 'Right Face', 'Right Leg', 'Left Arm', 'Right Face', 'Left Arm', 'Right Leg', 'Right Arm', 'Right Arm', 'Left Leg', 'Left Face', 'Left Leg', 'Abdomen']",
1,"[-0.2, 0.2]",0,,0,0,0,0,0,10,10,10,,,,,,,,,,,60.651488800067455,None,60.651488800067455,61.65148280002177,61.63480550004169,62.634814199991524,1,-0.18888888888888888,0.026851851851851852,"[0, 0, 0]",0,0,60.651488800067455,None,,,,,,,,,,,,,,,,,,,,,,,,,,,,,,,,,,,99,M,1,r,CIB,2021_Aug_10_1459,WASABI distractmap,2020.2.10,59.99718001328324,"['Chest', 'Left Face', 'Abdomen', 'Chest', 'Right Face', 'Right Leg', 'Left Arm', 'Right Face', 'Left Arm', 'Right Leg', 'Right Arm', 'Right Arm', 'Left Leg', 'Left Face', 'Left Leg', 'Abdomen']",
2,"[0, 0.2]",0,,0,0,0,0,0,11,11,11,,,,,,,,,,,62.651493799872696,None,62.651493799872696,63.65148309990764,63.63482919987291,64.63482949975878,1,-0.18888888888888888,0.026851851851851852,"[0, 0, 0]",0,0,62.651493799872696,None,,,,,,,,,,,,,,,,,,,,,,,,,,,,,,,,,,,99,M,1,r,CIB,2021_Aug_10_1459,WASABI distractmap,2020.2.10,59.99718001328324,"['Chest', 'Left Face', 'Abdomen', 'Chest', 'Right Face', 'Right Leg', 'Left Arm', 'Right Face', 'Left Arm', 'Right Leg', 'Right Arm', 'Right Arm', 'Left Leg', 'Left Face', 'Left Leg', 'Abdomen']",
4,"[-0.2, 0]",0,,0,0,0,0,0,12,12,12,,,,,,,,,,,64.65150079969317,None,64.65150079969317,65.65152509976178,65.63483799993992,66.63485289970413,1,-0.18888888888888888,0.026851851851851852,"[0, 0, 0]",0,0,64.65150079969317,None,,,,,,,,,,,,,,,,,,,,,,,,,,,,,,,,,,,99,M,1,r,CIB,2021_Aug_10_1459,WASABI distractmap,2020.2.10,59.99718001328324,"['Chest', 'Left Face', 'Abdomen', 'Chest', 'Right Face', 'Right Leg', 'Left Arm', 'Right Face', 'Left Arm', 'Right Leg', 'Right Arm', 'Right Arm', 'Left Leg', 'Left Face', 'Left Leg', 'Abdomen']",
4,"[-0.2, 0]",1,,0,0,0,0,0,13,13,13,,,,,,,,,,,66.65151409991086,None,66.65151409991086,67.65152159985155,67.63485709996894,68.6348493997939,1,-0.18888888888888888,0.026851851851851852,"[0, 0, 0]",0,0,66.65151409991086,None,,,,,,,,,,,,,,,,,,,,,,,,,,,,,,,,,,,99,M,1,r,CIB,2021_Aug_10_1459,WASABI distractmap,2020.2.10,59.99718001328324,"['Chest', 'Left Face', 'Abdomen', 'Chest', 'Right Face', 'Right Leg', 'Left Arm', 'Right Face', 'Left Arm', 'Right Leg', 'Right Arm', 'Right Arm', 'Left Leg', 'Left Face', 'Left Leg', 'Abdomen']",
8,"[0, -0.2]",0,,0,0,0,0,0,14,14,14,,,,,,,,,,,68.65153719997033,None,68.65153719997033,69.65152629977092,69.63484439998865,70.63487139996141,1,-0.18888888888888888,0.026851851851851852,"[0, 0, 0]",0,0,68.65153719997033,None,,,,,,,,,,,,,,,,,,,,,,,,,,,,,,,,,,,99,M,1,r,CIB,2021_Aug_10_1459,WASABI distractmap,2020.2.10,59.99718001328324,"['Chest', 'Left Face', 'Abdomen', 'Chest', 'Right Face', 'Right Leg', 'Left Arm', 'Right Face', 'Left Arm', 'Right Leg', 'Right Arm', 'Right Arm', 'Left Leg', 'Left Face', 'Left Leg', 'Abdomen']",
5,"[0, 0]",0,,0,0,0,0,0,15,15,15,,,,,,,,,,,70.65153259970248,None,70.65153259970248,71.65154819982126,71.63490219973028,72.63487959979102,1,-0.18888888888888888,0.026851851851851852,"[0, 0, 0]",0,0,70.65153259970248,None,,,,,,,,,,,,,,,,,,,,,,,,,,,,,,,,,,,99,M,1,r,CIB,2021_Aug_10_1459,WASABI distractmap,2020.2.10,59.99718001328324,"['Chest', 'Left Face', 'Abdomen', 'Chest', 'Right Face', 'Right Leg', 'Left Arm', 'Right Face', 'Left Arm', 'Right Leg', 'Right Arm', 'Right Arm', 'Left Leg', 'Left Face', 'Left Leg', 'Abdomen']",
5,"[0, 0]",1,,0,0,0,0,0,16,16,16,,,,,,,,,,,72.65155329974368,None,72.65155329974368,73.65156679973006,73.63488749973476,74.63490739976987,1,-0.18888888888888888,0.026851851851851852,"[0, 0, 0]",0,0,72.65155329974368,None,,,,,,,,,,,,,,,,,,,,,,,,,,,,,,,,,,,99,M,1,r,CIB,2021_Aug_10_1459,WASABI distractmap,2020.2.10,59.99718001328324,"['Chest', 'Left Face', 'Abdomen', 'Chest', 'Right Face', 'Right Leg', 'Left Arm', 'Right Face', 'Left Arm', 'Right Leg', 'Right Arm', 'Right Arm', 'Left Leg', 'Left Face', 'Left Leg', 'Abdomen']",
1,"[-0.2, 0.2]",0,,0,0,0,0,0,17,17,17,,,,,,,,,,,74.65156870009378,None,74.65156870009378,75.65157289989293,75.6349078998901,76.63491509994492,1,-0.18888888888888888,0.026851851851851852,"[0, 0, 0]",0,0,74.65156870009378,None,,,,,,,,,,,,,,,,,,,,,,,,,,,,,,,,,,,99,M,1,r,CIB,2021_Aug_10_1459,WASABI distractmap,2020.2.10,59.99718001328324,"['Chest', 'Left Face', 'Abdomen', 'Chest', 'Right Face', 'Right Leg', 'Left Arm', 'Right Face', 'Left Arm', 'Right Leg', 'Right Arm', 'Right Arm', 'Left Leg', 'Left Face', 'Left Leg', 'Abdomen']",
3,"[0.2, 0.2]",0,,0,0,0,0,0,18,18,18,,,,,,,,,,,76.65159879997373,None,76.65159879997373,77.65160589991137,77.6349212997593,78.63493159972131,1,-0.18888888888888888,0.026851851851851852,"[0, 0, 0]",0,0,76.65159879997373,None,,,,,,,,,,,,,,,,,,,,,,,,,,,,,,,,,,,99,M,1,r,CIB,2021_Aug_10_1459,WASABI distractmap,2020.2.10,59.99718001328324,"['Chest', 'Left Face', 'Abdomen', 'Chest', 'Right Face', 'Right Leg', 'Left Arm', 'Right Face', 'Left Arm', 'Right Leg', 'Right Arm', 'Right Arm', 'Left Leg', 'Left Face', 'Left Leg', 'Abdomen']",
6,"[0.2, 0]",0,,0,0,0,0,0,19,19,19,,,,,,,,,,,78.65157460002229,None,78.65157460002229,79.65159709984437,79.63493539998308,80.6349470000714,1,-0.18888888888888888,0.026851851851851852,"[0, 0, 0]",0,0,78.65157460002229,None,,,,,,,,,,,,,,,,,,,,,,,,,,,,,,,,,,,99,M,1,r,CIB,2021_Aug_10_1459,WASABI distractmap,2020.2.10,59.99718001328324,"['Chest', 'Left Face', 'Abdomen', 'Chest', 'Right Face', 'Right Leg', 'Left Arm', 'Right Face', 'Left Arm', 'Right Leg', 'Right Arm', 'Right Arm', 'Left Leg', 'Left Face', 'Left Leg', 'Abdomen']",
1,"[-0.2, 0.2]",0,,0,0,0,0,0,20,20,20,,,,,,,,,,,80.65160720003769,None,80.65160720003769,81.65161349996924,81.6349478000775,82.63495749980211,1,-0.18888888888888888,0.026851851851851852,"[0, 0, 0]",0,0,80.65160720003769,None,,,,,,,,,,,,,,,,,,,,,,,,,,,,,,,,,,,99,M,1,r,CIB,2021_Aug_10_1459,WASABI distractmap,2020.2.10,59.99718001328324,"['Chest', 'Left Face', 'Abdomen', 'Chest', 'Right Face', 'Right Leg', 'Left Arm', 'Right Face', 'Left Arm', 'Right Leg', 'Right Arm', 'Right Arm', 'Left Leg', 'Left Face', 'Left Leg', 'Abdomen']",
1,"[-0.2, 0.2]",1,,0,0,0,0,0,21,21,21,,,,,,,,,,,82.65160309989005,None,82.65160309989005,83.65162759972736,83.63498830003664,84.63497189991176,1,-0.18888888888888888,0.026851851851851852,"[0, 0, 0]",0,0,82.65160309989005,None,,,,,,,,,,,,,,,,,,,,,,,,,,,,,,,,,,,99,M,1,r,CIB,2021_Aug_10_1459,WASABI distractmap,2020.2.10,59.99718001328324,"['Chest', 'Left Face', 'Abdomen', 'Chest', 'Right Face', 'Right Leg', 'Left Arm', 'Right Face', 'Left Arm', 'Right Leg', 'Right Arm', 'Right Arm', 'Left Leg', 'Left Face', 'Left Leg', 'Abdomen']",
1,"[-0.2, 0.2]",1,,0,0,0,0,0,22,22,22,,,,,,,,,,,84.65163009986281,None,84.65163009986281,85.6516412999481,85.63497969973832,86.63498139986768,1,-0.18888888888888888,0.026851851851851852,"[0, 0, 0]",0,0,84.65163009986281,None,,,,,,,,,,,,,,,,,,,,,,,,,,,,,,,,,,,99,M,1,r,CIB,2021_Aug_10_1459,WASABI distractmap,2020.2.10,59.99718001328324,"['Chest', 'Left Face', 'Abdomen', 'Chest', 'Right Face', 'Right Leg', 'Left Arm', 'Right Face', 'Left Arm', 'Right Leg', 'Right Arm', 'Right Arm', 'Left Leg', 'Left Face', 'Left Leg', 'Abdomen']",
3,"[0.2, 0.2]",0,,0,0,0,0,0,23,23,23,,,,,,,,,,,86.65165170002729,None,86.65165170002729,87.65165610006079,87.63500580005348,88.63500180002302,1,-0.18888888888888888,0.026851851851851852,"[0, 0, 0]",0,0,86.65165170002729,None,,,,,,,,,,,,,,,,,,,,,,,,,,,,,,,,,,,99,M,1,r,CIB,2021_Aug_10_1459,WASABI distractmap,2020.2.10,59.99718001328324,"['Chest', 'Left Face', 'Abdomen', 'Chest', 'Right Face', 'Right Leg', 'Left Arm', 'Right Face', 'Left Arm', 'Right Leg', 'Right Arm', 'Right Arm', 'Left Leg', 'Left Face', 'Left Leg', 'Abdomen']",
2,"[0, 0.2]",0,,0,0,0,0,0,24,24,24,,,,,,,,,,,88.65165549982339,None,88.65165549982339,89.65161099983379,89.63498259987682,90.63501199986786,1,-0.18888888888888888,0.026851851851851852,"[0, 0, 0]",0,0,88.65165549982339,None,,,,,,,,,,,,,,,,,,,,,,,,,,,,,,,,,,,99,M,1,r,CIB,2021_Aug_10_1459,WASABI distractmap,2020.2.10,59.99718001328324,"['Chest', 'Left Face', 'Abdomen', 'Chest', 'Right Face', 'Right Leg', 'Left Arm', 'Right Face', 'Left Arm', 'Right Leg', 'Right Arm', 'Right Arm', 'Left Leg', 'Left Face', 'Left Leg', 'Abdomen']",
1,"[-0.2, 0.2]",0,,0,0,0,0,0,25,25,25,,,,,,,,,,,90.65167339984328,None,90.65167339984328,91.65168159967288,91.63502119993791,92.6350213997066,1,-0.18888888888888888,0.026851851851851852,"[0, 0, 0]",0,0,90.65167339984328,None,,,,,,,,,,,,,,,,,,,,,,,,,,,,,,,,,,,99,M,1,r,CIB,2021_Aug_10_1459,WASABI distractmap,2020.2.10,59.99718001328324,"['Chest', 'Left Face', 'Abdomen', 'Chest', 'Right Face', 'Right Leg', 'Left Arm', 'Right Face', 'Left Arm', 'Right Leg', 'Right Arm', 'Right Arm', 'Left Leg', 'Left Face', 'Left Leg', 'Abdomen']",
7,"[-0.2, -0.2]",0,,0,0,0,0,0,26,26,26,,,,,,,,,,,92.6516946000047,None,92.6516946000047,93.65169110009447,93.63504299987108,94.63504240009934,1,-0.18888888888888888,0.026851851851851852,"[0, 0, 0]",0,0,92.6516946000047,None,,,,,,,,,,,,,,,,,,,,,,,,,,,,,,,,,,,99,M,1,r,CIB,2021_Aug_10_1459,WASABI distractmap,2020.2.10,59.99718001328324,"['Chest', 'Left Face', 'Abdomen', 'Chest', 'Right Face', 'Right Leg', 'Left Arm', 'Right Face', 'Left Arm', 'Right Leg', 'Right Arm', 'Right Arm', 'Left Leg', 'Left Face', 'Left Leg', 'Abdomen']",
7,"[-0.2, -0.2]",1,,0,0,0,0,0,27,27,27,,,,,,,,,,,94.65171490004286,None,94.65171490004286,95.65171770006418,95.63504849979654,96.63505150005221,1,-0.18888888888888888,0.026851851851851852,"[0, 0, 0]",0,0,94.65171490004286,None,,,,,,,,,,,,,,,,,,,,,,,,,,,,,,,,,,,99,M,1,r,CIB,2021_Aug_10_1459,WASABI distractmap,2020.2.10,59.99718001328324,"['Chest', 'Left Face', 'Abdomen', 'Chest', 'Right Face', 'Right Leg', 'Left Arm', 'Right Face', 'Left Arm', 'Right Leg', 'Right Arm', 'Right Arm', 'Left Leg', 'Left Face', 'Left Leg', 'Abdomen']",
2,"[0, 0.2]",0,,0,0,0,0,0,28,28,28,,,,,,,,,,,96.65171389980242,None,96.65171389980242,97.65171899972484,97.63506620004773,98.63507359987125,1,-0.18888888888888888,0.026851851851851852,"[0, 0, 0]",0,0,96.65171389980242,None,,,,,,,,,,,,,,,,,,,,,,,,,,,,,,,,,,,99,M,1,r,CIB,2021_Aug_10_1459,WASABI distractmap,2020.2.10,59.99718001328324,"['Chest', 'Left Face', 'Abdomen', 'Chest', 'Right Face', 'Right Leg', 'Left Arm', 'Right Face', 'Left Arm', 'Right Leg', 'Right Arm', 'Right Arm', 'Left Leg', 'Left Face', 'Left Leg', 'Abdomen']",
6,"[0.2, 0]",0,,0,0,0,0,0,29,29,29,,,,,,,,,,,98.65173809975386,None,98.65173809975386,99.65173539984971,99.63508299971,100.63508579973131,1,-0.18888888888888888,0.026851851851851852,"[0, 0, 0]",0,0,98.65173809975386,None,,,,,,,,,,,,,,,,,,,,,,,,,,,,,,,,,,,99,M,1,r,CIB,2021_Aug_10_1459,WASABI distractmap,2020.2.10,59.99718001328324,"['Chest', 'Left Face', 'Abdomen', 'Chest', 'Right Face', 'Right Leg', 'Left Arm', 'Right Face', 'Left Arm', 'Right Leg', 'Right Arm', 'Right Arm', 'Left Leg', 'Left Face', 'Left Leg', 'Abdomen']",
,,,,0,0,0,0,,,,,,,,,,,,,,,,,,,,,,,,,,,,,100.68509970000014,None,space,100.68509970000014,None,,,,,,,,,,,,,,,,,,,,,,,,,,,,,,99,M,1,r,CIB,2021_Aug_10_1459,WASABI distractmap,2020.2.10,59.99718001328324,"['Chest', 'Left Face', 'Abdomen', 'Chest', 'Right Face', 'Right Leg', 'Left Arm', 'Right Face', 'Left Arm', 'Right Leg', 'Right Arm', 'Right Arm', 'Left Leg', 'Left Face', 'Left Leg', 'Abdomen']",
6,"[0.2, 0]",None,,,,,,,,,,0,0,0,0,,,,,123.20190740004182,None,,,,,,,,,,,,,,,,,,,,None,None,"[0, 0, 0]",124.21861239988357,None,124.21861239988357,125.21859359974042,125.20191599987447,126.20193039998412,"[0, 0, 0]",1,124.21861239988357,None,,,,,,,,,,,,,,,,,99,M,1,r,CIB,2021_Aug_10_1459,WASABI distractmap,2020.2.10,59.99718001328324,"['Chest', 'Left Face', 'Abdomen', 'Chest', 'Right Face', 'Right Leg', 'Left Arm', 'Right Face', 'Left Arm', 'Right Leg', 'Right Arm', 'Right Arm', 'Left Leg', 'Left Face', 'Left Leg', 'Abdomen']",
7,"[-0.2, -0.2]",None,,,,,,,,,,0,1,1,1,,,,,,,,,,,,,,,,,,,,,,,,,,None,None,"[0, 0, 0]",126.2186076999642,128.21859740000218,126.2186076999642,127.2186070997268,127.201940999832,128.20195639971644,"[0, 0, 0]",1,126.2186076999642,128.21859740000218,,,,,,,,,,,,,,,,,99,M,1,r,CIB,2021_Aug_10_1459,WASABI distractmap,2020.2.10,59.99718001328324,"['Chest', 'Left Face', 'Abdomen', 'Chest', 'Right Face', 'Right Leg', 'Left Arm', 'Right Face', 'Left Arm', 'Right Leg', 'Right Arm', 'Right Arm', 'Left Leg', 'Left Face', 'Left Leg', 'Abdomen']",
6,"[0.2, 0]",1,,,,,,,,,,0,2,2,2,,,,,,,,,,,,,,,,,,,,,,,,,,None,None,"[0, 0, 0]",128.2352781998925,130.2352974996902,128.2352781998925,129.23528209980577,129.21861770004034,130.21861869981512,"[0, 0, 0]",1,128.2352781998925,130.2352974996902,,,,,,,,,,,,,,,,,99,M,1,r,CIB,2021_Aug_10_1459,WASABI distractmap,2020.2.10,59.99718001328324,"['Chest', 'Left Face', 'Abdomen', 'Chest', 'Right Face', 'Right Leg', 'Left Arm', 'Right Face', 'Left Arm', 'Right Leg', 'Right Arm', 'Right Arm', 'Left Leg', 'Left Face', 'Left Leg', 'Abdomen']",
2,"[0, 0.2]",0,,,,,,,,,,0,3,3,3,,,,,,,,,,,,,,,,,,,,,,,,,,None,None,"[0, 0, 0]",130.25195399997756,132.2519706999883,130.25195399997756,131.25196600006893,131.23529399977997,132.23529700003564,"[0, 0, 0]",1,130.25195399997756,132.2519706999883,,,,,,,,,,,,,,,,,99,M,1,r,CIB,2021_Aug_10_1459,WASABI distractmap,2020.2.10,59.99718001328324,"['Chest', 'Left Face', 'Abdomen', 'Chest', 'Right Face', 'Right Leg', 'Left Arm', 'Right Face', 'Left Arm', 'Right Leg', 'Right Arm', 'Right Arm', 'Left Leg', 'Left Face', 'Left Leg', 'Abdomen']",
5,"[0, 0]",0,,,,,,,,,,0,4,4,4,,,,,,,,,,,,,,,,,,,,,,,,,,None,None,"[0, 0, 0]",132.26863069972023,134.26865360001102,132.26863069972023,133.2686538998969,133.25197539990768,134.25200020009652,"[0, 0, 0]",1,132.26863069972023,134.26865360001102,,,,,,,,,,,,,,,,,99,M,1,r,CIB,2021_Aug_10_1459,WASABI distractmap,2020.2.10,59.99718001328324,"['Chest', 'Left Face', 'Abdomen', 'Chest', 'Right Face', 'Right Leg', 'Left Arm', 'Right Face', 'Left Arm', 'Right Leg', 'Right Arm', 'Right Arm', 'Left Leg', 'Left Face', 'Left Leg', 'Abdomen']",
4,"[-0.2, 0]",0,,,,,,,,,,0,5,5,5,,,,,,,,,,,,,,,,,,,,,,,,,,None,None,"[0, 0, 0]",134.2853383999318,136.28533330000937,134.2853383999318,135.28532709972933,135.2686664001085,136.2686672997661,"[0, 0, 0]",1,134.2853383999318,136.28533330000937,,,,,,,,,,,,,,,,,99,M,1,r,CIB,2021_Aug_10_1459,WASABI distractmap,2020.2.10,59.99718001328324,"['Chest', 'Left Face', 'Abdomen', 'Chest', 'Right Face', 'Right Leg', 'Left Arm', 'Right Face', 'Left Arm', 'Right Leg', 'Right Arm', 'Right Arm', 'Left Leg', 'Left Face', 'Left Leg', 'Abdomen']",
4,"[-0.2, 0]",0,,,,,,,,,,0,6,6,6,,,,,,,,,,,,,,,,,,,,,,,,,,None,None,"[0, 0, 0]",136.30200839973986,138.30202700011432,136.30200839973986,137.30201439978555,137.28534899977967,138.2853620001115,"[0, 0, 0]",1,136.30200839973986,138.30202700011432,,,,,,,,,,,,,,,,,99,M,1,r,CIB,2021_Aug_10_1459,WASABI distractmap,2020.2.10,59.99718001328324,"['Chest', 'Left Face', 'Abdomen', 'Chest', 'Right Face', 'Right Leg', 'Left Arm', 'Right Face', 'Left Arm', 'Right Leg', 'Right Arm', 'Right Arm', 'Left Leg', 'Left Face', 'Left Leg', 'Abdomen']",
7,"[-0.2, -0.2]",0,,,,,,,,,,0,7,7,7,,,,,,,,,,,,,,,,,,,,,,,,,,None,None,"[0, 0, 0]",138.31866139965132,140.3187067997642,138.31866139965132,139.31867349985987,139.30203419970348,140.30205959966406,"[0, 0, 0]",1,138.31866139965132,140.3187067997642,,,,,,,,,,,,,,,,,99,M,1,r,CIB,2021_Aug_10_1459,WASABI distractmap,2020.2.10,59.99718001328324,"['Chest', 'Left Face', 'Abdomen', 'Chest', 'Right Face', 'Right Leg', 'Left Arm', 'Right Face', 'Left Arm', 'Right Leg', 'Right Arm', 'Right Arm', 'Left Leg', 'Left Face', 'Left Leg', 'Abdomen']",
4,"[-0.2, 0]",1,,,,,,,,,,0,8,8,8,,,,,,,,,,,,,,,,,,,,,,,,,,None,None,"[0, 0, 0]",140.335361499805,142.3353844000958,140.335361499805,141.33537739980966,141.31871300004423,142.318705199752,"[0, 0, 0]",1,140.335361499805,142.3353844000958,,,,,,,,,,,,,,,,,99,M,1,r,CIB,2021_Aug_10_1459,WASABI distractmap,2020.2.10,59.99718001328324,"['Chest', 'Left Face', 'Abdomen', 'Chest', 'Right Face', 'Right Leg', 'Left Arm', 'Right Face', 'Left Arm', 'Right Leg', 'Right Arm', 'Right Arm', 'Left Leg', 'Left Face', 'Left Leg', 'Abdomen']",
3,"[0.2, 0.2]",0,,,,,,,,,,0,9,9,9,,,,,,,,,,,,,,,,,,,,,,,,,,None,None,"[0, 0, 0]",142.35205060010776,144.3520585000515,142.35205060010776,143.352045299951,143.33531529968604,144.33538919966668,"[0, 0, 0]",1,142.35205060010776,144.3520585000515,,,,,,,,,,,,,,,,,99,M,1,r,CIB,2021_Aug_10_1459,WASABI distractmap,2020.2.10,59.99718001328324,"['Chest', 'Left Face', 'Abdomen', 'Chest', 'Right Face', 'Right Leg', 'Left Arm', 'Right Face', 'Left Arm', 'Right Leg', 'Right Arm', 'Right Arm', 'Left Leg', 'Left Face', 'Left Leg', 'Abdomen']",
5,"[0, 0]",0,,,,,,,,,,0,10,10,10,,,,,,,,,,,,,,,,,,,,,,,,,,None,None,"[0, 0, 0]",144.36871160008013,146.3687273999676,144.36871160008013,145.368735099677,145.3520637000911,146.35206849966198,"[0, 0, 0]",1,144.36871160008013,146.3687273999676,,,,,,,,,,,,,,,,,99,M,1,r,CIB,2021_Aug_10_1459,WASABI distractmap,2020.2.10,59.99718001328324,"['Chest', 'Left Face', 'Abdomen', 'Chest', 'Right Face', 'Right Leg', 'Left Arm', 'Right Face', 'Left Arm', 'Right Leg', 'Right Arm', 'Right Arm', 'Left Leg', 'Left Face', 'Left Leg', 'Abdomen']",
3,"[0.2, 0.2]",1,,,,,,,,,,0,11,11,11,,,,,,,,,,,,,,,,,,,,,,,,,,None,None,"[0, 0, 0]",146.38541149999946,148.38541539991274,146.38541149999946,147.3854082999751,147.36874359985813,148.36876360001042,"[0, 0, 0]",1,146.38541149999946,148.38541539991274,,,,,,,,,,,,,,,,,99,M,1,r,CIB,2021_Aug_10_1459,WASABI distractmap,2020.2.10,59.99718001328324,"['Chest', 'Left Face', 'Abdomen', 'Chest', 'Right Face', 'Right Leg', 'Left Arm', 'Right Face', 'Left Arm', 'Right Leg', 'Right Arm', 'Right Arm', 'Left Leg', 'Left Face', 'Left Leg', 'Abdomen']",
1,"[-0.2, 0.2]",0,,,,,,,,,,0,12,12,12,,,,,,,,,,,,,,,,,,,,,,,,,,None,None,"[0, 0, 0]",148.40208949986845,150.4021008000709,148.40208949986845,149.40210589999333,149.38551179971546,150.3854557997547,"[0, 0, 0]",1,148.40208949986845,150.4021008000709,,,,,,,,,,,,,,,,,99,M,1,r,CIB,2021_Aug_10_1459,WASABI distractmap,2020.2.10,59.99718001328324,"['Chest', 'Left Face', 'Abdomen', 'Chest', 'Right Face', 'Right Leg', 'Left Arm', 'Right Face', 'Left Arm', 'Right Leg', 'Right Arm', 'Right Arm', 'Left Leg', 'Left Face', 'Left Leg', 'Abdomen']",
9,"[0.2, -0.2]",0,,,,,,,,,,0,13,13,13,,,,,,,,,,,,,,,,,,,,,,,,,,None,None,"[0, 0, 0]",150.41877119988203,152.41876529995352,150.41877119988203,151.41876679984853,151.4021121999249,152.40216819988564,"[0, 0, 0]",1,150.41877119988203,152.41876529995352,,,,,,,,,,,,,,,,,99,M,1,r,CIB,2021_Aug_10_1459,WASABI distractmap,2020.2.10,59.99718001328324,"['Chest', 'Left Face', 'Abdomen', 'Chest', 'Right Face', 'Right Leg', 'Left Arm', 'Right Face', 'Left Arm', 'Right Leg', 'Right Arm', 'Right Arm', 'Left Leg', 'Left Face', 'Left Leg', 'Abdomen']",
9,"[0.2, -0.2]",0,,,,,,,,,,0,14,14,14,,,,,,,,,,,,,,,,,,,,,,,,,,None,None,"[0, 0, 0]",152.4354523997754,154.4354669000022,152.4354523997754,153.4354685996659,153.41878739977255,154.41880399966612,"[0, 0, 0]",1,152.4354523997754,154.4354669000022,,,,,,,,,,,,,,,,,99,M,1,r,CIB,2021_Aug_10_1459,WASABI distractmap,2020.2.10,59.99718001328324,"['Chest', 'Left Face', 'Abdomen', 'Chest', 'Right Face', 'Right Leg', 'Left Arm', 'Right Face', 'Left Arm', 'Right Leg', 'Right Arm', 'Right Arm', 'Left Leg', 'Left Face', 'Left Leg', 'Abdomen']",
8,"[0, -0.2]",0,,,,,,,,,,0,15,15,15,,,,,,,,,,,,,,,,,,,,,,,,,,None,None,"[0, 0, 0]",154.45214209984988,156.45215149968863,154.45214209984988,155.4521351000294,155.4354677000083,156.4354795999825,"[0, 0, 0]",1,154.45214209984988,156.45215149968863,,,,,,,,,,,,,,,,,99,M,1,r,CIB,2021_Aug_10_1459,WASABI distractmap,2020.2.10,59.99718001328324,"['Chest', 'Left Face', 'Abdomen', 'Chest', 'Right Face', 'Right Leg', 'Left Arm', 'Right Face', 'Left Arm', 'Right Leg', 'Right Arm', 'Right Arm', 'Left Leg', 'Left Face', 'Left Leg', 'Abdomen']",
6,"[0.2, 0]",0,,,,,,,,,,0,16,16,16,,,,,,,,,,,,,,,,,,,,,,,,,,None,None,"[0, 0, 0]",156.4687967998907,158.4688295996748,156.4687967998907,157.46881920006126,157.452154699713,158.45214089984074,"[0, 0, 0]",1,156.4687967998907,158.4688295996748,,,,,,,,,,,,,,,,,99,M,1,r,CIB,2021_Aug_10_1459,WASABI distractmap,2020.2.10,59.99718001328324,"['Chest', 'Left Face', 'Abdomen', 'Chest', 'Right Face', 'Right Leg', 'Left Arm', 'Right Face', 'Left Arm', 'Right Leg', 'Right Arm', 'Right Arm', 'Left Leg', 'Left Face', 'Left Leg', 'Abdomen']",
3,"[0.2, 0.2]",0,,,,,,,,,,0,17,17,17,,,,,,,,,,,,,,,,,,,,,,,,,,None,None,"[0, 0, 0]",158.48537789983675,160.48550859978423,158.48537789983675,159.48549690004438,159.46882280008867,160.46884089987725,"[0, 0, 0]",1,158.48537789983675,160.48550859978423,,,,,,,,,,,,,,,,,99,M,1,r,CIB,2021_Aug_10_1459,WASABI distractmap,2020.2.10,59.99718001328324,"['Chest', 'Left Face', 'Abdomen', 'Chest', 'Right Face', 'Right Leg', 'Left Arm', 'Right Face', 'Left Arm', 'Right Leg', 'Right Arm', 'Right Arm', 'Left Leg', 'Left Face', 'Left Leg', 'Abdomen']",
6,"[0.2, 0]",1,,,,,,,,,,0,18,18,18,,,,,,,,,,,,,,,,,,,,,,,,,,None,None,"[0, 0, 0]",160.5021710996516,162.5021901000291,160.5021710996516,161.5021806000732,161.48551889974624,162.4855213998817,"[0, 0, 0]",1,160.5021710996516,162.5021901000291,,,,,,,,,,,,,,,,,99,M,1,r,CIB,2021_Aug_10_1459,WASABI distractmap,2020.2.10,59.99718001328324,"['Chest', 'Left Face', 'Abdomen', 'Chest', 'Right Face', 'Right Leg', 'Left Arm', 'Right Face', 'Left Arm', 'Right Leg', 'Right Arm', 'Right Arm', 'Left Leg', 'Left Face', 'Left Leg', 'Abdomen']",
5,"[0, 0]",0,,,,,,,,,,0,19,19,19,,,,,,,,,,,,,,,,,,,,,,,,,,None,None,"[0, 0, 0]",162.5188486999832,164.51886119972914,162.5188486999832,163.5188694000244,163.5022005001083,164.5022072000429,"[0, 0, 0]",1,162.5188486999832,164.51886119972914,,,,,,,,,,,,,,,,,99,M,1,r,CIB,2021_Aug_10_1459,WASABI distractmap,2020.2.10,59.99718001328324,"['Chest', 'Left Face', 'Abdomen', 'Chest', 'Right Face', 'Right Leg', 'Left Arm', 'Right Face', 'Left Arm', 'Right Leg', 'Right Arm', 'Right Arm', 'Left Leg', 'Left Face', 'Left Leg', 'Abdomen']",
7,"[-0.2, -0.2]",0,,,,,,,,,,0,20,20,20,,,,,,,,,,,,,,,,,,,,,,,,,,None,None,"[0, 0, 0]",164.5355384000577,166.53557309973985,164.5355384000577,165.53555999975652,165.51888610003516,166.5188783998601,"[0, 0, 0]",1,164.5355384000577,166.53557309973985,,,,,,,,,,,,,,,,,99,M,1,r,CIB,2021_Aug_10_1459,WASABI distractmap,2020.2.10,59.99718001328324,"['Chest', 'Left Face', 'Abdomen', 'Chest', 'Right Face', 'Right Leg', 'Left Arm', 'Right Face', 'Left Arm', 'Right Leg', 'Right Arm', 'Right Arm', 'Left Leg', 'Left Face', 'Left Leg', 'Abdomen']",
5,"[0, 0]",1,,,,,,,,,,0,21,21,21,,,,,,,,,,,,,,,,,,,,,,,,,,None,None,"[0, 0, 0]",166.55220500007272,168.5522209997289,166.55220500007272,167.55221669981256,167.5355614,168.53558549983427,"[0, 0, 0]",0,166.55220500007272,168.5522209997289,,,,,,,,,,,,,,,,,99,M,1,r,CIB,2021_Aug_10_1459,WASABI distractmap,2020.2.10,59.99718001328324,"['Chest', 'Left Face', 'Abdomen', 'Chest', 'Right Face', 'Right Leg', 'Left Arm', 'Right Face', 'Left Arm', 'Right Leg', 'Right Arm', 'Right Arm', 'Left Leg', 'Left Face', 'Left Leg', 'Abdomen']",
1,"[-0.2, 0.2]",0,,,,,,,,,,0,22,22,22,,,,,,,,,,,,,,,,,,,,,,,,,,None,None,"[0, 0, 0]",168.568905999884,170.56889159977436,168.568905999884,169.56892429990694,169.5522310999222,170.5522384000942,"[0, 0, 0]",1,168.568905999884,170.56889159977436,,,,,,,,,,,,,,,,,99,M,1,r,CIB,2021_Aug_10_1459,WASABI distractmap,2020.2.10,59.99718001328324,"['Chest', 'Left Face', 'Abdomen', 'Chest', 'Right Face', 'Right Leg', 'Left Arm', 'Right Face', 'Left Arm', 'Right Leg', 'Right Arm', 'Right Arm', 'Left Leg', 'Left Face', 'Left Leg', 'Abdomen']",
7,"[-0.2, -0.2]",0,,,,,,,,,,0,23,23,23,,,,,,,,,,,,,,,,,,,,,,,,,,None,None,"[0, 0, 0]",170.58558909967542,172.58559199981391,170.58558909967542,171.58559519983828,171.56892560003325,172.56893899990246,"[0, 0, 0]",1,170.58558909967542,172.58559199981391,,,,,,,,,,,,,,,,,99,M,1,r,CIB,2021_Aug_10_1459,WASABI distractmap,2020.2.10,59.99718001328324,"['Chest', 'Left Face', 'Abdomen', 'Chest', 'Right Face', 'Right Leg', 'Left Arm', 'Right Face', 'Left Arm', 'Right Leg', 'Right Arm', 'Right Arm', 'Left Leg', 'Left Face', 'Left Leg', 'Abdomen']",
9,"[0.2, -0.2]",0,,,,,,,,,,0,24,24,24,,,,,,,,,,,,,,,,,,,,,,,,,,None,None,"[0, 0, 0]",172.60226969979703,174.60227169981226,172.60226969979703,173.6022632997483,173.58559199981391,174.58560379967093,"[0, 0, 0]",0,172.60226969979703,174.60227169981226,,,,,,,,,,,,,,,,,99,M,1,r,CIB,2021_Aug_10_1459,WASABI distractmap,2020.2.10,59.99718001328324,"['Chest', 'Left Face', 'Abdomen', 'Chest', 'Right Face', 'Right Leg', 'Left Arm', 'Right Face', 'Left Arm', 'Right Leg', 'Right Arm', 'Right Arm', 'Left Leg', 'Left Face', 'Left Leg', 'Abdomen']",
3,"[0.2, 0.2]",0,,,,,,,,,,0,25,25,25,,,,,,,,,,,,,,,,,,,,,,,,,,None,None,"[0, 0, 0]",174.61892959987745,176.6189604997635,174.61892959987745,175.61893869983032,175.60228809993714,176.60229029972106,"[0, 0, 0]",1,174.61892959987745,176.6189604997635,,,,,,,,,,,,,,,,,99,M,1,r,CIB,2021_Aug_10_1459,WASABI distractmap,2020.2.10,59.99718001328324,"['Chest', 'Left Face', 'Abdomen', 'Chest', 'Right Face', 'Right Leg', 'Left Arm', 'Right Face', 'Left Arm', 'Right Leg', 'Right Arm', 'Right Arm', 'Left Leg', 'Left Face', 'Left Leg', 'Abdomen']",
9,"[0.2, -0.2]",1,,,,,,,,,,0,26,26,26,,,,,,,,,,,,,,,,,,,,,,,,,,None,None,"[0, 0, 0]",176.63563159992918,178.63561420002952,176.63563159992918,177.6356232999824,177.61895909998566,178.618964899797,"[0, 0, 0]",1,176.63563159992918,178.63561420002952,,,,,,,,,,,,,,,,,99,M,1,r,CIB,2021_Aug_10_1459,WASABI distractmap,2020.2.10,59.99718001328324,"['Chest', 'Left Face', 'Abdomen', 'Chest', 'Right Face', 'Right Leg', 'Left Arm', 'Right Face', 'Left Arm', 'Right Leg', 'Right Arm', 'Right Arm', 'Left Leg', 'Left Face', 'Left Leg', 'Abdomen']",
6,"[0.2, 0]",0,,,,,,,,,,0,27,27,27,,,,,,,,,,,,,,,,,,,,,,,,,,None,None,"[0, 0, 0]",178.65229779994115,180.6523122000508,178.65229779994115,179.65231189969927,179.63564200000837,180.6356506999582,"[0, 0, 0]",1,178.65229779994115,180.6523122000508,,,,,,,,,,,,,,,,,99,M,1,r,CIB,2021_Aug_10_1459,WASABI distractmap,2020.2.10,59.99718001328324,"['Chest', 'Left Face', 'Abdomen', 'Chest', 'Right Face', 'Right Leg', 'Left Arm', 'Right Face', 'Left Arm', 'Right Leg', 'Right Arm', 'Right Arm', 'Left Leg', 'Left Face', 'Left Leg', 'Abdomen']",
2,"[0, 0.2]",0,,,,,,,,,,0,28,28,28,,,,,,,,,,,,,,,,,,,,,,,,,,None,None,"[0, 0, 0]",180.66899219993502,182.66900169989094,180.66899219993502,181.66898999968544,181.65232079988346,182.65232589980587,"[0, 0, 0]",1,180.66899219993502,182.66900169989094,,,,,,,,,,,,,,,,,99,M,1,r,CIB,2021_Aug_10_1459,WASABI distractmap,2020.2.10,59.99718001328324,"['Chest', 'Left Face', 'Abdomen', 'Chest', 'Right Face', 'Right Leg', 'Left Arm', 'Right Face', 'Left Arm', 'Right Leg', 'Right Arm', 'Right Arm', 'Left Leg', 'Left Face', 'Left Leg', 'Abdomen']",
5,"[0, 0]",0,,,,,,,,,,0,29,29,29,,,,,,,,,,,,,,,,,,,,,,,,,,None,None,"[0, 0, 0]",182.6856611999683,184.68569179996848,182.6856611999683,183.685677499976,183.669013899751,184.6690169996582,"[0, 0, 0]",1,182.6856611999683,184.68569179996848,,,,,,,,,,,,,,,,,99,M,1,r,CIB,2021_Aug_10_1459,WASABI distractmap,2020.2.10,59.99718001328324,"['Chest', 'Left Face', 'Abdomen', 'Chest', 'Right Face', 'Right Leg', 'Left Arm', 'Right Face', 'Left Arm', 'Right Leg', 'Right Arm', 'Right Arm', 'Left Leg', 'Left Face', 'Left Leg', 'Abdomen']",
,,,,,,,,,,,,,,,,,,,,,,,,,,,,,,,,,,,,184.71902279974893,None,space,184.71902279974893,None,,,,,,,,,,,,,,,,,,,,,,,,,,,,,,99,M,1,r,CIB,2021_Aug_10_1459,WASABI distractmap,2020.2.10,59.99718001328324,"['Chest', 'Left Face', 'Abdomen', 'Chest', 'Right Face', 'Right Leg', 'Left Arm', 'Right Face', 'Left Arm', 'Right Leg', 'Right Arm', 'Right Arm', 'Left Leg', 'Left Face', 'Left Leg', 'Abdomen']",
4,"[-0.2, 0]",None,stimuli/orders/stimOrder1.xlsx,,,,,0,0,0,0,,,,,0,0,0,0,208.08639109972864,None,209.76957509992644,None,209.76957509992644,210.76919959997758,210.752557199914,None,1,None,None,"[0, 0, 0]",,,209.76957509992644,None,,,,,,,,,,,,,,,,,,,192.41935479966924,192.41935479966924,None,space,6.709335800260305,192.41935479966924,None,"[0, 0, 0]",,,,,,,,,99,M,1,r,CIB,2021_Aug_10_1459,WASABI distractmap,2020.2.10,59.99718001328324,"['Chest', 'Left Face', 'Abdomen', 'Chest', 'Right Face', 'Right Leg', 'Left Arm', 'Right Face', 'Left Arm', 'Right Leg', 'Right Arm', 'Right Arm', 'Left Leg', 'Left Face', 'Left Leg', 'Abdomen']",
7,"[-0.2, -0.2]",0,stimuli/orders/stimOrder1.xlsx,,,,,0,1,1,1,,,,,0,0,0,0,,,211.10254290001467,None,211.10254290001467,212.1025597997941,212.08587830001488,213.0858960999176,1,None,None,"[0, 0, 0]",,,211.10254290001467,None,,,,,,,,,,,,,,,,,,,,,,,,,,"[0, 0, 0]",,,,,,,,,99,M,1,r,CIB,2021_Aug_10_1459,WASABI distractmap,2020.2.10,59.99718001328324,"['Chest', 'Left Face', 'Abdomen', 'Chest', 'Right Face', 'Right Leg', 'Left Arm', 'Right Face', 'Left Arm', 'Right Leg', 'Right Arm', 'Right Arm', 'Left Leg', 'Left Face', 'Left Leg', 'Abdomen']",
7,"[-0.2, -0.2]",1,stimuli/orders/stimOrder1.xlsx,,,,,0,2,2,2,,,,,0,0,0,0,,,213.1025507999584,213.1025507999584,213.1025507999584,214.10259359981865,214.08590289996937,215.08590989978984,0,None,None,"[0, 0, 0]",,,213.1025507999584,213.1025507999584,,,,,,,,,,,,,,,,,,,,,,,,,,"[0, 0, 0]",,,,,,,,,99,M,1,r,CIB,2021_Aug_10_1459,WASABI distractmap,2020.2.10,59.99718001328324,"['Chest', 'Left Face', 'Abdomen', 'Chest', 'Right Face', 'Right Leg', 'Left Arm', 'Right Face', 'Left Arm', 'Right Leg', 'Right Arm', 'Right Arm', 'Left Leg', 'Left Face', 'Left Leg', 'Abdomen']",
4,"[-0.2, 0]",0,stimuli/orders/stimOrder1.xlsx,,,,,0,3,3,3,,,,,0,0,0,0,,,215.10258089983836,215.10258089983836,215.10258089983836,216.1025962997228,216.0859006997198,217.08591789985076,1,None,None,"[0, 0, 0]",,,215.10258089983836,215.10258089983836,,,,,,,,,,,,,,,,,,,,,,,,,,"[0, 0, 0]",,,,,,,,,99,M,1,r,CIB,2021_Aug_10_1459,WASABI distractmap,2020.2.10,59.99718001328324,"['Chest', 'Left Face', 'Abdomen', 'Chest', 'Right Face', 'Right Leg', 'Left Arm', 'Right Face', 'Left Arm', 'Right Leg', 'Right Arm', 'Right Arm', 'Left Leg', 'Left Face', 'Left Leg', 'Abdomen']",
8,"[0, -0.2]",0,stimuli/orders/stimOrder1.xlsx,,,,,0,4,4,4,,,,,0,0,0,0,,,217.10257409978658,217.10257409978658,217.10257409978658,218.10258820001036,218.0859226998873,219.08593449974433,1,None,None,"[0, 0, 0]",,,217.10257409978658,217.10257409978658,,,,,,,,,,,,,,,,,,,,,,,,,,"[0, 0, 0]",,,,,,,,,99,M,1,r,CIB,2021_Aug_10_1459,WASABI distractmap,2020.2.10,59.99718001328324,"['Chest', 'Left Face', 'Abdomen', 'Chest', 'Right Face', 'Right Leg', 'Left Arm', 'Right Face', 'Left Arm', 'Right Leg', 'Right Arm', 'Right Arm', 'Left Leg', 'Left Face', 'Left Leg', 'Abdomen']",
4,"[-0.2, 0]",0,stimuli/orders/stimOrder1.xlsx,,,,,0,5,5,5,,,,,0,0,0,0,,,219.10258119972423,219.10258119972423,219.10258119972423,220.10259540006518,220.0859316000715,221.08594750007614,1,None,None,"[0, 0, 0]",,,219.10258119972423,219.10258119972423,,,,,,,,,,,,,,,,,,,,,,,,,,"[0, 0, 0]",,,,,,,,,99,M,1,r,CIB,2021_Aug_10_1459,WASABI distractmap,2020.2.10,59.99718001328324,"['Chest', 'Left Face', 'Abdomen', 'Chest', 'Right Face', 'Right Leg', 'Left Arm', 'Right Face', 'Left Arm', 'Right Leg', 'Right Arm', 'Right Arm', 'Left Leg', 'Left Face', 'Left Leg', 'Abdomen']",
7,"[-0.2, -0.2]",0,stimuli/orders/stimOrder1.xlsx,,,,,0,6,6,6,,,,,0,0,0,0,,,221.102589499671,221.102589499671,221.102589499671,222.10263879969716,222.0859471000731,223.08595719980076,1,None,None,"[0, 0, 0]",,,221.102589499671,221.102589499671,,,,,,,,,,,,,,,,,,,,,,,,,,"[0, 0, 0]",,,,,,,,,99,M,1,r,CIB,2021_Aug_10_1459,WASABI distractmap,2020.2.10,59.99718001328324,"['Chest', 'Left Face', 'Abdomen', 'Chest', 'Right Face', 'Right Leg', 'Left Arm', 'Right Face', 'Left Arm', 'Right Leg', 'Right Arm', 'Right Arm', 'Left Leg', 'Left Face', 'Left Leg', 'Abdomen']",
,,,stimuli/orders/stimOrder1.xlsx,,,,,,,,,,,,,0,0,0,0,,,,,,,,,,,,,,,,,,,,,,,,,,,,,,,,,,,,,,,,,,,35.98765432098765,207.29699533013627,,,,,,,99,M,1,r,CIB,2021_Aug_10_1459,WASABI distractmap,2020.2.10,59.99718001328324,"['Chest', 'Left Face', 'Abdomen', 'Chest', 'Right Face', 'Right Leg', 'Left Arm', 'Right Face', 'Left Arm', 'Right Leg', 'Right Arm', 'Right Arm', 'Left Leg', 'Left Face', 'Left Leg', 'Abdomen']",
4,"[-0.2, 0]",None,stimuli/orders/stimOrder1.xlsx,,,,,0,0,0,0,,,,,0,0,0,0,228.10295580001548,None,229.13637039996684,None,229.13637039996684,230.13601299980655,230.11932619987056,None,0,None,None,"[0, 0, 0]",,,229.13637039996684,None,,,,,,,,,,,,,,,,,,,,,,,,,,"[0, 0, 0]",,,0.012872269842773676,5.008961670100689,,,,,99,M,1,r,CIB,2021_Aug_10_1459,WASABI distractmap,2020.2.10,59.99718001328324,"['Chest', 'Left Face', 'Abdomen', 'Chest', 'Right Face', 'Right Leg', 'Left Arm', 'Right Face', 'Left Arm', 'Right Leg', 'Right Arm', 'Right Arm', 'Left Leg', 'Left Face', 'Left Leg', 'Abdomen']",
7,"[-0.2, -0.2]",0,stimuli/orders/stimOrder1.xlsx,,,,,0,1,1,1,,,,,0,0,0,0,,,231.11934620002285,None,231.11934620002285,232.11935300007463,232.10266869980842,233.10270719975233,0,None,None,"[0, 0, 0]",,,231.11934620002285,None,,,,,,,,,,,,,,,,,,,,,,,,,,"[0, 0, 0]",,,,,,,,,99,M,1,r,CIB,2021_Aug_10_1459,WASABI distractmap,2020.2.10,59.99718001328324,"['Chest', 'Left Face', 'Abdomen', 'Chest', 'Right Face', 'Right Leg', 'Left Arm', 'Right Face', 'Left Arm', 'Right Leg', 'Right Arm', 'Right Arm', 'Left Leg', 'Left Face', 'Left Leg', 'Abdomen']",
7,"[-0.2, -0.2]",1,stimuli/orders/stimOrder1.xlsx,,,,,0,2,2,2,,,,,0,0,0,0,,,233.11935740010813,233.11935740010813,233.11935740010813,234.11937619978562,234.1026997999288,235.10270339995623,0,None,None,"[1, 0, 0]",,,233.11935740010813,233.11935740010813,,,,,,,,,,,,,,,,,,,,,,,,,,"[1, 0, 0]",,,,,1.8670196002349257,0.2502741999924183,,,99,M,1,r,CIB,2021_Aug_10_1459,WASABI distractmap,2020.2.10,59.99718001328324,"['Chest', 'Left Face', 'Abdomen', 'Chest', 'Right Face', 'Right Leg', 'Left Arm', 'Right Face', 'Left Arm', 'Right Leg', 'Right Arm', 'Right Arm', 'Left Leg', 'Left Face', 'Left Leg', 'Abdomen']",
4,"[-0.2, 0]",0,stimuli/orders/stimOrder1.xlsx,,,,,0,3,3,3,,,,,0,0,0,0,,,235.11936930008233,235.11936930008233,235.11936930008233,236.11938099982217,236.10271549969912,237.1027281000279,1,None,None,"[0, 0, 0]",,,235.11936930008233,235.11936930008233,,,,,,,,,,,,,,,,,,,,,,,,,,"[0, 0, 0]",,,,,,,,,99,M,1,r,CIB,2021_Aug_10_1459,WASABI distractmap,2020.2.10,59.99718001328324,"['Chest', 'Left Face', 'Abdomen', 'Chest', 'Right Face', 'Right Leg', 'Left Arm', 'Right Face', 'Left Arm', 'Right Leg', 'Right Arm', 'Right Arm', 'Left Leg', 'Left Face', 'Left Leg', 'Abdomen']",
8,"[0, -0.2]",0,stimuli/orders/stimOrder1.xlsx,,,,,0,4,4,4,,,,,0,0,0,0,,,237.11939190002158,237.11939190002158,237.11939190002158,238.11939039966092,238.1027206997387,239.10272509977221,1,None,None,"[0, 0, 0]",,,237.11939190002158,237.11939190002158,,,,,,,,,,,,,,,,,,,,,,,,,,"[0, 0, 0]",,,,,,,,,99,M,1,r,CIB,2021_Aug_10_1459,WASABI distractmap,2020.2.10,59.99718001328324,"['Chest', 'Left Face', 'Abdomen', 'Chest', 'Right Face', 'Right Leg', 'Left Arm', 'Right Face', 'Left Arm', 'Right Leg', 'Right Arm', 'Right Arm', 'Left Leg', 'Left Face', 'Left Leg', 'Abdomen']",
4,"[-0.2, 0]",0,stimuli/orders/stimOrder1.xlsx,,,,,0,5,5,5,,,,,0,0,0,0,,,239.1194029999897,239.1194029999897,239.1194029999897,240.11941169993952,240.10273439995944,241.10272970004007,1,None,None,"[0, 0, 0]",,,239.1194029999897,239.1194029999897,,,,,,,,,,,,,,,,,,,,,,,,,,"[0, 0, 0]",,,,,,,,,99,M,1,r,CIB,2021_Aug_10_1459,WASABI distractmap,2020.2.10,59.99718001328324,"['Chest', 'Left Face', 'Abdomen', 'Chest', 'Right Face', 'Right Leg', 'Left Arm', 'Right Face', 'Left Arm', 'Right Leg', 'Right Arm', 'Right Arm', 'Left Leg', 'Left Face', 'Left Leg', 'Abdomen']",
7,"[-0.2, -0.2]",0,stimuli/orders/stimOrder1.xlsx,,,,,0,6,6,6,,,,,0,0,0,0,,,241.11942029977217,241.11942029977217,241.11942029977217,242.11942659970373,242.1027546999976,243.10276479972526,1,None,None,"[0, 0, 0]",,,241.11942029977217,241.11942029977217,,,,,,,,,,,,,,,,,,,,,,,,,,"[0, 0, 0]",,,,,,,,,99,M,1,r,CIB,2021_Aug_10_1459,WASABI distractmap,2020.2.10,59.99718001328324,"['Chest', 'Left Face', 'Abdomen', 'Chest', 'Right Face', 'Right Leg', 'Left Arm', 'Right Face', 'Left Arm', 'Right Leg', 'Right Arm', 'Right Arm', 'Left Leg', 'Left Face', 'Left Leg', 'Abdomen']",
,,,stimuli/orders/stimOrder1.xlsx,,,,,,,,,,,,,0,0,0,0,,,,,,,,,,,,,,,,,,,,,,,,,,,,,,,,,,,,,,,,,,,50.0,222.43065093038604,,,,,,,99,M,1,r,CIB,2021_Aug_10_1459,WASABI distractmap,2020.2.10,59.99718001328324,"['Chest', 'Left Face', 'Abdomen', 'Chest', 'Right Face', 'Right Leg', 'Left Arm', 'Right Face', 'Left Arm', 'Right Leg', 'Right Arm', 'Right Arm', 'Left Leg', 'Left Face', 'Left Leg', 'Abdomen']",
4,"[-0.2, 0]",None,stimuli/orders/stimOrder1.xlsx,,,,,0,0,0,0,,,,,0,0,0,0,243.2364185997285,None,244.26981969969347,None,244.26981969969347,245.2694604997523,245.25277990009636,None,0,None,None,"[0, 0, 0]",,,244.26981969969347,None,,,,,,,,,,,,,,,,,,,,,,,,,,"[0, 0, 0]",,,0.012632469646632671,None,,,,,99,M,1,r,CIB,2021_Aug_10_1459,WASABI distractmap,2020.2.10,59.99718001328324,"['Chest', 'Left Face', 'Abdomen', 'Chest', 'Right Face', 'Right Leg', 'Left Arm', 'Right Face', 'Left Arm', 'Right Leg', 'Right Arm', 'Right Arm', 'Left Leg', 'Left Face', 'Left Leg', 'Abdomen']",
7,"[-0.2, -0.2]",0,stimuli/orders/stimOrder1.xlsx,,,,,0,1,1,1,,,,,0,0,0,0,,,246.25277790008113,None,246.25277790008113,247.25279669975862,247.2361375996843,248.2361373999156,0,None,None,"[0, 0, 0]",,,246.25277790008113,None,,,,,,,,,,,,,,,,,,,,,,,,,,"[0, 0, 0]",,,,,,,,,99,M,1,r,CIB,2021_Aug_10_1459,WASABI distractmap,2020.2.10,59.99718001328324,"['Chest', 'Left Face', 'Abdomen', 'Chest', 'Right Face', 'Right Leg', 'Left Arm', 'Right Face', 'Left Arm', 'Right Leg', 'Right Arm', 'Right Arm', 'Left Leg', 'Left Face', 'Left Leg', 'Abdomen']",
7,"[-0.2, -0.2]",1,stimuli/orders/stimOrder1.xlsx,,,,,0,2,2,2,,,,,0,0,0,0,,,248.2528109997511,248.2528109997511,248.2528109997511,249.25281489966437,249.23614009981975,250.23616079986095,0,None,None,"[0, 0, 0]",,,248.2528109997511,248.2528109997511,,,,,,,,,,,,,,,,,,,,,,,,,,"[0, 0, 0]",,,,,,,,,99,M,1,r,CIB,2021_Aug_10_1459,WASABI distractmap,2020.2.10,59.99718001328324,"['Chest', 'Left Face', 'Abdomen', 'Chest', 'Right Face', 'Right Leg', 'Left Arm', 'Right Face', 'Left Arm', 'Right Leg', 'Right Arm', 'Right Arm', 'Left Leg', 'Left Face', 'Left Leg', 'Abdomen']",
4,"[-0.2, 0]",0,stimuli/orders/stimOrder1.xlsx,,,,,0,3,3,3,,,,,0,0,0,0,,,250.25281800003722,250.25281800003722,250.25281800003722,251.25282589998096,251.2361566000618,252.23617219971493,0,None,None,"[0, 0, 0]",,,250.25281800003722,250.25281800003722,,,,,,,,,,,,,,,,,,,,,,,,,,"[0, 0, 0]",,,,,,,,,99,M,1,r,CIB,2021_Aug_10_1459,WASABI distractmap,2020.2.10,59.99718001328324,"['Chest', 'Left Face', 'Abdomen', 'Chest', 'Right Face', 'Right Leg', 'Left Arm', 'Right Face', 'Left Arm', 'Right Leg', 'Right Arm', 'Right Arm', 'Left Leg', 'Left Face', 'Left Leg', 'Abdomen']",
8,"[0, -0.2]",0,stimuli/orders/stimOrder1.xlsx,,,,,0,4,4,4,,,,,0,0,0,0,,,252.25282389996573,252.25282389996573,252.25282389996573,253.25284089986235,253.23617839999497,254.23617789987475,0,None,None,"[0, 0, 0]",,,252.25282389996573,252.25282389996573,,,,,,,,,,,,,,,,,,,,,,,,,,"[0, 0, 0]",,,,,,,,,99,M,1,r,CIB,2021_Aug_10_1459,WASABI distractmap,2020.2.10,59.99718001328324,"['Chest', 'Left Face', 'Abdomen', 'Chest', 'Right Face', 'Right Leg', 'Left Arm', 'Right Face', 'Left Arm', 'Right Leg', 'Right Arm', 'Right Arm', 'Left Leg', 'Left Face', 'Left Leg', 'Abdomen']",
4,"[-0.2, 0]",0,stimuli/orders/stimOrder1.xlsx,,,,,0,5,5,5,,,,,0,0,0,0,,,254.25284549966455,254.25284549966455,254.25284549966455,255.25285669974983,255.2361856000498,256.23619879968464,0,None,None,"[0, 0, 0]",,,254.25284549966455,254.25284549966455,,,,,,,,,,,,,,,,,,,,,,,,,,"[0, 0, 0]",,,,,,,,,99,M,1,r,CIB,2021_Aug_10_1459,WASABI distractmap,2020.2.10,59.99718001328324,"['Chest', 'Left Face', 'Abdomen', 'Chest', 'Right Face', 'Right Leg', 'Left Arm', 'Right Face', 'Left Arm', 'Right Leg', 'Right Arm', 'Right Arm', 'Left Leg', 'Left Face', 'Left Leg', 'Abdomen']",
7,"[-0.2, -0.2]",0,stimuli/orders/stimOrder1.xlsx,,,,,0,6,6,6,,,,,0,0,0,0,,,256.2528591998853,256.2528591998853,256.2528591998853,257.2528776996769,257.23618909996003,258.2362063997425,0,None,None,"[0, 0, 0]",,,256.2528591998853,256.2528591998853,,,,,,,,,,,,,,,,,,,,,,,,,,"[0, 0, 0]",,,,,,,,,99,M,1,r,CIB,2021_Aug_10_1459,WASABI distractmap,2020.2.10,59.99718001328324,"['Chest', 'Left Face', 'Abdomen', 'Chest', 'Right Face', 'Right Leg', 'Left Arm', 'Right Face', 'Left Arm', 'Right Leg', 'Right Arm', 'Right Arm', 'Left Leg', 'Left Face', 'Left Leg', 'Abdomen']",
,,,stimuli/orders/stimOrder1.xlsx,,,,,,,,,,,,,0,0,0,0,,,,,,,,,,,,,,,,,,,,,,,,,,,,,,,,,,,,,,,,,,,35.8641975308642,242.44686893047765,,,,,,,99,M,1,r,CIB,2021_Aug_10_1459,WASABI distractmap,2020.2.10,59.99718001328324,"['Chest', 'Left Face', 'Abdomen', 'Chest', 'Right Face', 'Right Leg', 'Left Arm', 'Right Face', 'Left Arm', 'Right Leg', 'Right Arm', 'Right Arm', 'Left Leg', 'Left Face', 'Left Leg', 'Abdomen']",
4,"[-0.2, 0]",None,stimuli/orders/stimOrder1.xlsx,,,,,0,0,0,0,,,,,0,0,0,0,263.25321969995275,None,264.28669189987704,None,264.28669189987704,265.28625059966,265.2694826996885,None,1,None,None,"[0, 0, 0]",,,264.28669189987704,None,,,,,,,,,,,,,,,,,,,,,,,,,,"[0, 0, 0]",,,0.013255969621241093,5.009836969897151,,,,,99,M,1,r,CIB,2021_Aug_10_1459,WASABI distractmap,2020.2.10,59.99718001328324,"['Chest', 'Left Face', 'Abdomen', 'Chest', 'Right Face', 'Right Leg', 'Left Arm', 'Right Face', 'Left Arm', 'Right Leg', 'Right Arm', 'Right Arm', 'Left Leg', 'Left Face', 'Left Leg', 'Abdomen']",
7,"[-0.2, -0.2]",0,stimuli/orders/stimOrder1.xlsx,,,,,0,1,1,1,,,,,0,0,0,0,,,266.2696012998931,None,266.2696012998931,267.2695983997546,267.2529360000044,268.25294229993597,0,None,None,"[0, 0, 0]",,,266.2696012998931,None,,,,,,,,,,,,,,,,,,,,,,,,,,"[0, 0, 0]",,,,,,,,,99,M,1,r,CIB,2021_Aug_10_1459,WASABI distractmap,2020.2.10,59.99718001328324,"['Chest', 'Left Face', 'Abdomen', 'Chest', 'Right Face', 'Right Leg', 'Left Arm', 'Right Face', 'Left Arm', 'Right Leg', 'Right Arm', 'Right Arm', 'Left Leg', 'Left Face', 'Left Leg', 'Abdomen']",
7,"[-0.2, -0.2]",1,stimuli/orders/stimOrder1.xlsx,,,,,0,2,2,2,,,,,0,0,0,0,,,268.2696213000454,268.2696213000454,268.2696213000454,269.26960900006816,269.25296709965914,270.2529504997656,0,None,None,"[0, 0, 0]",,,268.2696213000454,268.2696213000454,,,,,,,,,,,,,,,,,,,,,,,,,,"[0, 0, 0]",,,,,,,,,99,M,1,r,CIB,2021_Aug_10_1459,WASABI distractmap,2020.2.10,59.99718001328324,"['Chest', 'Left Face', 'Abdomen', 'Chest', 'Right Face', 'Right Leg', 'Left Arm', 'Right Face', 'Left Arm', 'Right Leg', 'Right Arm', 'Right Arm', 'Left Leg', 'Left Face', 'Left Leg', 'Abdomen']",
4,"[-0.2, 0]",0,stimuli/orders/stimOrder1.xlsx,,,,,0,3,3,3,,,,,0,0,0,0,,,270.26961810002103,270.26961810002103,270.26961810002103,271.26962679997087,271.2529625999741,272.25298259966075,0,None,None,"[0, 0, 0]",,,270.26961810002103,270.26961810002103,,,,,,,,,,,,,,,,,,,,,,,,,,"[0, 0, 0]",,,,,,,,,99,M,1,r,CIB,2021_Aug_10_1459,WASABI distractmap,2020.2.10,59.99718001328324,"['Chest', 'Left Face', 'Abdomen', 'Chest', 'Right Face', 'Right Leg', 'Left Arm', 'Right Face', 'Left Arm', 'Right Leg', 'Right Arm', 'Right Arm', 'Left Leg', 'Left Face', 'Left Leg', 'Abdomen']",
8,"[0, -0.2]",0,stimuli/orders/stimOrder1.xlsx,,,,,0,4,4,4,,,,,0,0,0,0,,,272.2696139998734,272.2696139998734,272.2696139998734,273.2696421998553,273.2529796999879,274.25298619968817,1,None,None,"[0, 0, 0]",,,272.2696139998734,272.2696139998734,,,,,,,,,,,,,,,,,,,,,,,,,,"[0, 0, 0]",,,,,,,,,99,M,1,r,CIB,2021_Aug_10_1459,WASABI distractmap,2020.2.10,59.99718001328324,"['Chest', 'Left Face', 'Abdomen', 'Chest', 'Right Face', 'Right Leg', 'Left Arm', 'Right Face', 'Left Arm', 'Right Leg', 'Right Arm', 'Right Arm', 'Left Leg', 'Left Face', 'Left Leg', 'Abdomen']",
4,"[-0.2, 0]",0,stimuli/orders/stimOrder1.xlsx,,,,,0,5,5,5,,,,,0,0,0,0,,,274.26964639965445,274.26964639965445,274.26964639965445,275.2696622996591,275.2530022999272,276.2530020996928,0,None,None,"[1, 0, 0]",,,274.26964639965445,274.26964639965445,,,,,,,,,,,,,,,,,,,,,,,,,,"[1, 0, 0]",,,,,1.900356600061059,1.100344399921596,,,99,M,1,r,CIB,2021_Aug_10_1459,WASABI distractmap,2020.2.10,59.99718001328324,"['Chest', 'Left Face', 'Abdomen', 'Chest', 'Right Face', 'Right Leg', 'Left Arm', 'Right Face', 'Left Arm', 'Right Leg', 'Right Arm', 'Right Arm', 'Left Leg', 'Left Face', 'Left Leg', 'Abdomen']",
7,"[-0.2, -0.2]",0,stimuli/orders/stimOrder1.xlsx,,,,,0,6,6,6,,,,,0,0,0,0,,,276.269656999968,276.269656999968,276.269656999968,277.26966900005937,277.25290169985965,278.2530422997661,0,None,None,"[0, 0, 0]",,,276.269656999968,276.269656999968,,,,,,,,,,,,,,,,,,,,,,,,,,"[0, 0, 0]",,,,,,,,,99,M,1,r,CIB,2021_Aug_10_1459,WASABI distractmap,2020.2.10,59.99718001328324,"['Chest', 'Left Face', 'Abdomen', 'Chest', 'Right Face', 'Right Leg', 'Left Arm', 'Right Face', 'Left Arm', 'Right Leg', 'Right Arm', 'Right Arm', 'Left Leg', 'Left Face', 'Left Leg', 'Abdomen']",
,,,stimuli/orders/stimOrder1.xlsx,,,,,,,,,,,,,0,0,0,0,,,,,,,,,,,,,,,,,,,,,,,,,,,,,,,,,,,,,,,,,,,37.77777777777778,258.76381722977385,,,,,,,99,M,1,r,CIB,2021_Aug_10_1459,WASABI distractmap,2020.2.10,59.99718001328324,"['Chest', 'Left Face', 'Abdomen', 'Chest', 'Right Face', 'Right Leg', 'Left Arm', 'Right Face', 'Left Arm', 'Right Leg', 'Right Arm', 'Right Arm', 'Left Leg', 'Left Face', 'Left Leg', 'Abdomen']",
2,"[0, 0.2]",None,stimuli/orders/stimOrder1.xlsx,,,,,,,,,0,0,0,0,0,0,0,0,290.36952860001475,None,,,,,,,,,,,,,,,,,,,,None,None,"[0, 0, 0]",291.38646579999477,None,291.38646579999477,292.3864587000571,292.3531256997958,293.35318510001525,"[0, 0, 0]",1,291.38646579999477,None,,,,,,,,,,,0.01309197023510933,None,,,,,99,M,1,r,CIB,2021_Aug_10_1459,WASABI distractmap,2020.2.10,59.99718001328324,"['Chest', 'Left Face', 'Abdomen', 'Chest', 'Right Face', 'Right Leg', 'Left Arm', 'Right Face', 'Left Arm', 'Right Leg', 'Right Arm', 'Right Arm', 'Left Leg', 'Left Face', 'Left Leg', 'Abdomen']",
2,"[0, 0.2]",None,stimuli/orders/stimOrder1.xlsx,,,,,,,,,0,1,1,1,0,0,0,0,,,,,,,,,,,,,,,,,,,,,,None,None,"[0, 0, 0]",293.38646139996126,295.3864871999249,293.38646139996126,294.3863403000869,294.3697898997925,295.36981469998136,"[0, 0, 0]",0,293.38646139996126,295.3864871999249,,,,,,,,,,,,,,,,,99,M,1,r,CIB,2021_Aug_10_1459,WASABI distractmap,2020.2.10,59.99718001328324,"['Chest', 'Left Face', 'Abdomen', 'Chest', 'Right Face', 'Right Leg', 'Left Arm', 'Right Face', 'Left Arm', 'Right Leg', 'Right Arm', 'Right Arm', 'Left Leg', 'Left Face', 'Left Leg', 'Abdomen']",
2,"[0, 0.2]",1,stimuli/orders/stimOrder1.xlsx,,,,,,,,,0,2,2,2,0,0,0,0,,,,,,,,,,,,,,,,,,,,,,None,None,"[0, 0, 0]",295.40314000006765,297.40322740003467,295.40314000006765,296.4031436997466,296.3865160997957,297.3864951999858,"[0, 0, 0]",0,295.40314000006765,297.40322740003467,,,,,,,,,,,,,,,,,99,M,1,r,CIB,2021_Aug_10_1459,WASABI distractmap,2020.2.10,59.99718001328324,"['Chest', 'Left Face', 'Abdomen', 'Chest', 'Right Face', 'Right Leg', 'Left Arm', 'Right Face', 'Left Arm', 'Right Leg', 'Right Arm', 'Right Arm', 'Left Leg', 'Left Face', 'Left Leg', 'Abdomen']",
8,"[0, -0.2]",0,stimuli/orders/stimOrder1.xlsx,,,,,,,,,0,3,3,3,0,0,0,0,,,,,,,,,,,,,,,,,,,,,,None,None,"[0, 0, 0]",297.4198189000599,299.41983709996566,297.4198189000599,298.41979209985584,298.4031632998958,299.40315699996427,"[0, 0, 0]",1,297.4198189000599,299.41983709996566,,,,,,,,,,,,,,,,,99,M,1,r,CIB,2021_Aug_10_1459,WASABI distractmap,2020.2.10,59.99718001328324,"['Chest', 'Left Face', 'Abdomen', 'Chest', 'Right Face', 'Right Leg', 'Left Arm', 'Right Face', 'Left Arm', 'Right Leg', 'Right Arm', 'Right Arm', 'Left Leg', 'Left Face', 'Left Leg', 'Abdomen']",
2,"[0, 0.2]",1,stimuli/orders/stimOrder1.xlsx,,,,,,,,,0,4,4,4,0,0,0,0,,,,,,,,,,,,,,,,,,,,,,None,None,"[1, 0, 0]",299.43650300009176,301.4365302999504,299.43650300009176,300.43651669984683,300.41984699992463,301.4198628999293,"[1, 0, 0]",1,299.43650300009176,301.4365302999504,,,,,,,,,,,,,,,1.9670716002583504,1.054015299770981,99,M,1,r,CIB,2021_Aug_10_1459,WASABI distractmap,2020.2.10,59.99718001328324,"['Chest', 'Left Face', 'Abdomen', 'Chest', 'Right Face', 'Right Leg', 'Left Arm', 'Right Face', 'Left Arm', 'Right Leg', 'Right Arm', 'Right Arm', 'Left Leg', 'Left Face', 'Left Leg', 'Abdomen']",
5,"[0, 0]",0,stimuli/orders/stimOrder1.xlsx,,,,,,,,,0,5,5,5,0,0,0,0,,,,,,,,,,,,,,,,,,,,,,None,None,"[0, 0, 0]",301.45318980002776,303.45319069968536,301.45318980002776,302.4531939998269,302.4365234998986,303.4365312997252,"[0, 0, 0]",0,301.45318980002776,303.45319069968536,,,,,,,,,,,,,,,,,99,M,1,r,CIB,2021_Aug_10_1459,WASABI distractmap,2020.2.10,59.99718001328324,"['Chest', 'Left Face', 'Abdomen', 'Chest', 'Right Face', 'Right Leg', 'Left Arm', 'Right Face', 'Left Arm', 'Right Leg', 'Right Arm', 'Right Arm', 'Left Leg', 'Left Face', 'Left Leg', 'Abdomen']",
1,"[-0.2, 0.2]",0,stimuli/orders/stimOrder1.xlsx,,,,,,,,,0,6,6,6,0,0,0,0,,,,,,,,,,,,,,,,,,,,,,None,None,"[0, 0, 0]",303.46985949994996,305.4698993996717,303.46985949994996,304.46985889971256,304.4532139999792,305.4532141997479,"[0, 0, 0]",0,303.46985949994996,305.4698993996717,,,,,,,,,,,,,,,,,99,M,1,r,CIB,2021_Aug_10_1459,WASABI distractmap,2020.2.10,59.99718001328324,"['Chest', 'Left Face', 'Abdomen', 'Chest', 'Right Face', 'Right Leg', 'Left Arm', 'Right Face', 'Left Arm', 'Right Leg', 'Right Arm', 'Right Arm', 'Left Leg', 'Left Face', 'Left Leg', 'Abdomen']",
,,,stimuli/orders/stimOrder1.xlsx,,,,,,,,,,,,,0,0,0,0,,,,,,,,,,,,,,,,,,,,,,,,,,,,,,,,,,,,,,,,,,,50.0,284.7958494303748,,,,,,,99,M,1,r,CIB,2021_Aug_10_1459,WASABI distractmap,2020.2.10,59.99718001328324,"['Chest', 'Left Face', 'Abdomen', 'Chest', 'Right Face', 'Right Leg', 'Left Arm', 'Right Face', 'Left Arm', 'Right Leg', 'Right Arm', 'Right Arm', 'Left Leg', 'Left Face', 'Left Leg', 'Abdomen']",
2,"[0, 0.2]",None,stimuli/orders/stimOrder1.xlsx,,,,,,,,,0,0,0,0,0,0,0,0,305.60353429988027,None,,,,,,,,,,,,,,,,,,,,None,None,"[0, 0, 0]",306.6198938000016,None,306.6198938000016,307.61988479970023,307.60322799999267,308.60329139977694,"[0, 0, 0]",0,306.6198938000016,None,,,,,,,,,,,0.014577270019799471,None,,,,,99,M,1,r,CIB,2021_Aug_10_1459,WASABI distractmap,2020.2.10,59.99718001328324,"['Chest', 'Left Face', 'Abdomen', 'Chest', 'Right Face', 'Right Leg', 'Left Arm', 'Right Face', 'Left Arm', 'Right Leg', 'Right Arm', 'Right Arm', 'Left Leg', 'Left Face', 'Left Leg', 'Abdomen']",
2,"[0, 0.2]",None,stimuli/orders/stimOrder1.xlsx,,,,,,,,,0,1,1,1,0,0,0,0,,,,,,,,,,,,,,,,,,,,,,None,None,"[0, 0, 0]",308.6198923001066,310.61990759987384,308.6198923001066,309.61991509981453,309.6032386999577,310.6032455000095,"[0, 0, 0]",0,308.6198923001066,310.61990759987384,,,,,,,,,,,,,,,,,99,M,1,r,CIB,2021_Aug_10_1459,WASABI distractmap,2020.2.10,59.99718001328324,"['Chest', 'Left Face', 'Abdomen', 'Chest', 'Right Face', 'Right Leg', 'Left Arm', 'Right Face', 'Left Arm', 'Right Leg', 'Right Arm', 'Right Arm', 'Left Leg', 'Left Face', 'Left Leg', 'Abdomen']",
2,"[0, 0.2]",1,stimuli/orders/stimOrder1.xlsx,,,,,,,,,0,2,2,2,0,0,0,0,,,,,,,,,,,,,,,,,,,,,,None,None,"[0, 0, 0]",310.6365863997489,312.6365982000716,310.6365863997489,311.6365967998281,311.61992019973695,312.61992769967765,"[0, 0, 0]",0,310.6365863997489,312.6365982000716,,,,,,,,,,,,,,,,,99,M,1,r,CIB,2021_Aug_10_1459,WASABI distractmap,2020.2.10,59.99718001328324,"['Chest', 'Left Face', 'Abdomen', 'Chest', 'Right Face', 'Right Leg', 'Left Arm', 'Right Face', 'Left Arm', 'Right Leg', 'Right Arm', 'Right Arm', 'Left Leg', 'Left Face', 'Left Leg', 'Abdomen']",
8,"[0, -0.2]",0,stimuli/orders/stimOrder1.xlsx,,,,,,,,,0,3,3,3,0,0,0,0,,,,,,,,,,,,,,,,,,,,,,None,None,"[0, 0, 0]",312.6532554998994,314.65328179998323,312.6532554998994,313.65328089985996,313.6366278999485,314.6366109997034,"[0, 0, 0]",0,312.6532554998994,314.65328179998323,,,,,,,,,,,,,,,,,99,M,1,r,CIB,2021_Aug_10_1459,WASABI distractmap,2020.2.10,59.99718001328324,"['Chest', 'Left Face', 'Abdomen', 'Chest', 'Right Face', 'Right Leg', 'Left Arm', 'Right Face', 'Left Arm', 'Right Leg', 'Right Arm', 'Right Arm', 'Left Leg', 'Left Face', 'Left Leg', 'Abdomen']",
2,"[0, 0.2]",1,stimuli/orders/stimOrder1.xlsx,,,,,,,,,0,4,4,4,0,0,0,0,,,,,,,,,,,,,,,,,,,,,,None,None,"[0, 0, 0]",314.6699441000819,316.6699612000957,314.6699441000819,315.6699488996528,315.653174799867,316.6533345999196,"[0, 0, 0]",1,314.6699441000819,316.6699612000957,,,,,,,,,,,,,,,,,99,M,1,r,CIB,2021_Aug_10_1459,WASABI distractmap,2020.2.10,59.99718001328324,"['Chest', 'Left Face', 'Abdomen', 'Chest', 'Right Face', 'Right Leg', 'Left Arm', 'Right Face', 'Left Arm', 'Right Leg', 'Right Arm', 'Right Arm', 'Left Leg', 'Left Face', 'Left Leg', 'Abdomen']",
5,"[0, 0]",0,stimuli/orders/stimOrder1.xlsx,,,,,,,,,0,5,5,5,0,0,0,0,,,,,,,,,,,,,,,,,,,,,,None,None,"[0, 0, 0]",316.6866171997972,318.6866363999434,316.6866171997972,317.68663459969684,317.66996389999986,318.66997759975493,"[0, 0, 0]",1,316.6866171997972,318.6866363999434,,,,,,,,,,,,,,,,,99,M,1,r,CIB,2021_Aug_10_1459,WASABI distractmap,2020.2.10,59.99718001328324,"['Chest', 'Left Face', 'Abdomen', 'Chest', 'Right Face', 'Right Leg', 'Left Arm', 'Right Face', 'Left Arm', 'Right Leg', 'Right Arm', 'Right Arm', 'Left Leg', 'Left Face', 'Left Leg', 'Abdomen']",
1,"[-0.2, 0.2]",0,stimuli/orders/stimOrder1.xlsx,,,,,,,,,0,6,6,6,0,0,0,0,,,,,,,,,,,,,,,,,,,,,,None,None,"[0, 0, 0]",318.7033139998093,320.7033135998063,318.7033139998093,319.70326629979536,319.68663509981707,320.68664409965277,"[0, 0, 0]",0,318.7033139998093,320.7033135998063,,,,,,,,,,,,,,,,,99,M,1,r,CIB,2021_Aug_10_1459,WASABI distractmap,2020.2.10,59.99718001328324,"['Chest', 'Left Face', 'Abdomen', 'Chest', 'Right Face', 'Right Leg', 'Left Arm', 'Right Face', 'Left Arm', 'Right Leg', 'Right Arm', 'Right Arm', 'Left Leg', 'Left Face', 'Left Leg', 'Abdomen']",
,,,stimuli/orders/stimOrder1.xlsx,,,,,,,,,,,,,0,0,0,0,,,,,,,,,,,,,,,,,,,,,,,,,,,,,,,,,,,,,,,,,,,35.49382716049383,304.91253763018176,,,,,,,99,M,1,r,CIB,2021_Aug_10_1459,WASABI distractmap,2020.2.10,59.99718001328324,"['Chest', 'Left Face', 'Abdomen', 'Chest', 'Right Face', 'Right Leg', 'Left Arm', 'Right Face', 'Left Arm', 'Right Leg', 'Right Arm', 'Right Arm', 'Left Leg', 'Left Face', 'Left Leg', 'Abdomen']",
2,"[0, 0.2]",None,stimuli/orders/stimOrder1.xlsx,,,,,,,,,0,0,0,0,0,0,0,0,325.72033639997244,None,,,,,,,,,,,,,,,,,,,,None,None,"[1, 0, 0]",326.73670940008014,None,326.73670940008014,327.73670060001314,327.7200381997973,328.72004120005295,"[1, 0, 0]",0,326.73670940008014,None,,,,,,,,,,,0.014701270032674074,5.012491470202804,,,1.9538242002017796,1.3003211999312043,99,M,1,r,CIB,2021_Aug_10_1459,WASABI distractmap,2020.2.10,59.99718001328324,"['Chest', 'Left Face', 'Abdomen', 'Chest', 'Right Face', 'Right Leg', 'Left Arm', 'Right Face', 'Left Arm', 'Right Leg', 'Right Arm', 'Right Arm', 'Left Leg', 'Left Face', 'Left Leg', 'Abdomen']",
2,"[0, 0.2]",None,stimuli/orders/stimOrder1.xlsx,,,,,,,,,0,1,1,1,0,0,0,0,,,,,,,,,,,,,,,,,,,,,,None,None,"[0, 0, 0]",328.73673029989004,330.7367239999585,328.73673029989004,329.7367334999144,329.7200527996756,330.7200592998415,"[0, 0, 0]",0,328.73673029989004,330.7367239999585,,,,,,,,,,,,,,,,,99,M,1,r,CIB,2021_Aug_10_1459,WASABI distractmap,2020.2.10,59.99718001328324,"['Chest', 'Left Face', 'Abdomen', 'Chest', 'Right Face', 'Right Leg', 'Left Arm', 'Right Face', 'Left Arm', 'Right Leg', 'Right Arm', 'Right Arm', 'Left Leg', 'Left Face', 'Left Leg', 'Abdomen']",
2,"[0, 0.2]",1,stimuli/orders/stimOrder1.xlsx,,,,,,,,,0,2,2,2,0,0,0,0,,,,,,,,,,,,,,,,,,,,,,None,None,"[0, 0, 0]",330.7533840998076,332.7534062000923,330.7533840998076,331.7533996999264,331.7367259999737,332.7367430999875,"[0, 0, 0]",0,330.7533840998076,332.7534062000923,,,,,,,,,,,,,,,,,99,M,1,r,CIB,2021_Aug_10_1459,WASABI distractmap,2020.2.10,59.99718001328324,"['Chest', 'Left Face', 'Abdomen', 'Chest', 'Right Face', 'Right Leg', 'Left Arm', 'Right Face', 'Left Arm', 'Right Leg', 'Right Arm', 'Right Arm', 'Left Leg', 'Left Face', 'Left Leg', 'Abdomen']",
8,"[0, -0.2]",0,stimuli/orders/stimOrder1.xlsx,,,,,,,,,0,3,3,3,0,0,0,0,,,,,,,,,,,,,,,,,,,,,,None,None,"[0, 0, 0]",332.7700765999034,334.7700768997893,332.7700765999034,333.77007619990036,333.75343160005286,334.75342529965565,"[0, 0, 0]",1,332.7700765999034,334.7700768997893,,,,,,,,,,,,,,,,,99,M,1,r,CIB,2021_Aug_10_1459,WASABI distractmap,2020.2.10,59.99718001328324,"['Chest', 'Left Face', 'Abdomen', 'Chest', 'Right Face', 'Right Leg', 'Left Arm', 'Right Face', 'Left Arm', 'Right Leg', 'Right Arm', 'Right Arm', 'Left Leg', 'Left Face', 'Left Leg', 'Abdomen']",
2,"[0, 0.2]",1,stimuli/orders/stimOrder1.xlsx,,,,,,,,,0,4,4,4,0,0,0,0,,,,,,,,,,,,,,,,,,,,,,None,None,"[0, 0, 0]",334.7867576996796,336.78677849983796,334.7867576996796,335.78673109970987,335.7700875001028,336.77011109981686,"[0, 0, 0]",1,334.7867576996796,336.78677849983796,,,,,,,,,,,,,,,,,99,M,1,r,CIB,2021_Aug_10_1459,WASABI distractmap,2020.2.10,59.99718001328324,"['Chest', 'Left Face', 'Abdomen', 'Chest', 'Right Face', 'Right Leg', 'Left Arm', 'Right Face', 'Left Arm', 'Right Leg', 'Right Arm', 'Right Arm', 'Left Leg', 'Left Face', 'Left Leg', 'Abdomen']",
5,"[0, 0]",0,stimuli/orders/stimOrder1.xlsx,,,,,,,,,0,5,5,5,0,0,0,0,,,,,,,,,,,,,,,,,,,,,,None,None,"[0, 0, 1]",336.80341119971126,338.8034501997754,336.80341119971126,337.8033722997643,337.78677879972383,338.7867850996554,"[0, 0, 1]",1,336.80341119971126,338.8034501997754,,,,,,,,,,,,,,,0.0,1.9164901999756694,99,M,1,r,CIB,2021_Aug_10_1459,WASABI distractmap,2020.2.10,59.99718001328324,"['Chest', 'Left Face', 'Abdomen', 'Chest', 'Right Face', 'Right Leg', 'Left Arm', 'Right Face', 'Left Arm', 'Right Leg', 'Right Arm', 'Right Arm', 'Left Leg', 'Left Face', 'Left Leg', 'Abdomen']",
1,"[-0.2, 0.2]",0,stimuli/orders/stimOrder1.xlsx,,,,,,,,,0,6,6,6,0,0,0,0,,,,,,,,,,,,,,,,,,,,,,None,None,"[0, 0, 0]",338.82011270010844,340.8201560000889,338.82011270010844,339.8201302997768,339.8034596000798,340.8034922997467,"[0, 0, 0]",0,338.82011270010844,340.8201560000889,,,,,,,,,,,,,,,,,99,M,1,r,CIB,2021_Aug_10_1459,WASABI distractmap,2020.2.10,59.99718001328324,"['Chest', 'Left Face', 'Abdomen', 'Chest', 'Right Face', 'Right Leg', 'Left Arm', 'Right Face', 'Left Arm', 'Right Leg', 'Right Arm', 'Right Arm', 'Left Leg', 'Left Face', 'Left Leg', 'Abdomen']",
,,,stimuli/orders/stimOrder1.xlsx,,,,,,,,,,,,,0,0,0,0,,,,,,,,,,,,,,,,,,,,,,,,,,,,,,,,,,,,,,,,,,,34.876543209876544,321.4128344296478,,,,,,,99,M,1,r,CIB,2021_Aug_10_1459,WASABI distractmap,2020.2.10,59.99718001328324,"['Chest', 'Left Face', 'Abdomen', 'Chest', 'Right Face', 'Right Leg', 'Left Arm', 'Right Face', 'Left Arm', 'Right Leg', 'Right Arm', 'Right Arm', 'Left Leg', 'Left Face', 'Left Leg', 'Abdomen']",
2,"[0, 0.2]",None,stimuli/orders/stimOrder1.xlsx,,,,,,,,,0,0,0,0,0,0,0,0,342.22044140007347,None,,,,,,,,,,,,,,,,,,,,None,None,"[0, 0, 0]",343.2368242996745,None,343.2368242996745,344.23680969979614,344.22015010006726,345.2201648997143,"[0, 0, 0]",1,343.2368242996745,None,,,,,,,,,,,0.01451597036793828,None,,,,,99,M,1,r,CIB,2021_Aug_10_1459,WASABI distractmap,2020.2.10,59.99718001328324,"['Chest', 'Left Face', 'Abdomen', 'Chest', 'Right Face', 'Right Leg', 'Left Arm', 'Right Face', 'Left Arm', 'Right Leg', 'Right Arm', 'Right Arm', 'Left Leg', 'Left Face', 'Left Leg', 'Abdomen']",
2,"[0, 0.2]",None,stimuli/orders/stimOrder1.xlsx,,,,,,,,,0,1,1,1,0,0,0,0,,,,,,,,,,,,,,,,,,,,,,None,None,"[0, 0, 0]",345.23683109972626,347.2368560000323,345.23683109972626,346.2368306000717,346.2201674999669,347.2201714999974,"[0, 0, 0]",1,345.23683109972626,347.2368560000323,,,,,,,,,,,,,,,,,99,M,1,r,CIB,2021_Aug_10_1459,WASABI distractmap,2020.2.10,59.99718001328324,"['Chest', 'Left Face', 'Abdomen', 'Chest', 'Right Face', 'Right Leg', 'Left Arm', 'Right Face', 'Left Arm', 'Right Leg', 'Right Arm', 'Right Arm', 'Left Leg', 'Left Face', 'Left Leg', 'Abdomen']",
2,"[0, 0.2]",1,stimuli/orders/stimOrder1.xlsx,,,,,,,,,0,2,2,2,0,0,0,0,,,,,,,,,,,,,,,,,,,,,,None,None,"[0, 0, 0]",347.253523199819,349.25351799977943,347.253523199819,348.2535323998891,348.236833400093,349.2368669998832,"[0, 0, 0]",0,347.253523199819,349.25351799977943,,,,,,,,,,,,,,,,,99,M,1,r,CIB,2021_Aug_10_1459,WASABI distractmap,2020.2.10,59.99718001328324,"['Chest', 'Left Face', 'Abdomen', 'Chest', 'Right Face', 'Right Leg', 'Left Arm', 'Right Face', 'Left Arm', 'Right Leg', 'Right Arm', 'Right Arm', 'Left Leg', 'Left Face', 'Left Leg', 'Abdomen']",
8,"[0, -0.2]",0,stimuli/orders/stimOrder1.xlsx,,,,,,,,,0,3,3,3,0,0,0,0,,,,,,,,,,,,,,,,,,,,,,None,None,"[1, 0, 1]",349.2700787996873,351.27021349966526,349.2700787996873,350.2701984997839,350.25356379989535,351.25357710011303,"[1, 0, 1]",0,349.2700787996873,351.27021349966526,,,,,,,,,,,,,,,1.8703933996148407,1.9670449998229742,99,M,1,r,CIB,2021_Aug_10_1459,WASABI distractmap,2020.2.10,59.99718001328324,"['Chest', 'Left Face', 'Abdomen', 'Chest', 'Right Face', 'Right Leg', 'Left Arm', 'Right Face', 'Left Arm', 'Right Leg', 'Right Arm', 'Right Arm', 'Left Leg', 'Left Face', 'Left Leg', 'Abdomen']",
2,"[0, 0.2]",1,stimuli/orders/stimOrder1.xlsx,,,,,,,,,0,4,4,4,0,0,0,0,,,,,,,,,,,,,,,,,,,,,,None,None,"[0, 0, 0]",351.2868699999526,353.286919800099,351.2868699999526,352.28688099980354,352.2701248000376,353.2702226000838,"[0, 0, 0]",1,351.2868699999526,353.286919800099,,,,,,,,,,,,,,,,,99,M,1,r,CIB,2021_Aug_10_1459,WASABI distractmap,2020.2.10,59.99718001328324,"['Chest', 'Left Face', 'Abdomen', 'Chest', 'Right Face', 'Right Leg', 'Left Arm', 'Right Face', 'Left Arm', 'Right Leg', 'Right Arm', 'Right Arm', 'Left Leg', 'Left Face', 'Left Leg', 'Abdomen']",
5,"[0, 0]",0,stimuli/orders/stimOrder1.xlsx,,,,,,,,,0,5,5,5,0,0,0,0,,,,,,,,,,,,,,,,,,,,,,None,None,"[0, 0, 0]",353.303558900021,355.3035784000531,353.303558900021,354.30358919966966,354.2868968998082,355.2868939996697,"[0, 0, 0]",0,353.303558900021,355.3035784000531,,,,,,,,,,,,,,,,,99,M,1,r,CIB,2021_Aug_10_1459,WASABI distractmap,2020.2.10,59.99718001328324,"['Chest', 'Left Face', 'Abdomen', 'Chest', 'Right Face', 'Right Leg', 'Left Arm', 'Right Face', 'Left Arm', 'Right Leg', 'Right Arm', 'Right Arm', 'Left Leg', 'Left Face', 'Left Leg', 'Abdomen']",
1,"[-0.2, 0.2]",0,stimuli/orders/stimOrder1.xlsx,,,,,,,,,0,6,6,6,0,0,0,0,,,,,,,,,,,,,,,,,,,,,,None,None,"[1, 0, 0]",355.32014619978145,357.32024180004373,355.32014619978145,356.32022619992495,356.3035814999603,357.30359159968793,"[1, 0, 0]",0,355.32014619978145,357.32024180004373,,,,,,,,,,,,,,,1.850446400232613,1.5670667998492718,99,M,1,r,CIB,2021_Aug_10_1459,WASABI distractmap,2020.2.10,59.99718001328324,"['Chest', 'Left Face', 'Abdomen', 'Chest', 'Right Face', 'Right Leg', 'Left Arm', 'Right Face', 'Left Arm', 'Right Leg', 'Right Arm', 'Right Arm', 'Left Leg', 'Left Face', 'Left Leg', 'Abdomen']",
,,,stimuli/orders/stimOrder1.xlsx,,,,,,,,,,,,,0,0,0,0,,,,,,,,,,,,,,,,,,,,,,,,,,,,,,,,,,,,,,,,,,,50.0,336.5798032297753,,,,,,,99,M,1,r,CIB,2021_Aug_10_1459,WASABI distractmap,2020.2.10,59.99718001328324,"['Chest', 'Left Face', 'Abdomen', 'Chest', 'Right Face', 'Right Leg', 'Left Arm', 'Right Face', 'Left Arm', 'Right Leg', 'Right Arm', 'Right Arm', 'Left Leg', 'Left Face', 'Left Leg', 'Abdomen']",
2,"[0, 0.2]",None,stimuli/orders/stimOrder1.xlsx,,,,,,,,,0,0,0,0,0,0,0,0,357.3869187999517,None,,,,,,,,,,,,,,,,,,,,None,None,"[0, 0, 0]",358.4036002000794,None,358.4036002000794,359.40362419979647,359.3869384001009,360.38694499991834,"[0, 0, 0]",0,358.4036002000794,None,,,,,,,,,,,0.014332770369946957,None,,,,,99,M,1,r,CIB,2021_Aug_10_1459,WASABI distractmap,2020.2.10,59.99718001328324,"['Chest', 'Left Face', 'Abdomen', 'Chest', 'Right Face', 'Right Leg', 'Left Arm', 'Right Face', 'Left Arm', 'Right Leg', 'Right Arm', 'Right Arm', 'Left Leg', 'Left Face', 'Left Leg', 'Abdomen']",
2,"[0, 0.2]",None,stimuli/orders/stimOrder1.xlsx,,,,,,,,,0,1,1,1,0,0,0,0,,,,,,,,,,,,,,,,,,,,,,None,None,"[0, 0, 0]",360.403582399711,362.40351839968935,360.403582399711,361.4036097996868,361.3869528998621,362.38695900002494,"[0, 0, 0]",0,360.403582399711,362.40351839968935,,,,,,,,,,,,,,,,,99,M,1,r,CIB,2021_Aug_10_1459,WASABI distractmap,2020.2.10,59.99718001328324,"['Chest', 'Left Face', 'Abdomen', 'Chest', 'Right Face', 'Right Leg', 'Left Arm', 'Right Face', 'Left Arm', 'Right Leg', 'Right Arm', 'Right Arm', 'Left Leg', 'Left Face', 'Left Leg', 'Abdomen']",
2,"[0, 0.2]",1,stimuli/orders/stimOrder1.xlsx,,,,,,,,,0,2,2,2,0,0,0,0,,,,,,,,,,,,,,,,,,,,,,None,None,"[0, 0, 0]",362.42028719978407,364.42030659969896,362.42028719978407,363.42029740009457,363.4035163996741,364.403630099725,"[0, 0, 0]",1,362.42028719978407,364.42030659969896,,,,,,,,,,,,,,,,,99,M,1,r,CIB,2021_Aug_10_1459,WASABI distractmap,2020.2.10,59.99718001328324,"['Chest', 'Left Face', 'Abdomen', 'Chest', 'Right Face', 'Right Leg', 'Left Arm', 'Right Face', 'Left Arm', 'Right Leg', 'Right Arm', 'Right Arm', 'Left Leg', 'Left Face', 'Left Leg', 'Abdomen']",
8,"[0, -0.2]",0,stimuli/orders/stimOrder1.xlsx,,,,,,,,,0,3,3,3,0,0,0,0,,,,,,,,,,,,,,,,,,,,,,None,None,"[0, 0, 0]",364.4369660997763,366.43694299971685,364.4369660997763,365.4369671996683,365.42029820010066,366.4202029998414,"[0, 0, 0]",1,364.4369660997763,366.43694299971685,,,,,,,,,,,,,,,,,99,M,1,r,CIB,2021_Aug_10_1459,WASABI distractmap,2020.2.10,59.99718001328324,"['Chest', 'Left Face', 'Abdomen', 'Chest', 'Right Face', 'Right Leg', 'Left Arm', 'Right Face', 'Left Arm', 'Right Leg', 'Right Arm', 'Right Arm', 'Left Leg', 'Left Face', 'Left Leg', 'Abdomen']",
2,"[0, 0.2]",1,stimuli/orders/stimOrder1.xlsx,,,,,,,,,0,4,4,4,0,0,0,0,,,,,,,,,,,,,,,,,,,,,,None,None,"[0, 0, 0]",366.45365939987823,368.45364589989185,366.45365939987823,367.45366959972307,367.43698740005493,368.4369920999743,"[0, 0, 0]",0,366.45365939987823,368.45364589989185,,,,,,,,,,,,,,,,,99,M,1,r,CIB,2021_Aug_10_1459,WASABI distractmap,2020.2.10,59.99718001328324,"['Chest', 'Left Face', 'Abdomen', 'Chest', 'Right Face', 'Right Leg', 'Left Arm', 'Right Face', 'Left Arm', 'Right Leg', 'Right Arm', 'Right Arm', 'Left Leg', 'Left Face', 'Left Leg', 'Abdomen']",
5,"[0, 0]",0,stimuli/orders/stimOrder1.xlsx,,,,,,,,,0,5,5,5,0,0,0,0,,,,,,,,,,,,,,,,,,,,,,None,None,"[0, 0, 0]",368.4703353000805,370.470339700114,368.4703353000805,369.4703345997259,369.4536631000228,370.4536810996942,"[0, 0, 0]",0,368.4703353000805,370.470339700114,,,,,,,,,,,,,,,,,99,M,1,r,CIB,2021_Aug_10_1459,WASABI distractmap,2020.2.10,59.99718001328324,"['Chest', 'Left Face', 'Abdomen', 'Chest', 'Right Face', 'Right Leg', 'Left Arm', 'Right Face', 'Left Arm', 'Right Leg', 'Right Arm', 'Right Arm', 'Left Leg', 'Left Face', 'Left Leg', 'Abdomen']",
1,"[-0.2, 0.2]",0,stimuli/orders/stimOrder1.xlsx,,,,,,,,,0,6,6,6,0,0,0,0,,,,,,,,,,,,,,,,,,,,,,None,None,"[0, 0, 0]",370.48701340006664,372.4870229996741,370.48701340006664,371.4870258998126,371.4703494999558,372.4703488997184,"[0, 0, 0]",0,370.48701340006664,372.4870229996741,,,,,,,,,,,,,,,,,99,M,1,r,CIB,2021_Aug_10_1459,WASABI distractmap,2020.2.10,59.99718001328324,"['Chest', 'Left Face', 'Abdomen', 'Chest', 'Right Face', 'Right Leg', 'Left Arm', 'Right Face', 'Left Arm', 'Right Leg', 'Right Arm', 'Right Arm', 'Left Leg', 'Left Face', 'Left Leg', 'Abdomen']",
,,,stimuli/orders/stimOrder1.xlsx,,,,,,,,,,,,,0,0,0,0,,,,,,,,,,,,,,,,,,,,,,,,,,,,,,,,,,,,,,,,,,,33.45679012345679,353.76303753070533,,,,,,,99,M,1,r,CIB,2021_Aug_10_1459,WASABI distractmap,2020.2.10,59.99718001328324,"['Chest', 'Left Face', 'Abdomen', 'Chest', 'Right Face', 'Right Leg', 'Left Arm', 'Right Face', 'Left Arm', 'Right Leg', 'Right Arm', 'Right Arm', 'Left Leg', 'Left Face', 'Left Leg', 'Abdomen']",
2,"[0, 0.2]",None,stimuli/orders/stimOrder1.xlsx,,,,,,,,,0,0,0,0,0,0,0,0,374.57054519979283,None,,,,,,,,,,,,,,,,,,,,None,None,"[0, 0, 0]",375.58706789975986,None,375.58706789975986,376.58653649967164,376.570418599993,377.57039000000805,"[0, 0, 0]",0,375.58706789975986,None,,,,,,,,,,,0.01458526961505413,None,,,,,99,M,1,r,CIB,2021_Aug_10_1459,WASABI distractmap,2020.2.10,59.99718001328324,"['Chest', 'Left Face', 'Abdomen', 'Chest', 'Right Face', 'Right Leg', 'Left Arm', 'Right Face', 'Left Arm', 'Right Leg', 'Right Arm', 'Right Arm', 'Left Leg', 'Left Face', 'Left Leg', 'Abdomen']",
2,"[0, 0.2]",None,stimuli/orders/stimOrder1.xlsx,,,,,,,,,0,1,1,1,0,0,0,0,,,,,,,,,,,,,,,,,,,,,,None,None,"[0, 0, 0]",377.5870622000657,379.587066099979,377.5870622000657,378.58705900004134,378.5704125999473,379.5704347998835,"[0, 0, 0]",0,377.5870622000657,379.587066099979,,,,,,,,,,,,,,,,,99,M,1,r,CIB,2021_Aug_10_1459,WASABI distractmap,2020.2.10,59.99718001328324,"['Chest', 'Left Face', 'Abdomen', 'Chest', 'Right Face', 'Right Leg', 'Left Arm', 'Right Face', 'Left Arm', 'Right Leg', 'Right Arm', 'Right Arm', 'Left Leg', 'Left Face', 'Left Leg', 'Abdomen']",
2,"[0, 0.2]",1,stimuli/orders/stimOrder1.xlsx,,,,,,,,,0,2,2,2,0,0,0,0,,,,,,,,,,,,,,,,,,,,,,None,None,"[0, 0, 0]",379.6037928997539,381.60375439981,379.6037928997539,380.60375399980694,380.58707229979336,381.58709169970825,"[0, 0, 0]",0,379.6037928997539,381.60375439981,,,,,,,,,,,,,,,,,99,M,1,r,CIB,2021_Aug_10_1459,WASABI distractmap,2020.2.10,59.99718001328324,"['Chest', 'Left Face', 'Abdomen', 'Chest', 'Right Face', 'Right Leg', 'Left Arm', 'Right Face', 'Left Arm', 'Right Leg', 'Right Arm', 'Right Arm', 'Left Leg', 'Left Face', 'Left Leg', 'Abdomen']",
8,"[0, -0.2]",0,stimuli/orders/stimOrder1.xlsx,,,,,,,,,0,3,3,3,0,0,0,0,,,,,,,,,,,,,,,,,,,,,,None,None,"[0, 0, 0]",381.6204216997139,383.6204522997141,381.6204216997139,382.62043310003355,382.6037741000764,383.60377170005813,"[0, 0, 0]",0,381.6204216997139,383.6204522997141,,,,,,,,,,,,,,,,,99,M,1,r,CIB,2021_Aug_10_1459,WASABI distractmap,2020.2.10,59.99718001328324,"['Chest', 'Left Face', 'Abdomen', 'Chest', 'Right Face', 'Right Leg', 'Left Arm', 'Right Face', 'Left Arm', 'Right Leg', 'Right Arm', 'Right Arm', 'Left Leg', 'Left Face', 'Left Leg', 'Abdomen']",
2,"[0, 0.2]",1,stimuli/orders/stimOrder1.xlsx,,,,,,,,,0,4,4,4,0,0,0,0,,,,,,,,,,,,,,,,,,,,,,None,None,"[0, 0, 0]",383.63711909996346,385.63711769971997,383.63711909996346,384.6371174999513,384.6204395997338,385.62044580001384,"[0, 0, 0]",0,383.63711909996346,385.63711769971997,,,,,,,,,,,,,,,,,99,M,1,r,CIB,2021_Aug_10_1459,WASABI distractmap,2020.2.10,59.99718001328324,"['Chest', 'Left Face', 'Abdomen', 'Chest', 'Right Face', 'Right Leg', 'Left Arm', 'Right Face', 'Left Arm', 'Right Leg', 'Right Arm', 'Right Arm', 'Left Leg', 'Left Face', 'Left Leg', 'Abdomen']",
5,"[0, 0]",0,stimuli/orders/stimOrder1.xlsx,,,,,,,,,0,5,5,5,0,0,0,0,,,,,,,,,,,,,,,,,,,,,,None,None,"[0, 0, 0]",385.653775899671,387.65379939973354,385.653775899671,386.6537760999054,386.6371343997307,387.63713099993765,"[0, 0, 0]",0,385.653775899671,387.65379939973354,,,,,,,,,,,,,,,,,99,M,1,r,CIB,2021_Aug_10_1459,WASABI distractmap,2020.2.10,59.99718001328324,"['Chest', 'Left Face', 'Abdomen', 'Chest', 'Right Face', 'Right Leg', 'Left Arm', 'Right Face', 'Left Arm', 'Right Leg', 'Right Arm', 'Right Arm', 'Left Leg', 'Left Face', 'Left Leg', 'Abdomen']",
1,"[-0.2, 0.2]",0,stimuli/orders/stimOrder1.xlsx,,,,,,,,,0,6,6,6,0,0,0,0,,,,,,,,,,,,,,,,,,,,,,None,None,"[0, 0, 0]",387.6704758997075,389.6704855998978,387.6704758997075,388.67047119978815,388.6538017997518,389.65380299976096,"[0, 0, 0]",0,387.6704758997075,389.6704855998978,,,,,,,,,,,,,,,,,99,M,1,r,CIB,2021_Aug_10_1459,WASABI distractmap,2020.2.10,59.99718001328324,"['Chest', 'Left Face', 'Abdomen', 'Chest', 'Right Face', 'Right Leg', 'Left Arm', 'Right Face', 'Left Arm', 'Right Leg', 'Right Arm', 'Right Arm', 'Left Leg', 'Left Face', 'Left Leg', 'Abdomen']",
,,,stimuli/orders/stimOrder1.xlsx,,,,,,,,,,,,,0,0,0,0,,,,,,,,,,,,,,,,,,,,,,,,,,,,,,,,,,,,,,,,,,,30.06172839506173,370.47981033008546,,,,,,,99,M,1,r,CIB,2021_Aug_10_1459,WASABI distractmap,2020.2.10,59.99718001328324,"['Chest', 'Left Face', 'Abdomen', 'Chest', 'Right Face', 'Right Leg', 'Left Arm', 'Right Face', 'Left Arm', 'Right Leg', 'Right Arm', 'Right Arm', 'Left Leg', 'Left Face', 'Left Leg', 'Abdomen']",
2,"[0, 0.2]",None,stimuli/orders/stimOrder1.xlsx,,,,,,,,,0,0,0,0,0,0,0,0,391.28747039986774,None,,,,,,,,,,,,,,,,,,,,None,None,"[0, 0, 0]",392.30382859986275,None,392.30382859986275,393.30385519983247,393.2705016997643,394.2705231998116,"[0, 0, 0]",0,392.30382859986275,None,,,,,,,,,,,0.014569870196282864,None,,,,,99,M,1,r,CIB,2021_Aug_10_1459,WASABI distractmap,2020.2.10,59.99718001328324,"['Chest', 'Left Face', 'Abdomen', 'Chest', 'Right Face', 'Right Leg', 'Left Arm', 'Right Face', 'Left Arm', 'Right Leg', 'Right Arm', 'Right Arm', 'Left Leg', 'Left Face', 'Left Leg', 'Abdomen']",
2,"[0, 0.2]",None,stimuli/orders/stimOrder1.xlsx,,,,,,,,,0,1,1,1,0,0,0,0,,,,,,,,,,,,,,,,,,,,,,None,None,"[1, 0, 0]",394.3038424998522,396.3038602997549,394.3038424998522,395.3038563998416,395.2871992997825,396.2871985998936,"[1, 0, 0]",0,394.3038424998522,396.3038602997549,,,,,,,,,,,,,,,1.900346300099045,1.483680299948901,99,M,1,r,CIB,2021_Aug_10_1459,WASABI distractmap,2020.2.10,59.99718001328324,"['Chest', 'Left Face', 'Abdomen', 'Chest', 'Right Face', 'Right Leg', 'Left Arm', 'Right Face', 'Left Arm', 'Right Leg', 'Right Arm', 'Right Arm', 'Left Leg', 'Left Face', 'Left Leg', 'Abdomen']",
2,"[0, 0.2]",1,stimuli/orders/stimOrder1.xlsx,,,,,,,,,0,2,2,2,0,0,0,0,,,,,,,,,,,,,,,,,,,,,,None,None,"[0, 0, 0]",396.3205470996909,398.32054860005155,396.3205470996909,397.3205327000469,397.303868399933,398.3038711999543,"[0, 0, 0]",0,396.3205470996909,398.32054860005155,,,,,,,,,,,,,,,,,99,M,1,r,CIB,2021_Aug_10_1459,WASABI distractmap,2020.2.10,59.99718001328324,"['Chest', 'Left Face', 'Abdomen', 'Chest', 'Right Face', 'Right Leg', 'Left Arm', 'Right Face', 'Left Arm', 'Right Leg', 'Right Arm', 'Right Arm', 'Left Leg', 'Left Face', 'Left Leg', 'Abdomen']",
8,"[0, -0.2]",0,stimuli/orders/stimOrder1.xlsx,,,,,,,,,0,3,3,3,0,0,0,0,,,,,,,,,,,,,,,,,,,,,,None,None,"[0, 0, 0]",398.33720410009846,400.3372219996527,398.33720410009846,399.3372108996846,399.32057849969715,400.32057109987363,"[0, 0, 0]",0,398.33720410009846,400.3372219996527,,,,,,,,,,,,,,,,,99,M,1,r,CIB,2021_Aug_10_1459,WASABI distractmap,2020.2.10,59.99718001328324,"['Chest', 'Left Face', 'Abdomen', 'Chest', 'Right Face', 'Right Leg', 'Left Arm', 'Right Face', 'Left Arm', 'Right Leg', 'Right Arm', 'Right Arm', 'Left Leg', 'Left Face', 'Left Leg', 'Abdomen']",
2,"[0, 0.2]",1,stimuli/orders/stimOrder1.xlsx,,,,,,,,,0,4,4,4,0,0,0,0,,,,,,,,,,,,,,,,,,,,,,None,None,"[0, 0, 0]",400.35389909986407,402.353907099925,400.35389909986407,401.3538957997225,401.3372261999175,402.33722969982773,"[0, 0, 0]",0,400.35389909986407,402.353907099925,,,,,,,,,,,,,,,,,99,M,1,r,CIB,2021_Aug_10_1459,WASABI distractmap,2020.2.10,59.99718001328324,"['Chest', 'Left Face', 'Abdomen', 'Chest', 'Right Face', 'Right Leg', 'Left Arm', 'Right Face', 'Left Arm', 'Right Leg', 'Right Arm', 'Right Arm', 'Left Leg', 'Left Face', 'Left Leg', 'Abdomen']",
5,"[0, 0]",0,stimuli/orders/stimOrder1.xlsx,,,,,,,,,0,5,5,5,0,0,0,0,,,,,,,,,,,,,,,,,,,,,,None,None,"[0, 0, 0]",402.37060600006953,404.3705875999294,402.37060600006953,403.37058159988374,403.35392590006813,404.35392870008945,"[0, 0, 0]",0,402.37060600006953,404.3705875999294,,,,,,,,,,,,,,,,,99,M,1,r,CIB,2021_Aug_10_1459,WASABI distractmap,2020.2.10,59.99718001328324,"['Chest', 'Left Face', 'Abdomen', 'Chest', 'Right Face', 'Right Leg', 'Left Arm', 'Right Face', 'Left Arm', 'Right Leg', 'Right Arm', 'Right Arm', 'Left Leg', 'Left Face', 'Left Leg', 'Abdomen']",
1,"[-0.2, 0.2]",0,stimuli/orders/stimOrder1.xlsx,,,,,,,,,0,6,6,6,0,0,0,0,,,,,,,,,,,,,,,,,,,,,,None,None,"[0, 0, 0]",404.3872603997588,406.3872686997056,404.3872603997588,405.3872715998441,405.37059419974685,406.37061299989,"[0, 0, 0]",0,404.3872603997588,406.3872686997056,,,,,,,,,,,,,,,,,99,M,1,r,CIB,2021_Aug_10_1459,WASABI distractmap,2020.2.10,59.99718001328324,"['Chest', 'Left Face', 'Abdomen', 'Chest', 'Right Face', 'Right Leg', 'Left Arm', 'Right Face', 'Left Arm', 'Right Leg', 'Right Arm', 'Right Arm', 'Left Leg', 'Left Face', 'Left Leg', 'Abdomen']",
,,,stimuli/orders/stimOrder1.xlsx,,,,,,,,,,,,,0,0,0,0,,,,,,,,,,,,,,,,,,,,,,,,,,,,,,,,,,,,,,,,,,,37.46913580246913,387.8799225296825,,,,,,,99,M,1,r,CIB,2021_Aug_10_1459,WASABI distractmap,2020.2.10,59.99718001328324,"['Chest', 'Left Face', 'Abdomen', 'Chest', 'Right Face', 'Right Leg', 'Left Arm', 'Right Face', 'Left Arm', 'Right Leg', 'Right Arm', 'Right Arm', 'Left Leg', 'Left Face', 'Left Leg', 'Abdomen']",
2,"[0, 0.2]",None,stimuli/orders/stimOrder1.xlsx,,,,,,,,,0,0,0,0,0,0,0,0,408.687588499859,None,,,,,,,,,,,,,,,,,,,,None,None,"[0, 0, 0]",409.7039613998495,None,409.7039613998495,410.70397759974,410.6872967998497,411.68730549979955,"[0, 0, 0]",0,409.7039613998495,None,,,,,,,,,,,0.014590670354664326,None,,,,,99,M,1,r,CIB,2021_Aug_10_1459,WASABI distractmap,2020.2.10,59.99718001328324,"['Chest', 'Left Face', 'Abdomen', 'Chest', 'Right Face', 'Right Leg', 'Left Arm', 'Right Face', 'Left Arm', 'Right Leg', 'Right Arm', 'Right Arm', 'Left Leg', 'Left Face', 'Left Leg', 'Abdomen']",
2,"[0, 0.2]",None,stimuli/orders/stimOrder1.xlsx,,,,,,,,,0,1,1,1,0,0,0,0,,,,,,,,,,,,,,,,,,,,,,None,None,"[0, 0, 0]",411.70402329973876,413.7039843997918,411.70402329973876,412.70397510007024,412.6873216996901,413.68731869990006,"[0, 0, 0]",1,411.70402329973876,413.7039843997918,,,,,,,,,,,,,,,,,99,M,1,r,CIB,2021_Aug_10_1459,WASABI distractmap,2020.2.10,59.99718001328324,"['Chest', 'Left Face', 'Abdomen', 'Chest', 'Right Face', 'Right Leg', 'Left Arm', 'Right Face', 'Left Arm', 'Right Leg', 'Right Arm', 'Right Arm', 'Left Leg', 'Left Face', 'Left Leg', 'Abdomen']",
2,"[0, 0.2]",1,stimuli/orders/stimOrder1.xlsx,,,,,,,,,0,2,2,2,0,0,0,0,,,,,,,,,,,,,,,,,,,,,,None,None,"[0, 0, 0]",413.72063949983567,415.7206604001112,413.72063949983567,414.72064760001376,414.70400259969756,415.70400090003386,"[0, 0, 0]",0,413.72063949983567,415.7206604001112,,,,,,,,,,,,,,,,,99,M,1,r,CIB,2021_Aug_10_1459,WASABI distractmap,2020.2.10,59.99718001328324,"['Chest', 'Left Face', 'Abdomen', 'Chest', 'Right Face', 'Right Leg', 'Left Arm', 'Right Face', 'Left Arm', 'Right Leg', 'Right Arm', 'Right Arm', 'Left Leg', 'Left Face', 'Left Leg', 'Abdomen']",
8,"[0, -0.2]",0,stimuli/orders/stimOrder1.xlsx,,,,,,,,,0,3,3,3,0,0,0,0,,,,,,,,,,,,,,,,,,,,,,None,None,"[0, 0, 0]",415.73734090011567,417.73735280008987,415.73734090011567,416.7373298997991,416.72067759977654,417.72069079987705,"[0, 0, 0]",0,415.73734090011567,417.73735280008987,,,,,,,,,,,,,,,,,99,M,1,r,CIB,2021_Aug_10_1459,WASABI distractmap,2020.2.10,59.99718001328324,"['Chest', 'Left Face', 'Abdomen', 'Chest', 'Right Face', 'Right Leg', 'Left Arm', 'Right Face', 'Left Arm', 'Right Leg', 'Right Arm', 'Right Arm', 'Left Leg', 'Left Face', 'Left Leg', 'Abdomen']",
2,"[0, 0.2]",1,stimuli/orders/stimOrder1.xlsx,,,,,,,,,0,4,4,4,0,0,0,0,,,,,,,,,,,,,,,,,,,,,,None,None,"[0, 0, 0]",417.7540306998417,419.75404659984633,417.7540306998417,418.7540155998431,418.7373579996638,419.7373635000549,"[0, 0, 0]",0,417.7540306998417,419.75404659984633,,,,,,,,,,,,,,,,,99,M,1,r,CIB,2021_Aug_10_1459,WASABI distractmap,2020.2.10,59.99718001328324,"['Chest', 'Left Face', 'Abdomen', 'Chest', 'Right Face', 'Right Leg', 'Left Arm', 'Right Face', 'Left Arm', 'Right Leg', 'Right Arm', 'Right Arm', 'Left Leg', 'Left Face', 'Left Leg', 'Abdomen']",
5,"[0, 0]",0,stimuli/orders/stimOrder1.xlsx,,,,,,,,,0,5,5,5,0,0,0,0,,,,,,,,,,,,,,,,,,,,,,None,None,"[0, 0, 0]",419.7707082997076,421.77071369998157,419.7707082997076,420.77069119969383,420.7540592998266,421.7540401997976,"[0, 0, 0]",0,419.7707082997076,421.77071369998157,,,,,,,,,,,,,,,,,99,M,1,r,CIB,2021_Aug_10_1459,WASABI distractmap,2020.2.10,59.99718001328324,"['Chest', 'Left Face', 'Abdomen', 'Chest', 'Right Face', 'Right Leg', 'Left Arm', 'Right Face', 'Left Arm', 'Right Leg', 'Right Arm', 'Right Arm', 'Left Leg', 'Left Face', 'Left Leg', 'Abdomen']",
1,"[-0.2, 0.2]",0,stimuli/orders/stimOrder1.xlsx,,,,,,,,,0,6,6,6,0,0,0,0,,,,,,,,,,,,,,,,,,,,,,None,None,"[0, 0, 0]",421.78738239966333,423.78738510003313,421.78738239966333,422.7873907997273,422.7707218998112,423.7707082997076,"[0, 0, 0]",0,421.78738239966333,423.78738510003313,,,,,,,,,,,,,,,,,99,M,1,r,CIB,2021_Aug_10_1459,WASABI distractmap,2020.2.10,59.99718001328324,"['Chest', 'Left Face', 'Abdomen', 'Chest', 'Right Face', 'Right Leg', 'Left Arm', 'Right Face', 'Left Arm', 'Right Leg', 'Right Arm', 'Right Arm', 'Left Leg', 'Left Face', 'Left Leg', 'Abdomen']",
,,,stimuli/orders/stimOrder1.xlsx,,,,,,,,,,,,,0,0,0,0,,,,,,,,,,,,,,,,,,,,,,,,,,,,,,,,,,,,,,,,,,,50.0,407.99670683033764,,,,,,,99,M,1,r,CIB,2021_Aug_10_1459,WASABI distractmap,2020.2.10,59.99718001328324,"['Chest', 'Left Face', 'Abdomen', 'Chest', 'Right Face', 'Right Leg', 'Left Arm', 'Right Face', 'Left Arm', 'Right Leg', 'Right Arm', 'Right Arm', 'Left Leg', 'Left Face', 'Left Leg', 'Abdomen']",
2,"[0, 0.2]",None,stimuli/orders/stimOrder1.xlsx,,,,,0,0,0,0,,,,,0,0,0,0,439.6704722000286,None,440.7211337997578,None,440.7211337997578,441.72084809979424,441.72084809979424,None,0,None,None,"[0, 0, 0]",,,440.7211337997578,None,,,,,,,,,,,,,,,,,,,,,,,,,,"[0, 0, 0]",,,0.014602269977331161,5.012495770119131,,,,,99,M,1,r,CIB,2021_Aug_10_1459,WASABI distractmap,2020.2.10,59.99718001328324,"['Chest', 'Left Face', 'Abdomen', 'Chest', 'Right Face', 'Right Leg', 'Left Arm', 'Right Face', 'Left Arm', 'Right Leg', 'Right Arm', 'Right Arm', 'Left Leg', 'Left Face', 'Left Leg', 'Abdomen']",
2,"[0, 0.2]",1,stimuli/orders/stimOrder1.xlsx,,,,,0,1,1,1,,,,,0,0,0,0,,,442.6875454997644,None,442.6875454997644,443.6875918000005,443.6708697997965,444.67087160004303,1,None,None,"[0, 0, 0]",,,442.6875454997644,None,,,,,,,,,,,,,,,,,,,,,,,,,,"[0, 0, 0]",,,,,,,,,99,M,1,r,CIB,2021_Aug_10_1459,WASABI distractmap,2020.2.10,59.99718001328324,"['Chest', 'Left Face', 'Abdomen', 'Chest', 'Right Face', 'Right Leg', 'Left Arm', 'Right Face', 'Left Arm', 'Right Leg', 'Right Arm', 'Right Arm', 'Left Leg', 'Left Face', 'Left Leg', 'Abdomen']",
1,"[-0.2, 0.2]",0,stimuli/orders/stimOrder1.xlsx,,,,,0,2,2,2,,,,,0,0,0,0,,,444.6875529997051,444.6875529997051,444.6875529997051,445.6875653997995,445.6708896998316,446.6708821998909,0,None,None,"[0, 0, 0]",,,444.6875529997051,444.6875529997051,,,,,,,,,,,,,,,,,,,,,,,,,,"[0, 0, 0]",,,,,,,,,99,M,1,r,CIB,2021_Aug_10_1459,WASABI distractmap,2020.2.10,59.99718001328324,"['Chest', 'Left Face', 'Abdomen', 'Chest', 'Right Face', 'Right Leg', 'Left Arm', 'Right Face', 'Left Arm', 'Right Leg', 'Right Arm', 'Right Arm', 'Left Leg', 'Left Face', 'Left Leg', 'Abdomen']",
2,"[0, 0.2]",0,stimuli/orders/stimOrder1.xlsx,,,,,0,3,3,3,,,,,0,0,0,0,,,446.68758699996397,446.68758699996397,446.68758699996397,447.68758959975094,447.67090119980276,448.67089399974793,0,None,None,"[0, 0, 0]",,,446.68758699996397,446.68758699996397,,,,,,,,,,,,,,,,,,,,,,,,,,"[0, 0, 0]",,,,,,,,,99,M,1,r,CIB,2021_Aug_10_1459,WASABI distractmap,2020.2.10,59.99718001328324,"['Chest', 'Left Face', 'Abdomen', 'Chest', 'Right Face', 'Right Leg', 'Left Arm', 'Right Face', 'Left Arm', 'Right Leg', 'Right Arm', 'Right Arm', 'Left Leg', 'Left Face', 'Left Leg', 'Abdomen']",
2,"[0, 0.2]",1,stimuli/orders/stimOrder1.xlsx,,,,,0,4,4,4,,,,,0,0,0,0,,,448.68757979990914,448.68757979990914,448.68757979990914,449.68758879974484,449.6709253997542,450.6709296996705,1,None,None,"[0, 0, 0]",,,448.68757979990914,448.68757979990914,,,,,,,,,,,,,,,,,,,,,,,,,,"[0, 0, 0]",,,,,,,,,99,M,1,r,CIB,2021_Aug_10_1459,WASABI distractmap,2020.2.10,59.99718001328324,"['Chest', 'Left Face', 'Abdomen', 'Chest', 'Right Face', 'Right Leg', 'Left Arm', 'Right Face', 'Left Arm', 'Right Leg', 'Right Arm', 'Right Arm', 'Left Leg', 'Left Face', 'Left Leg', 'Abdomen']",
4,"[-0.2, 0]",0,stimuli/orders/stimOrder1.xlsx,,,,,0,5,5,5,,,,,0,0,0,0,,,450.68762139976025,450.68762139976025,450.68762139976025,451.68759709969163,451.6708213998936,452.6709348997101,0,None,None,"[0, 0, 0]",,,450.68762139976025,450.68762139976025,,,,,,,,,,,,,,,,,,,,,,,,,,"[0, 0, 0]",,,,,,,,,99,M,1,r,CIB,2021_Aug_10_1459,WASABI distractmap,2020.2.10,59.99718001328324,"['Chest', 'Left Face', 'Abdomen', 'Chest', 'Right Face', 'Right Leg', 'Left Arm', 'Right Face', 'Left Arm', 'Right Leg', 'Right Arm', 'Right Arm', 'Left Leg', 'Left Face', 'Left Leg', 'Abdomen']",
6,"[0.2, 0]",0,stimuli/orders/stimOrder1.xlsx,,,,,0,6,6,6,,,,,0,0,0,0,,,452.6876082997769,452.6876082997769,452.6876082997769,453.6876451000571,453.67095219995826,454.6709364997223,0,None,None,"[0, 0, 0]",,,452.6876082997769,452.6876082997769,,,,,,,,,,,,,,,,,,,,,,,,,,"[0, 0, 0]",,,,,,,,,99,M,1,r,CIB,2021_Aug_10_1459,WASABI distractmap,2020.2.10,59.99718001328324,"['Chest', 'Left Face', 'Abdomen', 'Chest', 'Right Face', 'Right Leg', 'Left Arm', 'Right Face', 'Left Arm', 'Right Leg', 'Right Arm', 'Right Arm', 'Left Leg', 'Left Face', 'Left Leg', 'Abdomen']",
,,,stimuli/orders/stimOrder1.xlsx,,,,,,,,,,,,,0,0,0,0,,,,,,,,,,,,,,,,,,,,,,,,,,,,,,,,,,,,,,,,,,,44.629629629629626,436.28191083017737,,,,,,,99,M,1,r,CIB,2021_Aug_10_1459,WASABI distractmap,2020.2.10,59.99718001328324,"['Chest', 'Left Face', 'Abdomen', 'Chest', 'Right Face', 'Right Leg', 'Left Arm', 'Right Face', 'Left Arm', 'Right Leg', 'Right Arm', 'Right Arm', 'Left Leg', 'Left Face', 'Left Leg', 'Abdomen']",
2,"[0, 0.2]",None,stimuli/orders/stimOrder1.xlsx,,,,,0,0,0,0,,,,,0,0,0,0,457.08791909972206,None,458.1213559997268,None,458.1213559997268,459.1209784001112,459.1043090997264,None,1,None,None,"[0, 0, 0]",,,458.1213559997268,None,,,,,,,,,,,,,,,,,,,,,,,,,,"[0, 0, 0]",,,0.012942470144480467,None,,,,,99,M,1,r,CIB,2021_Aug_10_1459,WASABI distractmap,2020.2.10,59.99718001328324,"['Chest', 'Left Face', 'Abdomen', 'Chest', 'Right Face', 'Right Leg', 'Left Arm', 'Right Face', 'Left Arm', 'Right Leg', 'Right Arm', 'Right Arm', 'Left Leg', 'Left Face', 'Left Leg', 'Abdomen']",
2,"[0, 0.2]",1,stimuli/orders/stimOrder1.xlsx,,,,,0,1,1,1,,,,,0,0,0,0,,,460.10433200001717,None,460.10433200001717,461.1043316000141,461.08766609989107,462.0876627997495,0,None,None,"[0, 0, 0]",,,460.10433200001717,None,,,,,,,,,,,,,,,,,,,,,,,,,,"[0, 0, 0]",,,,,,,,,99,M,1,r,CIB,2021_Aug_10_1459,WASABI distractmap,2020.2.10,59.99718001328324,"['Chest', 'Left Face', 'Abdomen', 'Chest', 'Right Face', 'Right Leg', 'Left Arm', 'Right Face', 'Left Arm', 'Right Leg', 'Right Arm', 'Right Arm', 'Left Leg', 'Left Face', 'Left Leg', 'Abdomen']",
1,"[-0.2, 0.2]",0,stimuli/orders/stimOrder1.xlsx,,,,,0,2,2,2,,,,,0,0,0,0,,,462.1043340000324,462.1043340000324,462.1043340000324,463.1043475000188,463.08769439999014,464.0876881000586,0,None,None,"[0, 0, 0]",,,462.1043340000324,462.1043340000324,,,,,,,,,,,,,,,,,,,,,,,,,,"[0, 0, 0]",,,,,,,,,99,M,1,r,CIB,2021_Aug_10_1459,WASABI distractmap,2020.2.10,59.99718001328324,"['Chest', 'Left Face', 'Abdomen', 'Chest', 'Right Face', 'Right Leg', 'Left Arm', 'Right Face', 'Left Arm', 'Right Leg', 'Right Arm', 'Right Arm', 'Left Leg', 'Left Face', 'Left Leg', 'Abdomen']",
2,"[0, 0.2]",0,stimuli/orders/stimOrder1.xlsx,,,,,0,3,3,3,,,,,0,0,0,0,,,464.104358300101,464.104358300101,464.104358300101,465.10435609985143,465.0876881997101,466.0876894998364,0,None,None,"[0, 0, 0]",,,464.104358300101,464.104358300101,,,,,,,,,,,,,,,,,,,,,,,,,,"[0, 0, 0]",,,,,,,,,99,M,1,r,CIB,2021_Aug_10_1459,WASABI distractmap,2020.2.10,59.99718001328324,"['Chest', 'Left Face', 'Abdomen', 'Chest', 'Right Face', 'Right Leg', 'Left Arm', 'Right Face', 'Left Arm', 'Right Leg', 'Right Arm', 'Right Arm', 'Left Leg', 'Left Face', 'Left Leg', 'Abdomen']",
2,"[0, 0.2]",1,stimuli/orders/stimOrder1.xlsx,,,,,0,4,4,4,,,,,0,0,0,0,,,466.10437439987436,466.10437439987436,466.10437439987436,467.10437890002504,467.0877042999491,468.08771599968895,0,None,None,"[0, 0, 0]",,,466.10437439987436,466.10437439987436,,,,,,,,,,,,,,,,,,,,,,,,,,"[0, 0, 0]",,,,,,,,,99,M,1,r,CIB,2021_Aug_10_1459,WASABI distractmap,2020.2.10,59.99718001328324,"['Chest', 'Left Face', 'Abdomen', 'Chest', 'Right Face', 'Right Leg', 'Left Arm', 'Right Face', 'Left Arm', 'Right Leg', 'Right Arm', 'Right Arm', 'Left Leg', 'Left Face', 'Left Leg', 'Abdomen']",
4,"[-0.2, 0]",0,stimuli/orders/stimOrder1.xlsx,,,,,0,5,5,5,,,,,0,0,0,0,,,468.10438629984856,468.10438629984856,468.10438629984856,469.10439219977707,469.0877334000543,470.08772539999336,0,None,None,"[0, 0, 0]",,,468.10438629984856,468.10438629984856,,,,,,,,,,,,,,,,,,,,,,,,,,"[0, 0, 0]",,,,,,,,,99,M,1,r,CIB,2021_Aug_10_1459,WASABI distractmap,2020.2.10,59.99718001328324,"['Chest', 'Left Face', 'Abdomen', 'Chest', 'Right Face', 'Right Leg', 'Left Arm', 'Right Face', 'Left Arm', 'Right Leg', 'Right Arm', 'Right Arm', 'Left Leg', 'Left Face', 'Left Leg', 'Abdomen']",
6,"[0.2, 0]",0,stimuli/orders/stimOrder1.xlsx,,,,,0,6,6,6,,,,,0,0,0,0,,,470.1044088997878,470.1044088997878,470.1044088997878,471.10439889971167,471.08773359982297,472.08771529980004,0,None,None,"[0, 0, 0]",,,470.1044088997878,470.1044088997878,,,,,,,,,,,,,,,,,,,,,,,,,,"[0, 0, 0]",,,,,,,,,99,M,1,r,CIB,2021_Aug_10_1459,WASABI distractmap,2020.2.10,59.99718001328324,"['Chest', 'Left Face', 'Abdomen', 'Chest', 'Right Face', 'Right Leg', 'Left Arm', 'Right Face', 'Left Arm', 'Right Leg', 'Right Arm', 'Right Arm', 'Left Leg', 'Left Face', 'Left Leg', 'Abdomen']",
,,,stimuli/orders/stimOrder1.xlsx,,,,,,,,,,,,,0,0,0,0,,,,,,,,,,,,,,,,,,,,,,,,,,,,,,,,,,,,,,,,,,,39.81481481481482,452.365563029889,,,,,,,99,M,1,r,CIB,2021_Aug_10_1459,WASABI distractmap,2020.2.10,59.99718001328324,"['Chest', 'Left Face', 'Abdomen', 'Chest', 'Right Face', 'Right Leg', 'Left Arm', 'Right Face', 'Left Arm', 'Right Leg', 'Right Arm', 'Right Arm', 'Left Leg', 'Left Face', 'Left Leg', 'Abdomen']",
2,"[0, 0.2]",None,stimuli/orders/stimOrder1.xlsx,,,,,0,0,0,0,,,,,0,0,0,0,473.17145669972524,None,474.20480179972947,None,474.20480179972947,475.2044505998492,475.1877537998371,None,1,None,None,"[0, 0, 0]",,,474.20480179972947,None,,,,,,,,,,,,,,,,,,,,,,,,,,"[0, 0, 0]",,,0.01274337014183402,None,,,,,99,M,1,r,CIB,2021_Aug_10_1459,WASABI distractmap,2020.2.10,59.99718001328324,"['Chest', 'Left Face', 'Abdomen', 'Chest', 'Right Face', 'Right Leg', 'Left Arm', 'Right Face', 'Left Arm', 'Right Leg', 'Right Arm', 'Right Arm', 'Left Leg', 'Left Face', 'Left Leg', 'Abdomen']",
2,"[0, 0.2]",1,stimuli/orders/stimOrder1.xlsx,,,,,0,1,1,1,,,,,0,0,0,0,,,476.1877886997536,None,476.1877886997536,477.1878078998998,477.17112209973857,478.17112579988316,0,None,None,"[0, 0, 0]",,,476.1877886997536,None,,,,,,,,,,,,,,,,,,,,,,,,,,"[0, 0, 0]",,,,,,,,,99,M,1,r,CIB,2021_Aug_10_1459,WASABI distractmap,2020.2.10,59.99718001328324,"['Chest', 'Left Face', 'Abdomen', 'Chest', 'Right Face', 'Right Leg', 'Left Arm', 'Right Face', 'Left Arm', 'Right Leg', 'Right Arm', 'Right Arm', 'Left Leg', 'Left Face', 'Left Leg', 'Abdomen']",
1,"[-0.2, 0.2]",0,stimuli/orders/stimOrder1.xlsx,,,,,0,2,2,2,,,,,0,0,0,0,,,478.18777609989047,478.18777609989047,478.18777609989047,479.18779469979927,479.171131900046,480.171140700113,0,None,None,"[0, 0, 0]",,,478.18777609989047,478.18777609989047,,,,,,,,,,,,,,,,,,,,,,,,,,"[0, 0, 0]",,,,,,,,,99,M,1,r,CIB,2021_Aug_10_1459,WASABI distractmap,2020.2.10,59.99718001328324,"['Chest', 'Left Face', 'Abdomen', 'Chest', 'Right Face', 'Right Leg', 'Left Arm', 'Right Face', 'Left Arm', 'Right Leg', 'Right Arm', 'Right Arm', 'Left Leg', 'Left Face', 'Left Leg', 'Abdomen']",
2,"[0, 0.2]",0,stimuli/orders/stimOrder1.xlsx,,,,,0,3,3,3,,,,,0,0,0,0,,,480.18781049968675,480.18781049968675,480.18781049968675,481.1878003999591,481.171155099757,482.17114660004154,0,None,None,"[0, 0, 0]",,,480.18781049968675,480.18781049968675,,,,,,,,,,,,,,,,,,,,,,,,,,"[0, 0, 0]",,,,,,,,,99,M,1,r,CIB,2021_Aug_10_1459,WASABI distractmap,2020.2.10,59.99718001328324,"['Chest', 'Left Face', 'Abdomen', 'Chest', 'Right Face', 'Right Leg', 'Left Arm', 'Right Face', 'Left Arm', 'Right Leg', 'Right Arm', 'Right Arm', 'Left Leg', 'Left Face', 'Left Leg', 'Abdomen']",
2,"[0, 0.2]",1,stimuli/orders/stimOrder1.xlsx,,,,,0,4,4,4,,,,,0,0,0,0,,,482.18781939987093,482.18781939987093,482.18781939987093,483.1878231000155,483.1711597000249,484.1711565000005,0,None,None,"[0, 0, 0]",,,482.18781939987093,482.18781939987093,,,,,,,,,,,,,,,,,,,,,,,,,,"[0, 0, 0]",,,,,,,,,99,M,1,r,CIB,2021_Aug_10_1459,WASABI distractmap,2020.2.10,59.99718001328324,"['Chest', 'Left Face', 'Abdomen', 'Chest', 'Right Face', 'Right Leg', 'Left Arm', 'Right Face', 'Left Arm', 'Right Leg', 'Right Arm', 'Right Arm', 'Left Leg', 'Left Face', 'Left Leg', 'Abdomen']",
4,"[-0.2, 0]",0,stimuli/orders/stimOrder1.xlsx,,,,,0,5,5,5,,,,,0,0,0,0,,,484.1878382996656,484.1878382996656,484.1878382996656,485.1878339997493,485.171169300098,486.1711826999672,0,None,None,"[0, 0, 0]",,,484.1878382996656,484.1878382996656,,,,,,,,,,,,,,,,,,,,,,,,,,"[0, 0, 0]",,,,,,,,,99,M,1,r,CIB,2021_Aug_10_1459,WASABI distractmap,2020.2.10,59.99718001328324,"['Chest', 'Left Face', 'Abdomen', 'Chest', 'Right Face', 'Right Leg', 'Left Arm', 'Right Face', 'Left Arm', 'Right Leg', 'Right Arm', 'Right Arm', 'Left Leg', 'Left Face', 'Left Leg', 'Abdomen']",
6,"[0.2, 0]",0,stimuli/orders/stimOrder1.xlsx,,,,,0,6,6,6,,,,,0,0,0,0,,,486.18785419967026,486.18785419967026,486.18785419967026,487.1878498001024,487.17117259977385,488.1711899996735,0,None,None,"[0, 0, 0]",,,486.18785419967026,486.18785419967026,,,,,,,,,,,,,,,,,,,,,,,,,,"[0, 0, 0]",,,,,,,,,99,M,1,r,CIB,2021_Aug_10_1459,WASABI distractmap,2020.2.10,59.99718001328324,"['Chest', 'Left Face', 'Abdomen', 'Chest', 'Right Face', 'Right Leg', 'Left Arm', 'Right Face', 'Left Arm', 'Right Leg', 'Right Arm', 'Right Arm', 'Left Leg', 'Left Face', 'Left Leg', 'Abdomen']",
