square,location,corrAns,TaskT1Loop.thisRepN,TaskT1Loop.thisTrialN,TaskT1Loop.thisN,TaskT1Loop.thisIndex,trials.thisRepN,trials.thisTrialN,trials.thisN,trials.thisIndex,trials_2.thisRepN,trials_2.thisTrialN,trials_2.thisN,trials_2.thisIndex,runLoop.thisRepN,runLoop.thisTrialN,runLoop.thisN,runLoop.thisIndex,runSeq,fixation_1.started,fixation_1.stopped,grid_lines.started,grid_lines.stopped,target_square.started,target_square.stopped,fixation_2.started,fixation_2.stopped,response.corr,response.x,response.y,response.leftButton,response.click_left,response.click_right,response.started,response.stopped,ScoreReportText.started,ScoreReportText.stopped,ScoreReportResponse.keys,ScoreReportResponse.started,ScoreReportResponse.stopped,response_2.x,response_2.y,response_2.leftButton,grid_lines_2.started,grid_lines_2.stopped,target_square_2.started,target_square_2.stopped,fixation_3.started,fixation_3.stopped,response_2.click,response_2.corr,response_2.started,response_2.stopped,BodySiteInstructionText.started,BodySiteImg.started,BodySiteImg.stopped,BodySiteInstructionRead.keys,BodySiteInstructionRead.rt,BodySiteInstructionRead.started,BodySiteInstructionRead.stopped,subject number,gender,session,handedness,scanner,date,expName,psychopyVersion,frameRate,body_site_order,
6,"[0.2, 0]",None,0,0,0,0,0,0,0,0,,,,,,,,,,177.61623449996114,None,178.64958920003846,None,178.64958920003846,179.64956409996375,179.63290400011465,None,1,-0.2462962962962963,0.017592592592592594,"[0, 0, 0]",0,0,178.64958920003846,None,,,,,,,,,,,,,,,,,,,,,,,,,,99,M,1,r,CIB,2021_Aug_10_1527,WASABI distractmap,2020.2.10,59.99919607449888,"['Right Arm', 'Right Leg', 'Right Face', 'Left Leg', 'Left Face', 'Right Face', 'Left Leg', 'Chest', 'Abdomen', 'Right Arm', 'Right Leg', 'Abdomen', 'Left Arm', 'Left Arm', 'Left Face', 'Chest']",
6,"[0.2, 0]",1,0,0,0,0,0,1,1,1,,,,,,,,,,,,180.632889600005,None,180.632889600005,181.63291930034757,181.61625180020928,182.616218900308,1,-0.2462962962962963,0.017592592592592594,"[0, 0, 0]",0,0,180.632889600005,None,,,,,,,,,,,,,,,,,,,,,,,,,,99,M,1,r,CIB,2021_Aug_10_1527,WASABI distractmap,2020.2.10,59.99919607449888,"['Right Arm', 'Right Leg', 'Right Face', 'Left Leg', 'Left Face', 'Right Face', 'Left Leg', 'Chest', 'Abdomen', 'Right Arm', 'Right Leg', 'Abdomen', 'Left Arm', 'Left Arm', 'Left Face', 'Chest']",
2,"[0, 0.2]",0,0,0,0,0,0,2,2,2,,,,,,,,,,,,182.63290910003707,None,182.63290910003707,183.63293630024418,183.61627539992332,184.61627619992942,1,-0.2462962962962963,0.017592592592592594,"[0, 0, 0]",0,0,182.63290910003707,None,,,,,,,,,,,,,,,,,,,,,,,,,,99,M,1,r,CIB,2021_Aug_10_1527,WASABI distractmap,2020.2.10,59.99919607449888,"['Right Arm', 'Right Leg', 'Right Face', 'Left Leg', 'Left Face', 'Right Face', 'Left Leg', 'Chest', 'Abdomen', 'Right Arm', 'Right Leg', 'Abdomen', 'Left Arm', 'Left Arm', 'Left Face', 'Chest']",
9,"[0.2, -0.2]",0,0,0,0,0,0,3,3,3,,,,,,,,,,,,184.63294230028987,None,184.63294230028987,185.632928899955,185.61628010030836,186.61627680016682,1,-0.2462962962962963,0.017592592592592594,"[0, 0, 0]",0,0,184.63294230028987,None,,,,,,,,,,,,,,,,,,,,,,,,,,99,M,1,r,CIB,2021_Aug_10_1527,WASABI distractmap,2020.2.10,59.99919607449888,"['Right Arm', 'Right Leg', 'Right Face', 'Left Leg', 'Left Face', 'Right Face', 'Left Leg', 'Chest', 'Abdomen', 'Right Arm', 'Right Leg', 'Abdomen', 'Left Arm', 'Left Arm', 'Left Face', 'Chest']",
9,"[0.2, -0.2]",1,0,0,0,0,0,4,4,4,,,,,,,,,,,,186.63295650016516,None,186.63295650016516,187.6329495003447,187.6162976003252,188.6163164000027,1,-0.2462962962962963,0.017592592592592594,"[0, 0, 0]",0,0,186.63295650016516,None,,,,,,,,,,,,,,,,,,,,,,,,,,99,M,1,r,CIB,2021_Aug_10_1527,WASABI distractmap,2020.2.10,59.99919607449888,"['Right Arm', 'Right Leg', 'Right Face', 'Left Leg', 'Left Face', 'Right Face', 'Left Leg', 'Chest', 'Abdomen', 'Right Arm', 'Right Leg', 'Abdomen', 'Left Arm', 'Left Arm', 'Left Face', 'Chest']",
6,"[0.2, 0]",0,0,0,0,0,0,5,5,5,,,,,,,,,,,,188.63295440003276,None,188.63295440003276,189.63297520019114,189.6163208000362,190.61631900025532,1,-0.2462962962962963,0.017592592592592594,"[0, 0, 0]",0,0,188.63295440003276,None,,,,,,,,,,,,,,,,,,,,,,,,,,99,M,1,r,CIB,2021_Aug_10_1527,WASABI distractmap,2020.2.10,59.99919607449888,"['Right Arm', 'Right Leg', 'Right Face', 'Left Leg', 'Left Face', 'Right Face', 'Left Leg', 'Chest', 'Abdomen', 'Right Arm', 'Right Leg', 'Abdomen', 'Left Arm', 'Left Arm', 'Left Face', 'Chest']",
4,"[-0.2, 0]",0,0,0,0,0,0,6,6,6,,,,,,,,,,,,190.63298580003902,None,190.63298580003902,191.63299140008166,191.61633379990235,192.6163332001306,1,-0.2462962962962963,0.017592592592592594,"[0, 0, 0]",0,0,190.63298580003902,None,,,,,,,,,,,,,,,,,,,,,,,,,,99,M,1,r,CIB,2021_Aug_10_1527,WASABI distractmap,2020.2.10,59.99919607449888,"['Right Arm', 'Right Leg', 'Right Face', 'Left Leg', 'Left Face', 'Right Face', 'Left Leg', 'Chest', 'Abdomen', 'Right Arm', 'Right Leg', 'Abdomen', 'Left Arm', 'Left Arm', 'Left Face', 'Chest']",
3,"[0.2, 0.2]",0,0,0,0,0,0,7,7,7,,,,,,,,,,,,192.6329815001227,None,192.6329815001227,193.63300650008023,193.6163436002098,194.61635720031336,1,-0.2462962962962963,0.017592592592592594,"[0, 0, 0]",0,0,192.6329815001227,None,,,,,,,,,,,,,,,,,,,,,,,,,,99,M,1,r,CIB,2021_Aug_10_1527,WASABI distractmap,2020.2.10,59.99919607449888,"['Right Arm', 'Right Leg', 'Right Face', 'Left Leg', 'Left Face', 'Right Face', 'Left Leg', 'Chest', 'Abdomen', 'Right Arm', 'Right Leg', 'Abdomen', 'Left Arm', 'Left Arm', 'Left Face', 'Chest']",
3,"[0.2, 0.2]",1,0,0,0,0,0,8,8,8,,,,,,,,,,,,194.63301010010764,None,194.63301010010764,195.63301380025223,195.6163526000455,196.61636020010337,1,-0.2462962962962963,0.017592592592592594,"[0, 0, 0]",0,0,194.63301010010764,None,,,,,,,,,,,,,,,,,,,,,,,,,,99,M,1,r,CIB,2021_Aug_10_1527,WASABI distractmap,2020.2.10,59.99919607449888,"['Right Arm', 'Right Leg', 'Right Face', 'Left Leg', 'Left Face', 'Right Face', 'Left Leg', 'Chest', 'Abdomen', 'Right Arm', 'Right Leg', 'Abdomen', 'Left Arm', 'Left Arm', 'Left Face', 'Chest']",
8,"[0, -0.2]",0,0,0,0,0,0,9,9,9,,,,,,,,,,,,196.63302180031314,None,196.63302180031314,197.6330371000804,197.61641070013866,198.6163755999878,1,-0.2462962962962963,0.017592592592592594,"[0, 0, 0]",0,0,196.63302180031314,None,,,,,,,,,,,,,,,,,,,,,,,,,,99,M,1,r,CIB,2021_Aug_10_1527,WASABI distractmap,2020.2.10,59.99919607449888,"['Right Arm', 'Right Leg', 'Right Face', 'Left Leg', 'Left Face', 'Right Face', 'Left Leg', 'Chest', 'Abdomen', 'Right Arm', 'Right Leg', 'Abdomen', 'Left Arm', 'Left Arm', 'Left Face', 'Chest']",
1,"[-0.2, 0.2]",0,0,0,0,0,0,10,10,10,,,,,,,,,,,,198.63302990002558,None,198.63302990002558,199.6330333999358,199.61638069991022,200.61642420012504,1,-0.2462962962962963,0.017592592592592594,"[0, 0, 0]",0,0,198.63302990002558,None,,,,,,,,,,,,,,,,,,,,,,,,,,99,M,1,r,CIB,2021_Aug_10_1527,WASABI distractmap,2020.2.10,59.99919607449888,"['Right Arm', 'Right Leg', 'Right Face', 'Left Leg', 'Left Face', 'Right Face', 'Left Leg', 'Chest', 'Abdomen', 'Right Arm', 'Right Leg', 'Abdomen', 'Left Arm', 'Left Arm', 'Left Face', 'Chest']",
2,"[0, 0.2]",0,0,0,0,0,0,11,11,11,,,,,,,,,,,,200.6330617000349,None,200.6330617000349,201.63304640026763,201.61640550009906,202.616391800344,1,-0.2462962962962963,0.017592592592592594,"[0, 0, 0]",0,0,200.6330617000349,None,,,,,,,,,,,,,,,,,,,,,,,,,,99,M,1,r,CIB,2021_Aug_10_1527,WASABI distractmap,2020.2.10,59.99919607449888,"['Right Arm', 'Right Leg', 'Right Face', 'Left Leg', 'Left Face', 'Right Face', 'Left Leg', 'Chest', 'Abdomen', 'Right Arm', 'Right Leg', 'Abdomen', 'Left Arm', 'Left Arm', 'Left Face', 'Chest']",
4,"[-0.2, 0]",0,0,0,0,0,0,12,12,12,,,,,,,,,,,,202.63306140014902,None,202.63306140014902,203.63307520002127,203.61642639990896,204.61642540013418,1,-0.2462962962962963,0.017592592592592594,"[0, 0, 0]",0,0,202.63306140014902,None,,,,,,,,,,,,,,,,,,,,,,,,,,99,M,1,r,CIB,2021_Aug_10_1527,WASABI distractmap,2020.2.10,59.99919607449888,"['Right Arm', 'Right Leg', 'Right Face', 'Left Leg', 'Left Face', 'Right Face', 'Left Leg', 'Chest', 'Abdomen', 'Right Arm', 'Right Leg', 'Abdomen', 'Left Arm', 'Left Arm', 'Left Face', 'Chest']",
4,"[-0.2, 0]",1,0,0,0,0,0,13,13,13,,,,,,,,,,,,204.63307310035452,None,204.63307310035452,205.6330972001888,205.6164127001539,206.61645500035957,0,-0.2462962962962963,0.017592592592592594,"[0, 0, 0]",0,0,204.63307310035452,None,,,,,,,,,,,,,,,,,,,,,,,,,,99,M,1,r,CIB,2021_Aug_10_1527,WASABI distractmap,2020.2.10,59.99919607449888,"['Right Arm', 'Right Leg', 'Right Face', 'Left Leg', 'Left Face', 'Right Face', 'Left Leg', 'Chest', 'Abdomen', 'Right Arm', 'Right Leg', 'Abdomen', 'Left Arm', 'Left Arm', 'Left Face', 'Chest']",
8,"[0, -0.2]",0,0,0,0,0,0,14,14,14,,,,,,,,,,,,206.63310320023447,None,206.63310320023447,207.63309360016137,207.61643820023164,208.61643770011142,1,-0.2462962962962963,0.017592592592592594,"[0, 0, 0]",0,0,206.63310320023447,None,,,,,,,,,,,,,,,,,,,,,,,,,,99,M,1,r,CIB,2021_Aug_10_1527,WASABI distractmap,2020.2.10,59.99919607449888,"['Right Arm', 'Right Leg', 'Right Face', 'Left Leg', 'Left Face', 'Right Face', 'Left Leg', 'Chest', 'Abdomen', 'Right Arm', 'Right Leg', 'Abdomen', 'Left Arm', 'Left Arm', 'Left Face', 'Chest']",
5,"[0, 0]",0,0,0,0,0,0,15,15,15,,,,,,,,,,,,208.63311240030453,None,208.63311240030453,209.6331142000854,209.61646059993654,210.61647369991988,1,-0.2462962962962963,0.017592592592592594,"[0, 0, 0]",0,0,208.63311240030453,None,,,,,,,,,,,,,,,,,,,,,,,,,,99,M,1,r,CIB,2021_Aug_10_1527,WASABI distractmap,2020.2.10,59.99919607449888,"['Right Arm', 'Right Leg', 'Right Face', 'Left Leg', 'Left Face', 'Right Face', 'Left Leg', 'Chest', 'Abdomen', 'Right Arm', 'Right Leg', 'Abdomen', 'Left Arm', 'Left Arm', 'Left Face', 'Chest']",
5,"[0, 0]",1,0,0,0,0,0,16,16,16,,,,,,,,,,,,210.63312030024827,None,210.63312030024827,211.6331275003031,211.616461600177,212.61648560035974,0,-0.2462962962962963,0.017592592592592594,"[0, 0, 0]",0,0,210.63312030024827,None,,,,,,,,,,,,,,,,,,,,,,,,,,99,M,1,r,CIB,2021_Aug_10_1527,WASABI distractmap,2020.2.10,59.99919607449888,"['Right Arm', 'Right Leg', 'Right Face', 'Left Leg', 'Left Face', 'Right Face', 'Left Leg', 'Chest', 'Abdomen', 'Right Arm', 'Right Leg', 'Abdomen', 'Left Arm', 'Left Arm', 'Left Face', 'Chest']",
1,"[-0.2, 0.2]",0,0,0,0,0,0,17,17,17,,,,,,,,,,,,212.6331388000399,None,212.6331388000399,213.6331482003443,213.61648120032623,214.6164823002182,1,-0.2462962962962963,0.017592592592592594,"[0, 0, 0]",0,0,212.6331388000399,None,,,,,,,,,,,,,,,,,,,,,,,,,,99,M,1,r,CIB,2021_Aug_10_1527,WASABI distractmap,2020.2.10,59.99919607449888,"['Right Arm', 'Right Leg', 'Right Face', 'Left Leg', 'Left Face', 'Right Face', 'Left Leg', 'Chest', 'Abdomen', 'Right Arm', 'Right Leg', 'Abdomen', 'Left Arm', 'Left Arm', 'Left Face', 'Chest']",
3,"[0.2, 0.2]",0,0,0,0,0,0,18,18,18,,,,,,,,,,,,214.63314749998972,None,214.63314749998972,215.63315750006586,215.61649450007826,216.61647880030796,1,-0.2462962962962963,0.017592592592592594,"[0, 0, 0]",0,0,214.63314749998972,None,,,,,,,,,,,,,,,,,,,,,,,,,,99,M,1,r,CIB,2021_Aug_10_1527,WASABI distractmap,2020.2.10,59.99919607449888,"['Right Arm', 'Right Leg', 'Right Face', 'Left Leg', 'Left Face', 'Right Face', 'Left Leg', 'Chest', 'Abdomen', 'Right Arm', 'Right Leg', 'Abdomen', 'Left Arm', 'Left Arm', 'Left Face', 'Chest']",
6,"[0.2, 0]",0,0,0,0,0,0,19,19,19,,,,,,,,,,,,216.63316430011764,None,216.63316430011764,217.63317049993202,217.61651100032032,218.61653020000085,1,-0.2462962962962963,0.017592592592592594,"[0, 0, 0]",0,0,216.63316430011764,None,,,,,,,,,,,,,,,,,,,,,,,,,,99,M,1,r,CIB,2021_Aug_10_1527,WASABI distractmap,2020.2.10,59.99919607449888,"['Right Arm', 'Right Leg', 'Right Face', 'Left Leg', 'Left Face', 'Right Face', 'Left Leg', 'Chest', 'Abdomen', 'Right Arm', 'Right Leg', 'Abdomen', 'Left Arm', 'Left Arm', 'Left Face', 'Chest']",
1,"[-0.2, 0.2]",0,0,0,0,0,0,20,20,20,,,,,,,,,,,,218.63317769998685,None,218.63317769998685,219.6331831002608,219.61652440018952,220.61655999999493,1,-0.2462962962962963,0.017592592592592594,"[0, 0, 0]",0,0,218.63317769998685,None,,,,,,,,,,,,,,,,,,,,,,,,,,99,M,1,r,CIB,2021_Aug_10_1527,WASABI distractmap,2020.2.10,59.99919607449888,"['Right Arm', 'Right Leg', 'Right Face', 'Left Leg', 'Left Face', 'Right Face', 'Left Leg', 'Chest', 'Abdomen', 'Right Arm', 'Right Leg', 'Abdomen', 'Left Arm', 'Left Arm', 'Left Face', 'Chest']",
1,"[-0.2, 0.2]",1,0,0,0,0,0,21,21,21,,,,,,,,,,,,220.6331854001619,None,220.6331854001619,221.6332054999657,221.61653740005568,222.6165690999478,1,-0.2462962962962963,0.017592592592592594,"[0, 0, 0]",0,0,220.6331854001619,None,,,,,,,,,,,,,,,,,,,,,,,,,,99,M,1,r,CIB,2021_Aug_10_1527,WASABI distractmap,2020.2.10,59.99919607449888,"['Right Arm', 'Right Leg', 'Right Face', 'Left Leg', 'Left Face', 'Right Face', 'Left Leg', 'Chest', 'Abdomen', 'Right Arm', 'Right Leg', 'Abdomen', 'Left Arm', 'Left Arm', 'Left Face', 'Chest']",
1,"[-0.2, 0.2]",1,0,0,0,0,0,22,22,22,,,,,,,,,,,,222.63319690013304,None,222.63319690013304,223.63322059996426,223.6165571003221,224.61657549999654,1,-0.2462962962962963,0.017592592592592594,"[0, 0, 0]",0,0,222.63319690013304,None,,,,,,,,,,,,,,,,,,,,,,,,,,99,M,1,r,CIB,2021_Aug_10_1527,WASABI distractmap,2020.2.10,59.99919607449888,"['Right Arm', 'Right Leg', 'Right Face', 'Left Leg', 'Left Face', 'Right Face', 'Left Leg', 'Chest', 'Abdomen', 'Right Arm', 'Right Leg', 'Abdomen', 'Left Arm', 'Left Arm', 'Left Face', 'Chest']",
3,"[0.2, 0.2]",0,0,0,0,0,0,23,23,23,,,,,,,,,,,,224.6332201003097,None,224.6332201003097,225.63322980003431,225.61656389990821,226.61657610023394,1,-0.2462962962962963,0.017592592592592594,"[0, 0, 0]",0,0,224.6332201003097,None,,,,,,,,,,,,,,,,,,,,,,,,,,99,M,1,r,CIB,2021_Aug_10_1527,WASABI distractmap,2020.2.10,59.99919607449888,"['Right Arm', 'Right Leg', 'Right Face', 'Left Leg', 'Left Face', 'Right Face', 'Left Leg', 'Chest', 'Abdomen', 'Right Arm', 'Right Leg', 'Abdomen', 'Left Arm', 'Left Arm', 'Left Face', 'Chest']",
2,"[0, 0.2]",0,0,0,0,0,0,24,24,24,,,,,,,,,,,,226.6332306000404,None,226.6332306000404,227.6332322000526,227.616586800199,228.6165944999084,1,-0.2462962962962963,0.017592592592592594,"[0, 0, 0]",0,0,226.6332306000404,None,,,,,,,,,,,,,,,,,,,,,,,,,,99,M,1,r,CIB,2021_Aug_10_1527,WASABI distractmap,2020.2.10,59.99919607449888,"['Right Arm', 'Right Leg', 'Right Face', 'Left Leg', 'Left Face', 'Right Face', 'Left Leg', 'Chest', 'Abdomen', 'Right Arm', 'Right Leg', 'Abdomen', 'Left Arm', 'Left Arm', 'Left Face', 'Chest']",
1,"[-0.2, 0.2]",0,0,0,0,0,0,25,25,25,,,,,,,,,,,,228.63324610004202,None,228.63324610004202,229.63326869998127,229.61658859997988,230.6166342003271,1,-0.2462962962962963,0.017592592592592594,"[0, 0, 0]",0,0,228.63324610004202,None,,,,,,,,,,,,,,,,,,,,,,,,,,99,M,1,r,CIB,2021_Aug_10_1527,WASABI distractmap,2020.2.10,59.99919607449888,"['Right Arm', 'Right Leg', 'Right Face', 'Left Leg', 'Left Face', 'Right Face', 'Left Leg', 'Chest', 'Abdomen', 'Right Arm', 'Right Leg', 'Abdomen', 'Left Arm', 'Left Arm', 'Left Face', 'Chest']",
7,"[-0.2, -0.2]",0,0,0,0,0,0,26,26,26,,,,,,,,,,,,230.633244600147,None,230.633244600147,231.63326560007408,231.61660150019452,232.6166098001413,1,-0.2462962962962963,0.017592592592592594,"[0, 0, 0]",0,0,230.633244600147,None,,,,,,,,,,,,,,,,,,,,,,,,,,99,M,1,r,CIB,2021_Aug_10_1527,WASABI distractmap,2020.2.10,59.99919607449888,"['Right Arm', 'Right Leg', 'Right Face', 'Left Leg', 'Left Face', 'Right Face', 'Left Leg', 'Chest', 'Abdomen', 'Right Arm', 'Right Leg', 'Abdomen', 'Left Arm', 'Left Arm', 'Left Face', 'Chest']",
7,"[-0.2, -0.2]",1,0,0,0,0,0,27,27,27,,,,,,,,,,,,232.63328130031005,None,232.63328130031005,233.633282400202,233.6166270999238,234.6166270999238,0,-0.2462962962962963,0.017592592592592594,"[0, 0, 0]",0,0,232.63328130031005,None,,,,,,,,,,,,,,,,,,,,,,,,,,99,M,1,r,CIB,2021_Aug_10_1527,WASABI distractmap,2020.2.10,59.99919607449888,"['Right Arm', 'Right Leg', 'Right Face', 'Left Leg', 'Left Face', 'Right Face', 'Left Leg', 'Chest', 'Abdomen', 'Right Arm', 'Right Leg', 'Abdomen', 'Left Arm', 'Left Arm', 'Left Face', 'Chest']",
2,"[0, 0.2]",0,0,0,0,0,0,28,28,28,,,,,,,,,,,,234.6332801003009,None,234.6332801003009,235.633305599913,235.61662860028446,236.6166505003348,1,-0.2462962962962963,0.017592592592592594,"[0, 0, 0]",0,0,234.6332801003009,None,,,,,,,,,,,,,,,,,,,,,,,,,,99,M,1,r,CIB,2021_Aug_10_1527,WASABI distractmap,2020.2.10,59.99919607449888,"['Right Arm', 'Right Leg', 'Right Face', 'Left Leg', 'Left Face', 'Right Face', 'Left Leg', 'Chest', 'Abdomen', 'Right Arm', 'Right Leg', 'Abdomen', 'Left Arm', 'Left Arm', 'Left Face', 'Chest']",
6,"[0.2, 0]",0,0,0,0,0,0,29,29,29,,,,,,,,,,,,236.633305599913,None,236.633305599913,237.6333135003224,237.61664250027388,238.61665649991482,1,-0.2462962962962963,0.017592592592592594,"[0, 0, 0]",0,0,236.633305599913,None,,,,,,,,,,,,,,,,,,,,,,,,,,99,M,1,r,CIB,2021_Aug_10_1527,WASABI distractmap,2020.2.10,59.99919607449888,"['Right Arm', 'Right Leg', 'Right Face', 'Left Leg', 'Left Face', 'Right Face', 'Left Leg', 'Chest', 'Abdomen', 'Right Arm', 'Right Leg', 'Abdomen', 'Left Arm', 'Left Arm', 'Left Face', 'Chest']",
,,,0,0,0,0,,,,,,,,,,,,,,,,,,,,,,,,,,,,,,238.64987169997767,None,space,238.64987169997767,None,,,,,,,,,,,,,,,,,,,,,99,M,1,r,CIB,2021_Aug_10_1527,WASABI distractmap,2020.2.10,59.99919607449888,"['Right Arm', 'Right Leg', 'Right Face', 'Left Leg', 'Left Face', 'Right Face', 'Left Leg', 'Chest', 'Abdomen', 'Right Arm', 'Right Leg', 'Abdomen', 'Left Arm', 'Left Arm', 'Left Face', 'Chest']",
6,"[0.2, 0]",None,,,,,,,,,0,0,0,0,,,,,,333.5339709999971,None,,,,,,,,,,,,,,,,,,,,None,None,"[0, 0, 0]",334.5506553002633,None,334.5506553002633,335.55056380014867,335.53400460025296,336.53399510029703,"[0, 0, 0]",1,334.5506553002633,None,,,,,,,,99,M,1,r,CIB,2021_Aug_10_1527,WASABI distractmap,2020.2.10,59.99919607449888,"['Right Arm', 'Right Leg', 'Right Face', 'Left Leg', 'Left Face', 'Right Face', 'Left Leg', 'Chest', 'Abdomen', 'Right Arm', 'Right Leg', 'Abdomen', 'Left Arm', 'Left Arm', 'Left Face', 'Chest']",
7,"[-0.2, -0.2]",None,,,,,,,,,0,1,1,1,,,,,,,,,,,,,,,,,,,,,,,,,,,None,None,"[0, 0, 0]",336.5506764999591,338.550690300297,336.5506764999591,337.5506688002497,337.5339959003031,338.53403430012986,"[0, 0, 0]",1,336.5506764999591,338.550690300297,,,,,,,,99,M,1,r,CIB,2021_Aug_10_1527,WASABI distractmap,2020.2.10,59.99919607449888,"['Right Arm', 'Right Leg', 'Right Face', 'Left Leg', 'Left Face', 'Right Face', 'Left Leg', 'Chest', 'Abdomen', 'Right Arm', 'Right Leg', 'Abdomen', 'Left Arm', 'Left Arm', 'Left Face', 'Chest']",
6,"[0.2, 0]",1,,,,,,,,,0,2,2,2,,,,,,,,,,,,,,,,,,,,,,,,,,,None,None,"[0, 0, 0]",338.567351100035,340.5673755002208,338.567351100035,339.5673540001735,339.5506866001524,340.5506957001053,"[0, 0, 0]",1,338.567351100035,340.5673755002208,,,,,,,,99,M,1,r,CIB,2021_Aug_10_1527,WASABI distractmap,2020.2.10,59.99919607449888,"['Right Arm', 'Right Leg', 'Right Face', 'Left Leg', 'Left Face', 'Right Face', 'Left Leg', 'Chest', 'Abdomen', 'Right Arm', 'Right Leg', 'Abdomen', 'Left Arm', 'Left Arm', 'Left Face', 'Chest']",
2,"[0, 0.2]",0,,,,,,,,,0,3,3,3,,,,,,,,,,,,,,,,,,,,,,,,,,,None,None,"[0, 0, 0]",340.5840336000547,342.5840465002693,340.5840336000547,341.5840320000425,341.5673779002391,342.56737900013104,"[0, 0, 0]",1,340.5840336000547,342.5840465002693,,,,,,,,99,M,1,r,CIB,2021_Aug_10_1527,WASABI distractmap,2020.2.10,59.99919607449888,"['Right Arm', 'Right Leg', 'Right Face', 'Left Leg', 'Left Face', 'Right Face', 'Left Leg', 'Chest', 'Abdomen', 'Right Arm', 'Right Leg', 'Abdomen', 'Left Arm', 'Left Arm', 'Left Face', 'Chest']",
5,"[0, 0]",0,,,,,,,,,0,4,4,4,,,,,,,,,,,,,,,,,,,,,,,,,,,None,None,"[0, 0, 0]",342.60070289997384,344.6006172001362,342.60070289997384,343.6007258002646,343.5840445002541,344.5840521999635,"[0, 0, 0]",1,342.60070289997384,344.6006172001362,,,,,,,,99,M,1,r,CIB,2021_Aug_10_1527,WASABI distractmap,2020.2.10,59.99919607449888,"['Right Arm', 'Right Leg', 'Right Face', 'Left Leg', 'Left Face', 'Right Face', 'Left Leg', 'Chest', 'Abdomen', 'Right Arm', 'Right Leg', 'Abdomen', 'Left Arm', 'Left Arm', 'Left Face', 'Chest']",
4,"[-0.2, 0]",0,,,,,,,,,0,5,5,5,,,,,,,,,,,,,,,,,,,,,,,,,,,None,None,"[0, 0, 0]",344.61740350024775,346.6174445999786,344.61740350024775,345.6174038001336,345.60073389997706,346.6006295001134,"[0, 0, 0]",1,344.61740350024775,346.6174445999786,,,,,,,,99,M,1,r,CIB,2021_Aug_10_1527,WASABI distractmap,2020.2.10,59.99919607449888,"['Right Arm', 'Right Leg', 'Right Face', 'Left Leg', 'Left Face', 'Right Face', 'Left Leg', 'Chest', 'Abdomen', 'Right Arm', 'Right Leg', 'Abdomen', 'Left Arm', 'Left Arm', 'Left Face', 'Chest']",
4,"[-0.2, 0]",0,,,,,,,,,0,6,6,6,,,,,,,,,,,,,,,,,,,,,,,,,,,None,None,"[0, 0, 0]",346.63407760020345,348.634086499922,346.63407760020345,347.63407760020345,347.6174523001537,348.6174194999039,"[0, 0, 0]",0,346.63407760020345,348.634086499922,,,,,,,,99,M,1,r,CIB,2021_Aug_10_1527,WASABI distractmap,2020.2.10,59.99919607449888,"['Right Arm', 'Right Leg', 'Right Face', 'Left Leg', 'Left Face', 'Right Face', 'Left Leg', 'Chest', 'Abdomen', 'Right Arm', 'Right Leg', 'Abdomen', 'Left Arm', 'Left Arm', 'Left Face', 'Chest']",
7,"[-0.2, -0.2]",0,,,,,,,,,0,7,7,7,,,,,,,,,,,,,,,,,,,,,,,,,,,None,None,"[0, 0, 0]",348.65075330017135,350.6507597002201,348.65075330017135,349.6507648001425,349.63409030018374,350.6340981000103,"[0, 0, 0]",1,348.65075330017135,350.6507597002201,,,,,,,,99,M,1,r,CIB,2021_Aug_10_1527,WASABI distractmap,2020.2.10,59.99919607449888,"['Right Arm', 'Right Leg', 'Right Face', 'Left Leg', 'Left Face', 'Right Face', 'Left Leg', 'Chest', 'Abdomen', 'Right Arm', 'Right Leg', 'Abdomen', 'Left Arm', 'Left Arm', 'Left Face', 'Chest']",
4,"[-0.2, 0]",1,,,,,,,,,0,8,8,8,,,,,,,,,,,,,,,,,,,,,,,,,,,None,None,"[0, 0, 0]",350.6674314001575,352.66745349997655,350.6674314001575,351.6674567000009,351.65078000025824,352.6507772002369,"[0, 0, 0]",0,350.6674314001575,352.66745349997655,,,,,,,,99,M,1,r,CIB,2021_Aug_10_1527,WASABI distractmap,2020.2.10,59.99919607449888,"['Right Arm', 'Right Leg', 'Right Face', 'Left Leg', 'Left Face', 'Right Face', 'Left Leg', 'Chest', 'Abdomen', 'Right Arm', 'Right Leg', 'Abdomen', 'Left Arm', 'Left Arm', 'Left Face', 'Chest']",
3,"[0.2, 0.2]",0,,,,,,,,,0,9,9,9,,,,,,,,,,,,,,,,,,,,,,,,,,,None,None,"[0, 0, 0]",352.68411560030654,354.6841110000387,352.68411560030654,353.68411870021373,353.6674573002383,354.6674731001258,"[0, 0, 0]",1,352.68411560030654,354.6841110000387,,,,,,,,99,M,1,r,CIB,2021_Aug_10_1527,WASABI distractmap,2020.2.10,59.99919607449888,"['Right Arm', 'Right Leg', 'Right Face', 'Left Leg', 'Left Face', 'Right Face', 'Left Leg', 'Chest', 'Abdomen', 'Right Arm', 'Right Leg', 'Abdomen', 'Left Arm', 'Left Arm', 'Left Face', 'Chest']",
5,"[0, 0]",0,,,,,,,,,0,10,10,10,,,,,,,,,,,,,,,,,,,,,,,,,,,None,None,"[0, 0, 0]",354.70078750001267,356.7008072999306,354.70078750001267,355.7008034000173,355.68413710035384,356.68414220027626,"[0, 0, 0]",1,354.70078750001267,356.7008072999306,,,,,,,,99,M,1,r,CIB,2021_Aug_10_1527,WASABI distractmap,2020.2.10,59.99919607449888,"['Right Arm', 'Right Leg', 'Right Face', 'Left Leg', 'Left Face', 'Right Face', 'Left Leg', 'Chest', 'Abdomen', 'Right Arm', 'Right Leg', 'Abdomen', 'Left Arm', 'Left Arm', 'Left Face', 'Chest']",
3,"[0.2, 0.2]",1,,,,,,,,,0,11,11,11,,,,,,,,,,,,,,,,,,,,,,,,,,,None,None,"[0, 0, 0]",356.7174931000918,358.71748890029266,356.7174931000918,357.71749299997464,357.70081120030954,358.7008346002549,"[0, 0, 0]",0,356.7174931000918,358.71748890029266,,,,,,,,99,M,1,r,CIB,2021_Aug_10_1527,WASABI distractmap,2020.2.10,59.99919607449888,"['Right Arm', 'Right Leg', 'Right Face', 'Left Leg', 'Left Face', 'Right Face', 'Left Leg', 'Chest', 'Abdomen', 'Right Arm', 'Right Leg', 'Abdomen', 'Left Arm', 'Left Arm', 'Left Face', 'Chest']",
1,"[-0.2, 0.2]",0,,,,,,,,,0,12,12,12,,,,,,,,,,,,,,,,,,,,,,,,,,,None,None,"[0, 0, 0]",358.7341404003091,360.73421140015125,358.7341404003091,359.73415799997747,359.71750390017405,360.7175664003007,"[0, 0, 0]",1,358.7341404003091,360.73421140015125,,,,,,,,99,M,1,r,CIB,2021_Aug_10_1527,WASABI distractmap,2020.2.10,59.99919607449888,"['Right Arm', 'Right Leg', 'Right Face', 'Left Leg', 'Left Face', 'Right Face', 'Left Leg', 'Chest', 'Abdomen', 'Right Arm', 'Right Leg', 'Abdomen', 'Left Arm', 'Left Arm', 'Left Face', 'Chest']",
9,"[0.2, -0.2]",0,,,,,,,,,0,13,13,13,,,,,,,,,,,,,,,,,,,,,,,,,,,None,None,"[0, 0, 0]",360.75083200028166,362.75083609996364,360.75083200028166,361.7508386000991,361.73416700027883,362.734081200324,"[0, 0, 0]",1,360.75083200028166,362.75083609996364,,,,,,,,99,M,1,r,CIB,2021_Aug_10_1527,WASABI distractmap,2020.2.10,59.99919607449888,"['Right Arm', 'Right Leg', 'Right Face', 'Left Leg', 'Left Face', 'Right Face', 'Left Leg', 'Chest', 'Abdomen', 'Right Arm', 'Right Leg', 'Abdomen', 'Left Arm', 'Left Arm', 'Left Face', 'Chest']",
9,"[0.2, -0.2]",0,,,,,,,,,0,14,14,14,,,,,,,,,,,,,,,,,,,,,,,,,,,None,None,"[0, 0, 0]",362.76751960022375,364.7675244002603,362.76751960022375,363.76753820013255,363.7508609001525,364.75085680000484,"[0, 0, 0]",0,362.76751960022375,364.7675244002603,,,,,,,,99,M,1,r,CIB,2021_Aug_10_1527,WASABI distractmap,2020.2.10,59.99919607449888,"['Right Arm', 'Right Leg', 'Right Face', 'Left Leg', 'Left Face', 'Right Face', 'Left Leg', 'Chest', 'Abdomen', 'Right Arm', 'Right Leg', 'Abdomen', 'Left Arm', 'Left Arm', 'Left Face', 'Chest']",
8,"[0, -0.2]",0,,,,,,,,,0,15,15,15,,,,,,,,,,,,,,,,,,,,,,,,,,,None,None,"[0, 0, 0]",364.7842081002891,366.784201100003,364.7842081002891,365.78418869990855,365.7675406001508,366.76754879998043,"[0, 0, 0]",1,364.7842081002891,366.784201100003,,,,,,,,99,M,1,r,CIB,2021_Aug_10_1527,WASABI distractmap,2020.2.10,59.99919607449888,"['Right Arm', 'Right Leg', 'Right Face', 'Left Leg', 'Left Face', 'Right Face', 'Left Leg', 'Chest', 'Abdomen', 'Right Arm', 'Right Leg', 'Abdomen', 'Left Arm', 'Left Arm', 'Left Face', 'Chest']",
6,"[0.2, 0]",0,,,,,,,,,0,16,16,16,,,,,,,,,,,,,,,,,,,,,,,,,,,None,None,"[0, 0, 0]",366.8008683002554,368.8008995000273,366.8008683002554,367.8008208000101,367.7842268999666,368.7842296999879,"[0, 0, 0]",1,366.8008683002554,368.8008995000273,,,,,,,,99,M,1,r,CIB,2021_Aug_10_1527,WASABI distractmap,2020.2.10,59.99919607449888,"['Right Arm', 'Right Leg', 'Right Face', 'Left Leg', 'Left Face', 'Right Face', 'Left Leg', 'Chest', 'Abdomen', 'Right Arm', 'Right Leg', 'Abdomen', 'Left Arm', 'Left Arm', 'Left Face', 'Chest']",
3,"[0.2, 0.2]",0,,,,,,,,,0,17,17,17,,,,,,,,,,,,,,,,,,,,,,,,,,,None,None,"[0, 0, 0]",368.81755409995094,370.81756959995255,368.81755409995094,369.81756350025535,369.80089460033923,370.8008934003301,"[0, 0, 0]",1,368.81755409995094,370.81756959995255,,,,,,,,99,M,1,r,CIB,2021_Aug_10_1527,WASABI distractmap,2020.2.10,59.99919607449888,"['Right Arm', 'Right Leg', 'Right Face', 'Left Leg', 'Left Face', 'Right Face', 'Left Leg', 'Chest', 'Abdomen', 'Right Arm', 'Right Leg', 'Abdomen', 'Left Arm', 'Left Arm', 'Left Face', 'Chest']",
6,"[0.2, 0]",1,,,,,,,,,0,18,18,18,,,,,,,,,,,,,,,,,,,,,,,,,,,None,None,"[0, 0, 0]",370.8342456999235,372.83425329998136,370.8342456999235,371.8342575998977,371.81758780032396,372.8175726002082,"[0, 0, 0]",1,370.8342456999235,372.83425329998136,,,,,,,,99,M,1,r,CIB,2021_Aug_10_1527,WASABI distractmap,2020.2.10,59.99919607449888,"['Right Arm', 'Right Leg', 'Right Face', 'Left Leg', 'Left Face', 'Right Face', 'Left Leg', 'Chest', 'Abdomen', 'Right Arm', 'Right Leg', 'Abdomen', 'Left Arm', 'Left Arm', 'Left Face', 'Chest']",
5,"[0, 0]",0,,,,,,,,,0,19,19,19,,,,,,,,,,,,,,,,,,,,,,,,,,,None,None,"[0, 0, 0]",372.85092819994316,374.85093419998884,372.85092819994316,373.85093240020797,373.834248600062,374.8342766999267,"[0, 0, 0]",1,372.85092819994316,374.85093419998884,,,,,,,,99,M,1,r,CIB,2021_Aug_10_1527,WASABI distractmap,2020.2.10,59.99919607449888,"['Right Arm', 'Right Leg', 'Right Face', 'Left Leg', 'Left Face', 'Right Face', 'Left Leg', 'Chest', 'Abdomen', 'Right Arm', 'Right Leg', 'Abdomen', 'Left Arm', 'Left Arm', 'Left Face', 'Chest']",
7,"[-0.2, -0.2]",0,,,,,,,,,0,20,20,20,,,,,,,,,,,,,,,,,,,,,,,,,,,None,None,"[0, 0, 0]",374.8675923002884,376.86760549992323,374.8675923002884,375.86763990018517,375.8509508999996,376.8509529000148,"[0, 0, 0]",1,374.8675923002884,376.86760549992323,,,,,,,,99,M,1,r,CIB,2021_Aug_10_1527,WASABI distractmap,2020.2.10,59.99919607449888,"['Right Arm', 'Right Leg', 'Right Face', 'Left Leg', 'Left Face', 'Right Face', 'Left Leg', 'Chest', 'Abdomen', 'Right Arm', 'Right Leg', 'Abdomen', 'Left Arm', 'Left Arm', 'Left Face', 'Chest']",
5,"[0, 0]",1,,,,,,,,,0,21,21,21,,,,,,,,,,,,,,,,,,,,,,,,,,,None,None,"[0, 0, 0]",376.8842821000144,378.88429789990187,376.8842821000144,377.8842816003598,377.8676248001866,378.867629500106,"[0, 0, 0]",0,376.8842821000144,378.88429789990187,,,,,,,,99,M,1,r,CIB,2021_Aug_10_1527,WASABI distractmap,2020.2.10,59.99919607449888,"['Right Arm', 'Right Leg', 'Right Face', 'Left Leg', 'Left Face', 'Right Face', 'Left Leg', 'Chest', 'Abdomen', 'Right Arm', 'Right Leg', 'Abdomen', 'Left Arm', 'Left Arm', 'Left Face', 'Chest']",
1,"[-0.2, 0.2]",0,,,,,,,,,0,22,22,22,,,,,,,,,,,,,,,,,,,,,,,,,,,None,None,"[0, 0, 0]",378.9009545999579,380.90097650000826,378.9009545999579,379.9009791002609,379.884304900188,380.88431950006634,"[0, 0, 0]",0,378.9009545999579,380.90097650000826,,,,,,,,99,M,1,r,CIB,2021_Aug_10_1527,WASABI distractmap,2020.2.10,59.99919607449888,"['Right Arm', 'Right Leg', 'Right Face', 'Left Leg', 'Left Face', 'Right Face', 'Left Leg', 'Chest', 'Abdomen', 'Right Arm', 'Right Leg', 'Abdomen', 'Left Arm', 'Left Arm', 'Left Face', 'Chest']",
7,"[-0.2, -0.2]",0,,,,,,,,,0,23,23,23,,,,,,,,,,,,,,,,,,,,,,,,,,,None,None,"[0, 0, 0]",380.9176567001268,382.9176901001483,380.9176567001268,381.917659800034,381.9009724999778,382.90100540034473,"[0, 0, 0]",1,380.9176567001268,382.9176901001483,,,,,,,,99,M,1,r,CIB,2021_Aug_10_1527,WASABI distractmap,2020.2.10,59.99919607449888,"['Right Arm', 'Right Leg', 'Right Face', 'Left Leg', 'Left Face', 'Right Face', 'Left Leg', 'Chest', 'Abdomen', 'Right Arm', 'Right Leg', 'Abdomen', 'Left Arm', 'Left Arm', 'Left Face', 'Chest']",
9,"[0.2, -0.2]",0,,,,,,,,,0,24,24,24,,,,,,,,,,,,,,,,,,,,,,,,,,,None,None,"[0, 0, 0]",382.9343481999822,384.934333300218,382.9343481999822,383.934332200326,383.9176763999276,384.9177059000358,"[0, 0, 0]",1,382.9343481999822,384.934333300218,,,,,,,,99,M,1,r,CIB,2021_Aug_10_1527,WASABI distractmap,2020.2.10,59.99919607449888,"['Right Arm', 'Right Leg', 'Right Face', 'Left Leg', 'Left Face', 'Right Face', 'Left Leg', 'Chest', 'Abdomen', 'Right Arm', 'Right Leg', 'Abdomen', 'Left Arm', 'Left Arm', 'Left Face', 'Chest']",
3,"[0.2, 0.2]",0,,,,,,,,,0,25,25,25,,,,,,,,,,,,,,,,,,,,,,,,,,,None,None,"[0, 0, 0]",384.9510053000413,386.9510297002271,384.9510053000413,385.9510067999363,385.93435820005834,386.9343562000431,"[0, 0, 0]",1,384.9510053000413,386.9510297002271,,,,,,,,99,M,1,r,CIB,2021_Aug_10_1527,WASABI distractmap,2020.2.10,59.99919607449888,"['Right Arm', 'Right Leg', 'Right Face', 'Left Leg', 'Left Face', 'Right Face', 'Left Leg', 'Chest', 'Abdomen', 'Right Arm', 'Right Leg', 'Abdomen', 'Left Arm', 'Left Arm', 'Left Face', 'Chest']",
9,"[0.2, -0.2]",1,,,,,,,,,0,26,26,26,,,,,,,,,,,,,,,,,,,,,,,,,,,None,None,"[0, 0, 0]",386.9676795001142,388.96770559996367,386.9676795001142,387.96770050004125,387.951033399906,388.95103070000187,"[0, 0, 0]",0,386.9676795001142,388.96770559996367,,,,,,,,99,M,1,r,CIB,2021_Aug_10_1527,WASABI distractmap,2020.2.10,59.99919607449888,"['Right Arm', 'Right Leg', 'Right Face', 'Left Leg', 'Left Face', 'Right Face', 'Left Leg', 'Chest', 'Abdomen', 'Right Arm', 'Right Leg', 'Abdomen', 'Left Arm', 'Left Arm', 'Left Face', 'Chest']",
6,"[0.2, 0]",0,,,,,,,,,0,27,27,27,,,,,,,,,,,,,,,,,,,,,,,,,,,None,None,"[0, 0, 0]",388.98436200013384,390.984380800277,388.98436200013384,389.9843691000715,389.96770570008084,390.96771760005504,"[0, 0, 0]",0,388.98436200013384,390.984380800277,,,,,,,,99,M,1,r,CIB,2021_Aug_10_1527,WASABI distractmap,2020.2.10,59.99919607449888,"['Right Arm', 'Right Leg', 'Right Face', 'Left Leg', 'Left Face', 'Right Face', 'Left Leg', 'Chest', 'Abdomen', 'Right Arm', 'Right Leg', 'Abdomen', 'Left Arm', 'Left Arm', 'Left Face', 'Chest']",
2,"[0, 0.2]",0,,,,,,,,,0,28,28,28,,,,,,,,,,,,,,,,,,,,,,,,,,,None,None,"[0, 0, 0]",391.00105970026925,393.0010689999908,391.00105970026925,392.00105859991163,391.9843669999391,392.9843927999027,"[0, 0, 0]",1,391.00105970026925,393.0010689999908,,,,,,,,99,M,1,r,CIB,2021_Aug_10_1527,WASABI distractmap,2020.2.10,59.99919607449888,"['Right Arm', 'Right Leg', 'Right Face', 'Left Leg', 'Left Face', 'Right Face', 'Left Leg', 'Chest', 'Abdomen', 'Right Arm', 'Right Leg', 'Abdomen', 'Left Arm', 'Left Arm', 'Left Face', 'Chest']",
5,"[0, 0]",0,,,,,,,,,0,29,29,29,,,,,,,,,,,,,,,,,,,,,,,,,,,None,None,"[0, 0, 0]",393.0177200003527,395.01765830023214,393.0177200003527,394.01773170009255,394.00107249990106,395.00108340010047,"[0, 0, 0]",0,393.0177200003527,395.01765830023214,,,,,,,,99,M,1,r,CIB,2021_Aug_10_1527,WASABI distractmap,2020.2.10,59.99919607449888,"['Right Arm', 'Right Leg', 'Right Face', 'Left Leg', 'Left Face', 'Right Face', 'Left Leg', 'Chest', 'Abdomen', 'Right Arm', 'Right Leg', 'Abdomen', 'Left Arm', 'Left Arm', 'Left Face', 'Chest']",
,,,,,,,,,,,,,,,,,,,,,,,,,,,,,,,,,,,,395.0510114002973,None,space,395.0510114002973,None,,,,,,,,,,,,,,,,,,,,,99,M,1,r,CIB,2021_Aug_10_1527,WASABI distractmap,2020.2.10,59.99919607449888,"['Right Arm', 'Right Leg', 'Right Face', 'Left Leg', 'Left Face', 'Right Face', 'Left Leg', 'Chest', 'Abdomen', 'Right Arm', 'Right Leg', 'Abdomen', 'Left Arm', 'Left Arm', 'Left Face', 'Chest']",
6,"[0.2, 0]",None,,,,,,,,,0,0,0,0,,,,,,826.9041408002377,None,,,,,,,,,,,,,,,,,,,,None,None,"[0, 0, 0]",827.9208408002742,None,827.9208408002742,828.9208456999622,828.9041639002971,829.9041798999533,"[0, 0, 0]",1,827.9208408002742,None,,,,,,,,99,M,1,r,CIB,2021_Aug_10_1527,WASABI distractmap,2020.2.10,59.99919607449888,"['Right Arm', 'Right Leg', 'Right Face', 'Left Leg', 'Left Face', 'Right Face', 'Left Leg', 'Chest', 'Abdomen', 'Right Arm', 'Right Leg', 'Abdomen', 'Left Arm', 'Left Arm', 'Left Face', 'Chest']",
7,"[-0.2, -0.2]",None,,,,,,,,,0,1,1,1,,,,,,,,,,,,,,,,,,,,,,,,,,,None,None,"[0, 0, 0]",829.9208233002573,831.9208871000446,829.9208233002573,830.9208587999456,830.9041830003262,831.9041836000979,"[0, 0, 0]",0,829.9208233002573,831.9208871000446,,,,,,,,99,M,1,r,CIB,2021_Aug_10_1527,WASABI distractmap,2020.2.10,59.99919607449888,"['Right Arm', 'Right Leg', 'Right Face', 'Left Leg', 'Left Face', 'Right Face', 'Left Leg', 'Chest', 'Abdomen', 'Right Arm', 'Right Leg', 'Abdomen', 'Left Arm', 'Left Arm', 'Left Face', 'Chest']",
6,"[0.2, 0]",1,,,,,,,,,0,2,2,2,,,,,,,,,,,,,,,,,,,,,,,,,,,None,None,"[0, 0, 0]",831.9375309003517,833.9375347001478,831.9375309003517,832.937601600308,832.9208943000995,833.92086820025,"[0, 0, 0]",0,831.9375309003517,833.9375347001478,,,,,,,,99,M,1,r,CIB,2021_Aug_10_1527,WASABI distractmap,2020.2.10,59.99919607449888,"['Right Arm', 'Right Leg', 'Right Face', 'Left Leg', 'Left Face', 'Right Face', 'Left Leg', 'Chest', 'Abdomen', 'Right Arm', 'Right Leg', 'Abdomen', 'Left Arm', 'Left Arm', 'Left Face', 'Chest']",
2,"[0, 0.2]",0,,,,,,,,,0,3,3,3,,,,,,,,,,,,,,,,,,,,,,,,,,,None,None,"[0, 0, 0]",833.9542077002116,835.9542177002877,833.9542077002116,834.9542114003561,834.9375443002209,835.9375551999547,"[0, 0, 0]",1,833.9542077002116,835.9542177002877,,,,,,,,99,M,1,r,CIB,2021_Aug_10_1527,WASABI distractmap,2020.2.10,59.99919607449888,"['Right Arm', 'Right Leg', 'Right Face', 'Left Leg', 'Left Face', 'Right Face', 'Left Leg', 'Chest', 'Abdomen', 'Right Arm', 'Right Leg', 'Abdomen', 'Left Arm', 'Left Arm', 'Left Face', 'Chest']",
5,"[0, 0]",0,,,,,,,,,0,4,4,4,,,,,,,,,,,,,,,,,,,,,,,,,,,None,None,"[0, 0, 0]",835.9707746002823,837.9709085002542,835.9707746002823,836.9708763002418,836.9542187000625,837.9542287001386,"[0, 0, 0]",0,835.9707746002823,837.9709085002542,,,,,,,,99,M,1,r,CIB,2021_Aug_10_1527,WASABI distractmap,2020.2.10,59.99919607449888,"['Right Arm', 'Right Leg', 'Right Face', 'Left Leg', 'Left Face', 'Right Face', 'Left Leg', 'Chest', 'Abdomen', 'Right Arm', 'Right Leg', 'Abdomen', 'Left Arm', 'Left Arm', 'Left Face', 'Chest']",
4,"[-0.2, 0]",0,,,,,,,,,0,5,5,5,,,,,,,,,,,,,,,,,,,,,,,,,,,None,None,"[0, 0, 0]",837.9875399000011,839.9875878002495,837.9875399000011,838.9875826002099,838.9709152001888,839.9708903999999,"[0, 0, 0]",0,837.9875399000011,839.9875878002495,,,,,,,,99,M,1,r,CIB,2021_Aug_10_1527,WASABI distractmap,2020.2.10,59.99919607449888,"['Right Arm', 'Right Leg', 'Right Face', 'Left Leg', 'Left Face', 'Right Face', 'Left Leg', 'Chest', 'Abdomen', 'Right Arm', 'Right Leg', 'Abdomen', 'Left Arm', 'Left Arm', 'Left Face', 'Chest']",
4,"[-0.2, 0]",0,,,,,,,,,0,6,6,6,,,,,,,,,,,,,,,,,,,,,,,,,,,None,None,"[0, 0, 0]",840.0042306999676,842.0042488002218,840.0042306999676,841.0042568999343,840.9875814002007,841.9875758001581,"[0, 0, 0]",0,840.0042306999676,842.0042488002218,,,,,,,,99,M,1,r,CIB,2021_Aug_10_1527,WASABI distractmap,2020.2.10,59.99919607449888,"['Right Arm', 'Right Leg', 'Right Face', 'Left Leg', 'Left Face', 'Right Face', 'Left Leg', 'Chest', 'Abdomen', 'Right Arm', 'Right Leg', 'Abdomen', 'Left Arm', 'Left Arm', 'Left Face', 'Chest']",
7,"[-0.2, -0.2]",0,,,,,,,,,0,7,7,7,,,,,,,,,,,,,,,,,,,,,,,,,,,None,None,"[0, 0, 0]",842.0209178999066,844.0209443001077,842.0209178999066,843.0209409999661,843.0042669000104,844.0042825001292,"[0, 0, 0]",1,842.0209178999066,844.0209443001077,,,,,,,,99,M,1,r,CIB,2021_Aug_10_1527,WASABI distractmap,2020.2.10,59.99919607449888,"['Right Arm', 'Right Leg', 'Right Face', 'Left Leg', 'Left Face', 'Right Face', 'Left Leg', 'Chest', 'Abdomen', 'Right Arm', 'Right Leg', 'Abdomen', 'Left Arm', 'Left Arm', 'Left Face', 'Chest']",
4,"[-0.2, 0]",1,,,,,,,,,0,8,8,8,,,,,,,,,,,,,,,,,,,,,,,,,,,None,None,"[0, 0, 0]",844.0376283000223,846.0376228000969,844.0376283000223,845.0376103003509,845.0209405999631,846.0209479001351,"[0, 0, 0]",0,844.0376283000223,846.0376228000969,,,,,,,,99,M,1,r,CIB,2021_Aug_10_1527,WASABI distractmap,2020.2.10,59.99919607449888,"['Right Arm', 'Right Leg', 'Right Face', 'Left Leg', 'Left Face', 'Right Face', 'Left Leg', 'Chest', 'Abdomen', 'Right Arm', 'Right Leg', 'Abdomen', 'Left Arm', 'Left Arm', 'Left Face', 'Chest']",
3,"[0.2, 0.2]",0,,,,,,,,,0,9,9,9,,,,,,,,,,,,,,,,,,,,,,,,,,,None,None,"[0, 0, 0]",846.0542864999734,848.0543074999005,846.0542864999734,847.0542884003371,847.0376369999722,848.0376341999508,"[0, 0, 0]",1,846.0542864999734,848.0543074999005,,,,,,,,99,M,1,r,CIB,2021_Aug_10_1527,WASABI distractmap,2020.2.10,59.99919607449888,"['Right Arm', 'Right Leg', 'Right Face', 'Left Leg', 'Left Face', 'Right Face', 'Left Leg', 'Chest', 'Abdomen', 'Right Arm', 'Right Leg', 'Abdomen', 'Left Arm', 'Left Arm', 'Left Face', 'Chest']",
5,"[0, 0]",0,,,,,,,,,0,10,10,10,,,,,,,,,,,,,,,,,,,,,,,,,,,None,None,"[0, 0, 0]",848.0709641999565,850.0709669999778,848.0709641999565,849.0709695001133,849.0543045001104,850.0543168000877,"[0, 0, 0]",1,848.0709641999565,850.0709669999778,,,,,,,,99,M,1,r,CIB,2021_Aug_10_1527,WASABI distractmap,2020.2.10,59.99919607449888,"['Right Arm', 'Right Leg', 'Right Face', 'Left Leg', 'Left Face', 'Right Face', 'Left Leg', 'Chest', 'Abdomen', 'Right Arm', 'Right Leg', 'Abdomen', 'Left Arm', 'Left Arm', 'Left Face', 'Chest']",
3,"[0.2, 0.2]",1,,,,,,,,,0,11,11,11,,,,,,,,,,,,,,,,,,,,,,,,,,,None,None,"[0, 0, 0]",850.0876381001435,852.0876663001254,850.0876381001435,851.0876441001892,851.0709871002473,852.0710028000176,"[0, 0, 0]",0,850.0876381001435,852.0876663001254,,,,,,,,99,M,1,r,CIB,2021_Aug_10_1527,WASABI distractmap,2020.2.10,59.99919607449888,"['Right Arm', 'Right Leg', 'Right Face', 'Left Leg', 'Left Face', 'Right Face', 'Left Leg', 'Chest', 'Abdomen', 'Right Arm', 'Right Leg', 'Abdomen', 'Left Arm', 'Left Arm', 'Left Face', 'Chest']",
1,"[-0.2, 0.2]",0,,,,,,,,,0,12,12,12,,,,,,,,,,,,,,,,,,,,,,,,,,,None,None,"[0, 0, 0]",852.1043348000385,854.1043457002379,852.1043348000385,853.1043360000476,853.0876716002822,854.0876787002198,"[0, 0, 0]",1,852.1043348000385,854.1043457002379,,,,,,,,99,M,1,r,CIB,2021_Aug_10_1527,WASABI distractmap,2020.2.10,59.99919607449888,"['Right Arm', 'Right Leg', 'Right Face', 'Left Leg', 'Left Face', 'Right Face', 'Left Leg', 'Chest', 'Abdomen', 'Right Arm', 'Right Leg', 'Abdomen', 'Left Arm', 'Left Arm', 'Left Face', 'Chest']",
9,"[0.2, -0.2]",0,,,,,,,,,0,13,13,13,,,,,,,,,,,,,,,,,,,,,,,,,,,None,None,"[0, 0, 0]",854.1210123002529,856.1210201000795,854.1210123002529,855.1210525999777,855.1043964000419,856.1043565999717,"[0, 0, 0]",1,854.1210123002529,856.1210201000795,,,,,,,,99,M,1,r,CIB,2021_Aug_10_1527,WASABI distractmap,2020.2.10,59.99919607449888,"['Right Arm', 'Right Leg', 'Right Face', 'Left Leg', 'Left Face', 'Right Face', 'Left Leg', 'Chest', 'Abdomen', 'Right Arm', 'Right Leg', 'Abdomen', 'Left Arm', 'Left Arm', 'Left Face', 'Chest']",
9,"[0.2, -0.2]",0,,,,,,,,,0,14,14,14,,,,,,,,,,,,,,,,,,,,,,,,,,,None,None,"[0, 0, 0]",856.1376960002817,858.1377028003335,856.1376960002817,857.1376934000291,857.121032200288,858.1210233001038,"[0, 0, 0]",1,856.1376960002817,858.1377028003335,,,,,,,,99,M,1,r,CIB,2021_Aug_10_1527,WASABI distractmap,2020.2.10,59.99919607449888,"['Right Arm', 'Right Leg', 'Right Face', 'Left Leg', 'Left Face', 'Right Face', 'Left Leg', 'Chest', 'Abdomen', 'Right Arm', 'Right Leg', 'Abdomen', 'Left Arm', 'Left Arm', 'Left Face', 'Chest']",
8,"[0, -0.2]",0,,,,,,,,,0,15,15,15,,,,,,,,,,,,,,,,,,,,,,,,,,,None,None,"[0, 0, 0]",858.1543733002618,860.1543866000138,858.1543733002618,859.1543884002604,859.1377185001038,860.1377179999836,"[0, 0, 0]",1,858.1543733002618,860.1543866000138,,,,,,,,99,M,1,r,CIB,2021_Aug_10_1527,WASABI distractmap,2020.2.10,59.99919607449888,"['Right Arm', 'Right Leg', 'Right Face', 'Left Leg', 'Left Face', 'Right Face', 'Left Leg', 'Chest', 'Abdomen', 'Right Arm', 'Right Leg', 'Abdomen', 'Left Arm', 'Left Arm', 'Left Face', 'Chest']",
6,"[0.2, 0]",0,,,,,,,,,0,16,16,16,,,,,,,,,,,,,,,,,,,,,,,,,,,None,None,"[0, 0, 0]",860.17107090028,862.1710622003302,860.17107090028,861.1710657002404,861.1543911001645,862.1544254003093,"[0, 0, 0]",1,860.17107090028,862.1710622003302,,,,,,,,99,M,1,r,CIB,2021_Aug_10_1527,WASABI distractmap,2020.2.10,59.99919607449888,"['Right Arm', 'Right Leg', 'Right Face', 'Left Leg', 'Left Face', 'Right Face', 'Left Leg', 'Chest', 'Abdomen', 'Right Arm', 'Right Leg', 'Abdomen', 'Left Arm', 'Left Arm', 'Left Face', 'Chest']",
3,"[0.2, 0.2]",0,,,,,,,,,0,17,17,17,,,,,,,,,,,,,,,,,,,,,,,,,,,None,None,"[0, 0, 0]",862.1877267002128,864.187745500356,862.1877267002128,863.1877544000745,863.1710878000595,864.1710769999772,"[0, 0, 0]",1,862.1877267002128,864.187745500356,,,,,,,,99,M,1,r,CIB,2021_Aug_10_1527,WASABI distractmap,2020.2.10,59.99919607449888,"['Right Arm', 'Right Leg', 'Right Face', 'Left Leg', 'Left Face', 'Right Face', 'Left Leg', 'Chest', 'Abdomen', 'Right Arm', 'Right Leg', 'Abdomen', 'Left Arm', 'Left Arm', 'Left Face', 'Chest']",
6,"[0.2, 0]",1,,,,,,,,,0,18,18,18,,,,,,,,,,,,,,,,,,,,,,,,,,,None,None,"[0, 0, 0]",864.2044505001977,866.2044442999177,864.2044505001977,865.204425400123,865.187750000041,866.1877649999224,"[0, 0, 0]",0,864.2044505001977,866.2044442999177,,,,,,,,99,M,1,r,CIB,2021_Aug_10_1527,WASABI distractmap,2020.2.10,59.99919607449888,"['Right Arm', 'Right Leg', 'Right Face', 'Left Leg', 'Left Face', 'Right Face', 'Left Leg', 'Chest', 'Abdomen', 'Right Arm', 'Right Leg', 'Abdomen', 'Left Arm', 'Left Arm', 'Left Face', 'Chest']",
5,"[0, 0]",0,,,,,,,,,0,19,19,19,,,,,,,,,,,,,,,,,,,,,,,,,,,None,None,"[0, 0, 0]",866.2210902003571,868.221122100018,866.2210902003571,867.2211204003543,867.2044490999542,868.2044481001794,"[0, 0, 0]",1,866.2210902003571,868.221122100018,,,,,,,,99,M,1,r,CIB,2021_Aug_10_1527,WASABI distractmap,2020.2.10,59.99919607449888,"['Right Arm', 'Right Leg', 'Right Face', 'Left Leg', 'Left Face', 'Right Face', 'Left Leg', 'Chest', 'Abdomen', 'Right Arm', 'Right Leg', 'Abdomen', 'Left Arm', 'Left Arm', 'Left Face', 'Chest']",
7,"[-0.2, -0.2]",0,,,,,,,,,0,20,20,20,,,,,,,,,,,,,,,,,,,,,,,,,,,None,None,"[0, 0, 0]",868.237785700243,870.237799399998,868.237785700243,869.2377830999903,869.2211144999601,870.2211385001428,"[0, 0, 0]",1,868.237785700243,870.237799399998,,,,,,,,99,M,1,r,CIB,2021_Aug_10_1527,WASABI distractmap,2020.2.10,59.99919607449888,"['Right Arm', 'Right Leg', 'Right Face', 'Left Leg', 'Left Face', 'Right Face', 'Left Leg', 'Chest', 'Abdomen', 'Right Arm', 'Right Leg', 'Abdomen', 'Left Arm', 'Left Arm', 'Left Face', 'Chest']",
5,"[0, 0]",1,,,,,,,,,0,21,21,21,,,,,,,,,,,,,,,,,,,,,,,,,,,None,None,"[0, 0, 0]",870.2544625001028,872.2544849999249,870.2544625001028,871.2544793002307,871.237797900103,872.2378179999068,"[0, 0, 0]",0,870.2544625001028,872.2544849999249,,,,,,,,99,M,1,r,CIB,2021_Aug_10_1527,WASABI distractmap,2020.2.10,59.99919607449888,"['Right Arm', 'Right Leg', 'Right Face', 'Left Leg', 'Left Face', 'Right Face', 'Left Leg', 'Chest', 'Abdomen', 'Right Arm', 'Right Leg', 'Abdomen', 'Left Arm', 'Left Arm', 'Left Face', 'Chest']",
1,"[-0.2, 0.2]",0,,,,,,,,,0,22,22,22,,,,,,,,,,,,,,,,,,,,,,,,,,,None,None,"[0, 0, 0]",872.2711461000144,874.2711616000161,872.2711461000144,873.2711320002563,873.2544944002293,874.2544925003313,"[0, 0, 0]",1,872.2711461000144,874.2711616000161,,,,,,,,99,M,1,r,CIB,2021_Aug_10_1527,WASABI distractmap,2020.2.10,59.99919607449888,"['Right Arm', 'Right Leg', 'Right Face', 'Left Leg', 'Left Face', 'Right Face', 'Left Leg', 'Chest', 'Abdomen', 'Right Arm', 'Right Leg', 'Abdomen', 'Left Arm', 'Left Arm', 'Left Face', 'Chest']",
7,"[-0.2, -0.2]",0,,,,,,,,,0,23,23,23,,,,,,,,,,,,,,,,,,,,,,,,,,,None,None,"[0, 0, 0]",874.2878117002547,876.2878550002351,874.2878117002547,875.2878378001042,875.2711709002033,876.271157100331,"[0, 0, 0]",1,874.2878117002547,876.2878550002351,,,,,,,,99,M,1,r,CIB,2021_Aug_10_1527,WASABI distractmap,2020.2.10,59.99919607449888,"['Right Arm', 'Right Leg', 'Right Face', 'Left Leg', 'Left Face', 'Right Face', 'Left Leg', 'Chest', 'Abdomen', 'Right Arm', 'Right Leg', 'Abdomen', 'Left Arm', 'Left Arm', 'Left Face', 'Chest']",
9,"[0.2, -0.2]",0,,,,,,,,,0,24,24,24,,,,,,,,,,,,,,,,,,,,,,,,,,,None,None,"[0, 0, 0]",876.3045153999701,878.3045211001299,876.3045153999701,877.30441240035,877.2878509000875,878.287853800226,"[0, 0, 0]",1,876.3045153999701,878.3045211001299,,,,,,,,99,M,1,r,CIB,2021_Aug_10_1527,WASABI distractmap,2020.2.10,59.99919607449888,"['Right Arm', 'Right Leg', 'Right Face', 'Left Leg', 'Left Face', 'Right Face', 'Left Leg', 'Chest', 'Abdomen', 'Right Arm', 'Right Leg', 'Abdomen', 'Left Arm', 'Left Arm', 'Left Face', 'Chest']",
3,"[0.2, 0.2]",0,,,,,,,,,0,25,25,25,,,,,,,,,,,,,,,,,,,,,,,,,,,None,None,"[0, 0, 0]",878.3212037999183,880.3211789000779,878.3212037999183,879.3212012001313,879.3045497001149,880.3045411999337,"[0, 0, 0]",1,878.3212037999183,880.3211789000779,,,,,,,,99,M,1,r,CIB,2021_Aug_10_1527,WASABI distractmap,2020.2.10,59.99919607449888,"['Right Arm', 'Right Leg', 'Right Face', 'Left Leg', 'Left Face', 'Right Face', 'Left Leg', 'Chest', 'Abdomen', 'Right Arm', 'Right Leg', 'Abdomen', 'Left Arm', 'Left Arm', 'Left Face', 'Chest']",
9,"[0.2, -0.2]",1,,,,,,,,,0,26,26,26,,,,,,,,,,,,,,,,,,,,,,,,,,,None,None,"[0, 0, 0]",880.337884800043,882.3378701000474,880.337884800043,881.3378604003228,881.3212101003155,882.3211936000735,"[0, 0, 0]",0,880.337884800043,882.3378701000474,,,,,,,,99,M,1,r,CIB,2021_Aug_10_1527,WASABI distractmap,2020.2.10,59.99919607449888,"['Right Arm', 'Right Leg', 'Right Face', 'Left Leg', 'Left Face', 'Right Face', 'Left Leg', 'Chest', 'Abdomen', 'Right Arm', 'Right Leg', 'Abdomen', 'Left Arm', 'Left Arm', 'Left Face', 'Chest']",
6,"[0.2, 0]",0,,,,,,,,,0,27,27,27,,,,,,,,,,,,,,,,,,,,,,,,,,,None,None,"[0, 0, 0]",882.3545682001859,884.3545596003532,882.3545682001859,883.3545762002468,883.337915699929,884.3378798002377,"[0, 0, 0]",0,882.3545682001859,884.3545596003532,,,,,,,,99,M,1,r,CIB,2021_Aug_10_1527,WASABI distractmap,2020.2.10,59.99919607449888,"['Right Arm', 'Right Leg', 'Right Face', 'Left Leg', 'Left Face', 'Right Face', 'Left Leg', 'Chest', 'Abdomen', 'Right Arm', 'Right Leg', 'Abdomen', 'Left Arm', 'Left Arm', 'Left Face', 'Chest']",
2,"[0, 0.2]",0,,,,,,,,,0,28,28,28,,,,,,,,,,,,,,,,,,,,,,,,,,,None,None,"[0, 0, 0]",884.371245500166,886.3712454000488,884.371245500166,885.3712305002846,885.354570500087,886.3545748000033,"[0, 0, 0]",1,884.371245500166,886.3712454000488,,,,,,,,99,M,1,r,CIB,2021_Aug_10_1527,WASABI distractmap,2020.2.10,59.99919607449888,"['Right Arm', 'Right Leg', 'Right Face', 'Left Leg', 'Left Face', 'Right Face', 'Left Leg', 'Chest', 'Abdomen', 'Right Arm', 'Right Leg', 'Abdomen', 'Left Arm', 'Left Arm', 'Left Face', 'Chest']",
5,"[0, 0]",0,,,,,,,,,0,29,29,29,,,,,,,,,,,,,,,,,,,,,,,,,,,None,None,"[0, 0, 0]",886.3878942001611,888.3879284001887,886.3878942001611,887.3879380999133,887.3712551002391,888.3712645000778,"[0, 0, 0]",1,886.3878942001611,888.3879284001887,,,,,,,,99,M,1,r,CIB,2021_Aug_10_1527,WASABI distractmap,2020.2.10,59.99919607449888,"['Right Arm', 'Right Leg', 'Right Face', 'Left Leg', 'Left Face', 'Right Face', 'Left Leg', 'Chest', 'Abdomen', 'Right Arm', 'Right Leg', 'Abdomen', 'Left Arm', 'Left Arm', 'Left Face', 'Chest']",
,,,,,,,,,,,,,,,,,,,,,,,,,,,,,,,,,,,,888.4045933000743,None,space,888.4045933000743,None,,,,,,,,,,,,,,,,,,,,,99,M,1,r,CIB,2021_Aug_10_1527,WASABI distractmap,2020.2.10,59.99919607449888,"['Right Arm', 'Right Leg', 'Right Face', 'Left Leg', 'Left Face', 'Right Face', 'Left Leg', 'Chest', 'Abdomen', 'Right Arm', 'Right Leg', 'Abdomen', 'Left Arm', 'Left Arm', 'Left Face', 'Chest']",
6,"[0.2, 0]",None,,,,,,,,,0,0,0,0,,,,,,920.6381454002112,None,,,,,,,,,,,,,,,,,,,,None,None,"[0, 0, 0]",921.6548403999768,None,921.6548403999768,922.6548485001549,922.6381795001216,923.6381785003468,"[0, 0, 0]",1,921.6548403999768,None,,,,,,,,99,M,1,r,CIB,2021_Aug_10_1527,WASABI distractmap,2020.2.10,59.99919607449888,"['Right Arm', 'Right Leg', 'Right Face', 'Left Leg', 'Left Face', 'Right Face', 'Left Leg', 'Chest', 'Abdomen', 'Right Arm', 'Right Leg', 'Abdomen', 'Left Arm', 'Left Arm', 'Left Face', 'Chest']",
7,"[-0.2, -0.2]",None,,,,,,,,,0,1,1,1,,,,,,,,,,,,,,,,,,,,,,,,,,,None,None,"[0, 0, 0]",923.6546323001385,925.6548603000119,923.6546323001385,924.6548548000865,924.6381755000912,925.6382658001967,"[0, 0, 0]",1,923.6546323001385,925.6548603000119,,,,,,,,99,M,1,r,CIB,2021_Aug_10_1527,WASABI distractmap,2020.2.10,59.99919607449888,"['Right Arm', 'Right Leg', 'Right Face', 'Left Leg', 'Left Face', 'Right Face', 'Left Leg', 'Chest', 'Abdomen', 'Right Arm', 'Right Leg', 'Abdomen', 'Left Arm', 'Left Arm', 'Left Face', 'Chest']",
6,"[0.2, 0]",1,,,,,,,,,0,2,2,2,,,,,,,,,,,,,,,,,,,,,,,,,,,None,None,"[0, 0, 0]",925.6715323999524,927.6715528001077,925.6715323999524,926.671535700094,926.6548677999526,927.654880899936,"[0, 0, 0]",1,925.6715323999524,927.6715528001077,,,,,,,,99,M,1,r,CIB,2021_Aug_10_1527,WASABI distractmap,2020.2.10,59.99919607449888,"['Right Arm', 'Right Leg', 'Right Face', 'Left Leg', 'Left Face', 'Right Face', 'Left Leg', 'Chest', 'Abdomen', 'Right Arm', 'Right Leg', 'Abdomen', 'Left Arm', 'Left Arm', 'Left Face', 'Chest']",
2,"[0, 0.2]",0,,,,,,,,,0,3,3,3,,,,,,,,,,,,,,,,,,,,,,,,,,,None,None,"[0, 0, 0]",927.6882082000375,929.6882348000072,927.6882082000375,928.6882047001272,928.6715615000576,929.6715893000364,"[0, 0, 0]",1,927.6882082000375,929.6882348000072,,,,,,,,99,M,1,r,CIB,2021_Aug_10_1527,WASABI distractmap,2020.2.10,59.99919607449888,"['Right Arm', 'Right Leg', 'Right Face', 'Left Leg', 'Left Face', 'Right Face', 'Left Leg', 'Chest', 'Abdomen', 'Right Arm', 'Right Leg', 'Abdomen', 'Left Arm', 'Left Arm', 'Left Face', 'Chest']",
5,"[0, 0]",0,,,,,,,,,0,4,4,4,,,,,,,,,,,,,,,,,,,,,,,,,,,None,None,"[0, 0, 0]",929.7048924001865,931.7049702000804,929.7048924001865,930.7049213000573,930.6882194001228,931.6882341001183,"[0, 0, 0]",0,929.7048924001865,931.7049702000804,,,,,,,,99,M,1,r,CIB,2021_Aug_10_1527,WASABI distractmap,2020.2.10,59.99919607449888,"['Right Arm', 'Right Leg', 'Right Face', 'Left Leg', 'Left Face', 'Right Face', 'Left Leg', 'Chest', 'Abdomen', 'Right Arm', 'Right Leg', 'Abdomen', 'Left Arm', 'Left Arm', 'Left Face', 'Chest']",
4,"[-0.2, 0]",0,,,,,,,,,0,5,5,5,,,,,,,,,,,,,,,,,,,,,,,,,,,None,None,"[0, 0, 0]",931.7215805999003,933.7215869002976,931.7215805999003,932.7215941003524,932.7049048999324,933.7049197000451,"[0, 0, 0]",1,931.7215805999003,933.7215869002976,,,,,,,,99,M,1,r,CIB,2021_Aug_10_1527,WASABI distractmap,2020.2.10,59.99919607449888,"['Right Arm', 'Right Leg', 'Right Face', 'Left Leg', 'Left Face', 'Right Face', 'Left Leg', 'Chest', 'Abdomen', 'Right Arm', 'Right Leg', 'Abdomen', 'Left Arm', 'Left Arm', 'Left Face', 'Chest']",
4,"[-0.2, 0]",0,,,,,,,,,0,6,6,6,,,,,,,,,,,,,,,,,,,,,,,,,,,None,None,"[0, 0, 0]",933.7382654002868,935.7382628000341,933.7382654002868,934.7382439002395,934.7215833999217,935.7215933999978,"[0, 0, 0]",1,933.7382654002868,935.7382628000341,,,,,,,,99,M,1,r,CIB,2021_Aug_10_1527,WASABI distractmap,2020.2.10,59.99919607449888,"['Right Arm', 'Right Leg', 'Right Face', 'Left Leg', 'Left Face', 'Right Face', 'Left Leg', 'Chest', 'Abdomen', 'Right Arm', 'Right Leg', 'Abdomen', 'Left Arm', 'Left Arm', 'Left Face', 'Chest']",
7,"[-0.2, -0.2]",0,,,,,,,,,0,7,7,7,,,,,,,,,,,,,,,,,,,,,,,,,,,None,None,"[0, 0, 0]",935.7549255001359,937.7549601001665,935.7549255001359,936.7549335001968,936.7382839000784,937.7382646999322,"[0, 0, 0]",1,935.7549255001359,937.7549601001665,,,,,,,,99,M,1,r,CIB,2021_Aug_10_1527,WASABI distractmap,2020.2.10,59.99919607449888,"['Right Arm', 'Right Leg', 'Right Face', 'Left Leg', 'Left Face', 'Right Face', 'Left Leg', 'Chest', 'Abdomen', 'Right Arm', 'Right Leg', 'Abdomen', 'Left Arm', 'Left Arm', 'Left Face', 'Chest']",
4,"[-0.2, 0]",1,,,,,,,,,0,8,8,8,,,,,,,,,,,,,,,,,,,,,,,,,,,None,None,"[0, 0, 0]",937.771619300358,939.7716381000355,937.771619300358,938.7716259001754,938.7549725999124,939.7549618002959,"[0, 0, 0]",0,937.771619300358,939.7716381000355,,,,,,,,99,M,1,r,CIB,2021_Aug_10_1527,WASABI distractmap,2020.2.10,59.99919607449888,"['Right Arm', 'Right Leg', 'Right Face', 'Left Leg', 'Left Face', 'Right Face', 'Left Leg', 'Chest', 'Abdomen', 'Right Arm', 'Right Leg', 'Abdomen', 'Left Arm', 'Left Arm', 'Left Face', 'Chest']",
3,"[0.2, 0.2]",0,,,,,,,,,0,9,9,9,,,,,,,,,,,,,,,,,,,,,,,,,,,None,None,"[0, 0, 0]",939.7882787003182,941.7882953002118,939.7882787003182,940.7883131001145,940.7716346001253,941.7716544000432,"[0, 0, 0]",1,939.7882787003182,941.7882953002118,,,,,,,,99,M,1,r,CIB,2021_Aug_10_1527,WASABI distractmap,2020.2.10,59.99919607449888,"['Right Arm', 'Right Leg', 'Right Face', 'Left Leg', 'Left Face', 'Right Face', 'Left Leg', 'Chest', 'Abdomen', 'Right Arm', 'Right Leg', 'Abdomen', 'Left Arm', 'Left Arm', 'Left Face', 'Chest']",
5,"[0, 0]",0,,,,,,,,,0,10,10,10,,,,,,,,,,,,,,,,,,,,,,,,,,,None,None,"[0, 0, 0]",941.8049912001006,943.8049909002148,941.8049912001006,942.8049898999743,942.7883176999167,943.7883210000582,"[0, 0, 0]",1,941.8049912001006,943.8049909002148,,,,,,,,99,M,1,r,CIB,2021_Aug_10_1527,WASABI distractmap,2020.2.10,59.99919607449888,"['Right Arm', 'Right Leg', 'Right Face', 'Left Leg', 'Left Face', 'Right Face', 'Left Leg', 'Chest', 'Abdomen', 'Right Arm', 'Right Leg', 'Abdomen', 'Left Arm', 'Left Arm', 'Left Face', 'Chest']",
3,"[0.2, 0.2]",1,,,,,,,,,0,11,11,11,,,,,,,,,,,,,,,,,,,,,,,,,,,None,None,"[0, 0, 0]",943.8216480999254,945.8216715003364,943.8216480999254,944.8216689000838,944.8050112999044,945.8050140999258,"[0, 0, 0]",0,943.8216480999254,945.8216715003364,,,,,,,,99,M,1,r,CIB,2021_Aug_10_1527,WASABI distractmap,2020.2.10,59.99919607449888,"['Right Arm', 'Right Leg', 'Right Face', 'Left Leg', 'Left Face', 'Right Face', 'Left Leg', 'Chest', 'Abdomen', 'Right Arm', 'Right Leg', 'Abdomen', 'Left Arm', 'Left Arm', 'Left Face', 'Chest']",
1,"[-0.2, 0.2]",0,,,,,,,,,0,12,12,12,,,,,,,,,,,,,,,,,,,,,,,,,,,None,None,"[0, 0, 0]",945.8383468999527,947.838356600143,945.8383468999527,946.8383368002251,946.8216765001416,947.8216854999773,"[0, 0, 0]",1,945.8383468999527,947.838356600143,,,,,,,,99,M,1,r,CIB,2021_Aug_10_1527,WASABI distractmap,2020.2.10,59.99919607449888,"['Right Arm', 'Right Leg', 'Right Face', 'Left Leg', 'Left Face', 'Right Face', 'Left Leg', 'Chest', 'Abdomen', 'Right Arm', 'Right Leg', 'Abdomen', 'Left Arm', 'Left Arm', 'Left Face', 'Chest']",
9,"[0.2, -0.2]",0,,,,,,,,,0,13,13,13,,,,,,,,,,,,,,,,,,,,,,,,,,,None,None,"[0, 0, 0]",947.8550374000333,949.8550414000638,947.8550374000333,948.8550452003255,948.8383673001081,949.8383710002527,"[0, 0, 0]",1,947.8550374000333,949.8550414000638,,,,,,,,99,M,1,r,CIB,2021_Aug_10_1527,WASABI distractmap,2020.2.10,59.99919607449888,"['Right Arm', 'Right Leg', 'Right Face', 'Left Leg', 'Left Face', 'Right Face', 'Left Leg', 'Chest', 'Abdomen', 'Right Arm', 'Right Leg', 'Abdomen', 'Left Arm', 'Left Arm', 'Left Face', 'Chest']",
9,"[0.2, -0.2]",0,,,,,,,,,0,14,14,14,,,,,,,,,,,,,,,,,,,,,,,,,,,None,None,"[0, 0, 0]",949.8717133002356,951.8717466001399,949.8717133002356,950.8717120001093,950.8550495002419,951.8550623999909,"[0, 0, 0]",1,949.8717133002356,951.8717466001399,,,,,,,,99,M,1,r,CIB,2021_Aug_10_1527,WASABI distractmap,2020.2.10,59.99919607449888,"['Right Arm', 'Right Leg', 'Right Face', 'Left Leg', 'Left Face', 'Right Face', 'Left Leg', 'Chest', 'Abdomen', 'Right Arm', 'Right Leg', 'Abdomen', 'Left Arm', 'Left Arm', 'Left Face', 'Chest']",
8,"[0, -0.2]",0,,,,,,,,,0,15,15,15,,,,,,,,,,,,,,,,,,,,,,,,,,,None,None,"[0, 0, 0]",951.8883801000193,953.8883342002518,951.8883801000193,952.888395300135,952.8717411002144,953.8717323001474,"[0, 0, 0]",1,951.8883801000193,953.8883342002518,,,,,,,,99,M,1,r,CIB,2021_Aug_10_1527,WASABI distractmap,2020.2.10,59.99919607449888,"['Right Arm', 'Right Leg', 'Right Face', 'Left Leg', 'Left Face', 'Right Face', 'Left Leg', 'Chest', 'Abdomen', 'Right Arm', 'Right Leg', 'Abdomen', 'Left Arm', 'Left Arm', 'Left Face', 'Chest']",
6,"[0.2, 0]",0,,,,,,,,,0,16,16,16,,,,,,,,,,,,,,,,,,,,,,,,,,,None,None,"[0, 0, 0]",953.9050753000192,955.9050902999006,953.9050753000192,954.9050805000588,954.88842090033,955.8884191000834,"[0, 0, 0]",0,953.9050753000192,955.9050902999006,,,,,,,,99,M,1,r,CIB,2021_Aug_10_1527,WASABI distractmap,2020.2.10,59.99919607449888,"['Right Arm', 'Right Leg', 'Right Face', 'Left Leg', 'Left Face', 'Right Face', 'Left Leg', 'Chest', 'Abdomen', 'Right Arm', 'Right Leg', 'Abdomen', 'Left Arm', 'Left Arm', 'Left Face', 'Chest']",
3,"[0.2, 0.2]",0,,,,,,,,,0,17,17,17,,,,,,,,,,,,,,,,,,,,,,,,,,,None,None,"[0, 0, 0]",955.9217445002869,957.9218055000529,955.9217445002869,956.9217437002808,956.9050944000483,957.9050898998976,"[0, 0, 0]",1,955.9217445002869,957.9218055000529,,,,,,,,99,M,1,r,CIB,2021_Aug_10_1527,WASABI distractmap,2020.2.10,59.99919607449888,"['Right Arm', 'Right Leg', 'Right Face', 'Left Leg', 'Left Face', 'Right Face', 'Left Leg', 'Chest', 'Abdomen', 'Right Arm', 'Right Leg', 'Abdomen', 'Left Arm', 'Left Arm', 'Left Face', 'Chest']",
6,"[0.2, 0]",1,,,,,,,,,0,18,18,18,,,,,,,,,,,,,,,,,,,,,,,,,,,None,None,"[0, 0, 0]",957.938299600035,959.9384349999018,957.938299600035,958.9384636003524,958.9217727002688,959.9217933001928,"[0, 0, 0]",0,957.938299600035,959.9384349999018,,,,,,,,99,M,1,r,CIB,2021_Aug_10_1527,WASABI distractmap,2020.2.10,59.99919607449888,"['Right Arm', 'Right Leg', 'Right Face', 'Left Leg', 'Left Face', 'Right Face', 'Left Leg', 'Chest', 'Abdomen', 'Right Arm', 'Right Leg', 'Abdomen', 'Left Arm', 'Left Arm', 'Left Face', 'Chest']",
5,"[0, 0]",0,,,,,,,,,0,19,19,19,,,,,,,,,,,,,,,,,,,,,,,,,,,None,None,"[0, 0, 0]",959.9551188000478,961.9551254999824,959.9551188000478,960.9551276001148,960.9384479001164,961.9384649000131,"[0, 0, 0]",1,959.9551188000478,961.9551254999824,,,,,,,,99,M,1,r,CIB,2021_Aug_10_1527,WASABI distractmap,2020.2.10,59.99919607449888,"['Right Arm', 'Right Leg', 'Right Face', 'Left Leg', 'Left Face', 'Right Face', 'Left Leg', 'Chest', 'Abdomen', 'Right Arm', 'Right Leg', 'Abdomen', 'Left Arm', 'Left Arm', 'Left Face', 'Chest']",
7,"[-0.2, -0.2]",0,,,,,,,,,0,20,20,20,,,,,,,,,,,,,,,,,,,,,,,,,,,None,None,"[0, 0, 0]",961.9718289002776,963.9718078002334,961.9718289002776,962.9718070002273,962.9551340001635,963.9551240000874,"[0, 0, 0]",1,961.9718289002776,963.9718078002334,,,,,,,,99,M,1,r,CIB,2021_Aug_10_1527,WASABI distractmap,2020.2.10,59.99919607449888,"['Right Arm', 'Right Leg', 'Right Face', 'Left Leg', 'Left Face', 'Right Face', 'Left Leg', 'Chest', 'Abdomen', 'Right Arm', 'Right Leg', 'Abdomen', 'Left Arm', 'Left Arm', 'Left Face', 'Chest']",
5,"[0, 0]",1,,,,,,,,,0,21,21,21,,,,,,,,,,,,,,,,,,,,,,,,,,,None,None,"[0, 0, 0]",963.9884848999791,965.9885289999656,963.9884848999791,964.9884963002987,964.9718134999275,965.9718150999397,"[0, 0, 0]",0,963.9884848999791,965.9885289999656,,,,,,,,99,M,1,r,CIB,2021_Aug_10_1527,WASABI distractmap,2020.2.10,59.99919607449888,"['Right Arm', 'Right Leg', 'Right Face', 'Left Leg', 'Left Face', 'Right Face', 'Left Leg', 'Chest', 'Abdomen', 'Right Arm', 'Right Leg', 'Abdomen', 'Left Arm', 'Left Arm', 'Left Face', 'Chest']",
1,"[-0.2, 0.2]",0,,,,,,,,,0,22,22,22,,,,,,,,,,,,,,,,,,,,,,,,,,,None,None,"[0, 0, 0]",966.0051458999515,968.0051726000383,966.0051458999515,967.0051468000747,966.9884938001633,967.9885122999549,"[0, 0, 0]",1,966.0051458999515,968.0051726000383,,,,,,,,99,M,1,r,CIB,2021_Aug_10_1527,WASABI distractmap,2020.2.10,59.99919607449888,"['Right Arm', 'Right Leg', 'Right Face', 'Left Leg', 'Left Face', 'Right Face', 'Left Leg', 'Chest', 'Abdomen', 'Right Arm', 'Right Leg', 'Abdomen', 'Left Arm', 'Left Arm', 'Left Face', 'Chest']",
7,"[-0.2, -0.2]",0,,,,,,,,,0,23,23,23,,,,,,,,,,,,,,,,,,,,,,,,,,,None,None,"[0, 0, 0]",968.0218557999469,970.0218481002375,968.0218557999469,969.0218285000883,969.0051770000719,970.0051691001281,"[0, 0, 0]",1,968.0218557999469,970.0218481002375,,,,,,,,99,M,1,r,CIB,2021_Aug_10_1527,WASABI distractmap,2020.2.10,59.99919607449888,"['Right Arm', 'Right Leg', 'Right Face', 'Left Leg', 'Left Face', 'Right Face', 'Left Leg', 'Chest', 'Abdomen', 'Right Arm', 'Right Leg', 'Abdomen', 'Left Arm', 'Left Arm', 'Left Face', 'Chest']",
9,"[0.2, -0.2]",0,,,,,,,,,0,24,24,24,,,,,,,,,,,,,,,,,,,,,,,,,,,None,None,"[0, 0, 0]",970.0385179002769,972.0385239999741,970.0385179002769,971.0385253001004,971.0218420000747,972.0218409001827,"[0, 0, 0]",1,970.0385179002769,972.0385239999741,,,,,,,,99,M,1,r,CIB,2021_Aug_10_1527,WASABI distractmap,2020.2.10,59.99919607449888,"['Right Arm', 'Right Leg', 'Right Face', 'Left Leg', 'Left Face', 'Right Face', 'Left Leg', 'Chest', 'Abdomen', 'Right Arm', 'Right Leg', 'Abdomen', 'Left Arm', 'Left Arm', 'Left Face', 'Chest']",
3,"[0.2, 0.2]",0,,,,,,,,,0,25,25,25,,,,,,,,,,,,,,,,,,,,,,,,,,,None,None,"[0, 0, 0]",972.0551905999891,974.0552089000121,972.0551905999891,973.0552036999725,973.0385640999302,974.0385638000444,"[0, 0, 0]",1,972.0551905999891,974.0552089000121,,,,,,,,99,M,1,r,CIB,2021_Aug_10_1527,WASABI distractmap,2020.2.10,59.99919607449888,"['Right Arm', 'Right Leg', 'Right Face', 'Left Leg', 'Left Face', 'Right Face', 'Left Leg', 'Chest', 'Abdomen', 'Right Arm', 'Right Leg', 'Abdomen', 'Left Arm', 'Left Arm', 'Left Face', 'Chest']",
9,"[0.2, -0.2]",1,,,,,,,,,0,26,26,26,,,,,,,,,,,,,,,,,,,,,,,,,,,None,None,"[0, 0, 0]",974.0718630999327,976.071904799901,974.0718630999327,975.0718684000894,975.0551082999445,976.0552308000624,"[0, 0, 0]",0,974.0718630999327,976.071904799901,,,,,,,,99,M,1,r,CIB,2021_Aug_10_1527,WASABI distractmap,2020.2.10,59.99919607449888,"['Right Arm', 'Right Leg', 'Right Face', 'Left Leg', 'Left Face', 'Right Face', 'Left Leg', 'Chest', 'Abdomen', 'Right Arm', 'Right Leg', 'Abdomen', 'Left Arm', 'Left Arm', 'Left Face', 'Chest']",
6,"[0.2, 0]",0,,,,,,,,,0,27,27,27,,,,,,,,,,,,,,,,,,,,,,,,,,,None,None,"[0, 0, 0]",976.0885697002523,978.0885736001655,976.0885697002523,977.0885608000681,977.0718995002098,978.0719157001004,"[0, 0, 0]",1,976.0885697002523,978.0885736001655,,,,,,,,99,M,1,r,CIB,2021_Aug_10_1527,WASABI distractmap,2020.2.10,59.99919607449888,"['Right Arm', 'Right Leg', 'Right Face', 'Left Leg', 'Left Face', 'Right Face', 'Left Leg', 'Chest', 'Abdomen', 'Right Arm', 'Right Leg', 'Abdomen', 'Left Arm', 'Left Arm', 'Left Face', 'Chest']",
2,"[0, 0.2]",0,,,,,,,,,0,28,28,28,,,,,,,,,,,,,,,,,,,,,,,,,,,None,None,"[0, 0, 0]",978.105237999931,980.1052574003115,978.105237999931,979.1052839001641,979.0885854000226,980.0885779000819,"[0, 0, 0]",1,978.105237999931,980.1052574003115,,,,,,,,99,M,1,r,CIB,2021_Aug_10_1527,WASABI distractmap,2020.2.10,59.99919607449888,"['Right Arm', 'Right Leg', 'Right Face', 'Left Leg', 'Left Face', 'Right Face', 'Left Leg', 'Chest', 'Abdomen', 'Right Arm', 'Right Leg', 'Abdomen', 'Left Arm', 'Left Arm', 'Left Face', 'Chest']",
5,"[0, 0]",0,,,,,,,,,0,29,29,29,,,,,,,,,,,,,,,,,,,,,,,,,,,None,None,"[0, 0, 0]",980.1219323999248,982.1219411003403,980.1219323999248,981.121931000147,981.1052576000802,982.1052827001549,"[0, 0, 0]",1,980.1219323999248,982.1219411003403,,,,,,,,99,M,1,r,CIB,2021_Aug_10_1527,WASABI distractmap,2020.2.10,59.99919607449888,"['Right Arm', 'Right Leg', 'Right Face', 'Left Leg', 'Left Face', 'Right Face', 'Left Leg', 'Chest', 'Abdomen', 'Right Arm', 'Right Leg', 'Abdomen', 'Left Arm', 'Left Arm', 'Left Face', 'Chest']",
,,,,,,,,,,,,,,,,,,,,,,,,,,,,,,,,,,,,982.1552886003628,None,space,982.1552886003628,None,,,,,,,,,,,,,,,,,,,,,99,M,1,r,CIB,2021_Aug_10_1527,WASABI distractmap,2020.2.10,59.99919607449888,"['Right Arm', 'Right Leg', 'Right Face', 'Left Leg', 'Left Face', 'Right Face', 'Left Leg', 'Chest', 'Abdomen', 'Right Arm', 'Right Leg', 'Abdomen', 'Left Arm', 'Left Arm', 'Left Face', 'Chest']",
,,,,,,,,,,,,,,,,,,,,,,,,,,,,,,,,,,,,,,,,,,,,,,,,,,,,,,994.0220584003255,994.0220584003255,None,space,3.6603282997384667,994.0220584003255,None,,,,,,,,,,,
