	SID	day	sex	session	handedness	scanner	onset	duration	value	body_site	skin_site	temperature	condition	keys	rt	phase	biopac_channel
0	2248	3	M	03	R	MH	2.7748732999898493	5.004279286367819		Left Leg	2	48.0	Instructions			Control	19
1	2248	3	M	03	R	MH	8.426206099800766	5.001757829915732	58.82716049382716	Left Leg	2	48.0	Expectancy			Control	51
2	2248	3	M	03	R	MH	13.820538599975407	1.996417579939589		Left Leg	2	48.0	Cue			Control	6
3	2248	3	M	03	R	MH	15.822781799826771	4.0086416699923575		Left Leg	2	48.0	Pre-Jitter			Control	7
4	2248	3	M	03	R	MH	19.89294739998877	15.001809380017221		Left Leg	2	48.0	Control Heat 			Control	15
5	2248	3	M	03	R	MH	34.90384509996511	6.996904170140624		Left Leg	2	48.0	Mid-Jitter			Control	8
6	2248	3	M	03	R	MH	41.922759799985215	5.00924633978866	1.0	Left Leg	2	48.0	PainBinary		1.4000480000395328	Control	20
7	2248	3	M	03	R	MH	46.955171399982646	5.011234239907935	57.28395061728395	Left Leg	2	48.0	IntensityRating		1.4833437998313457	Control	21
8	2248	3	M	03	R	MH	51.97377139981836	7.007430070312694		Left Leg	2	48.0	Post-Q-Jitter			Control	9
9	2248	3	M	03	R	MH	59.16743509983644	5.0035651398357	57.96296296296296	Left Leg	2	48.0	Expectancy		4.317045300034806	Control	51
10	2248	3	M	03	R	MH	64.5416175997816	2.005286310100928		Left Leg	2	48.0	Cue			Control	6
11	2248	3	M	03	R	MH	66.5559631998185	3.9932062700390816		Left Leg	2	48.0	Pre-Jitter			Control	7
12	2248	3	M	03	R	MH	70.61063019977883	15.000721179880202		Left Leg	2	48.0	Control Heat 			Control	15
13	2248	3	M	03	R	MH	85.621604999993	4.995745070278645		Left Leg	2	48.0	Mid-Jitter			Control	8
14	2248	3	M	03	R	MH	90.63955009984784	5.009960039984435	1.0	Left Leg	2	48.0	PainBinary		1.1500224999617785	Control	20
15	2248	3	M	03	R	MH	95.67139589996077	4.996381839970127	52.83950617283951	Left Leg	2	48.0	IntensityRating		2.734136200044304	Control	21
16	2248	3	M	03	R	MH	100.67414899985306	5.007623470155522		Left Leg	2	48.0	Post-Q-Jitter			Control	9
17	2248	3	M	03	R	MH	106.32517539989203	5.005658830050379	52.83950617283951	Left Leg	2	48.0	Expectancy		2.600056800059974	Control	51
18	2248	3	M	03	R	MH	111.71542579983361	2.008596880128607		Left Leg	2	48.0	Cue			Control	6
19	2248	3	M	03	R	MH	113.72379619977437	8.008637570077553		Left Leg	2	48.0	Pre-Jitter			Control	7
20	2248	3	M	03	R	MH	121.80276669980958	15.000931450165808		Left Leg	2	48.0	Control Heat 			Control	15
21	2248	3	M	03	R	MH	136.80524589982815	4.996139470022172		Left Leg	2	48.0	Mid-Jitter			Control	8
22	2248	3	M	03	R	MH	141.82408609986305	5.008562139933929	1.0	Left Leg	2	48.0	PainBinary		2.6500705000944436	Control	20
23	2248	3	M	03	R	MH	146.85513539984822	5.013265440007672	51.79012345679013	Left Leg	2	48.0	IntensityRating		2.1500307000242174	Control	21
24	2248	3	M	03	R	MH	151.87448189989664	5.007985570235178		Left Leg	2	48.0	Post-Q-Jitter			Control	9
25	2248	3	M	03	R	MH	157.63364329980686	5.006438620388508	52.53086419753087	Left Leg	2	48.0	Expectancy		2.6336260000243783	Control	51
26	2248	3	M	03	R	MH	163.02635399997234	2.0044410799164325		Left Leg	2	48.0	Cue			Control	6
27	2248	3	M	03	R	MH	165.0416134998668	8.007362970151007		Left Leg	2	48.0	Pre-Jitter			Control	7
28	2248	3	M	03	R	MH	173.0808198999148	15.01248601009138		Left Leg	2	48.0	Control Heat 			Control	15
29	2248	3	M	03	R	MH	188.08896470000036	4.996393569977954		Left Leg	2	48.0	Mid-Jitter			Control	8
30	2248	3	M	03	R	MH	193.10845719999634	5.007534239906818	1.0	Left Leg	2	48.0	PainBinary		0.8833453999832273	Control	20
31	2248	3	M	03	R	MH	198.1388050999958	5.01359284017235	57.654320987654316	Left Leg	2	48.0	IntensityRating		2.1166729000397027	Control	21
32	2248	3	M	03	R	MH	203.15900119999424	5.006621870212257		Left Leg	2	48.0	Post-Q-Jitter			Control	9
33	2248	3	M	03	R	MH	208.85697039985098	5.0108031400013715	57.777777777777786	Left Leg	2	48.0	Expectancy		2.733530400088057	Control	51
34	2248	3	M	03	R	MH	214.23918449995108	1.9964546102564782		Left Leg	2	48.0	Cue			Control	6
35	2248	3	M	03	R	MH	216.24160129996017	6.00837197015062		Left Leg	2	48.0	Pre-Jitter			Control	7
36	2248	3	M	03	R	MH	222.30760039994493	15.009931680047885		Left Leg	2	48.0	Control Heat 			Control	15
37	2248	3	M	03	R	MH	237.32350349985063	6.995004770113155		Left Leg	2	48.0	Mid-Jitter			Control	8
38	2248	3	M	03	R	MH	244.34126479993574	5.0095927400980145	1.0	Left Leg	2	48.0	PainBinary		2.8666656999848783	Control	20
39	2248	3	M	03	R	MH	249.37323089991696	5.012426939792931	58.08641975308642	Left Leg	2	48.0	IntensityRating		3.7167181000113487	Control	21
40	2248	3	M	03	R	MH	254.39162609982304	7.009070570115		Left Leg	2	48.0	Post-Q-Jitter			Control	9
41	2248	3	M	03	R	MH	262.2091928999871	5.0074514301959425	56.2962962962963	Left Leg	2	48.0	Expectancy		3.1334474000614136	Control	51
42	2248	3	M	03	R	MH	267.6012402998749	2.0067721800878644		Left Leg	2	48.0	Cue			Control	6
43	2248	3	M	03	R	MH	269.6090457998216	8.007892770227045		Left Leg	2	48.0	Pre-Jitter			Control	7
44	2248	3	M	03	R	MH	277.6503571998328	15.0088294101879		Left Leg	2	48.0	Control Heat 			Control	15
45	2248	3	M	03	R	MH	292.6566204999108	6.996529769850895		Left Leg	2	48.0	Mid-Jitter			Control	8
46	2248	3	M	03	R	MH	299.67590559995733	5.008084940025583	1.0	Left Leg	2	48.0	PainBinary		2.433416600106284	Control	20
47	2248	3	M	03	R	MH	304.70764809986576	5.011378639843315	55.4320987654321	Left Leg	2	48.0	IntensityRating		2.933337999973446	Control	21
48	2248	3	M	03	R	MH	309.72626479994506	7.007592270150781		Left Leg	2	48.0	Post-Q-Jitter			Control	9
49	2248	3	M	03	R	MH	316.7657103999518	5.662262110272422	-12.222222222222229	Left Leg	2	48.0	ComfortRating		5.633700200123712	Control	26
50	2248	3	M	03	R	MH	322.4455546999816	3.0026338398456573	56.91358024691359	Left Leg	2	48.0	ValenceRating		2.9833919000811875	Control	24
51	2248	3	M	03	R	MH	325.47136519989	2.6510805399157107	62.098765432098766	Left Leg	2	48.0	IntensityRating		2.633660600055009	Control	26
52	2248	3	M	03	R	MH	328.14045329997316	3.29634023969993	29.259259259259238	Left Leg	2	48.0	AvoidanceRating		3.2667610000353307	Control	27
53	2248	3	M	03	R	MH	331.4535984999966	4.586802140111104	52.83950617283951	Left Leg	2	48.0	RelaxationRating		4.567039400106296	Control	28
54	2248	3	M	03	R	MH	336.05702049983665	5.463346140226349	55.8641975308642	Left Leg	2	48.0	AttentionRating		5.433404699899256	Control	29
55	2248	3	M	03	R	MH	341.5370802998077	3.469977440079674	36.48148148148149	Left Leg	2	48.0	BoredomRating		3.450360600138083	Control	30
56	2248	3	M	03	R	MH	345.02221559989266	3.416448639938608	66.7901234567901	Left Leg	2	48.0	AlertnessRating		3.400398400146514	Control	31
57	2248	3	M	03	R	MH	348.45640649995767	2.9814589398447424	-36.66666666666667	Left Leg	2	48.0	PosThxRating		2.967100700130686	Control	32
58	2248	3	M	03	R	MH	351.45630149985664	1.6983769398648292	32.46913580246914	Left Leg	2	48.0	NegThxRating		1.6837615000549704	Control	33
59	2248	3	M	03	R	MH	353.17205069982447	4.450280440039933	36.91358024691357	Left Leg	2	48.0	SelfRating		4.4336848999373615	Control	34
60	2248	3	M	03	R	MH	357.6386303999461	1.583839840022847	19.87654320987656	Left Leg	2	48.0	OtherRating		1.5669996000360698	Control	35
61	2248	3	M	03	R	MH	359.2394088997971	2.1823547400999814	-41.11111111111111	Left Leg	2	48.0	ImageryRating		2.1673343000002205	Control	32
62	2248	3	M	03	R	MH	361.44166769995354	2.4445294400211424	38.888888888888914	Left Leg	2	48.0	PresentRating		2.416701099835336	Control	37
