RestT1,TaskT1,square,location,corrAns,counterbalancer.thisRepN,counterbalancer.thisTrialN,counterbalancer.thisN,counterbalancer.thisIndex,RestT1Loop.thisRepN,RestT1Loop.thisTrialN,RestT1Loop.thisN,RestT1Loop.thisIndex,TaskT1Loop.thisRepN,TaskT1Loop.thisTrialN,TaskT1Loop.thisN,TaskT1Loop.thisIndex,trials_2.thisRepN,trials_2.thisTrialN,trials_2.thisN,trials_2.thisIndex,fixation_1.started,fixation_1.stopped,NbackInstructions.started,NbackInstructions.stopped,NbackStart.keys,NbackStart.rt,NbackStart.started,NbackStart.stopped,fixation_2.started,fixation_2.stopped,response_2.x,response_2.y,response_2.leftButton,grid_lines_2.started,grid_lines_2.stopped,target_square_2.started,target_square_2.stopped,fixation_3.started,fixation_3.stopped,response_2.click,response_2.corr,response_2.started,response_2.stopped,response_2.rt,subject number,gender,session,handedness,scanner,date,expName,psychopyVersion,frameRate,
1,0,,,,0,0,0,0,0,0,0,0,,,,,,,,,88.74185899994336,None,,,,,,,,,,,,,,,,,,,,,,,01001,f,1,r,CJM,2021_Jul_28_1520,WASABI Nback,2020.2.10,60.004236317370456,
0,1,,,,0,1,1,1,,,,,0,0,0,0,,,,,,,384.59396179998294,None,space,38.645783099811524,384.59396179998294,None,,,,,,,,,,,,,,,,,01001,f,1,r,CJM,2021_Jul_28_1520,WASABI Nback,2020.2.10,60.004236317370456,
0,1,5,"[0, 0]",None,0,1,1,1,,,,,0,0,0,0,0,0,0,0,,,,,,,,,None,None,None,None,[],None,None,None,None,None,None,[],[],None,None,,01001,f,1,r,CJM,2021_Jul_28_1520,WASABI Nback,2020.2.10,60.004236317370456,
0,1,2,"[0, 0.2]",None,0,1,1,1,,,,,0,0,0,0,0,1,1,1,,,,,,,,,,,None,None,0,427.061091999989,None,427.061091999989,428.0610877000727,428.04440789995715,None,0,1,427.061091999989,None,,01001,f,1,r,CJM,2021_Jul_28_1520,WASABI Nback,2020.2.10,60.004236317370456,
0,1,6,"[0.2, 0]",None,0,1,1,1,,,,,0,0,0,0,0,2,2,2,,,,,,,,,,,None,None,0,428.27775699994527,None,428.27775699994527,429.2777501998935,429.2610790999606,430.26109170005657,0,1,428.27775699994527,None,,01001,f,1,r,CJM,2021_Jul_28_1520,WASABI Nback,2020.2.10,60.004236317370456,
0,1,9,"[0.2, -0.2]",None,0,1,1,1,,,,,0,0,0,0,0,3,3,3,,,,,,,,,,,None,None,0,430.2777710999362,None,430.2777710999362,431.2777726999484,431.26109479996376,432.2611233999487,0,1,430.2777710999362,None,,01001,f,1,r,CJM,2021_Jul_28_1520,WASABI Nback,2020.2.10,60.004236317370456,
0,1,3,"[0.2, 0.2]",None,0,1,1,1,,,,,0,0,0,0,0,4,4,4,,,,,,,,,,,None,None,0,432.27776889991947,None,432.27776889991947,433.2776836999692,433.26100519998,434.26113669993356,0,1,432.27776889991947,None,,01001,f,1,r,CJM,2021_Jul_28_1520,WASABI Nback,2020.2.10,60.004236317370456,
0,1,9,"[0.2, -0.2]",1,0,1,1,1,,,,,0,0,0,0,0,5,5,5,,,,,,,,,,,None,None,0,434.27767189987935,None,434.27767189987935,435.277798099909,435.26113600004464,436.26111439988017,0,1,434.27767189987935,None,,01001,f,1,r,CJM,2021_Jul_28_1520,WASABI Nback,2020.2.10,60.004236317370456,
0,1,7,"[-0.2, -0.2]",None,0,1,1,1,,,,,0,0,0,0,0,6,6,6,,,,,,,,,,,None,None,0,436.2778191999532,None,436.2778191999532,437.2778145999182,437.2611438999884,438.26115479995497,0,1,436.2778191999532,None,,01001,f,1,r,CJM,2021_Jul_28_1520,WASABI Nback,2020.2.10,60.004236317370456,
0,1,1,"[-0.2, 0.2]",None,0,1,1,1,,,,,0,0,0,0,0,7,7,7,,,,,,,,,,,None,None,0,438.27782050007954,None,438.27782050007954,439.27782299998216,439.2611706999596,440.26118639996275,0,1,438.27782050007954,None,,01001,f,1,r,CJM,2021_Jul_28_1520,WASABI Nback,2020.2.10,60.004236317370456,
0,1,5,"[0, 0]",None,0,1,1,1,,,,,0,0,0,0,0,8,8,8,,,,,,,,,,,None,None,0,440.27783240005374,None,440.27783240005374,441.27786420006305,441.26116989995353,442.26119600003585,0,1,440.27783240005374,None,,01001,f,1,r,CJM,2021_Jul_28_1520,WASABI Nback,2020.2.10,60.004236317370456,
0,1,7,"[-0.2, -0.2]",None,0,1,1,1,,,,,0,0,0,0,0,9,9,9,,,,,,,,,,,None,None,0,442.277868000092,None,442.277868000092,443.27787890005857,443.2612093000207,444.26120089995675,0,1,442.277868000092,None,,01001,f,1,r,CJM,2021_Jul_28_1520,WASABI Nback,2020.2.10,60.004236317370456,
0,1,5,"[0, 0]",1,0,1,1,1,,,,,0,0,0,0,0,10,10,10,,,,,,,,,,,None,None,0,444.2778686999809,None,444.2778686999809,445.27789080003276,445.2612173000816,446.26122029987164,0,1,444.2778686999809,None,,01001,f,1,r,CJM,2021_Jul_28_1520,WASABI Nback,2020.2.10,60.004236317370456,
0,1,6,"[0.2, 0]",None,0,1,1,1,,,,,0,0,0,0,0,11,11,11,,,,,,,,,,,None,None,0,446.27788509987295,None,446.27788509987295,447.2779059000313,447.2612278999295,448.26124310004525,0,1,446.27788509987295,None,,01001,f,1,r,CJM,2021_Jul_28_1520,WASABI Nback,2020.2.10,60.004236317370456,
0,1,3,"[0.2, 0.2]",None,0,1,1,1,,,,,0,0,0,0,0,12,12,12,,,,,,,,,,,None,None,0,448.27792760008015,None,448.27792760008015,449.27791609987617,449.26125420001335,450.2612437000498,0,1,448.27792760008015,None,,01001,f,1,r,CJM,2021_Jul_28_1520,WASABI Nback,2020.2.10,60.004236317370456,
0,1,6,"[0.2, 0]",1,0,1,1,1,,,,,0,0,0,0,0,13,13,13,,,,,,,,,,,None,None,0,450.27800030005164,None,450.27800030005164,451.27792220003903,451.2612618000712,452.2612711000256,0,1,450.27800030005164,None,,01001,f,1,r,CJM,2021_Jul_28_1520,WASABI Nback,2020.2.10,60.004236317370456,
0,1,8,"[0, -0.2]",None,0,1,1,1,,,,,0,0,0,0,0,14,14,14,,,,,,,,,,,None,None,0,452.27793690003455,None,452.27793690003455,453.27793610002846,453.2612659998704,454.2612866999116,0,1,452.27793690003455,None,,01001,f,1,r,CJM,2021_Jul_28_1520,WASABI Nback,2020.2.10,60.004236317370456,
0,1,9,"[0.2, -0.2]",None,0,1,1,1,,,,,0,0,0,0,0,15,15,15,,,,,,,,,,,None,None,0,454.27796119987033,None,454.27796119987033,455.27796269999817,455.2613007000182,456.2613021999132,0,1,454.27796119987033,None,,01001,f,1,r,CJM,2021_Jul_28_1520,WASABI Nback,2020.2.10,60.004236317370456,
0,1,9,"[0.2, -0.2]",None,0,1,1,1,,,,,0,0,0,0,0,16,16,16,,,,,,,,,,,None,None,0,456.2779773999937,None,456.2779773999937,457.2779604000971,457.2613124998752,458.2613168999087,0,1,456.2779773999937,None,,01001,f,1,r,CJM,2021_Jul_28_1520,WASABI Nback,2020.2.10,60.004236317370456,
0,1,1,"[-0.2, 0.2]",None,0,1,1,1,,,,,0,0,0,0,0,17,17,17,,,,,,,,,,,None,None,0,458.27797370008193,None,458.27797370008193,459.2779918999877,459.2613190000411,460.2613359000534,0,1,458.27797370008193,None,,01001,f,1,r,CJM,2021_Jul_28_1520,WASABI Nback,2020.2.10,60.004236317370456,
0,1,3,"[0.2, 0.2]",None,0,1,1,1,,,,,0,0,0,0,0,18,18,18,,,,,,,,,,,None,None,0,460.2780023000669,None,460.2780023000669,461.2779910999816,461.2613373999484,462.261347200023,0,1,460.2780023000669,None,,01001,f,1,r,CJM,2021_Jul_28_1520,WASABI Nback,2020.2.10,60.004236317370456,
0,1,5,"[0, 0]",None,0,1,1,1,,,,,0,0,0,0,0,19,19,19,,,,,,,,,,,None,None,0,462.2780386998784,None,462.2780386998784,463.2780025000684,463.2613566000946,464.26137139997445,0,1,462.2780386998784,None,,01001,f,1,r,CJM,2021_Jul_28_1520,WASABI Nback,2020.2.10,60.004236317370456,
0,1,3,"[0.2, 0.2]",1,0,1,1,1,,,,,0,0,0,0,0,20,20,20,,,,,,,,,,,None,None,0,464.278029799927,None,464.278029799927,465.278047000058,465.26137369987555,466.2613896999974,0,1,464.278029799927,None,,01001,f,1,r,CJM,2021_Jul_28_1520,WASABI Nback,2020.2.10,60.004236317370456,
0,1,4,"[-0.2, 0]",None,0,1,1,1,,,,,0,0,0,0,0,21,21,21,,,,,,,,,,,None,None,0,466.27804940007627,None,466.27804940007627,467.27805379987694,467.261380800046,468.2613816000521,0,1,466.27804940007627,None,,01001,f,1,r,CJM,2021_Jul_28_1520,WASABI Nback,2020.2.10,60.004236317370456,
0,1,7,"[-0.2, -0.2]",None,0,1,1,1,,,,,0,0,0,0,0,22,22,22,,,,,,,,,,,None,None,0,468.2780494999606,None,468.2780494999606,469.2780778000597,469.26138769998215,470.26140239997767,0,1,468.2780494999606,None,,01001,f,1,r,CJM,2021_Jul_28_1520,WASABI Nback,2020.2.10,60.004236317370456,
0,1,4,"[-0.2, 0]",1,0,1,1,1,,,,,0,0,0,0,0,23,23,23,,,,,,,,,,,None,None,0,470.278066100087,None,470.278066100087,471.2780768999364,471.26140170008875,472.2614313000813,0,1,470.278066100087,None,,01001,f,1,r,CJM,2021_Jul_28_1520,WASABI Nback,2020.2.10,60.004236317370456,
0,1,4,"[-0.2, 0]",None,0,1,1,1,,,,,0,0,0,0,0,24,24,24,,,,,,,,,,,None,None,1,472.27809439995326,None,472.27809439995326,473.2781052000355,473.2617299000267,474.26143299997784,1,0,472.27809439995326,None,1.7836488001048565,01001,f,1,r,CJM,2021_Jul_28_1520,WASABI Nback,2020.2.10,60.004236317370456,
0,1,5,"[0, 0]",None,0,1,1,1,,,,,0,0,0,0,0,25,25,25,,,,,,,,,,,None,None,0,474.27809730009176,None,474.27809730009176,475.2781191000249,475.2614617999643,476.261454799911,0,1,474.27809730009176,None,,01001,f,1,r,CJM,2021_Jul_28_1520,WASABI Nback,2020.2.10,60.004236317370456,
0,1,2,"[0, 0.2]",None,0,1,1,1,,,,,0,0,0,0,0,26,26,26,,,,,,,,,,,None,None,0,476.2781139998697,None,476.2781139998697,477.27812190004624,477.26147000002675,478.2614744999446,0,1,476.2781139998697,None,,01001,f,1,r,CJM,2021_Jul_28_1520,WASABI Nback,2020.2.10,60.004236317370456,
0,1,6,"[0.2, 0]",None,0,1,1,1,,,,,0,0,0,0,0,27,27,27,,,,,,,,,,,None,None,0,478.2781422000844,None,478.2781422000844,479.2781394000631,479.26147749996744,480.26148970006034,0,1,478.2781422000844,None,,01001,f,1,r,CJM,2021_Jul_28_1520,WASABI Nback,2020.2.10,60.004236317370456,
0,1,7,"[-0.2, -0.2]",None,0,1,1,1,,,,,0,0,0,0,0,28,28,28,,,,,,,,,,,None,None,0,480.278145799879,None,480.278145799879,481.2780544999987,481.26148810004815,482.2615034999326,0,1,480.278145799879,None,,01001,f,1,r,CJM,2021_Jul_28_1520,WASABI Nback,2020.2.10,60.004236317370456,
0,1,6,"[0.2, 0]",1,0,1,1,1,,,,,0,0,0,0,0,29,29,29,,,,,,,,,,,None,None,0,482.278159199981,None,482.278159199981,483.27816900005564,483.26151699991897,484.2615036999341,0,1,482.278159199981,None,,01001,f,1,r,CJM,2021_Jul_28_1520,WASABI Nback,2020.2.10,60.004236317370456,
0,1,6,"[0.2, 0]",None,0,1,1,1,,,,,0,0,0,0,0,30,30,30,,,,,,,,,,,None,None,0,484.27819349989295,None,484.27819349989295,485.27818710007705,485.2615179999266,486.2615338000469,0,0,484.27819349989295,None,,01001,f,1,r,CJM,2021_Jul_28_1520,WASABI Nback,2020.2.10,60.004236317370456,
0,1,7,"[-0.2, -0.2]",None,0,1,1,1,,,,,0,0,0,0,0,31,31,31,,,,,,,,,,,None,None,0,486.2782105000224,None,486.2782105000224,487.2782057998702,487.2615336999297,488.26156049990095,0,1,486.2782105000224,None,,01001,f,1,r,CJM,2021_Jul_28_1520,WASABI Nback,2020.2.10,60.004236317370456,
0,1,6,"[0.2, 0]",1,0,1,1,1,,,,,0,0,0,0,0,32,32,32,,,,,,,,,,,None,None,0,488.27829489996657,None,488.27829489996657,489.27823600010015,489.2615626999177,490.26161969988607,0,1,488.27829489996657,None,,01001,f,1,r,CJM,2021_Jul_28_1520,WASABI Nback,2020.2.10,60.004236317370456,
0,1,2,"[0, 0.2]",None,0,1,1,1,,,,,0,0,0,0,0,33,33,33,,,,,,,,,,,None,None,0,490.278270999901,None,490.278270999901,491.27823669998907,491.26156180002727,492.261597200064,0,1,490.278270999901,None,,01001,f,1,r,CJM,2021_Jul_28_1520,WASABI Nback,2020.2.10,60.004236317370456,
0,1,5,"[0, 0]",None,0,1,1,1,,,,,0,0,0,0,0,34,34,34,,,,,,,,,,,None,None,0,492.2782570000272,None,492.2782570000272,493.27825249987654,493.26158019993454,494.2616049000062,0,1,492.2782570000272,None,,01001,f,1,r,CJM,2021_Jul_28_1520,WASABI Nback,2020.2.10,60.004236317370456,
0,1,4,"[-0.2, 0]",None,0,1,1,1,,,,,0,0,0,0,0,35,35,35,,,,,,,,,,,None,None,0,494.2782521999907,None,494.2782521999907,495.2782781999558,495.2616029998753,496.2616173001006,0,1,494.2782521999907,None,,01001,f,1,r,CJM,2021_Jul_28_1520,WASABI Nback,2020.2.10,60.004236317370456,
0,1,4,"[-0.2, 0]",None,0,1,1,1,,,,,0,0,0,0,0,36,36,36,,,,,,,,,,,None,None,0,496.27827399992384,None,496.27827399992384,497.27826669998467,497.2616133999545,498.2616228000261,0,1,496.27827399992384,None,,01001,f,1,r,CJM,2021_Jul_28_1520,WASABI Nback,2020.2.10,60.004236317370456,
0,1,7,"[-0.2, -0.2]",None,0,1,1,1,,,,,0,0,0,0,0,37,37,37,,,,,,,,,,,None,None,0,498.27830170001835,None,498.27830170001835,499.278297000099,499.26161889988,500.2616312999744,0,1,498.27830170001835,None,,01001,f,1,r,CJM,2021_Jul_28_1520,WASABI Nback,2020.2.10,60.004236317370456,
0,1,4,"[-0.2, 0]",1,0,1,1,1,,,,,0,0,0,0,0,38,38,38,,,,,,,,,,,None,None,0,500.27830010000616,None,500.27830010000616,501.27833790006116,501.26164199993946,502.2616574000567,0,1,500.27830010000616,None,,01001,f,1,r,CJM,2021_Jul_28_1520,WASABI Nback,2020.2.10,60.004236317370456,
0,1,3,"[0.2, 0.2]",None,0,1,1,1,,,,,0,0,0,0,0,39,39,39,,,,,,,,,,,None,None,0,502.27831700001843,None,502.27831700001843,503.27833659993485,503.2616749999579,504.26166739990003,0,1,502.27831700001843,None,,01001,f,1,r,CJM,2021_Jul_28_1520,WASABI Nback,2020.2.10,60.004236317370456,
0,1,5,"[0, 0]",None,0,1,1,1,,,,,0,0,0,0,0,40,40,40,,,,,,,,,,,None,None,0,504.2783486000262,None,504.2783486000262,505.2783446998801,505.2616763000842,506.26168209989555,0,1,504.2783486000262,None,,01001,f,1,r,CJM,2021_Jul_28_1520,WASABI Nback,2020.2.10,60.004236317370456,
0,1,3,"[0.2, 0.2]",1,0,1,1,1,,,,,0,0,0,0,0,41,41,41,,,,,,,,,,,None,None,0,506.2783556000795,None,506.2783556000795,507.27837669989094,507.26169040007517,508.2616928999778,0,1,506.2783556000795,None,,01001,f,1,r,CJM,2021_Jul_28_1520,WASABI Nback,2020.2.10,60.004236317370456,
0,1,1,"[-0.2, 0.2]",None,0,1,1,1,,,,,0,0,0,0,0,42,42,42,,,,,,,,,,,None,None,0,508.27836850006133,None,508.27836850006133,509.27837290009484,509.26171889994293,510.26172529999167,0,1,508.27836850006133,None,,01001,f,1,r,CJM,2021_Jul_28_1520,WASABI Nback,2020.2.10,60.004236317370456,
0,1,9,"[0.2, -0.2]",None,0,1,1,1,,,,,0,0,0,0,0,43,43,43,,,,,,,,,,,None,None,0,510.2783810000401,None,510.2783810000401,511.27840099995956,511.26173030002974,512.2616089000367,0,1,510.2783810000401,None,,01001,f,1,r,CJM,2021_Jul_28_1520,WASABI Nback,2020.2.10,60.004236317370456,
0,1,9,"[0.2, -0.2]",None,0,1,1,1,,,,,0,0,0,0,0,44,44,44,,,,,,,,,,,None,None,0,512.2784166999627,None,512.2784166999627,513.2783198000398,513.2617385000922,514.2617404998746,0,1,512.2784166999627,None,,01001,f,1,r,CJM,2021_Jul_28_1520,WASABI Nback,2020.2.10,60.004236317370456,
0,1,8,"[0, -0.2]",None,0,1,1,1,,,,,0,0,0,0,0,45,45,45,,,,,,,,,,,None,None,0,514.2784080998972,None,514.2784080998972,515.2784295000602,515.2617667000741,516.261758599896,0,1,514.2784080998972,None,,01001,f,1,r,CJM,2021_Jul_28_1520,WASABI Nback,2020.2.10,60.004236317370456,
0,1,6,"[0.2, 0]",None,0,1,1,1,,,,,0,0,0,0,0,46,46,46,,,,,,,,,,,None,None,0,516.2784297000617,None,516.2784297000617,517.2784422000404,517.2617693000939,518.2617283000145,0,1,516.2784297000617,None,,01001,f,1,r,CJM,2021_Jul_28_1520,WASABI Nback,2020.2.10,60.004236317370456,
0,1,3,"[0.2, 0.2]",None,0,1,1,1,,,,,0,0,0,0,0,47,47,47,,,,,,,,,,,None,None,0,518.2784478999674,None,518.2784478999674,519.2784595000558,519.2617760999128,520.2617866999935,0,1,518.2784478999674,None,,01001,f,1,r,CJM,2021_Jul_28_1520,WASABI Nback,2020.2.10,60.004236317370456,
0,1,6,"[0.2, 0]",1,0,1,1,1,,,,,0,0,0,0,0,48,48,48,,,,,,,,,,,None,None,0,520.2784486999735,None,520.2784486999735,521.278482099995,521.2617975000758,522.2618022998795,0,1,520.2784486999735,None,,01001,f,1,r,CJM,2021_Jul_28_1520,WASABI Nback,2020.2.10,60.004236317370456,
0,1,5,"[0, 0]",None,0,1,1,1,,,,,0,0,0,0,0,49,49,49,,,,,,,,,,,None,None,0,522.2784706999082,None,522.2784706999082,523.2784837000072,523.2618104000576,524.2618209000211,0,1,522.2784706999082,None,,01001,f,1,r,CJM,2021_Jul_28_1520,WASABI Nback,2020.2.10,60.004236317370456,
0,1,7,"[-0.2, -0.2]",None,0,1,1,1,,,,,0,0,0,0,0,50,50,50,,,,,,,,,,,None,None,0,524.2784971999936,None,524.2784971999936,525.2784982000012,525.2618366999086,526.2618378999177,0,1,524.2784971999936,None,,01001,f,1,r,CJM,2021_Jul_28_1520,WASABI Nback,2020.2.10,60.004236317370456,
0,1,5,"[0, 0]",1,0,1,1,1,,,,,0,0,0,0,0,51,51,51,,,,,,,,,,,None,None,0,526.2785070000682,None,526.2785070000682,527.2785257000942,527.2618585999589,528.2618656000122,0,1,526.2785070000682,None,,01001,f,1,r,CJM,2021_Jul_28_1520,WASABI Nback,2020.2.10,60.004236317370456,
0,1,1,"[-0.2, 0.2]",None,0,1,1,1,,,,,0,0,0,0,0,52,52,52,,,,,,,,,,,None,None,0,528.2785249000881,None,528.2785249000881,529.2785408000927,529.2618591000792,530.2618809998967,0,1,528.2785249000881,None,,01001,f,1,r,CJM,2021_Jul_28_1520,WASABI Nback,2020.2.10,60.004236317370456,
0,1,7,"[-0.2, -0.2]",None,0,1,1,1,,,,,0,0,0,0,0,53,53,53,,,,,,,,,,,None,None,0,530.2785326000303,None,530.2785326000303,531.2785392999649,531.2618680000305,532.2618825999089,0,1,530.2785326000303,None,,01001,f,1,r,CJM,2021_Jul_28_1520,WASABI Nback,2020.2.10,60.004236317370456,
0,1,9,"[0.2, -0.2]",None,0,1,1,1,,,,,0,0,0,0,0,54,54,54,,,,,,,,,,,None,None,0,532.2786093000323,None,532.2786093000323,533.2785712000914,533.2619185000658,534.2618913000915,0,1,532.2786093000323,None,,01001,f,1,r,CJM,2021_Jul_28_1520,WASABI Nback,2020.2.10,60.004236317370456,
0,1,3,"[0.2, 0.2]",None,0,1,1,1,,,,,0,0,0,0,0,55,55,55,,,,,,,,,,,None,None,0,534.2785630999133,None,534.2785630999133,535.2785906000063,535.2619077998679,536.2619268000126,0,1,534.2785630999133,None,,01001,f,1,r,CJM,2021_Jul_28_1520,WASABI Nback,2020.2.10,60.004236317370456,
0,1,9,"[0.2, -0.2]",1,0,1,1,1,,,,,0,0,0,0,0,56,56,56,,,,,,,,,,,None,None,0,536.2785986999515,None,536.2785986999515,537.2786075000186,537.2619189000688,538.2619254000019,0,1,536.2785986999515,None,,01001,f,1,r,CJM,2021_Jul_28_1520,WASABI Nback,2020.2.10,60.004236317370456,
0,1,6,"[0.2, 0]",None,0,1,1,1,,,,,0,0,0,0,0,57,57,57,,,,,,,,,,,None,None,0,538.2786028000992,None,538.2786028000992,539.2786147999577,539.2619499000721,540.2619511999656,0,1,538.2786028000992,None,,01001,f,1,r,CJM,2021_Jul_28_1520,WASABI Nback,2020.2.10,60.004236317370456,
0,1,2,"[0, 0.2]",None,0,1,1,1,,,,,0,0,0,0,0,58,58,58,,,,,,,,,,,None,None,0,540.2786107999273,None,540.2786107999273,541.2786264999304,541.2619503999595,542.2619785999414,0,1,540.2786107999273,None,,01001,f,1,r,CJM,2021_Jul_28_1520,WASABI Nback,2020.2.10,60.004236317370456,
0,1,5,"[0, 0]",None,0,1,1,1,,,,,0,0,0,0,0,59,59,59,,,,,,,,,,,None,None,0,542.2786455999594,None,542.2786455999594,543.2786361000035,543.2619908999186,544.2619741999079,0,1,542.2786455999594,None,,01001,f,1,r,CJM,2021_Jul_28_1520,WASABI Nback,2020.2.10,60.004236317370456,
0,1,5,"[0, 0]",None,0,1,1,1,,,,,0,0,0,0,0,60,60,60,,,,,,,,,,,None,None,0,544.278673700057,None,544.278673700057,545.2786645998713,545.2619980999734,546.2619811000768,0,1,544.278673700057,None,,01001,f,1,r,CJM,2021_Jul_28_1520,WASABI Nback,2020.2.10,60.004236317370456,
0,1,2,"[0, 0.2]",None,0,1,1,1,,,,,0,0,0,0,0,61,61,61,,,,,,,,,,,None,None,0,546.2786494998727,None,546.2786494998727,547.2786731000524,547.2620055000298,548.2620248999447,0,1,546.2786494998727,None,,01001,f,1,r,CJM,2021_Jul_28_1520,WASABI Nback,2020.2.10,60.004236317370456,
0,1,6,"[0.2, 0]",None,0,1,1,1,,,,,0,0,0,0,0,62,62,62,,,,,,,,,,,None,None,0,548.2786872000434,None,548.2786872000434,549.278679399984,549.2620224999264,550.2620165999979,0,1,548.2786872000434,None,,01001,f,1,r,CJM,2021_Jul_28_1520,WASABI Nback,2020.2.10,60.004236317370456,
0,1,9,"[0.2, -0.2]",None,0,1,1,1,,,,,0,0,0,0,0,63,63,63,,,,,,,,,,,None,None,0,550.2787055999506,None,550.2787055999506,551.2787150000222,551.2620620999951,552.2620248999447,0,1,550.2787055999506,None,,01001,f,1,r,CJM,2021_Jul_28_1520,WASABI Nback,2020.2.10,60.004236317370456,
0,1,3,"[0.2, 0.2]",None,0,1,1,1,,,,,0,0,0,0,0,64,64,64,,,,,,,,,,,None,None,0,552.2787230000831,None,552.2787230000831,553.2787059000693,553.2620500000194,554.2619407998864,0,1,552.2787230000831,None,,01001,f,1,r,CJM,2021_Jul_28_1520,WASABI Nback,2020.2.10,60.004236317370456,
0,1,9,"[0.2, -0.2]",1,0,1,1,1,,,,,0,0,0,0,0,65,65,65,,,,,,,,,,,None,None,0,554.2787184000481,None,554.2787184000481,555.2787319999188,555.2620230000466,556.2620848999359,0,1,554.2787184000481,None,,01001,f,1,r,CJM,2021_Jul_28_1520,WASABI Nback,2020.2.10,60.004236317370456,
0,1,7,"[-0.2, -0.2]",None,0,1,1,1,,,,,0,0,0,0,0,66,66,66,,,,,,,,,,,None,None,0,556.2787504999433,None,556.2787504999433,557.2787436998915,557.2620782000013,558.262089200085,0,1,556.2787504999433,None,,01001,f,1,r,CJM,2021_Jul_28_1520,WASABI Nback,2020.2.10,60.004236317370456,
0,1,1,"[-0.2, 0.2]",None,0,1,1,1,,,,,0,0,0,0,0,67,67,67,,,,,,,,,,,None,None,0,558.2787669000681,None,558.2787669000681,559.278771799989,559.262128100032,560.2621156000532,0,1,558.2787669000681,None,,01001,f,1,r,CJM,2021_Jul_28_1520,WASABI Nback,2020.2.10,60.004236317370456,
0,1,5,"[0, 0]",None,0,1,1,1,,,,,0,0,0,0,0,68,68,68,,,,,,,,,,,None,None,0,560.2787736998871,None,560.2787736998871,561.2788440999575,561.2621180000715,562.2621158999391,0,1,560.2787736998871,None,,01001,f,1,r,CJM,2021_Jul_28_1520,WASABI Nback,2020.2.10,60.004236317370456,
0,1,7,"[-0.2, -0.2]",None,0,1,1,1,,,,,0,0,0,0,0,69,69,69,,,,,,,,,,,None,None,0,562.2787995999679,None,562.2787995999679,563.2787959999405,563.2621313000564,564.2621389999986,0,1,562.2787995999679,None,,01001,f,1,r,CJM,2021_Jul_28_1520,WASABI Nback,2020.2.10,60.004236317370456,
0,1,5,"[0, 0]",1,0,1,1,1,,,,,0,0,0,0,0,70,70,70,,,,,,,,,,,None,None,0,564.2788164000958,None,564.2788164000958,565.2788215000182,565.2621436999179,566.2621863998938,0,1,564.2788164000958,None,,01001,f,1,r,CJM,2021_Jul_28_1520,WASABI Nback,2020.2.10,60.004236317370456,
0,1,6,"[0.2, 0]",None,0,1,1,1,,,,,0,0,0,0,0,71,71,71,,,,,,,,,,,None,None,0,566.278842800064,None,566.278842800064,567.2788211000152,567.2621663999744,568.2621325000655,0,1,566.278842800064,None,,01001,f,1,r,CJM,2021_Jul_28_1520,WASABI Nback,2020.2.10,60.004236317370456,
0,1,3,"[0.2, 0.2]",None,0,1,1,1,,,,,0,0,0,0,0,72,72,72,,,,,,,,,,,None,None,0,568.2788251000457,None,568.2788251000457,569.278839699924,569.2621760000475,570.2621818000916,0,1,568.2788251000457,None,,01001,f,1,r,CJM,2021_Jul_28_1520,WASABI Nback,2020.2.10,60.004236317370456,
0,1,6,"[0.2, 0]",1,0,1,1,1,,,,,0,0,0,0,0,73,73,73,,,,,,,,,,,None,None,0,570.2788358000107,None,570.2788358000107,571.2788507000078,571.2621933999471,572.2622080000583,0,1,570.2788358000107,None,,01001,f,1,r,CJM,2021_Jul_28_1520,WASABI Nback,2020.2.10,60.004236317370456,
0,1,8,"[0, -0.2]",None,0,1,1,1,,,,,0,0,0,0,0,74,74,74,,,,,,,,,,,None,None,0,572.2788593999576,None,572.2788593999576,573.2788764999714,573.2622134000994,574.2622239999473,0,1,572.2788593999576,None,,01001,f,1,r,CJM,2021_Jul_28_1520,WASABI Nback,2020.2.10,60.004236317370456,
0,1,9,"[0.2, -0.2]",None,0,1,1,1,,,,,0,0,0,0,0,75,75,75,,,,,,,,,,,None,None,0,574.2788778000977,None,574.2788778000977,575.2788819998968,575.2622324000113,576.2622402000707,0,1,574.2788778000977,None,,01001,f,1,r,CJM,2021_Jul_28_1520,WASABI Nback,2020.2.10,60.004236317370456,
0,1,9,"[0.2, -0.2]",None,0,1,1,1,,,,,0,0,0,0,0,76,76,76,,,,,,,,,,,None,None,0,576.2789384999778,None,576.2789384999778,577.2789052000735,577.2622426999733,578.2622428000905,0,1,576.2789384999778,None,,01001,f,1,r,CJM,2021_Jul_28_1520,WASABI Nback,2020.2.10,60.004236317370456,
0,1,1,"[-0.2, 0.2]",None,0,1,1,1,,,,,0,0,0,0,0,77,77,77,,,,,,,,,,,None,None,0,578.2789843999781,None,578.2789843999781,579.2789342000615,579.2622612998821,580.2622720999643,0,1,578.2789843999781,None,,01001,f,1,r,CJM,2021_Jul_28_1520,WASABI Nback,2020.2.10,60.004236317370456,
0,1,3,"[0.2, 0.2]",None,0,1,1,1,,,,,0,0,0,0,0,78,78,78,,,,,,,,,,,None,None,0,580.2789340999443,None,580.2789340999443,581.2789455000311,581.2622668000404,582.2622726000845,0,1,580.2789340999443,None,,01001,f,1,r,CJM,2021_Jul_28_1520,WASABI Nback,2020.2.10,60.004236317370456,
0,1,5,"[0, 0]",None,0,1,1,1,,,,,0,0,0,0,0,79,79,79,,,,,,,,,,,None,None,0,582.2789570998866,None,582.2789570998866,583.2789513000753,583.2622757998761,584.2623125999235,0,1,582.2789570998866,None,,01001,f,1,r,CJM,2021_Jul_28_1520,WASABI Nback,2020.2.10,60.004236317370456,
0,1,3,"[0.2, 0.2]",1,0,1,1,1,,,,,0,0,0,0,0,80,80,80,,,,,,,,,,,None,None,0,584.2789550998714,None,584.2789550998714,585.2789767999202,585.2623006000649,586.2623000000603,0,1,584.2789550998714,None,,01001,f,1,r,CJM,2021_Jul_28_1520,WASABI Nback,2020.2.10,60.004236317370456,
0,1,4,"[-0.2, 0]",None,0,1,1,1,,,,,0,0,0,0,0,81,81,81,,,,,,,,,,,None,None,0,586.2789813000709,None,586.2789813000709,587.2789847000968,587.2623302999418,588.2623278000392,0,1,586.2789813000709,None,,01001,f,1,r,CJM,2021_Jul_28_1520,WASABI Nback,2020.2.10,60.004236317370456,
0,1,7,"[-0.2, -0.2]",None,0,1,1,1,,,,,0,0,0,0,0,82,82,82,,,,,,,,,,,None,None,0,588.2790004000999,None,588.2790004000999,589.2790049000178,589.2623236000072,590.2623512998689,0,1,588.2790004000999,None,,01001,f,1,r,CJM,2021_Jul_28_1520,WASABI Nback,2020.2.10,60.004236317370456,
0,1,4,"[-0.2, 0]",1,0,1,1,1,,,,,0,0,0,0,0,83,83,83,,,,,,,,,,,None,None,0,590.2790157999843,None,590.2790157999843,591.2790254000574,591.262250199914,592.2623479999602,0,1,590.2790157999843,None,,01001,f,1,r,CJM,2021_Jul_28_1520,WASABI Nback,2020.2.10,60.004236317370456,
0,1,4,"[-0.2, 0]",None,0,1,1,1,,,,,0,0,0,0,0,84,84,84,,,,,,,,,,,None,None,0,592.279030200094,None,592.279030200094,593.2790220000315,593.2623771000654,594.2623723000288,0,1,592.279030200094,None,,01001,f,1,r,CJM,2021_Jul_28_1520,WASABI Nback,2020.2.10,60.004236317370456,
0,1,5,"[0, 0]",None,0,1,1,1,,,,,0,0,0,0,0,85,85,85,,,,,,,,,,,None,None,0,594.279050400015,None,594.279050400015,595.2790578000713,595.262375799939,596.2624208999332,0,1,594.279050400015,None,,01001,f,1,r,CJM,2021_Jul_28_1520,WASABI Nback,2020.2.10,60.004236317370456,
0,1,2,"[0, 0.2]",None,0,1,1,1,,,,,0,0,0,0,0,86,86,86,,,,,,,,,,,None,None,0,596.2790560000576,None,596.2790560000576,597.2790727000684,597.262385699898,598.2623952000868,0,1,596.2790560000576,None,,01001,f,1,r,CJM,2021_Jul_28_1520,WASABI Nback,2020.2.10,60.004236317370456,
0,1,6,"[0.2, 0]",None,0,1,1,1,,,,,0,0,0,0,0,87,87,87,,,,,,,,,,,None,None,0,598.2790731000714,None,598.2790731000714,599.2790856000502,599.2624180999119,600.2624065999407,0,1,598.2790731000714,None,,01001,f,1,r,CJM,2021_Jul_28_1520,WASABI Nback,2020.2.10,60.004236317370456,
0,1,7,"[-0.2, -0.2]",None,0,1,1,1,,,,,0,0,0,0,0,88,88,88,,,,,,,,,,,None,None,0,600.2790787999984,None,600.2790787999984,601.2790983999148,601.2624240999576,602.2624464998953,0,1,600.2790787999984,None,,01001,f,1,r,CJM,2021_Jul_28_1520,WASABI Nback,2020.2.10,60.004236317370456,
0,1,6,"[0.2, 0]",1,0,1,1,1,,,,,0,0,0,0,0,89,89,89,,,,,,,,,,,None,None,0,602.2791084998753,None,602.2791084998753,603.2790993999224,603.2623864999041,604.262519699987,0,1,602.2791084998753,None,,01001,f,1,r,CJM,2021_Jul_28_1520,WASABI Nback,2020.2.10,60.004236317370456,
0,1,6,"[0.2, 0]",None,0,1,1,1,,,,,0,0,0,0,0,90,90,90,,,,,,,,,,,None,None,0,604.2791110998951,None,604.2791110998951,605.2791301999241,605.2624655999243,606.2624731000978,0,1,604.2791110998951,None,,01001,f,1,r,CJM,2021_Jul_28_1520,WASABI Nback,2020.2.10,60.004236317370456,
0,1,7,"[-0.2, -0.2]",None,0,1,1,1,,,,,0,0,0,0,0,91,91,91,,,,,,,,,,,None,None,0,606.2791257000063,None,606.2791257000063,607.2791327000596,607.2623519999906,608.2624778999016,0,0,606.2791257000063,None,,01001,f,1,r,CJM,2021_Jul_28_1520,WASABI Nback,2020.2.10,60.004236317370456,
0,1,6,"[0.2, 0]",1,0,1,1,1,,,,,0,0,0,0,0,92,92,92,,,,,,,,,,,None,None,0,608.279066399904,None,608.279066399904,609.2791502000764,609.2624862000812,610.2625044998713,0,0,608.279066399904,None,,01001,f,1,r,CJM,2021_Jul_28_1520,WASABI Nback,2020.2.10,60.004236317370456,
0,1,2,"[0, 0.2]",None,0,1,1,1,,,,,0,0,0,0,0,93,93,93,,,,,,,,,,,None,None,0,610.2791705999989,None,610.2791705999989,611.2791804000735,611.2624955000356,612.2625186000951,0,1,610.2791705999989,None,,01001,f,1,r,CJM,2021_Jul_28_1520,WASABI Nback,2020.2.10,60.004236317370456,
0,1,5,"[0, 0]",None,0,1,1,1,,,,,0,0,0,0,0,94,94,94,,,,,,,,,,,None,None,0,612.2791909999214,None,612.2791909999214,613.2791949000675,613.2625271999277,614.2625297000632,0,1,612.2791909999214,None,,01001,f,1,r,CJM,2021_Jul_28_1520,WASABI Nback,2020.2.10,60.004236317370456,
0,1,4,"[-0.2, 0]",None,0,1,1,1,,,,,0,0,0,0,0,95,95,95,,,,,,,,,,,None,None,0,614.2791929000523,None,614.2791929000523,615.2791925999336,615.262521199882,616.2625406999141,0,1,614.2791929000523,None,,01001,f,1,r,CJM,2021_Jul_28_1520,WASABI Nback,2020.2.10,60.004236317370456,
0,1,4,"[-0.2, 0]",None,0,1,1,1,,,,,0,0,0,0,0,96,96,96,,,,,,,,,,,None,None,0,616.2792189000174,None,616.2792189000174,617.2792108000722,617.2625470000785,618.2625438000541,0,1,616.2792189000174,None,,01001,f,1,r,CJM,2021_Jul_28_1520,WASABI Nback,2020.2.10,60.004236317370456,
0,1,7,"[-0.2, -0.2]",None,0,1,1,1,,,,,0,0,0,0,0,97,97,97,,,,,,,,,,,None,None,0,618.2792140000965,None,618.2792140000965,619.279228300089,619.2625653999858,620.262590300059,0,1,618.2792140000965,None,,01001,f,1,r,CJM,2021_Jul_28_1520,WASABI Nback,2020.2.10,60.004236317370456,
0,1,4,"[-0.2, 0]",1,0,1,1,1,,,,,0,0,0,0,0,98,98,98,,,,,,,,,,,None,None,0,620.279239699943,None,620.279239699943,621.2793318999466,621.2625770999584,622.2625998998992,0,1,620.279239699943,None,,01001,f,1,r,CJM,2021_Jul_28_1520,WASABI Nback,2020.2.10,60.004236317370456,
0,1,3,"[0.2, 0.2]",None,0,1,1,1,,,,,0,0,0,0,0,99,99,99,,,,,,,,,,,None,None,0,622.279264099896,None,622.279264099896,623.2792622998822,623.2626074999571,624.262624700088,0,1,622.279264099896,None,,01001,f,1,r,CJM,2021_Jul_28_1520,WASABI Nback,2020.2.10,60.004236317370456,
0,1,5,"[0, 0]",None,0,1,1,1,,,,,0,0,0,0,0,100,100,100,,,,,,,,,,,None,None,0,624.2792843000498,None,624.2792843000498,625.2792859999463,625.2626086000819,626.2626133000012,0,1,624.2792843000498,None,,01001,f,1,r,CJM,2021_Jul_28_1520,WASABI Nback,2020.2.10,60.004236317370456,
0,1,3,"[0.2, 0.2]",1,0,1,1,1,,,,,0,0,0,0,0,101,101,101,,,,,,,,,,,None,None,0,626.2792873000726,None,626.2792873000726,627.2792924998794,627.2626316000242,628.2626585999969,0,1,626.2792873000726,None,,01001,f,1,r,CJM,2021_Jul_28_1520,WASABI Nback,2020.2.10,60.004236317370456,
0,1,1,"[-0.2, 0.2]",None,0,1,1,1,,,,,0,0,0,0,0,102,102,102,,,,,,,,,,,None,None,0,628.2793638999574,None,628.2793638999574,629.2793215999845,629.2626457000151,630.2626535999589,0,1,628.2793638999574,None,,01001,f,1,r,CJM,2021_Jul_28_1520,WASABI Nback,2020.2.10,60.004236317370456,
0,1,9,"[0.2, -0.2]",None,0,1,1,1,,,,,0,0,0,0,0,103,103,103,,,,,,,,,,,None,None,0,630.2793185000774,None,630.2793185000774,631.2793386999983,631.2626594998874,632.2626708999742,0,1,630.2793185000774,None,,01001,f,1,r,CJM,2021_Jul_28_1520,WASABI Nback,2020.2.10,60.004236317370456,
0,1,9,"[0.2, -0.2]",None,0,1,1,1,,,,,0,0,0,0,0,104,104,104,,,,,,,,,,,None,None,0,632.2793471000623,None,632.2793471000623,633.2793417000212,633.2626805999316,634.2626779000275,0,1,632.2793471000623,None,,01001,f,1,r,CJM,2021_Jul_28_1520,WASABI Nback,2020.2.10,60.004236317370456,
0,1,8,"[0, -0.2]",None,0,1,1,1,,,,,0,0,0,0,0,105,105,105,,,,,,,,,,,None,None,0,634.2793596000411,None,634.2793596000411,635.2793540998828,635.2627026999835,636.262693699915,0,1,634.2793596000411,None,,01001,f,1,r,CJM,2021_Jul_28_1520,WASABI Nback,2020.2.10,60.004236317370456,
0,1,6,"[0.2, 0]",None,0,1,1,1,,,,,0,0,0,0,0,106,106,106,,,,,,,,,,,None,None,0,636.279379399959,None,636.279379399959,637.2793817000929,637.2627419000491,638.2627250999212,0,1,636.279379399959,None,,01001,f,1,r,CJM,2021_Jul_28_1520,WASABI Nback,2020.2.10,60.004236317370456,
0,1,3,"[0.2, 0.2]",None,0,1,1,1,,,,,0,0,0,0,0,107,107,107,,,,,,,,,,,None,None,0,638.279379799962,None,638.279379799962,639.2794013000093,639.2627310000826,640.262717799982,0,1,638.279379799962,None,,01001,f,1,r,CJM,2021_Jul_28_1520,WASABI Nback,2020.2.10,60.004236317370456,
0,1,6,"[0.2, 0]",1,0,1,1,1,,,,,0,0,0,0,0,108,108,108,,,,,,,,,,,None,None,0,640.2794075999409,None,640.2794075999409,641.2794043000322,641.2627320999745,642.2627379000187,0,0,640.2794075999409,None,,01001,f,1,r,CJM,2021_Jul_28_1520,WASABI Nback,2020.2.10,60.004236317370456,
0,1,5,"[0, 0]",None,0,1,1,1,,,,,0,0,0,0,0,109,109,109,,,,,,,,,,,None,None,0,642.2794268000871,None,642.2794268000871,643.279436300043,643.2627491999883,644.2627618000843,0,1,642.2794268000871,None,,01001,f,1,r,CJM,2021_Jul_28_1520,WASABI Nback,2020.2.10,60.004236317370456,
0,1,7,"[-0.2, -0.2]",None,0,1,1,1,,,,,0,0,0,0,0,110,110,110,,,,,,,,,,,None,None,0,644.2794341000263,None,644.2794341000263,645.2794361999258,645.2627779000904,646.2627705000341,0,1,644.2794341000263,None,,01001,f,1,r,CJM,2021_Jul_28_1520,WASABI Nback,2020.2.10,60.004236317370456,
0,1,5,"[0, 0]",1,0,1,1,1,,,,,0,0,0,0,0,111,111,111,,,,,,,,,,,None,None,0,646.2794512000401,None,646.2794512000401,647.2794516999274,647.26277079992,648.2627973000053,0,1,646.2794512000401,None,,01001,f,1,r,CJM,2021_Jul_28_1520,WASABI Nback,2020.2.10,60.004236317370456,
0,1,1,"[-0.2, 0.2]",None,0,1,1,1,,,,,0,0,0,0,0,112,112,112,,,,,,,,,,,None,None,0,648.2794552999549,None,648.2794552999549,649.2794788000174,649.2627914000768,650.2628220999613,0,1,648.2794552999549,None,,01001,f,1,r,CJM,2021_Jul_28_1520,WASABI Nback,2020.2.10,60.004236317370456,
0,1,7,"[-0.2, -0.2]",None,0,1,1,1,,,,,0,0,0,0,0,113,113,113,,,,,,,,,,,None,None,0,650.2794784998987,None,650.2794784998987,651.2794828999322,651.262823099969,652.2628168999217,0,1,650.2794784998987,None,,01001,f,1,r,CJM,2021_Jul_28_1520,WASABI Nback,2020.2.10,60.004236317370456,
0,1,9,"[0.2, -0.2]",None,0,1,1,1,,,,,0,0,0,0,0,114,114,114,,,,,,,,,,,None,None,0,652.2795390998945,None,652.2795390998945,653.2795001999475,653.2628325000405,654.2628414998762,0,1,652.2795390998945,None,,01001,f,1,r,CJM,2021_Jul_28_1520,WASABI Nback,2020.2.10,60.004236317370456,
0,1,3,"[0.2, 0.2]",None,0,1,1,1,,,,,0,0,0,0,0,115,115,115,,,,,,,,,,,None,None,0,654.2795257000253,None,654.2795257000253,655.2795261999127,655.2628472999204,656.2628649000544,0,1,654.2795257000253,None,,01001,f,1,r,CJM,2021_Jul_28_1520,WASABI Nback,2020.2.10,60.004236317370456,
0,1,9,"[0.2, -0.2]",1,0,1,1,1,,,,,0,0,0,0,0,116,116,116,,,,,,,,,,,None,None,0,656.2795259000268,None,656.2795259000268,657.2795539998915,657.2628691999707,658.2628788999282,0,1,656.2795259000268,None,,01001,f,1,r,CJM,2021_Jul_28_1520,WASABI Nback,2020.2.10,60.004236317370456,
0,1,6,"[0.2, 0]",None,0,1,1,1,,,,,0,0,0,0,0,117,117,117,,,,,,,,,,,None,None,0,658.2795327000786,None,658.2795327000786,659.2795398000162,659.262884200085,660.262892199913,0,1,658.2795327000786,None,,01001,f,1,r,CJM,2021_Jul_28_1520,WASABI Nback,2020.2.10,60.004236317370456,
0,1,2,"[0, 0.2]",None,0,1,1,1,,,,,0,0,0,0,0,118,118,118,,,,,,,,,,,None,None,0,660.2795645999722,None,660.2795645999722,661.279562199954,661.262892199913,662.2628981999587,0,1,660.2795645999722,None,,01001,f,1,r,CJM,2021_Jul_28_1520,WASABI Nback,2020.2.10,60.004236317370456,
0,1,5,"[0, 0]",None,0,1,1,1,,,,,0,0,0,0,0,119,119,119,,,,,,,,,,,None,None,0,662.2795790000819,None,662.2795790000819,663.279595799977,663.2629184999969,664.2629124999512,0,1,662.2795790000819,None,,01001,f,1,r,CJM,2021_Jul_28_1520,WASABI Nback,2020.2.10,60.004236317370456,
