	SID	day	sex	session	handedness	scanner	onset	duration	value	body_site	skin_site	temperature	condition	keys	rt	phase	biopac_channel
0	2512	3	f	3	r	MS	2.774615299999823	4.997505530003082		Left Leg	2	48.5	Instructions			Control	19
1	2512	3	f	3	r	MS	8.295898800000032	5.0015939600000365	40.74074074074075	Left Leg	2	48.5	Expectancy		2.3836377999998604	Control	51
2	2512	3	f	3	r	MS	13.682642199999918	2.0114825200002997		Left Leg	2	48.5	Cue			Control	6
3	2512	3	f	3	r	MS	15.705341800000042	4.015959660000135		Left Leg	2	48.5	Pre-Jitter			Control	7
4	2512	3	f	3	r	MS	19.746867500000008	14.999758890000066		Left Leg	2	48.5	Control Heat 			Control	15
5	2512	3	f	3	r	MS	34.747771100000136	4.998235229999864		Left Leg	2	48.5	Mid-Jitter			Control	8
6	2512	3	f	3	r	MS	39.7675976999999	5.008698159999767	1.0	Left Leg	2	48.5	PainBinary		1.0833698999999797	Control	20
7	2512	3	f	3	r	MS	44.79915750000009	5.012345260000075	33.580246913580254	Left Leg	2	48.5	IntensityRating		2.469311399999924	Control	21
8	2512	3	f	3	r	MS	49.81724249999979	5.0095906299998205		Left Leg	2	48.5	Post-Q-Jitter			Control	9
9	2512	3	f	3	r	MS	55.12893070000018	5.00309457000003	33.827160493827165	Left Leg	2	48.5	Expectancy		2.585844199999883	Control	51
10	2512	3	f	3	r	MS	60.51481629999989	2.014740619999884		Left Leg	2	48.5	Cue			Control	6
11	2512	3	f	3	r	MS	62.534448299999895	8.008817729999919		Left Leg	2	48.5	Pre-Jitter			Control	7
12	2512	3	f	3	r	MS	70.59838360000003	14.997857119999935		Left Leg	2	48.5	Control Heat 			Control	15
13	2512	3	f	3	r	MS	85.59859939999978	5.0142706300000555		Left Leg	2	48.5	Mid-Jitter			Control	8
14	2512	3	f	3	r	MS	90.63554029999978	5.007192059999852	1.0	Left Leg	2	48.5	PainBinary		1.0168538000000353	Control	20
15	2512	3	f	3	r	MS	95.66596089999985	5.013121159999855	36.41975308641975	Left Leg	2	48.5	IntensityRating		4.300009799999998	Control	21
16	2512	3	f	3	r	MS	100.68551630000002	5.007403829999703		Left Leg	2	48.5	Post-Q-Jitter			Control	9
17	2512	3	f	3	r	MS	105.9688299999998	5.0076352099999895	38.33333333333333	Left Leg	2	48.5	Expectancy		4.2167329999999765	Control	51
18	2512	3	f	3	r	MS	111.36687679999977	2.0116565200000878		Left Leg	2	48.5	Cue			Control	6
19	2512	3	f	3	r	MS	113.38498040000013	6.008761029999732		Left Leg	2	48.5	Pre-Jitter			Control	7
20	2512	3	f	3	r	MS	119.44655749999993	15.00249501999997		Left Leg	2	48.5	Control Heat 			Control	15
21	2512	3	f	3	r	MS	134.44920839999986	7.014101930000152		Left Leg	2	48.5	Mid-Jitter			Control	8
22	2512	3	f	3	r	MS	141.48407020000013	5.011142259999815	1.0	Left Leg	2	48.5	PainBinary		0.8334606000000804	Control	20
23	2512	3	f	3	r	MS	146.516846	5.0123143600001185	39.75308641975309	Left Leg	2	48.5	IntensityRating		2.666725499999984	Control	21
24	2512	3	f	3	r	MS	151.53478099999984	7.009902829999874		Left Leg	2	48.5	Post-Q-Jitter			Control	9
25	2512	3	f	3	r	MS	158.8171722000002	5.012001009999949	45.06172839506173	Left Leg	2	48.5	Expectancy		3.0333429999998316	Control	51
26	2512	3	f	3	r	MS	164.20426339999995	2.004614389999915		Left Leg	2	48.5	Cue			Control	6
27	2512	3	f	3	r	MS	166.2195796000001	4.007139429999825		Left Leg	2	48.5	Pre-Jitter			Control	7
28	2512	3	f	3	r	MS	170.27617629999986	15.010803519999627		Left Leg	2	48.5	Control Heat 			Control	15
29	2512	3	f	3	r	MS	185.2822043000001	4.9990468299999975		Left Leg	2	48.5	Mid-Jitter			Control	8
30	2512	3	f	3	r	MS	190.3015393999999	5.010549059999676	1.0	Left Leg	2	48.5	PainBinary		1.0168340000000171	Control	20
31	2512	3	f	3	r	MS	195.3337929999998	5.012704659999827	42.59259259259259	Left Leg	2	48.5	IntensityRating		1.8999535999998898	Control	21
32	2512	3	f	3	r	MS	200.35234170000012	5.008957129999999		Left Leg	2	48.5	Post-Q-Jitter			Control	9
33	2512	3	f	3	r	MS	206.44862920000014	5.00022368000009	44.938271604938265	Left Leg	2	48.5	Expectancy		1.9025047000000086	Control	51
34	2512	3	f	3	r	MS	211.8217949	2.003800790000014		Left Leg	2	48.5	Cue			Control	6
35	2512	3	f	3	r	MS	213.8367635999998	4.007144829999788		Left Leg	2	48.5	Pre-Jitter			Control	7
36	2512	3	f	3	r	MS	217.87576799999988	15.012643490000073		Left Leg	2	48.5	Control Heat 			Control	15
37	2512	3	f	3	r	MS	232.88386360000004	6.996679230000154		Left Leg	2	48.5	Mid-Jitter			Control	8
38	2512	3	f	3	r	MS	239.90189490000012	5.010770359999697	1.0	Left Leg	2	48.5	PainBinary		0.7504277000000457	Control	20
39	2512	3	f	3	r	MS	244.93507060000002	5.01118925999981	44.629629629629626	Left Leg	2	48.5	IntensityRating		2.0860170999999355	Control	21
40	2512	3	f	3	r	MS	249.9533252000001	7.008118329999888		Left Leg	2	48.5	Post-Q-Jitter			Control	9
41	2512	3	f	3	r	MS	257.23795569999993	5.005727609999667	46.11111111111111	Left Leg	2	48.5	Expectancy		2.033406399999876	Control	51
42	2512	3	f	3	r	MS	262.63528110000016	2.0112516200001664		Left Leg	2	48.5	Cue			Control	6
43	2512	3	f	3	r	MS	264.6544082999999	8.00631612999996		Left Leg	2	48.5	Pre-Jitter			Control	7
44	2512	3	f	3	r	MS	272.6883938000001	15.005199759999641		Left Leg	2	48.5	Control Heat 			Control	15
45	2512	3	f	3	r	MS	287.7007610999999	8.997371229999999		Left Leg	2	48.5	Mid-Jitter			Control	8
46	2512	3	f	3	r	MS	296.7192119000001	5.010578259999875	1.0	Left Leg	2	48.5	PainBinary		0.7168148000000656	Control	20
47	2512	3	f	3	r	MS	301.7512286000001	4.996654159999935	47.34567901234568	Left Leg	2	48.5	IntensityRating		1.0844641999999567	Control	21
48	2512	3	f	3	r	MS	306.7537862999998	9.008309029999737		Left Leg	2	48.5	Post-Q-Jitter			Control	9
49	2512	3	f	3	r	MS	315.7945586999999	1.6270303900000727	-5.061728395061721	Left Leg	2	48.5	ComfortRating		1.6003307999999379	Control	26
50	2512	3	f	3	r	MS	317.4416326999999	2.8662872899999456	65.0	Left Leg	2	48.5	ValenceRating		2.8333637000000635	Control	24
51	2512	3	f	3	r	MS	320.31640430000016	1.983423959999982	70.49382716049382	Left Leg	2	48.5	IntensityRating		1.9669446999998854	Control	26
52	2512	3	f	3	r	MS	322.3188206	2.0453035599998657	21.23456790123457	Left Leg	2	48.5	AvoidanceRating		2.0166735000000244	Control	27
53	2512	3	f	3	r	MS	324.3812186	2.1538731599998755	30.432098765432098	Left Leg	2	48.5	RelaxationRating		2.1336542999999892	Control	28
54	2512	3	f	3	r	MS	326.5524169999999	2.1115035599998464	60.864197530864196	Left Leg	2	48.5	AttentionRating		2.0833798000001025	Control	29
55	2512	3	f	3	r	MS	328.6821872999999	1.5853399599998284	34.25925925925925	Left Leg	2	48.5	BoredomRating		1.5669871000000057	Control	30
56	2512	3	f	3	r	MS	330.2836742999998	2.149074359999986	30.740740740740762	Left Leg	2	48.5	AlertnessRating		2.1337146999999277	Control	31
57	2512	3	f	3	r	MS	332.45086519999995	2.5980801599998813	0.24691358024691112	Left Leg	2	48.5	PosThxRating		2.5841932000000725	Control	32
58	2512	3	f	3	r	MS	335.06788879999976	0.5139508599997953	0.0	Left Leg	2	48.5	NegThxRating		0.5010345999999117	Control	33
59	2512	3	f	3	r	MS	335.6004425000001	1.8989334599996255	21.35802469135804	Left Leg	2	48.5	SelfRating		1.8837490000000798	Control	34
60	2512	3	f	3	r	MS	337.5176032999998	1.6647244599998885	0.0	Left Leg	2	48.5	OtherRating		1.633325300000024	Control	35
61	2512	3	f	3	r	MS	339.20131519999995	1.9139629599999353	12.098765432098773	Left Leg	2	48.5	ImageryRating		1.885882199999969	Control	32
62	2512	3	f	3	r	MS	341.1361701999999	1.6276215599998523	36.543209876543216	Left Leg	2	48.5	PresentRating		1.6000027000000046	Control	37
