square,location,corrAns,trials.thisRepN,trials.thisTrialN,trials.thisN,trials.thisIndex,trials_2.thisRepN,trials_2.thisTrialN,trials_2.thisN,trials_2.thisIndex,fixation_1.started,fixation_1.stopped,grid_lines.started,grid_lines.stopped,target_square.started,target_square.stopped,fixation_2.started,fixation_2.stopped,response.corr,response.x,response.y,response.leftButton,response.click_left,response.click_right,response.started,response.stopped,ScoreReportText.started,ScoreReportText.stopped,ScoreReportResponse.keys,ScoreReportResponse.started,ScoreReportResponse.stopped,response_2.x,response_2.y,response_2.leftButton,grid_lines_2.started,grid_lines_2.stopped,target_square_2.started,target_square_2.stopped,fixation_3.started,fixation_3.stopped,response_2.click,response_2.corr,response_2.started,response_2.stopped,BodySiteInstructionText.started,BodySiteImg.started,BodySiteImg.stopped,BodySiteInstructionRead.keys,BodySiteInstructionRead.rt,BodySiteInstructionRead.started,BodySiteInstructionRead.stopped,response.click,IntensityRating.response,IntensityRating.rt,IntensityRating.started,IntensityRating.stopped,subject number,gender,distractMap first- or second-half (1 or 2),session,handedness,scanner,date,psychopyVersion,expName,frameRate,body_site_order,
6,"[0.2, 0]",None,0,0,0,0,,,,,982.3116215000045,None,983.328310900004,None,983.328310900004,984.3283068000019,984.3115361000091,985.3116403000022,1,0.03425925925925926,0.08425925925925926,"[0, 0, 0]",0,0,983.328310900004,None,,,,,,,,,,,,,,,,,,,,,,,,,,,,,,,8,f,2,14,r,ARB,2022_Feb_08_1225,2020.2.10,distractmap2,59.99689216002131,"['Right Face', 'Left Face', 'Chest', 'Left Arm']",
6,"[0.2, 0]",1,0,1,1,1,,,,,,,985.3283654999977,None,985.3283654999977,986.3283297000016,986.3116832000087,987.3116509999963,1,0.03425925925925926,0.08425925925925926,"[0, 0, 0]",0,0,985.3283654999977,None,,,,,,,,,,,,,,,,,,,,,,,,,,,,,,,8,f,2,14,r,ARB,2022_Feb_08_1225,2020.2.10,distractmap2,59.99689216002131,"['Right Face', 'Left Face', 'Chest', 'Left Arm']",
2,"[0, 0.2]",0,0,2,2,2,,,,,,,987.3283339000045,None,987.3283339000045,988.3283160999999,988.3116588999983,989.3116574000014,1,0.03425925925925926,0.08425925925925926,"[0, 0, 0]",0,0,987.3283339000045,None,,,,,,,,,,,,,,,,,,,,,,,,,,,,,,,8,f,2,14,r,ARB,2022_Feb_08_1225,2020.2.10,distractmap2,59.99689216002131,"['Right Face', 'Left Face', 'Chest', 'Left Arm']",
9,"[0.2, -0.2]",0,0,3,3,3,,,,,,,989.328330999997,None,989.328330999997,990.3283544000005,990.3116787000035,991.3116833999957,1,0.03425925925925926,0.08425925925925926,"[0, 0, 0]",0,0,989.328330999997,None,,,,,,,,,,,,,,,,,,,,,,,,,,,,,,,8,f,2,14,r,ARB,2022_Feb_08_1225,2020.2.10,distractmap2,59.99689216002131,"['Right Face', 'Left Face', 'Chest', 'Left Arm']",
9,"[0.2, -0.2]",1,0,4,4,4,,,,,,,991.3283448000002,None,991.3283448000002,992.3283534000075,992.311700899998,993.3116936000006,1,0.03425925925925926,0.08425925925925926,"[0, 0, 0]",0,0,991.3283448000002,None,,,,,,,,,,,,,,,,,,,,,,,,,,,,,,,8,f,2,14,r,ARB,2022_Feb_08_1225,2020.2.10,distractmap2,59.99689216002131,"['Right Face', 'Left Face', 'Chest', 'Left Arm']",
6,"[0.2, 0]",0,0,5,5,5,,,,,,,993.3283155999961,None,993.3283155999961,994.3283727000089,994.3117035000032,995.3117081000091,1,0.03425925925925926,0.08425925925925926,"[0, 0, 0]",0,0,993.3283155999961,None,,,,,,,,,,,,,,,,,,,,,,,,,,,,,,,8,f,2,14,r,ARB,2022_Feb_08_1225,2020.2.10,distractmap2,59.99689216002131,"['Right Face', 'Left Face', 'Chest', 'Left Arm']",
4,"[-0.2, 0]",0,0,6,6,6,,,,,,,995.3283835000038,None,995.3283835000038,996.3283768999972,996.311721799997,997.3117252000084,1,0.03425925925925926,0.08425925925925926,"[0, 0, 0]",0,0,995.3283835000038,None,,,,,,,,,,,,,,,,,,,,,,,,,,,,,,,8,f,2,14,r,ARB,2022_Feb_08_1225,2020.2.10,distractmap2,59.99689216002131,"['Right Face', 'Left Face', 'Chest', 'Left Arm']",
3,"[0.2, 0.2]",0,0,7,7,7,,,,,,,997.3283902999974,None,997.3283902999974,998.3284150999971,998.3117225000024,999.311735700001,1,0.03425925925925926,0.08425925925925926,"[0, 0, 0]",0,0,997.3283902999974,None,,,,,,,,,,,,,,,,,,,,,,,,,,,,,,,8,f,2,14,r,ARB,2022_Feb_08_1225,2020.2.10,distractmap2,59.99689216002131,"['Right Face', 'Left Face', 'Chest', 'Left Arm']",
3,"[0.2, 0.2]",1,0,8,8,8,,,,,,,999.3284000999993,None,999.3284000999993,1000.3284585000074,1000.3117534000048,1001.3117501000088,1,0.03425925925925926,0.08425925925925926,"[0, 0, 0]",0,0,999.3284000999993,None,,,,,,,,,,,,,,,,,,,,,,,,,,,,,,,8,f,2,14,r,ARB,2022_Feb_08_1225,2020.2.10,distractmap2,59.99689216002131,"['Right Face', 'Left Face', 'Chest', 'Left Arm']",
8,"[0, -0.2]",0,0,9,9,9,,,,,,,1001.3284071999951,None,1001.3284071999951,1002.3284413000074,1002.3117539000086,1003.3117662000004,1,0.03425925925925926,0.08425925925925926,"[0, 0, 0]",0,0,1001.3284071999951,None,,,,,,,,,,,,,,,,,,,,,,,,,,,,,,,8,f,2,14,r,ARB,2022_Feb_08_1225,2020.2.10,distractmap2,59.99689216002131,"['Right Face', 'Left Face', 'Chest', 'Left Arm']",
1,"[-0.2, 0.2]",0,0,10,10,10,,,,,,,1003.3284473000094,None,1003.3284473000094,1004.328456800009,1004.311776100003,1005.3117901000078,1,0.03425925925925926,0.08425925925925926,"[0, 0, 0]",0,0,1003.3284473000094,None,,,,,,,,,,,,,,,,,,,,,,,,,,,,,,,8,f,2,14,r,ARB,2022_Feb_08_1225,2020.2.10,distractmap2,59.99689216002131,"['Right Face', 'Left Face', 'Chest', 'Left Arm']",
2,"[0, 0.2]",0,0,11,11,11,,,,,,,1005.3283607000049,None,1005.3283607000049,1006.3284648999979,1006.3117771999969,1007.3117901000078,1,0.03425925925925926,0.08425925925925926,"[0, 0, 0]",0,0,1005.3283607000049,None,,,,,,,,,,,,,,,,,,,,,,,,,,,,,,,8,f,2,14,r,ARB,2022_Feb_08_1225,2020.2.10,distractmap2,59.99689216002131,"['Right Face', 'Left Face', 'Chest', 'Left Arm']",
4,"[-0.2, 0]",0,0,12,12,12,,,,,,,1007.3284641000064,None,1007.3284641000064,1008.3284798000095,1008.3118000999966,1009.3118203000049,1,0.03425925925925926,0.08425925925925926,"[0, 0, 0]",0,0,1007.3284641000064,None,,,,,,,,,,,,,,,,,,,,,,,,,,,,,,,8,f,2,14,r,ARB,2022_Feb_08_1225,2020.2.10,distractmap2,59.99689216002131,"['Right Face', 'Left Face', 'Chest', 'Left Arm']",
4,"[-0.2, 0]",1,0,13,13,13,,,,,,,1009.3284658000048,None,1009.3284658000048,1010.3284969000088,1010.3118226000079,1011.3118237000017,1,0.03425925925925926,0.08425925925925926,"[0, 0, 0]",0,0,1009.3284658000048,None,,,,,,,,,,,,,,,,,,,,,,,,,,,,,,,8,f,2,14,r,ARB,2022_Feb_08_1225,2020.2.10,distractmap2,59.99689216002131,"['Right Face', 'Left Face', 'Chest', 'Left Arm']",
8,"[0, -0.2]",0,0,14,14,14,,,,,,,1011.3285002000048,None,1011.3285002000048,1012.3284963000042,1012.3118317000044,1013.3118409000017,1,0.03425925925925926,0.08425925925925926,"[0, 0, 0]",0,0,1011.3285002000048,None,,,,,,,,,,,,,,,,,,,,,,,,,,,,,,,8,f,2,14,r,ARB,2022_Feb_08_1225,2020.2.10,distractmap2,59.99689216002131,"['Right Face', 'Left Face', 'Chest', 'Left Arm']",
5,"[0, 0]",0,0,15,15,15,,,,,,,1013.3285081000067,None,1013.3285081000067,1014.3285200999962,1014.311809699997,1015.3118648000091,1,0.03425925925925926,0.08425925925925926,"[0, 0, 0]",0,0,1013.3285081000067,None,,,,,,,,,,,,,,,,,,,,,,,,,,,,,,,8,f,2,14,r,ARB,2022_Feb_08_1225,2020.2.10,distractmap2,59.99689216002131,"['Right Face', 'Left Face', 'Chest', 'Left Arm']",
5,"[0, 0]",1,0,16,16,16,,,,,,,1015.3285159000079,None,1015.3285159000079,1016.328529499995,1016.3118626000069,1017.3118661000044,1,0.03425925925925926,0.08425925925925926,"[0, 0, 0]",0,0,1015.3285159000079,None,,,,,,,,,,,,,,,,,,,,,,,,,,,,,,,8,f,2,14,r,ARB,2022_Feb_08_1225,2020.2.10,distractmap2,59.99689216002131,"['Right Face', 'Left Face', 'Chest', 'Left Arm']",
1,"[-0.2, 0.2]",0,0,17,17,17,,,,,,,1017.3285404000053,None,1017.3285404000053,1018.3284489000071,1018.3118852000043,1019.3118813000037,1,0.03425925925925926,0.08425925925925926,"[0, 0, 0]",0,0,1017.3285404000053,None,,,,,,,,,,,,,,,,,,,,,,,,,,,,,,,8,f,2,14,r,ARB,2022_Feb_08_1225,2020.2.10,distractmap2,59.99689216002131,"['Right Face', 'Left Face', 'Chest', 'Left Arm']",
3,"[0.2, 0.2]",0,0,18,18,18,,,,,,,1019.3285591000022,None,1019.3285591000022,1020.328582400005,1020.311886800002,1021.3118648000091,1,0.03425925925925926,0.08425925925925926,"[0, 0, 0]",0,0,1019.3285591000022,None,,,,,,,,,,,,,,,,,,,,,,,,,,,,,,,8,f,2,14,r,ARB,2022_Feb_08_1225,2020.2.10,distractmap2,59.99689216002131,"['Right Face', 'Left Face', 'Chest', 'Left Arm']",
6,"[0.2, 0]",0,0,19,19,19,,,,,,,1021.3285614000051,None,1021.3285614000051,1022.328576800006,1022.3119115000009,1023.3119085000071,1,0.03425925925925926,0.08425925925925926,"[0, 0, 0]",0,0,1021.3285614000051,None,,,,,,,,,,,,,,,,,,,,,,,,,,,,,,,8,f,2,14,r,ARB,2022_Feb_08_1225,2020.2.10,distractmap2,59.99689216002131,"['Right Face', 'Left Face', 'Chest', 'Left Arm']",
1,"[-0.2, 0.2]",0,0,20,20,20,,,,,,,1023.3285829000088,None,1023.3285829000088,1024.3285718999978,1024.3119154000015,1025.3119271000032,1,0.03425925925925926,0.08425925925925926,"[0, 0, 0]",0,0,1023.3285829000088,None,,,,,,,,,,,,,,,,,,,,,,,,,,,,,,,8,f,2,14,r,ARB,2022_Feb_08_1225,2020.2.10,distractmap2,59.99689216002131,"['Right Face', 'Left Face', 'Chest', 'Left Arm']",
1,"[-0.2, 0.2]",1,0,21,21,21,,,,,,,1025.3285923000076,None,1025.3285923000076,1026.328598299995,1026.3119370000059,1027.3119404000026,1,0.03425925925925926,0.08425925925925926,"[0, 0, 0]",0,0,1025.3285923000076,None,,,,,,,,,,,,,,,,,,,,,,,,,,,,,,,8,f,2,14,r,ARB,2022_Feb_08_1225,2020.2.10,distractmap2,59.99689216002131,"['Right Face', 'Left Face', 'Chest', 'Left Arm']",
1,"[-0.2, 0.2]",1,0,22,22,22,,,,,,,1027.3286175999965,None,1027.3286175999965,1028.328622800007,1028.311946300004,1029.3119555000012,1,0.03425925925925926,0.08425925925925926,"[0, 0, 0]",0,0,1027.3286175999965,None,,,,,,,,,,,,,,,,,,,,,,,,,,,,,,,8,f,2,14,r,ARB,2022_Feb_08_1225,2020.2.10,distractmap2,59.99689216002131,"['Right Face', 'Left Face', 'Chest', 'Left Arm']",
3,"[0.2, 0.2]",0,0,23,23,23,,,,,,,1029.3286254999985,None,1029.3286254999985,1030.328620500004,1030.311964499997,1031.311959700004,1,0.03425925925925926,0.08425925925925926,"[0, 0, 0]",0,0,1029.3286254999985,None,,,,,,,,,,,,,,,,,,,,,,,,,,,,,,,8,f,2,14,r,ARB,2022_Feb_08_1225,2020.2.10,distractmap2,59.99689216002131,"['Right Face', 'Left Face', 'Chest', 'Left Arm']",
2,"[0, 0.2]",0,0,24,24,24,,,,,,,1031.3286488000012,None,1031.3286488000012,1032.3286135999952,1032.3119794000086,1033.3119138000038,1,0.03425925925925926,0.08425925925925926,"[0, 0, 0]",0,0,1031.3286488000012,None,,,,,,,,,,,,,,,,,,,,,,,,,,,,,,,8,f,2,14,r,ARB,2022_Feb_08_1225,2020.2.10,distractmap2,59.99689216002131,"['Right Face', 'Left Face', 'Chest', 'Left Arm']",
1,"[-0.2, 0.2]",0,0,25,25,25,,,,,,,1033.3286500999966,None,1033.3286500999966,1034.3286880000087,1034.311992300005,1035.3120005999954,1,0.03425925925925926,0.08425925925925926,"[0, 0, 0]",0,0,1033.3286500999966,None,,,,,,,,,,,,,,,,,,,,,,,,,,,,,,,8,f,2,14,r,ARB,2022_Feb_08_1225,2020.2.10,distractmap2,59.99689216002131,"['Right Face', 'Left Face', 'Chest', 'Left Arm']",
7,"[-0.2, -0.2]",0,0,26,26,26,,,,,,,1035.3286575999955,None,1035.3286575999955,1036.3286634999968,1036.312010499998,1037.3120228000043,1,0.03425925925925926,0.08425925925925926,"[0, 0, 0]",0,0,1035.3286575999955,None,,,,,,,,,,,,,,,,,,,,,,,,,,,,,,,8,f,2,14,r,ARB,2022_Feb_08_1225,2020.2.10,distractmap2,59.99689216002131,"['Right Face', 'Left Face', 'Chest', 'Left Arm']",
7,"[-0.2, -0.2]",1,0,27,27,27,,,,,,,1037.328664700006,None,1037.328664700006,1038.3286813000013,1038.3120291000087,1039.3120339000016,1,0.03425925925925926,0.08425925925925926,"[0, 0, 0]",0,0,1037.328664700006,None,,,,,,,,,,,,,,,,,,,,,,,,,,,,,,,8,f,2,14,r,ARB,2022_Feb_08_1225,2020.2.10,distractmap2,59.99689216002131,"['Right Face', 'Left Face', 'Chest', 'Left Arm']",
2,"[0, 0.2]",0,0,28,28,28,,,,,,,1039.3286971000052,None,1039.3286971000052,1040.3286874000041,1040.3120310000086,1041.3120398000028,1,0.03425925925925926,0.08425925925925926,"[0, 0, 0]",0,0,1039.3286971000052,None,,,,,,,,,,,,,,,,,,,,,,,,,,,,,,,8,f,2,14,r,ARB,2022_Feb_08_1225,2020.2.10,distractmap2,59.99689216002131,"['Right Face', 'Left Face', 'Chest', 'Left Arm']",
6,"[0.2, 0]",0,0,29,29,29,,,,,,,1041.3287070000079,None,1041.3287070000079,1042.3287110000092,1042.3120468999987,1043.312054599999,1,0.03425925925925926,0.08425925925925926,"[0, 0, 0]",0,0,1041.3287070000079,None,,,,,,,,,,,,,,,,,,,,,,,,,,,,,,,8,f,2,14,r,ARB,2022_Feb_08_1225,2020.2.10,distractmap2,59.99689216002131,"['Right Face', 'Left Face', 'Chest', 'Left Arm']",
,,,,,,,,,,,,,,,,,,,,,,,,,,,1043.345398400008,None,space,1043.345398400008,None,,,,,,,,,,,,,,,,,,,,,,,,,,8,f,2,14,r,ARB,2022_Feb_08_1225,2020.2.10,distractmap2,59.99689216002131,"['Right Face', 'Left Face', 'Chest', 'Left Arm']",
6,"[0.2, 0]",None,,,,,0,0,0,0,1087.579051000008,None,,,,,,,,,,,,,,,,,,,,None,None,"[0, 0, 0]",1088.5957078000065,None,1088.5957078000065,1089.595712800001,1089.5790549000085,1090.5790601000044,"[0, 0, 0]",1,1088.5957078000065,None,,,,,,,,,,,,,8,f,2,14,r,ARB,2022_Feb_08_1225,2020.2.10,distractmap2,59.99689216002131,"['Right Face', 'Left Face', 'Chest', 'Left Arm']",
7,"[-0.2, -0.2]",None,,,,,0,1,1,1,,,,,,,,,,,,,,,,,,,,,,None,None,"[0, 0, 0]",1090.5957254999958,1092.5957568000013,1090.5957254999958,1091.5957221999997,1091.579079800009,1092.579078900002,"[0, 0, 0]",1,1090.5957254999958,1092.5957568000013,,,,,,,,,,,,,8,f,2,14,r,ARB,2022_Feb_08_1225,2020.2.10,distractmap2,59.99689216002131,"['Right Face', 'Left Face', 'Chest', 'Left Arm']",
6,"[0.2, 0]",1,,,,,0,2,2,2,,,,,,,,,,,,,,,,,,,,,,None,None,"[0, 0, 0]",1092.6123152000073,1094.6124216000026,1092.6123152000073,1093.6124281000084,1093.5957593000057,1094.595751700006,"[0, 0, 0]",1,1092.6123152000073,1094.6124216000026,,,,,,,,,,,,,8,f,2,14,r,ARB,2022_Feb_08_1225,2020.2.10,distractmap2,59.99689216002131,"['Right Face', 'Left Face', 'Chest', 'Left Arm']",
2,"[0, 0.2]",0,,,,,0,3,3,3,,,,,,,,,,,,,,,,,,,,,,None,None,"[0, 0, 0]",1094.6291027999978,1096.6291009999986,1094.6291027999978,1095.6289917999966,1095.6124476999976,1096.612453499998,"[0, 0, 0]",1,1094.6291027999978,1096.6291009999986,,,,,,,,,,,,,8,f,2,14,r,ARB,2022_Feb_08_1225,2020.2.10,distractmap2,59.99689216002131,"['Right Face', 'Left Face', 'Chest', 'Left Arm']",
5,"[0, 0]",0,,,,,0,4,4,4,,,,,,,,,,,,,,,,,,,,,,None,None,"[0, 0, 0]",1096.645775500001,1098.6457845999976,1096.645775500001,1097.6457820000069,1097.6291272999952,1098.6291071000014,"[0, 0, 0]",1,1096.645775500001,1098.6457845999976,,,,,,,,,,,,,8,f,2,14,r,ARB,2022_Feb_08_1225,2020.2.10,distractmap2,59.99689216002131,"['Right Face', 'Left Face', 'Chest', 'Left Arm']",
4,"[-0.2, 0]",0,,,,,0,5,5,5,,,,,,,,,,,,,,,,,,,,,,None,None,"[0, 0, 0]",1098.6624478000012,1100.662482300002,1098.6624478000012,1099.6624800999998,1099.6457934000064,1100.6457940999971,"[0, 0, 0]",1,1098.6624478000012,1100.662482300002,,,,,,,,,,,,,8,f,2,14,r,ARB,2022_Feb_08_1225,2020.2.10,distractmap2,59.99689216002131,"['Right Face', 'Left Face', 'Chest', 'Left Arm']",
4,"[-0.2, 0]",0,,,,,0,6,6,6,,,,,,,,,,,,,,,,,,,,,,None,None,"[0, 0, 0]",1100.6791373000015,1102.679158400002,1100.6791373000015,1101.6791464999988,1101.6624635000044,1102.6624756000092,"[0, 0, 0]",1,1100.6791373000015,1102.679158400002,,,,,,,,,,,,,8,f,2,14,r,ARB,2022_Feb_08_1225,2020.2.10,distractmap2,59.99689216002131,"['Right Face', 'Left Face', 'Chest', 'Left Arm']",
7,"[-0.2, -0.2]",0,,,,,0,7,7,7,,,,,,,,,,,,,,,,,,,,,,None,None,"[0, 0, 0]",1102.6958118000039,1104.6958441000024,1102.6958118000039,1103.6958113,1103.679156600003,1104.6791776000027,"[0, 0, 0]",1,1102.6958118000039,1104.6958441000024,,,,,,,,,,,,,8,f,2,14,r,ARB,2022_Feb_08_1225,2020.2.10,distractmap2,59.99689216002131,"['Right Face', 'Left Face', 'Chest', 'Left Arm']",
4,"[-0.2, 0]",1,,,,,0,8,8,8,,,,,,,,,,,,,,,,,,,,,,None,None,"[0, 0, 0]",1104.712511699996,1106.7125140999997,1104.712511699996,1105.7125108000037,1105.6958329000045,1106.6958442000032,"[0, 0, 0]",1,1104.712511699996,1106.7125140999997,,,,,,,,,,,,,8,f,2,14,r,ARB,2022_Feb_08_1225,2020.2.10,distractmap2,59.99689216002131,"['Right Face', 'Left Face', 'Chest', 'Left Arm']",
3,"[0.2, 0.2]",0,,,,,0,9,9,9,,,,,,,,,,,,,,,,,,,,,,None,None,"[0, 0, 0]",1106.729191899998,1108.7292070999974,1106.729191899998,1107.7291800000094,1107.7125159999996,1108.7125414000038,"[0, 0, 0]",1,1106.729191899998,1108.7292070999974,,,,,,,,,,,,,8,f,2,14,r,ARB,2022_Feb_08_1225,2020.2.10,distractmap2,59.99689216002131,"['Right Face', 'Left Face', 'Chest', 'Left Arm']",
5,"[0, 0]",0,,,,,0,10,10,10,,,,,,,,,,,,,,,,,,,,,,None,None,"[0, 0, 0]",1108.7458615000069,1110.7458766000054,1108.7458615000069,1109.7458316999982,1109.7291934000095,1110.7292120000056,"[0, 0, 0]",1,1108.7458615000069,1110.7458766000054,,,,,,,,,,,,,8,f,2,14,r,ARB,2022_Feb_08_1225,2020.2.10,distractmap2,59.99689216002131,"['Right Face', 'Left Face', 'Chest', 'Left Arm']",
3,"[0.2, 0.2]",1,,,,,0,11,11,11,,,,,,,,,,,,,,,,,,,,,,None,None,"[0, 0, 0]",1110.7625555999984,1112.7625624000066,1110.7625555999984,1111.7625388000015,1111.7458864000073,1112.745833699999,"[0, 0, 0]",1,1110.7625555999984,1112.7625624000066,,,,,,,,,,,,,8,f,2,14,r,ARB,2022_Feb_08_1225,2020.2.10,distractmap2,59.99689216002131,"['Right Face', 'Left Face', 'Chest', 'Left Arm']",
1,"[-0.2, 0.2]",0,,,,,0,12,12,12,,,,,,,,,,,,,,,,,,,,,,None,None,"[0, 0, 0]",1112.7792336999992,1114.7792381000036,1112.7792336999992,1113.779239399999,1113.7625708999985,1114.7625654000003,"[0, 0, 0]",1,1112.7792336999992,1114.7792381000036,,,,,,,,,,,,,8,f,2,14,r,ARB,2022_Feb_08_1225,2020.2.10,distractmap2,59.99689216002131,"['Right Face', 'Left Face', 'Chest', 'Left Arm']",
9,"[0.2, -0.2]",0,,,,,0,13,13,13,,,,,,,,,,,,,,,,,,,,,,None,None,"[0, 0, 0]",1114.7959028000041,1116.7959114999976,1114.7959028000041,1115.7959059999994,1115.7792587000004,1116.7792559000081,"[0, 0, 0]",1,1114.7959028000041,1116.7959114999976,,,,,,,,,,,,,8,f,2,14,r,ARB,2022_Feb_08_1225,2020.2.10,distractmap2,59.99689216002131,"['Right Face', 'Left Face', 'Chest', 'Left Arm']",
9,"[0.2, -0.2]",0,,,,,0,14,14,14,,,,,,,,,,,,,,,,,,,,,,None,None,"[0, 0, 0]",1116.8125986000086,1118.8126025999954,1116.8125986000086,1117.8125989999971,1117.7959208999964,1118.7959308999998,"[0, 0, 0]",1,1116.8125986000086,1118.8126025999954,,,,,,,,,,,,,8,f,2,14,r,ARB,2022_Feb_08_1225,2020.2.10,distractmap2,59.99689216002131,"['Right Face', 'Left Face', 'Chest', 'Left Arm']",
8,"[0, -0.2]",0,,,,,0,15,15,15,,,,,,,,,,,,,,,,,,,,,,None,None,"[0, 0, 0]",1118.829280799997,1120.829270999995,1118.829280799997,1119.829288000008,1119.8126211000053,1120.8125806000025,"[0, 0, 0]",1,1118.829280799997,1120.829270999995,,,,,,,,,,,,,8,f,2,14,r,ARB,2022_Feb_08_1225,2020.2.10,distractmap2,59.99689216002131,"['Right Face', 'Left Face', 'Chest', 'Left Arm']",
6,"[0.2, 0]",0,,,,,0,16,16,16,,,,,,,,,,,,,,,,,,,,,,None,None,"[0, 0, 0]",1120.845983799998,1122.845958100006,1120.845983799998,1121.8459523000056,1121.829284300009,1122.8293091000087,"[0, 0, 0]",1,1120.845983799998,1122.845958100006,,,,,,,,,,,,,8,f,2,14,r,ARB,2022_Feb_08_1225,2020.2.10,distractmap2,59.99689216002131,"['Right Face', 'Left Face', 'Chest', 'Left Arm']",
3,"[0.2, 0.2]",0,,,,,0,17,17,17,,,,,,,,,,,,,,,,,,,,,,None,None,"[0, 0, 0]",1122.8626225000044,1124.8626438000065,1122.8626225000044,1123.8626304000063,1123.845973100004,1124.8459709000017,"[0, 0, 0]",1,1122.8626225000044,1124.8626438000065,,,,,,,,,,,,,8,f,2,14,r,ARB,2022_Feb_08_1225,2020.2.10,distractmap2,59.99689216002131,"['Right Face', 'Left Face', 'Chest', 'Left Arm']",
6,"[0.2, 0]",1,,,,,0,18,18,18,,,,,,,,,,,,,,,,,,,,,,None,None,"[0, 0, 0]",1124.8793175000028,1126.8793221000087,1124.8793175000028,1125.8793223999965,1125.862641700005,1126.8626619999995,"[0, 0, 0]",1,1124.8793175000028,1126.8793221000087,,,,,,,,,,,,,8,f,2,14,r,ARB,2022_Feb_08_1225,2020.2.10,distractmap2,59.99689216002131,"['Right Face', 'Left Face', 'Chest', 'Left Arm']",
5,"[0, 0]",0,,,,,0,19,19,19,,,,,,,,,,,,,,,,,,,,,,None,None,"[0, 0, 0]",1126.8959881000046,1128.8960133000073,1126.8959881000046,1127.895994999999,1127.879329000003,1128.8793418999994,"[0, 0, 0]",1,1126.8959881000046,1128.8960133000073,,,,,,,,,,,,,8,f,2,14,r,ARB,2022_Feb_08_1225,2020.2.10,distractmap2,59.99689216002131,"['Right Face', 'Left Face', 'Chest', 'Left Arm']",
7,"[-0.2, -0.2]",0,,,,,0,20,20,20,,,,,,,,,,,,,,,,,,,,,,None,None,"[0, 0, 0]",1128.9126760000072,1130.9126955999964,1128.9126760000072,1129.9126765999972,1129.8960207000055,1130.8960164000018,"[0, 0, 0]",1,1128.9126760000072,1130.9126955999964,,,,,,,,,,,,,8,f,2,14,r,ARB,2022_Feb_08_1225,2020.2.10,distractmap2,59.99689216002131,"['Right Face', 'Left Face', 'Chest', 'Left Arm']",
5,"[0, 0]",1,,,,,0,21,21,21,,,,,,,,,,,,,,,,,,,,,,None,None,"[0, 0, 0]",1130.9293703000003,1132.9293838000012,1130.9293703000003,1131.9293705000018,1131.9126978999993,1132.9126923000003,"[0, 0, 0]",1,1130.9293703000003,1132.9293838000012,,,,,,,,,,,,,8,f,2,14,r,ARB,2022_Feb_08_1225,2020.2.10,distractmap2,59.99689216002131,"['Right Face', 'Left Face', 'Chest', 'Left Arm']",
1,"[-0.2, 0.2]",0,,,,,0,22,22,22,,,,,,,,,,,,,,,,,,,,,,None,None,"[0, 0, 0]",1132.9460392000037,1134.9460487000033,1132.9460392000037,1133.9460365999985,1133.9293835999997,1134.9294004999974,"[0, 0, 0]",1,1132.9460392000037,1134.9460487000033,,,,,,,,,,,,,8,f,2,14,r,ARB,2022_Feb_08_1225,2020.2.10,distractmap2,59.99689216002131,"['Right Face', 'Left Face', 'Chest', 'Left Arm']",
7,"[-0.2, -0.2]",0,,,,,0,23,23,23,,,,,,,,,,,,,,,,,,,,,,None,None,"[0, 0, 0]",1134.9627101000078,1136.9627447000094,1134.9627101000078,1135.9627256999956,1135.946067900004,1136.9460648000095,"[0, 0, 0]",0,1134.9627101000078,1136.9627447000094,,,,,,,,,,,,,8,f,2,14,r,ARB,2022_Feb_08_1225,2020.2.10,distractmap2,59.99689216002131,"['Right Face', 'Left Face', 'Chest', 'Left Arm']",
9,"[0.2, -0.2]",0,,,,,0,24,24,24,,,,,,,,,,,,,,,,,,,,,,None,None,"[0, 0, 0]",1136.9794092000084,1138.9794196000003,1136.9794092000084,1137.9794063000008,1137.9627349000075,1138.9627382000035,"[0, 0, 0]",1,1136.9794092000084,1138.9794196000003,,,,,,,,,,,,,8,f,2,14,r,ARB,2022_Feb_08_1225,2020.2.10,distractmap2,59.99689216002131,"['Right Face', 'Left Face', 'Chest', 'Left Arm']",
3,"[0.2, 0.2]",0,,,,,0,25,25,25,,,,,,,,,,,,,,,,,,,,,,None,None,"[0, 0, 0]",1138.9960699000076,1140.9961026999954,1138.9960699000076,1139.9961015000008,1139.9794223000063,1140.9794265999953,"[0, 0, 0]",1,1138.9960699000076,1140.9961026999954,,,,,,,,,,,,,8,f,2,14,r,ARB,2022_Feb_08_1225,2020.2.10,distractmap2,59.99689216002131,"['Right Face', 'Left Face', 'Chest', 'Left Arm']",
9,"[0.2, -0.2]",1,,,,,0,26,26,26,,,,,,,,,,,,,,,,,,,,,,None,None,"[0, 0, 0]",1141.0127584000002,1143.0127676999982,1141.0127584000002,1142.0127693999966,1141.9960982000048,1142.996118199997,"[0, 0, 0]",1,1141.0127584000002,1143.0127676999982,,,,,,,,,,,,,8,f,2,14,r,ARB,2022_Feb_08_1225,2020.2.10,distractmap2,59.99689216002131,"['Right Face', 'Left Face', 'Chest', 'Left Arm']",
6,"[0.2, 0]",0,,,,,0,27,27,27,,,,,,,,,,,,,,,,,,,,,,None,None,"[0, 0, 0]",1143.0293454000057,1145.0294495999988,1143.0293454000057,1144.0294662000088,1144.0127850999997,1145.0127941999963,"[0, 0, 0]",1,1143.0293454000057,1145.0294495999988,,,,,,,,,,,,,8,f,2,14,r,ARB,2022_Feb_08_1225,2020.2.10,distractmap2,59.99689216002131,"['Right Face', 'Left Face', 'Chest', 'Left Arm']",
2,"[0, 0.2]",0,,,,,0,28,28,28,,,,,,,,,,,,,,,,,,,,,,None,None,"[0, 0, 0]",1145.0461273999972,1147.0461556000082,1145.0461273999972,1146.0461300000024,1146.0294779999967,1147.0294662000088,"[0, 0, 0]",1,1145.0461273999972,1147.0461556000082,,,,,,,,,,,,,8,f,2,14,r,ARB,2022_Feb_08_1225,2020.2.10,distractmap2,59.99689216002131,"['Right Face', 'Left Face', 'Chest', 'Left Arm']",
5,"[0, 0]",0,,,,,0,29,29,29,,,,,,,,,,,,,,,,,,,,,,None,None,"[0, 0, 0]",1147.062800300002,1149.0628234000033,1147.062800300002,1148.0628270000016,1148.0461443999957,1149.0461612000072,"[0, 0, 0]",1,1147.062800300002,1149.0628234000033,,,,,,,,,,,,,8,f,2,14,r,ARB,2022_Feb_08_1225,2020.2.10,distractmap2,59.99689216002131,"['Right Face', 'Left Face', 'Chest', 'Left Arm']",
,,,,,,,,,,,,,,,,,,,,,,,,,,,1149.0795039000077,None,space,1149.0795039000077,None,,,,,,,,,,,,,,,,,,,,,,,,,,8,f,2,14,r,ARB,2022_Feb_08_1225,2020.2.10,distractmap2,59.99689216002131,"['Right Face', 'Left Face', 'Chest', 'Left Arm']",
5,"[0, 0]",None,0,0,0,0,,,,,1338.6147727000061,None,1340.9809000999958,None,1340.9809000999958,1341.9809111000068,1341.964262900001,1342.964284200003,1,None,None,"[0, 0, 0]",,,1340.9809000999958,None,,,,,,,,,,,,,,,,,,,1176.6299438999995,1176.6299438999995,None,space,133.5243807999941,1176.6299438999995,None,"[0, 0, 0]",,,,,8,f,2,14,r,ARB,2022_Feb_08_1225,2020.2.10,distractmap2,59.99689216002131,"['Right Face', 'Left Face', 'Chest', 'Left Arm']",
5,"[0, 0]",1,0,1,1,1,,,,,,,1342.9809339000058,1342.9809339000058,1342.9809339000058,1343.9809497999959,1343.9642709000036,1344.9642827000062,1,None,None,"[0, 0, 0]",,,1342.9809339000058,1342.9809339000058,,,,,,,,,,,,,,,,,,,,,,,,,,"[0, 0, 0]",,,,,8,f,2,14,r,ARB,2022_Feb_08_1225,2020.2.10,distractmap2,59.99689216002131,"['Right Face', 'Left Face', 'Chest', 'Left Arm']",
4,"[-0.2, 0]",0,0,2,2,2,,,,,,,1344.980959499997,1344.980959499997,1344.980959499997,1345.980948299999,1345.9643025999976,1346.9643099000095,1,None,None,"[0, 0, 0]",,,1344.980959499997,1344.980959499997,,,,,,,,,,,,,,,,,,,,,,,,,,"[0, 0, 0]",,,,,8,f,2,14,r,ARB,2022_Feb_08_1225,2020.2.10,distractmap2,59.99689216002131,"['Right Face', 'Left Face', 'Chest', 'Left Arm']",
2,"[0, 0.2]",0,0,3,3,3,,,,,,,1346.980963199996,1346.980963199996,1346.980963199996,1347.980967800002,1347.964314500001,1348.9643341000046,1,None,None,"[0, 0, 0]",,,1346.980963199996,1346.980963199996,,,,,,,,,,,,,,,,,,,,,,,,,,"[0, 0, 0]",,,,,8,f,2,14,r,ARB,2022_Feb_08_1225,2020.2.10,distractmap2,59.99689216002131,"['Right Face', 'Left Face', 'Chest', 'Left Arm']",
6,"[0.2, 0]",0,0,4,4,4,,,,,,,1349.0312144000054,1349.0312144000054,1349.0312144000054,1350.0309742999962,1349.9976640999957,None,1,None,None,"[0, 0, 0]",,,1349.0312144000054,1349.0312144000054,,,,,,,,,,,,,,,,,,,,,,,,,,"[0, 0, 0]",,,,,8,f,2,14,r,ARB,2022_Feb_08_1225,2020.2.10,distractmap2,59.99689216002131,"['Right Face', 'Left Face', 'Chest', 'Left Arm']",
8,"[0, -0.2]",0,0,5,5,5,,,,,,,1350.9976521000062,None,1350.9976521000062,1351.9976811000088,1351.9810018999997,1352.9810109999962,1,None,None,"[0, 0, 0]",,,1350.9976521000062,None,,,,,,,,,,,,,,,,,,,,,,,,,,"[0, 0, 0]",,,,,8,f,2,14,r,ARB,2022_Feb_08_1225,2020.2.10,distractmap2,59.99689216002131,"['Right Face', 'Left Face', 'Chest', 'Left Arm']",
1,"[-0.2, 0.2]",0,0,6,6,6,,,,,,,1352.9976830000087,1352.9976830000087,1352.9976830000087,1353.9976785000035,1353.9810256000055,1354.9810295000061,1,None,None,"[0, 0, 0]",,,1352.9976830000087,1352.9976830000087,,,,,,,,,,,,,,,,,,,,,,,,,,"[0, 0, 0]",,,,,8,f,2,14,r,ARB,2022_Feb_08_1225,2020.2.10,distractmap2,59.99689216002131,"['Right Face', 'Left Face', 'Chest', 'Left Arm']",
4,"[-0.2, 0]",0,0,7,7,7,,,,,,,1354.9976823000034,1354.9976823000034,1354.9976823000034,1355.9976835999987,1355.9810452999955,1356.9810357999959,1,None,None,"[0, 0, 0]",,,1354.9976823000034,1354.9976823000034,,,,,,,,,,,,,,,,,,,,,,,,,,"[0, 0, 0]",,,,,8,f,2,14,r,ARB,2022_Feb_08_1225,2020.2.10,distractmap2,59.99689216002131,"['Right Face', 'Left Face', 'Chest', 'Left Arm']",
8,"[0, -0.2]",0,0,8,8,8,,,,,,,1356.9976975000027,1356.9976975000027,1356.9976975000027,1357.9977072000038,1357.9810543000058,1358.9810549999966,1,None,None,"[0, 0, 0]",,,1356.9976975000027,1356.9976975000027,,,,,,,,,,,,,,,,,,,,,,,,,,"[0, 0, 0]",,,,,8,f,2,14,r,ARB,2022_Feb_08_1225,2020.2.10,distractmap2,59.99689216002131,"['Right Face', 'Left Face', 'Chest', 'Left Arm']",
8,"[0, -0.2]",1,0,9,9,9,,,,,,,1358.9977211000078,1358.9977211000078,1358.9977211000078,1359.9977263000037,1359.9810638000054,1360.9810762999987,1,None,None,"[0, 0, 0]",,,1358.9977211000078,1358.9977211000078,,,,,,,,,,,,,,,,,,,,,,,,,,"[0, 0, 0]",,,,,8,f,2,14,r,ARB,2022_Feb_08_1225,2020.2.10,distractmap2,59.99689216002131,"['Right Face', 'Left Face', 'Chest', 'Left Arm']",
,,,,,,,,,,,1360.9977306000073,None,,,,,,,,,,,,,,,,,,,,,,,,,,,,,,,,,,,,,,,,,3.148148148148152,1343.2337212099956,,,8,f,2,14,r,ARB,2022_Feb_08_1225,2020.2.10,distractmap2,59.99689216002131,"['Right Face', 'Left Face', 'Chest', 'Left Arm']",
3,"[0.2, 0.2]",None,0,0,0,0,,,,,1374.181298399999,None,1381.0312841999985,None,1381.0312841999985,1382.031217900003,1382.0145629000035,1383.0145682000002,1,None,None,"[0, 0, 0]",,,1381.0312841999985,None,,,,,,,,,,,,,,,,,,,,,,,,,,"[0, 0, 0]",,,0.014781289995880798,5.012513490000856,8,f,2,14,r,ARB,2022_Feb_08_1225,2020.2.10,distractmap2,59.99689216002131,"['Right Face', 'Left Face', 'Chest', 'Left Arm']",
4,"[-0.2, 0]",0,0,1,1,1,,,,,,,1383.0312474000093,1383.0312474000093,1383.0312474000093,1384.0312542000029,1384.014479999998,1385.0145776999998,0,None,None,"[0, 0, 0]",,,1383.0312474000093,1383.0312474000093,,,,,,,,,,,,,,,,,,,,,,,,,,"[0, 0, 0]",,,,,8,f,2,14,r,ARB,2022_Feb_08_1225,2020.2.10,distractmap2,59.99689216002131,"['Right Face', 'Left Face', 'Chest', 'Left Arm']",
1,"[-0.2, 0.2]",0,0,2,2,2,,,,,,,1385.0312646999955,1385.0312646999955,1385.0312646999955,1386.031250800006,1386.0145907999977,1387.0145889999985,0,None,None,"[0, 0, 0]",,,1385.0312646999955,1385.0312646999955,,,,,,,,,,,,,,,,,,,,,,,,,,"[0, 0, 0]",,,,,8,f,2,14,r,ARB,2022_Feb_08_1225,2020.2.10,distractmap2,59.99689216002131,"['Right Face', 'Left Face', 'Chest', 'Left Arm']",
2,"[0, 0.2]",0,0,3,3,3,,,,,,,1387.0312623000063,1387.0312623000063,1387.0312623000063,1388.0312661000062,1388.0145993000042,1389.0146089000045,0,None,None,"[0, 0, 0]",,,1387.0312623000063,1387.0312623000063,,,,,,,,,,,,,,,,,,,,,,,,,,"[0, 0, 0]",,,,,8,f,2,14,r,ARB,2022_Feb_08_1225,2020.2.10,distractmap2,59.99689216002131,"['Right Face', 'Left Face', 'Chest', 'Left Arm']",
2,"[0, 0.2]",1,0,4,4,4,,,,,,,1389.0481419999996,1389.0481419999996,1389.0481419999996,1390.0479758000001,1390.0311818000046,1391.0313027000084,0,None,None,"[0, 0, 0]",,,1389.0481419999996,1389.0481419999996,,,,,,,,,,,,,,,,,,,,,,,,,,"[0, 0, 0]",,,,,8,f,2,14,r,ARB,2022_Feb_08_1225,2020.2.10,distractmap2,59.99689216002131,"['Right Face', 'Left Face', 'Chest', 'Left Arm']",
5,"[0, 0]",0,0,5,5,5,,,,,,,1391.047957600007,None,1391.047957600007,1392.0479723000026,1392.0313072999998,1393.031311300001,0,None,None,"[0, 0, 0]",,,1391.047957600007,None,,,,,,,,,,,,,,,,,,,,,,,,,,"[0, 0, 0]",,,,,8,f,2,14,r,ARB,2022_Feb_08_1225,2020.2.10,distractmap2,59.99689216002131,"['Right Face', 'Left Face', 'Chest', 'Left Arm']",
1,"[-0.2, 0.2]",0,0,6,6,6,,,,,,,1393.047986999998,1393.047986999998,1393.047986999998,1394.0479774999985,1394.0313345000031,1395.0313577000052,0,None,None,"[0, 0, 0]",,,1393.047986999998,1393.047986999998,,,,,,,,,,,,,,,,,,,,,,,,,,"[0, 0, 0]",,,,,8,f,2,14,r,ARB,2022_Feb_08_1225,2020.2.10,distractmap2,59.99689216002131,"['Right Face', 'Left Face', 'Chest', 'Left Arm']",
1,"[-0.2, 0.2]",1,0,7,7,7,,,,,,,1395.047996399997,1395.047996399997,1395.047996399997,1396.048011100007,1396.0313251000043,1397.0313526999962,0,None,None,"[0, 0, 0]",,,1395.047996399997,1395.047996399997,,,,,,,,,,,,,,,,,,,,,,,,,,"[0, 0, 0]",,,,,8,f,2,14,r,ARB,2022_Feb_08_1225,2020.2.10,distractmap2,59.99689216002131,"['Right Face', 'Left Face', 'Chest', 'Left Arm']",
8,"[0, -0.2]",0,0,8,8,8,,,,,,,1397.0480061999988,1397.0480061999988,1397.0480061999988,1398.0480015000066,1398.031359200002,1399.0313656000071,0,None,None,"[0, 0, 0]",,,1397.0480061999988,1397.0480061999988,,,,,,,,,,,,,,,,,,,,,,,,,,"[0, 0, 0]",,,,,8,f,2,14,r,ARB,2022_Feb_08_1225,2020.2.10,distractmap2,59.99689216002131,"['Right Face', 'Left Face', 'Chest', 'Left Arm']",
7,"[-0.2, -0.2]",0,0,9,9,9,,,,,,,1399.0480291999993,1399.0480291999993,1399.0480291999993,1400.0480408000003,1400.0313771000074,1401.031371200006,0,None,None,"[0, 0, 0]",,,1399.0480291999993,1399.0480291999993,,,,,,,,,,,,,,,,,,,,,,,,,,"[0, 0, 0]",,,,,8,f,2,14,r,ARB,2022_Feb_08_1225,2020.2.10,distractmap2,59.99689216002131,"['Right Face', 'Left Face', 'Chest', 'Left Arm']",
