	onset	duration	rt	response	correct	bodySite	temperature	condition	pretrial-jitter
0	2.7642078999924706	7.772585999991861				Chest	48.0	2back Instructions	
1	10.781016799999634	1.983179859991651			1.0	Chest	48.0	2back	
2	12.776162199996179	2.0096145600109594			1.0	Chest	48.0	2back	3.0
3	14.79221059998963	2.0108616599900415	0.0	2.0	1.0	Chest	48.0	2back	
4	16.808878099996946	2.010901260000537	0.0	2.0	1.0	Chest	48.0	2back	
5	18.86195389999193	1.9714384799881373	0.5832402999949409	0.0	1.0	Chest	48.0	2back	
6	20.84228529999382	2.0108078599878354	0.0	2.0	1.0	Chest	48.0	2back	
7	22.859052299987525	2.010649059986463	0.4835382000019308	0.0	1.0	Chest	48.0	2back	
8	24.87570330000017	2.010725359985372	0.0	2.0	1.0	Chest	48.0	2back	
9	26.8928828999924	2.0097033599886345	0.7835385000071255	0.0	1.0	Chest	48.0	2back	
10	28.90912739999476	2.010587159995339	0.9502690999943297	0.0	1.0	Chest	48.0	2back	
11	35.92493729999114	5.012741459984682		32.59259259259259		Chest	48.0	2back Rating	5.0
12	40.93659109999135	45.95656649999728				Chest	48.0	1back Instructions	
13	50.98025290000078	2.0019816599960905			1.0	Chest	48.0	1back	
14	52.97822609999275	2.0060947599849897	0.7967336000001524	0.0	1.0	Chest	48.0	1back	5.0
15	54.97770579998905	2.007163660004153	0.68275179999182	2.0	1.0	Chest	48.0	1back	
16	56.97768099998939	2.0071723599830875	0.5468723000085447	2.0	1.0	Chest	48.0	1back	
17	59.024786800000584	1.9629935400153045	0.5799177999870153	2.0	1.0	Chest	48.0	1back	
18	60.99267459999828	2.0106796600011876	0.4971264999912819	2.0	1.0	Chest	48.0	1back	
19	62.994570999988355	2.006925259993295	0.547135700006038	2.0	1.0	Chest	48.0	1back	
20	64.99432009999873	2.007449960001395	0.780751300000702	2.0	1.0	Chest	48.0	1back	
21	66.99443099999917	2.0072446599951945	0.9135899999964749	2.0	1.0	Chest	48.0	1back	
22	68.9943457999907	2.0074502599891275	0.4972093000105815	0.0	1.0	Chest	48.0	1back	
23	75.99192049998965	5.012777659998392		33.580246913580254		Chest	48.0	1back Rating	5.0
24	81.00306779998937	86.00616199999058				Chest	48.0	2back Instructions	
25	91.0149601999874	1.9998786599899177			1.0	Chest	48.0	2back	
26	93.0266452999931	2.0098724599956768			1.0	Chest	48.0	2back	5.0
27	95.04290960000071	2.0107034599932376	0.35026349998952355	0.0	1.0	Chest	48.0	2back	
28	97.059668899994	2.0105769599904306	0.0	2.0	1.0	Chest	48.0	2back	
29	99.11893189999682	1.9587032799754525	0.7335371000081068	0.0	0.0	Chest	48.0	2back	
30	101.09300929999154	2.010616460000165	0.0	2.0	1.0	Chest	48.0	2back	
31	103.1095776000002	2.0108191600011196	0.9002411000110442	0.0	1.0	Chest	48.0	2back	
32	105.12624599999981	2.010856459994102	0.7335519999905955	0.0	1.0	Chest	48.0	2back	
33	107.14297559999977	2.0107739600061905	1.0670020999968983	0.0	1.0	Chest	48.0	2back	
34	109.1596317999938	2.010828960002982	0.0	2.0	1.0	Chest	48.0	2back	
35	116.17588729999261	5.012114459997974		35.24691358024691		Chest	48.0	2back Rating	5.0
36	121.18715279999014	126.20717059999879				Chest	48.0	1back Instructions	
37	131.2307346999878	2.0022879600146553			1.0	Chest	48.0	1back	
38	133.22861789999297	2.006556759981322			0.0	Chest	48.0	1back	5.0
39	135.22801939999044	2.007777359991451	0.6301067000022158	2.0	1.0	Chest	48.0	1back	
40	137.22832359999302	2.007176259998232	0.9303373000002466	2.0	1.0	Chest	48.0	1back	
41	139.28512109999429	1.9436139400058892	0.5634551999974065	0.0	1.0	Chest	48.0	1back	
42	141.2432359999948	2.0107778599922312	0.9306022000091616	2.0	1.0	Chest	48.0	1back	
43	143.24497519999568	2.007321659999434	0.6134922999917762	2.0	1.0	Chest	48.0	1back	
44	145.24478599999566	2.007728059994406	0.46383809999679215	0.0	1.0	Chest	48.0	1back	
45	147.244738399997	2.007878759992309	0.647105099997134	2.0	1.0	Chest	48.0	1back	
46	149.24481019999075	2.0077644599950872	0.6138581999985036	2.0	1.0	Chest	48.0	1back	
47	158.24230529999477	5.013257859987789		35.925925925925924		Chest	48.0	1back Rating	7.0
48	163.25462929999048	168.27417809999315				Chest	48.0	2back Instructions	
49	171.2987972999981	2.0001379599998472			1.0	Chest	48.0	2back	
50	173.3105477999925	2.0100032599875703			1.0	Chest	48.0	2back	3.0
51	175.32688659999985	2.0106589599890867	0.6168789999937871	0.0	1.0	Chest	48.0	2back	
52	177.3434555999993	2.0108893599826843	0.0	2.0	1.0	Chest	48.0	2back	
53	179.4025985999906	1.959312079998199	0.0	2.0	1.0	Chest	48.0	2back	
54	181.37697159999516	2.0105824599886546	0.0	2.0	1.0	Chest	48.0	2back	
55	183.39345179998782	2.0110007600014796	0.5336788999993587	0.0	1.0	Chest	48.0	2back	
56	185.41019660000165	2.0108998600044288	0.0	2.0	1.0	Chest	48.0	2back	
57	187.4272545999993	2.0101203599915607	0.0	2.0	1.0	Chest	48.0	2back	
58	189.4435431999882	2.0109235599957174	0.8169023999944329	0.0	1.0	Chest	48.0	2back	
59	198.45984070000122	5.0121290600072825		38.39506172839506		Chest	48.0	2back Rating	7.0
60	203.4708452999912	208.491151299997				Chest	48.0	1back Instructions	
61	211.5146672999981	2.0023406599793816			1.0	Chest	48.0	1back	
62	213.51249959999404	2.0067170599941164	0.5305031000025338	0.0	1.0	Chest	48.0	1back	3.0
63	215.51179459999548	2.0081527599832043	0.7805224000039743	2.0	1.0	Chest	48.0	1back	
64	217.51179299999785	2.008173659996828	0.6304601000010734	2.0	1.0	Chest	48.0	1back	
65	219.54497339999944	1.9751717800099868	0.6632191999960924	2.0	1.0	Chest	48.0	1back	
66	221.52724759999546	2.0106910599861294	0.5805668999964837	2.0	1.0	Chest	48.0	1back	
67	223.52928849999444	2.00660325998615	0.613847499989788	2.0	1.0	Chest	48.0	1back	
68	225.5293864999985	2.0064447600016138	0.4806191000097897	2.0	1.0	Chest	48.0	1back	
69	227.52917039999738	2.006910660013091	0.6301104000012856	0.0	1.0	Chest	48.0	1back	
70	229.5293338999909	2.006606559982174	0.4488522000028752	0.0	1.0	Chest	48.0	1back	
71	238.52694329999213	5.011886059990502		37.098765432098766		Chest	48.0	1back Rating	7.0
72	243.53072739999334	248.54145540000172				Chest	48.0	1back Instructions	
73	251.56490299999132	1.985806059994502			1.0	Chest	48.0	1back	
74	253.56116369999654	2.0100335600000108	0.9472967999899993	2.0	1.0	Chest	48.0	1back	3.0
75	255.56280400000105	2.0067737599893007	0.5805626999936067	0.0	1.0	Chest	48.0	1back	
76	257.5624239999888	2.007563159990241	0.530563299995265	2.0	1.0	Chest	48.0	1back	
77	259.59826279999106	1.9692310799873667	0.5133879000059096	2.0	1.0	Chest	48.0	1back	
78	261.5774653999979	2.01084876000823	0.4805205000011483	2.0	1.0	Chest	48.0	1back	
79	263.5795749999961	2.006655259989202	0.4637763999926392	2.0	1.0	Chest	48.0	1back	
80	265.5798466999986	2.006157859999803	0.3971853999973973	2.0	1.0	Chest	48.0	1back	
81	267.57962819999375	2.0066293599811615	0.5138715999928536	2.0	1.0	Chest	48.0	1back	
82	269.5797081999917	2.0064794599893503	0.48056199999700766	0.0	1.0	Chest	48.0	1back	
83	274.576882399997	5.012577060013427		37.28395061728395		Chest	48.0	1back Rating	3.0
84	279.58828260000155	284.60843189999287				Chest	48.0	2back Instructions	
85	291.63286299999163	2.0005403599934652			1.0	Chest	48.0	2back	
86	293.64473759999964	2.010131259987247			1.0	Chest	48.0	2back	7.0
87	295.6612191999884	2.010562760013272	0.0	2.0	1.0	Chest	48.0	2back	
88	297.67781119998835	2.010740760000772	0.0	2.0	1.0	Chest	48.0	2back	
89	299.738849699992	1.9552997800055891	0.4999130000069272	0.0	1.0	Chest	48.0	2back	
90	301.7115143999981	2.0100607599888463	0.5335398000024725	0.0	1.0	Chest	48.0	2back	
91	303.72779449999507	2.010868359982851	0.0	2.0	1.0	Chest	48.0	2back	
92	305.74443469999824	2.010949959993013	0.0	2.0	1.0	Chest	48.0	2back	
93	307.7613316999923	2.0105004600045504	0.0	2.0	1.0	Chest	48.0	2back	
94	309.777820599993	2.0109270599932643	0.6168848000088474	0.0	1.0	Chest	48.0	2back	
95	318.7937697000016	5.012807959981728		36.97530864197531		Chest	48.0	2back Rating	7.0
96	323.8043847999943	328.80849060000037				Chest	48.0	1back Instructions	
97	331.8323911999905	1.9853991599957226			1.0	Chest	48.0	1back	
98	333.8287774999917	2.0093952599854674	0.6804814000061015	0.0	1.0	Chest	48.0	1back	3.0
99	335.8300648000004	2.006815460001235	0.6471888999949442	0.0	1.0	Chest	48.0	1back	
100	337.82954769999196	2.0078663599997526	0.5972220999974525	2.0	1.0	Chest	48.0	1back	
101	339.86675669999386	1.9668088800099213	0.5466547000105493	2.0	1.0	Chest	48.0	1back	
102	341.8447921999905	2.0107948599907104	0.5471705000090878	2.0	1.0	Chest	48.0	1back	
103	343.8468498000002	2.006709959998261	0.8805187999969348	2.0	1.0	Chest	48.0	1back	
104	345.8466771999956	2.007089159989846	0.6970381999999518	2.0	1.0	Chest	48.0	1back	
105	347.84668930000043	2.0070991599932313	0.5467925000120886	2.0	1.0	Chest	48.0	1back	
106	349.8468209999992	2.0068770599900745	0.6471363000018755	0.0	1.0	Chest	48.0	1back	
107	358.84419469999557	5.012585759992362		38.20987654320988		Chest	48.0	1back Rating	7.0
108	363.84818000000087	368.8590550999943				Chest	48.0	1back Instructions	
109	371.882637799994	2.002220859983936			1.0	Chest	48.0	1back	
110	373.8803169999883	2.0069034599873703	0.9304521000012755	2.0	1.0	Chest	48.0	1back	3.0
111	375.88012059999164	2.007316859991988	0.5303150999970967	2.0	1.0	Chest	48.0	1back	
112	377.88006250000035	2.007455460014171	0.5472582999937003	2.0	1.0	Chest	48.0	1back	
113	379.90861179999774	1.9669665200053714	0.5966737999988254	0.0	1.0	Chest	48.0	1back	
114	381.89509499999986	2.0107895599940093	0.6989867999946	2.0	1.0	Chest	48.0	1back	
115	383.89631579999696	2.0083791599899996	0.7160005000041565	2.0	1.0	Chest	48.0	1back	
116	385.8973272000003	2.0063805600075284	0.4138859999948181	0.0	1.0	Chest	48.0	1back	
117	387.8976338999928	2.005830359994434	0.5638505999959307	2.0	1.0	Chest	48.0	1back	
118	389.897398599991	2.0063358599873027	0.5301755999971647	2.0	1.0	Chest	48.0	1back	
119	396.89478599998984	5.01202225999441		39.75308641975309		Chest	48.0	1back Rating	5.0
120	401.8987441999925	406.90937139999005				Chest	48.0	1back Instructions	
121	411.932830699996	2.0024424599978374			1.0	Chest	48.0	1back	
122	413.9307637999882	2.0066269599919906	0.5638697999966098	0.0	1.0	Chest	48.0	1back	5.0
123	415.9302910999977	2.0076373600022634	0.4971263000043109	2.0	1.0	Chest	48.0	1back	
124	417.93028960000083	2.0076812600018457	0.7305743000033544	2.0	1.0	Chest	48.0	1back	
125	419.9646788999962	1.9722332799865399	0.5132451999961631	2.0	0.0	Chest	48.0	1back	
126	421.9454962000018	2.010624860005919	0.6138782000052743	2.0	1.0	Chest	48.0	1back	
127	423.9466354999895	2.008349259995157	0.6139088000054471	2.0	1.0	Chest	48.0	1back	
128	425.9466396999924	2.0083753599756164	0.7138144000055036	2.0	1.0	Chest	48.0	1back	
129	427.9470799999981	2.007543359999545	0.7303499999979977	2.0	1.0	Chest	48.0	1back	
130	429.9466396999924	2.00846365999314	0.3137408000038704	0.0	1.0	Chest	48.0	1back	
131	434.9453849999991	5.011387160004233		39.44444444444444		Chest	48.0	1back Rating	3.0
132	439.95659709999745	444.9763433999906				Chest	48.0	2back Instructions	
133	452.00070419999247	2.0006710599991493			1.0	Chest	48.0	2back	
134	454.01270909998857	2.010024360002717			1.0	Chest	48.0	2back	7.0
135	456.02906839999196	2.010705059990869	0.0	2.0	1.0	Chest	48.0	2back	
136	458.04560889999266	2.0109647599892924	0.0	2.0	1.0	Chest	48.0	2back	
137	460.09323319999385	1.9824182799929986	0.7166164000082063	0.0	1.0	Chest	48.0	2back	
138	462.07917529999395	2.0105813599948306	0.0	2.0	1.0	Chest	48.0	2back	
139	464.09579459999804	2.0107149600080447	0.0	2.0	1.0	Chest	48.0	2back	
140	466.1123235999985	2.0109813599992776	0.7169011999940267	0.0	1.0	Chest	48.0	2back	
141	468.12909370000125	2.010701160004828	0.0	2.0	1.0	Chest	48.0	2back	
142	470.1459370999946	2.0105158599762945	0.46687950000341516	0.0	0.0	Chest	48.0	2back	
143	479.1615682999982	5.013065959996311		38.7037037037037		Chest	48.0	2back Rating	7.0
144	484.1656121999986	489.1766509000008				Chest	48.0	2back Instructions	
145	492.2011419999908	2.0004381600010674			1.0	Chest	48.0	2back	
146	494.21303649999027	2.0099049599957652			1.0	Chest	48.0	2back	3.0
147	496.2293135999935	2.010810459993081	0.4502152999921236	0.0	1.0	Chest	48.0	2back	
148	498.2460929999943	2.0106258599844296	0.0	2.0	1.0	Chest	48.0	2back	
149	500.3200257999997	1.9460918400145601	0.0	2.0	1.0	Chest	48.0	2back	
150	502.27953439998964	2.0104288599977735	0.0	2.0	1.0	Chest	48.0	2back	
151	504.2959822999983	2.010934759993688	0.0	2.0	1.0	Chest	48.0	2back	
152	506.3131932999968	2.0098920599994017	0.0	2.0	1.0	Chest	48.0	2back	
153	508.3293396999943	2.0109301599877654	0.3502197000052547	0.0	1.0	Chest	48.0	2back	
154	510.3460905999964	2.0108142599929124	0.0	2.0	1.0	Chest	48.0	2back	
155	519.3623668999935	5.012072359982994		37.46913580246913		Chest	48.0	2back Rating	7.0
156	524.3663720999903	529.3770233999967				Chest	48.0	2back Instructions	
157	532.4013397999952	2.000646959990263			1.0	Chest	48.0	2back	
158	534.413303399997	2.010106760004419			1.0	Chest	48.0	2back	3.0
159	536.4295511999953	2.011007659995812	0.0	2.0	1.0	Chest	48.0	2back	
160	538.4462597999955	2.0109136599785415	0.6335525000031339	0.0	1.0	Chest	48.0	2back	
161	540.4952645000012	1.9796043800015468	0.0	2.0	1.0	Chest	48.0	2back	
162	542.4800723999942	2.0100097600079607	0.0	2.0	1.0	Chest	48.0	2back	
163	544.4963325999997	2.01087836001534	0.0	2.0	1.0	Chest	48.0	2back	
164	546.5129978999903	2.0108834599959664	0.3695529000106035	0.0	1.0	Chest	48.0	2back	
165	548.5298944999959	2.0104394599911757	0.0	2.0	1.0	Chest	48.0	2back	
166	550.5463662999973	2.010887159995036	0.0	2.0	0.0	Chest	48.0	2back	
167	559.562030999994	5.013363259990001		38.2716049382716		Chest	48.0	2back Rating	7.0
168	564.5732738999941	569.5769158999901				Chest	48.0	1back Instructions	
169	572.5843419000012	1.9852534600067884			1.0	Chest	48.0	1back	
170	574.5804628999904	2.0097593599930406			0.0	Chest	48.0	1back	3.0
171	576.581560199993	2.0075981599948136	1.9471120999951381	2.0	0.0	Chest	48.0	1back	
172	578.5816718999995	2.0074094599985983	0.8804544000013266	2.0	1.0	Chest	48.0	1back	
173	580.6601917999942	1.9170191000011982	0.8132054000016069	2.0	1.0	Chest	48.0	1back	
174	582.5967270999972	2.010671860000002	0.7472752000030596	0.0	0.0	Chest	48.0	1back	
175	584.5979541999986	2.008242159994552	0.980671600002097	2.0	1.0	Chest	48.0	1back	
176	586.5981280999986	2.0079339600051753	0.7305686999898171	2.0	1.0	Chest	48.0	1back	
177	588.5983397999953	2.0075265599880368	1.0639023999974597	0.0	1.0	Chest	48.0	1back	
178	590.598118199996	2.008012559992494	0.9807059000013396	2.0	1.0	Chest	48.0	1back	
179	597.5955893999926	5.013529560004827		37.839506172839506		Chest	48.0	1back Rating	5.0
180	602.607656799999	607.6275674999924				Chest	48.0	2back Instructions	
181	612.6519607999944	2.0006867599877296			1.0	Chest	48.0	2back	
182	614.6640488999983	2.009848059999058			1.0	Chest	48.0	2back	5.0
183	616.68022319999	2.0108766599878436	1.0337750000035157	0.0	1.0	Chest	48.0	2back	
184	618.6969830000016	2.0107094600098208	0.0	2.0	1.0	Chest	48.0	2back	
185	620.748594699995	1.9741706799832173	0.516557399998419	0.0	1.0	Chest	48.0	2back	
186	622.7304621999938	2.010481659992365	0.0	2.0	1.0	Chest	48.0	2back	
187	624.7469716999913	2.010840359987924	0.0	2.0	1.0	Chest	48.0	2back	
188	626.7636910000001	2.010761259982246	0.0	2.0	1.0	Chest	48.0	2back	
189	628.7804777999991	2.010544859993388	0.0	2.0	1.0	Chest	48.0	2back	
190	630.7970429999987	2.0107864599995082	0.6670581999933347	0.0	1.0	Chest	48.0	2back	
191	639.8128842000006	5.01291535999917		40.370370370370374		Chest	48.0	2back Rating	7.0
