RestT1,TaskT1,square,location,corrAns,counterbalancer.thisRepN,counterbalancer.thisTrialN,counterbalancer.thisN,counterbalancer.thisIndex,RestT1Loop.thisRepN,RestT1Loop.thisTrialN,RestT1Loop.thisN,RestT1Loop.thisIndex,TaskT1Loop.thisRepN,TaskT1Loop.thisTrialN,TaskT1Loop.thisN,TaskT1Loop.thisIndex,trials_2.thisRepN,trials_2.thisTrialN,trials_2.thisN,trials_2.thisIndex,NbackInstructions.started,NbackInstructions.stopped,NbackStart.keys,NbackStart.rt,NbackStart.started,NbackStart.stopped,fixation_2.started,fixation_2.stopped,response_2.x,response_2.y,response_2.leftButton,grid_lines_2.started,grid_lines_2.stopped,target_square_2.started,target_square_2.stopped,fixation_3.started,fixation_3.stopped,response_2.click,response_2.corr,response_2.started,response_2.stopped,fixation_1.started,fixation_1.stopped,subject number,gender,session,handedness,scanner,date,expName,psychopyVersion,frameRate,
0,1,,,,0,0,0,0,,,,,0,0,0,0,,,,,21.379905699985102,None,space,58.001539299992146,21.379905699985102,None,,,,,,,,,,,,,,,,,,6,m,11,r,MK,2022_Jan_14_1143,WASABI Nback,2020.2.10,60.0041642962622,
0,1,5,"[0, 0]",None,0,0,0,0,,,,,0,0,0,0,0,0,0,0,,,,,,,None,None,None,None,[],None,None,None,None,None,None,[],[],None,None,,,6,m,11,r,MK,2022_Jan_14_1143,WASABI Nback,2020.2.10,60.0041642962622,
0,1,2,"[0, 0.2]",None,0,0,0,0,,,,,0,0,0,0,0,1,1,1,,,,,,,,,None,None,[],None,None,None,None,None,None,[],[],None,None,,,6,m,11,r,MK,2022_Jan_14_1143,WASABI Nback,2020.2.10,60.0041642962622,
0,1,6,"[0.2, 0]",None,0,0,0,0,,,,,0,0,0,0,0,2,2,2,,,,,,,,,None,None,0,85.57242260000203,None,85.57242260000203,None,None,None,0,1,85.57242260000203,None,,,6,m,11,r,MK,2022_Jan_14_1143,WASABI Nback,2020.2.10,60.0041642962622,
0,1,9,"[0.2, -0.2]",None,0,0,0,0,,,,,0,0,0,0,0,3,3,3,,,,,,,,,None,None,0,86.42241279999143,None,86.42241279999143,87.42241169998306,87.40575410000747,88.40574429999106,0,1,86.42241279999143,None,,,6,m,11,r,MK,2022_Jan_14_1143,WASABI Nback,2020.2.10,60.0041642962622,
0,1,3,"[0.2, 0.2]",None,0,0,0,0,,,,,0,0,0,0,0,4,4,4,,,,,,,,,None,None,0,88.42243859998416,None,88.42243859998416,89.42243529998814,89.4057547999837,90.40578000000096,0,1,88.42243859998416,None,,,6,m,11,r,MK,2022_Jan_14_1143,WASABI Nback,2020.2.10,60.0041642962622,
0,1,9,"[0.2, -0.2]",1,0,0,0,0,,,,,0,0,0,0,0,5,5,5,,,,,,,,,None,None,0,90.4224441999977,None,90.4224441999977,91.42244140000548,91.40578359999927,92.40577169999597,0,1,90.4224441999977,None,,,6,m,11,r,MK,2022_Jan_14_1143,WASABI Nback,2020.2.10,60.0041642962622,
0,1,7,"[-0.2, -0.2]",None,0,0,0,0,,,,,0,0,0,0,0,6,6,6,,,,,,,,,None,None,0,92.42245250000269,None,92.42245250000269,93.42245730001014,93.40579129999969,94.40578219998861,0,1,92.42245250000269,None,,,6,m,11,r,MK,2022_Jan_14_1143,WASABI Nback,2020.2.10,60.0041642962622,
0,1,1,"[-0.2, 0.2]",None,0,0,0,0,,,,,0,0,0,0,0,7,7,7,,,,,,,,,None,None,0,94.42246649999288,None,94.42246649999288,95.42244590001064,95.40580159999081,96.40579970000545,0,1,94.42246649999288,None,,,6,m,11,r,MK,2022_Jan_14_1143,WASABI Nback,2020.2.10,60.0041642962622,
0,1,5,"[0, 0]",None,0,0,0,0,,,,,0,0,0,0,0,8,8,8,,,,,,,,,None,None,0,96.42249510000693,None,96.42249510000693,97.42249759999686,97.40581949998159,98.40582839999115,0,1,96.42249510000693,None,,,6,m,11,r,MK,2022_Jan_14_1143,WASABI Nback,2020.2.10,60.0041642962622,
0,1,7,"[-0.2, -0.2]",None,0,0,0,0,,,,,0,0,0,0,0,9,9,9,,,,,,,,,None,None,0,98.42239239998162,None,98.42239239998162,99.42237980000209,99.40583529998548,100.40582429998904,0,1,98.42239239998162,None,,,6,m,11,r,MK,2022_Jan_14_1143,WASABI Nback,2020.2.10,60.0041642962622,
0,1,5,"[0, 0]",1,0,0,0,0,,,,,0,0,0,0,0,10,10,10,,,,,,,,,None,None,0,100.42252399999416,None,100.42252399999416,101.42252940000617,101.40584890000173,102.40583889998379,0,1,100.42252399999416,None,,,6,m,11,r,MK,2022_Jan_14_1143,WASABI Nback,2020.2.10,60.0041642962622,
0,1,6,"[0.2, 0]",None,0,0,0,0,,,,,0,0,0,0,0,11,11,11,,,,,,,,,None,None,0,102.42249789999914,None,102.42249789999914,103.4225371000066,103.4058662999887,104.40585660000215,0,1,102.42249789999914,None,,,6,m,11,r,MK,2022_Jan_14_1143,WASABI Nback,2020.2.10,60.0041642962622,
0,1,3,"[0.2, 0.2]",None,0,0,0,0,,,,,0,0,0,0,0,12,12,12,,,,,,,,,None,None,0,104.42255170000135,None,104.42255170000135,105.42254910001066,105.40586589998566,106.4058909000014,0,1,104.42255170000135,None,,,6,m,11,r,MK,2022_Jan_14_1143,WASABI Nback,2020.2.10,60.0041642962622,
0,1,6,"[0.2, 0]",1,0,0,0,0,,,,,0,0,0,0,0,13,13,13,,,,,,,,,None,None,0,106.42253549999441,None,106.42253549999441,107.42256690000067,107.40587940000114,108.40590209999937,0,1,106.42253549999441,None,,,6,m,11,r,MK,2022_Jan_14_1143,WASABI Nback,2020.2.10,60.0041642962622,
0,1,8,"[0, -0.2]",None,0,0,0,0,,,,,0,0,0,0,0,14,14,14,,,,,,,,,None,None,0,108.42257209998206,None,108.42257209998206,109.42260580000584,109.40590849998989,110.40591579998727,0,1,108.42257209998206,None,,,6,m,11,r,MK,2022_Jan_14_1143,WASABI Nback,2020.2.10,60.0041642962622,
0,1,9,"[0.2, -0.2]",None,0,0,0,0,,,,,0,0,0,0,0,15,15,15,,,,,,,,,None,None,0,110.42258680000668,None,110.42258680000668,111.42259060000652,111.40591090000817,112.40591619999032,0,1,110.42258680000668,None,,,6,m,11,r,MK,2022_Jan_14_1143,WASABI Nback,2020.2.10,60.0041642962622,
0,1,9,"[0.2, -0.2]",None,0,0,0,0,,,,,0,0,0,0,0,16,16,16,,,,,,,,,None,None,0,112.42261529999087,None,112.42261529999087,113.42260699998587,113.4059278999921,114.40595580000081,0,1,112.42261529999087,None,,,6,m,11,r,MK,2022_Jan_14_1143,WASABI Nback,2020.2.10,60.0041642962622,
0,1,1,"[-0.2, 0.2]",None,0,0,0,0,,,,,0,0,0,0,0,17,17,17,,,,,,,,,None,None,0,114.42262520000804,None,114.42262520000804,115.42263519999688,115.4059609999822,116.40594679999049,0,1,114.42262520000804,None,,,6,m,11,r,MK,2022_Jan_14_1143,WASABI Nback,2020.2.10,60.0041642962622,
0,1,3,"[0.2, 0.2]",None,0,0,0,0,,,,,0,0,0,0,0,18,18,18,,,,,,,,,None,None,0,116.42263089999324,None,116.42263089999324,117.422645499988,117.40597920000437,118.40596750000259,0,1,116.42263089999324,None,,,6,m,11,r,MK,2022_Jan_14_1143,WASABI Nback,2020.2.10,60.0041642962622,
0,1,5,"[0, 0]",None,0,0,0,0,,,,,0,0,0,0,0,19,19,19,,,,,,,,,None,None,0,118.42265520000365,None,118.42265520000365,119.42265639998368,119.40597239998169,120.40599840000505,0,1,118.42265520000365,None,,,6,m,11,r,MK,2022_Jan_14_1143,WASABI Nback,2020.2.10,60.0041642962622,
0,1,3,"[0.2, 0.2]",1,0,0,0,0,,,,,0,0,0,0,0,20,20,20,,,,,,,,,None,None,0,120.42266899999231,None,120.42266899999231,121.4226754999836,121.4059847999888,122.40600319998339,0,1,120.42266899999231,None,,,6,m,11,r,MK,2022_Jan_14_1143,WASABI Nback,2020.2.10,60.0041642962622,
0,1,4,"[-0.2, 0]",None,0,0,0,0,,,,,0,0,0,0,0,21,21,21,,,,,,,,,None,None,0,122.42266149999341,None,122.42266149999341,123.42268200000399,123.40593449998414,124.40601449998212,0,1,122.42266149999341,None,,,6,m,11,r,MK,2022_Jan_14_1143,WASABI Nback,2020.2.10,60.0041642962622,
0,1,7,"[-0.2, -0.2]",None,0,0,0,0,,,,,0,0,0,0,0,22,22,22,,,,,,,,,None,None,0,124.42267959998571,None,124.42267959998571,125.42267639999045,125.4060297999822,126.40602759999456,0,1,124.42267959998571,None,,,6,m,11,r,MK,2022_Jan_14_1143,WASABI Nback,2020.2.10,60.0041642962622,
0,1,4,"[-0.2, 0]",1,0,0,0,0,,,,,0,0,0,0,0,23,23,23,,,,,,,,,None,None,0,126.42270209998242,None,126.42270209998242,127.42269780000788,127.40602829999989,128.4060411999817,0,1,126.42270209998242,None,,,6,m,11,r,MK,2022_Jan_14_1143,WASABI Nback,2020.2.10,60.0041642962622,
0,1,4,"[-0.2, 0]",None,0,0,0,0,,,,,0,0,0,0,0,24,24,24,,,,,,,,,None,None,0,128.4226975000056,None,128.4226975000056,129.4227319000056,129.40606290000142,130.4060499999905,0,1,128.4226975000056,None,,,6,m,11,r,MK,2022_Jan_14_1143,WASABI Nback,2020.2.10,60.0041642962622,
0,1,5,"[0, 0]",None,0,0,0,0,,,,,0,0,0,0,0,25,25,25,,,,,,,,,None,None,0,130.42272659999435,None,130.42272659999435,131.4227217999869,131.40606780000962,132.406069699995,0,1,130.42272659999435,None,,,6,m,11,r,MK,2022_Jan_14_1143,WASABI Nback,2020.2.10,60.0041642962622,
0,1,2,"[0, 0.2]",None,0,0,0,0,,,,,0,0,0,0,0,26,26,26,,,,,,,,,None,None,0,132.42274670000188,None,132.42274670000188,133.42274370000814,133.40608539999812,134.40608709998196,0,1,132.42274670000188,None,,,6,m,11,r,MK,2022_Jan_14_1143,WASABI Nback,2020.2.10,60.0041642962622,
0,1,6,"[0.2, 0]",None,0,0,0,0,,,,,0,0,0,0,0,27,27,27,,,,,,,,,None,None,0,134.42274629999883,None,134.42274629999883,135.42276909999782,135.4060921999917,136.40610550000565,0,1,134.42274629999883,None,,,6,m,11,r,MK,2022_Jan_14_1143,WASABI Nback,2020.2.10,60.0041642962622,
0,1,7,"[-0.2, -0.2]",None,0,0,0,0,,,,,0,0,0,0,0,28,28,28,,,,,,,,,None,None,0,136.42277060000924,None,136.42277060000924,137.4227668000094,137.40612569998484,138.40613550000126,0,1,136.42277060000924,None,,,6,m,11,r,MK,2022_Jan_14_1143,WASABI Nback,2020.2.10,60.0041642962622,
0,1,6,"[0.2, 0]",1,0,0,0,0,,,,,0,0,0,0,0,29,29,29,,,,,,,,,None,None,0,138.42277259999537,None,138.42277259999537,139.4227957999974,139.4061337999883,140.40614449998247,0,1,138.42277259999537,None,,,6,m,11,r,MK,2022_Jan_14_1143,WASABI Nback,2020.2.10,60.0041642962622,
0,1,6,"[0.2, 0]",None,0,0,0,0,,,,,0,0,0,0,0,30,30,30,,,,,,,,,None,None,0,140.42280929998378,None,140.42280929998378,141.42280430000392,141.40613519999897,142.40616059998865,0,1,140.42280929998378,None,,,6,m,11,r,MK,2022_Jan_14_1143,WASABI Nback,2020.2.10,60.0041642962622,
0,1,7,"[-0.2, -0.2]",None,0,0,0,0,,,,,0,0,0,0,0,31,31,31,,,,,,,,,None,None,0,142.42281899999944,None,142.42281899999944,143.4227593000105,143.40616549999686,144.40616549999686,0,0,142.42281899999944,None,,,6,m,11,r,MK,2022_Jan_14_1143,WASABI Nback,2020.2.10,60.0041642962622,
0,1,6,"[0.2, 0]",1,0,0,0,0,,,,,0,0,0,0,0,32,32,32,,,,,,,,,None,None,0,144.4228274000052,None,144.4228274000052,145.4228307000012,145.40618379999069,146.4061943999841,0,1,144.4228274000052,None,,,6,m,11,r,MK,2022_Jan_14_1143,WASABI Nback,2020.2.10,60.0041642962622,
0,1,2,"[0, 0.2]",None,0,0,0,0,,,,,0,0,0,0,0,33,33,33,,,,,,,,,None,None,0,146.42285129998345,None,146.42285129998345,147.4228737000085,147.4062031999929,148.40620689999196,0,1,146.42285129998345,None,,,6,m,11,r,MK,2022_Jan_14_1143,WASABI Nback,2020.2.10,60.0041642962622,
0,1,5,"[0, 0]",None,0,0,0,0,,,,,0,0,0,0,0,34,34,34,,,,,,,,,None,None,0,148.42286649998277,None,148.42286649998277,149.42287589999614,149.40619609999703,150.40621580000152,0,1,148.42286649998277,None,,,6,m,11,r,MK,2022_Jan_14_1143,WASABI Nback,2020.2.10,60.0041642962622,
0,1,4,"[-0.2, 0]",None,0,0,0,0,,,,,0,0,0,0,0,35,35,35,,,,,,,,,None,None,0,150.42287459998624,None,150.42287459998624,151.42289300000994,151.40623520000372,152.4062284999818,0,1,150.42287459998624,None,,,6,m,11,r,MK,2022_Jan_14_1143,WASABI Nback,2020.2.10,60.0041642962622,
0,1,4,"[-0.2, 0]",None,0,0,0,0,,,,,0,0,0,0,0,36,36,36,,,,,,,,,None,None,0,152.42288289999124,None,152.42288289999124,153.4228804000013,153.40624829998706,154.40624720000778,0,1,152.42288289999124,None,,,6,m,11,r,MK,2022_Jan_14_1143,WASABI Nback,2020.2.10,60.0041642962622,
0,1,7,"[-0.2, -0.2]",None,0,0,0,0,,,,,0,0,0,0,0,37,37,37,,,,,,,,,None,None,0,154.42292019998422,None,154.42292019998422,155.42292250000173,155.40625999998883,156.40625549998367,0,1,154.42292019998422,None,,,6,m,11,r,MK,2022_Jan_14_1143,WASABI Nback,2020.2.10,60.0041642962622,
0,1,4,"[-0.2, 0]",1,0,0,0,0,,,,,0,0,0,0,0,38,38,38,,,,,,,,,None,None,0,156.4229231000063,None,156.4229231000063,157.42293299999437,157.4062758999935,158.40626069999416,0,1,156.4229231000063,None,,,6,m,11,r,MK,2022_Jan_14_1143,WASABI Nback,2020.2.10,60.0041642962622,
0,1,3,"[0.2, 0.2]",None,0,0,0,0,,,,,0,0,0,0,0,39,39,39,,,,,,,,,None,None,0,158.4229217999964,None,158.4229217999964,159.4229478999914,159.40629099999205,160.40628969998215,0,1,158.4229217999964,None,,,6,m,11,r,MK,2022_Jan_14_1143,WASABI Nback,2020.2.10,60.0041642962622,
0,1,5,"[0, 0]",None,0,0,0,0,,,,,0,0,0,0,0,40,40,40,,,,,,,,,None,None,0,160.42295609999564,None,160.42295609999564,161.4229450999992,161.40629519999493,162.4061812,0,1,160.42295609999564,None,,,6,m,11,r,MK,2022_Jan_14_1143,WASABI Nback,2020.2.10,60.0041642962622,
0,1,3,"[0.2, 0.2]",1,0,0,0,0,,,,,0,0,0,0,0,41,41,41,,,,,,,,,None,None,0,162.4229694000096,None,162.4229694000096,163.42298189998837,163.40629600000102,164.4063182999962,0,1,162.4229694000096,None,,,6,m,11,r,MK,2022_Jan_14_1143,WASABI Nback,2020.2.10,60.0041642962622,
0,1,1,"[-0.2, 0.2]",None,0,0,0,0,,,,,0,0,0,0,0,42,42,42,,,,,,,,,None,None,0,164.42296480000368,None,164.42296480000368,165.42292529999395,165.4063402999891,166.40633609998622,0,1,164.42296480000368,None,,,6,m,11,r,MK,2022_Jan_14_1143,WASABI Nback,2020.2.10,60.0041642962622,
0,1,9,"[0.2, -0.2]",None,0,0,0,0,,,,,0,0,0,0,0,43,43,43,,,,,,,,,None,None,0,166.4230081999849,None,166.4230081999849,167.4229967999854,167.4063460000034,168.40634929999942,0,1,166.4230081999849,None,,,6,m,11,r,MK,2022_Jan_14_1143,WASABI Nback,2020.2.10,60.0041642962622,
0,1,9,"[0.2, -0.2]",None,0,0,0,0,,,,,0,0,0,0,0,44,44,44,,,,,,,,,None,None,0,168.42301540001063,None,168.42301540001063,169.42301379999844,169.4063649000018,170.40638390000095,0,1,168.42301540001063,None,,,6,m,11,r,MK,2022_Jan_14_1143,WASABI Nback,2020.2.10,60.0041642962622,
0,1,8,"[0, -0.2]",None,0,0,0,0,,,,,0,0,0,0,0,45,45,45,,,,,,,,,None,None,0,170.423028899997,None,170.423028899997,171.42307220000657,171.40637169999536,172.40637670000433,0,1,170.423028899997,None,,,6,m,11,r,MK,2022_Jan_14_1143,WASABI Nback,2020.2.10,60.0041642962622,
0,1,6,"[0.2, 0]",None,0,0,0,0,,,,,0,0,0,0,0,46,46,46,,,,,,,,,None,None,0,172.42303909998736,None,172.42303909998736,173.42303869998432,173.40641019999748,174.40640879998682,0,1,172.42303909998736,None,,,6,m,11,r,MK,2022_Jan_14_1143,WASABI Nback,2020.2.10,60.0041642962622,
0,1,3,"[0.2, 0.2]",None,0,0,0,0,,,,,0,0,0,0,0,47,47,47,,,,,,,,,None,None,0,174.4230527000036,None,174.4230527000036,175.42306269999244,175.40640720000374,176.40642579999985,0,1,174.4230527000036,None,,,6,m,11,r,MK,2022_Jan_14_1143,WASABI Nback,2020.2.10,60.0041642962622,
0,1,6,"[0.2, 0]",1,0,0,0,0,,,,,0,0,0,0,0,48,48,48,,,,,,,,,None,None,0,176.4230736999889,None,176.4230736999889,177.42310489999363,177.40642869999283,178.40643149998505,0,1,176.4230736999889,None,,,6,m,11,r,MK,2022_Jan_14_1143,WASABI Nback,2020.2.10,60.0041642962622,
0,1,5,"[0, 0]",None,0,0,0,0,,,,,0,0,0,0,0,49,49,49,,,,,,,,,None,None,0,178.4230961999856,None,178.4230961999856,179.42310429998906,179.4064403999946,180.4064540999825,0,1,178.4230961999856,None,,,6,m,11,r,MK,2022_Jan_14_1143,WASABI Nback,2020.2.10,60.0041642962622,
0,1,7,"[-0.2, -0.2]",None,0,0,0,0,,,,,0,0,0,0,0,50,50,50,,,,,,,,,None,None,0,180.42311499998323,None,180.42311499998323,181.42313300000387,181.40644809999503,182.40645660000155,0,1,180.42311499998323,None,,,6,m,11,r,MK,2022_Jan_14_1143,WASABI Nback,2020.2.10,60.0041642962622,
0,1,5,"[0, 0]",1,0,0,0,0,,,,,0,0,0,0,0,51,51,51,,,,,,,,,None,None,0,182.42312649998348,None,182.42312649998348,183.42312709998805,183.4064567000023,184.40650039998582,0,1,182.42312649998348,None,,,6,m,11,r,MK,2022_Jan_14_1143,WASABI Nback,2020.2.10,60.0041642962622,
0,1,1,"[-0.2, 0.2]",None,0,0,0,0,,,,,0,0,0,0,0,52,52,52,,,,,,,,,None,None,0,184.42315019998932,None,184.42315019998932,185.42314659999101,185.40649210000993,186.40648149998742,0,1,184.42315019998932,None,,,6,m,11,r,MK,2022_Jan_14_1143,WASABI Nback,2020.2.10,60.0041642962622,
0,1,7,"[-0.2, -0.2]",None,0,0,0,0,,,,,0,0,0,0,0,53,53,53,,,,,,,,,None,None,0,186.42315580000286,None,186.42315580000286,187.4231740999967,187.40649960000883,188.4064970999898,0,1,186.42315580000286,None,,,6,m,11,r,MK,2022_Jan_14_1143,WASABI Nback,2020.2.10,60.0041642962622,
0,1,9,"[0.2, -0.2]",None,0,0,0,0,,,,,0,0,0,0,0,54,54,54,,,,,,,,,None,None,0,188.42315580000286,None,188.42315580000286,189.42316770000616,189.40652829999453,190.40652379998937,0,1,188.42315580000286,None,,,6,m,11,r,MK,2022_Jan_14_1143,WASABI Nback,2020.2.10,60.0041642962622,
0,1,3,"[0.2, 0.2]",None,0,0,0,0,,,,,0,0,0,0,0,55,55,55,,,,,,,,,None,None,0,190.42319770000177,None,190.42319770000177,191.42318149999483,191.4065333000035,192.40654759999597,0,1,190.42319770000177,None,,,6,m,11,r,MK,2022_Jan_14_1143,WASABI Nback,2020.2.10,60.0041642962622,
0,1,9,"[0.2, -0.2]",1,0,0,0,0,,,,,0,0,0,0,0,56,56,56,,,,,,,,,None,None,0,192.42320570000447,None,192.42320570000447,193.4232306999911,193.40654429999995,194.4065518999996,0,1,192.42320570000447,None,,,6,m,11,r,MK,2022_Jan_14_1143,WASABI Nback,2020.2.10,60.0041642962622,
0,1,6,"[0.2, 0]",None,0,0,0,0,,,,,0,0,0,0,0,57,57,57,,,,,,,,,None,None,0,194.42321429998265,None,194.42321429998265,195.42312469999888,195.40656219999073,196.40656860001036,0,1,194.42321429998265,None,,,6,m,11,r,MK,2022_Jan_14_1143,WASABI Nback,2020.2.10,60.0041642962622,
0,1,2,"[0, 0.2]",None,0,0,0,0,,,,,0,0,0,0,0,58,58,58,,,,,,,,,None,None,0,196.4232473000011,None,196.4232473000011,197.42324969999027,197.40655330001027,198.40658720000647,0,1,196.4232473000011,None,,,6,m,11,r,MK,2022_Jan_14_1143,WASABI Nback,2020.2.10,60.0041642962622,
0,1,5,"[0, 0]",None,0,0,0,0,,,,,0,0,0,0,0,59,59,59,,,,,,,,,None,None,0,198.42324060000828,None,198.42324060000828,199.42325769999297,199.40657940000528,200.4065886999888,0,1,198.42324060000828,None,,,6,m,11,r,MK,2022_Jan_14_1143,WASABI Nback,2020.2.10,60.0041642962622,
0,1,5,"[0, 0]",None,0,0,0,0,,,,,0,0,0,0,0,60,60,60,,,,,,,,,None,None,0,200.42323939999915,None,200.42323939999915,201.42326290000346,201.4065992999822,202.40661179999006,0,1,200.42323939999915,None,,,6,m,11,r,MK,2022_Jan_14_1143,WASABI Nback,2020.2.10,60.0041642962622,
0,1,2,"[0, 0.2]",None,0,0,0,0,,,,,0,0,0,0,0,61,61,61,,,,,,,,,None,None,0,202.42326989999856,None,202.42326989999856,203.4232839999895,203.4066354999959,204.40661679999903,0,0,202.42326989999856,None,,,6,m,11,r,MK,2022_Jan_14_1143,WASABI Nback,2020.2.10,60.0041642962622,
0,1,6,"[0.2, 0]",None,0,0,0,0,,,,,0,0,0,0,0,62,62,62,,,,,,,,,None,None,0,204.42327880000812,None,204.42327880000812,205.42329449998215,205.40662259998498,206.40664860000834,0,1,204.42327880000812,None,,,6,m,11,r,MK,2022_Jan_14_1143,WASABI Nback,2020.2.10,60.0041642962622,
0,1,9,"[0.2, -0.2]",None,0,0,0,0,,,,,0,0,0,0,0,63,63,63,,,,,,,,,None,None,0,206.42331369998283,None,206.42331369998283,207.42330739999306,207.40664269999252,208.4066552000004,0,1,206.42331369998283,None,,,6,m,11,r,MK,2022_Jan_14_1143,WASABI Nback,2020.2.10,60.0041642962622,
0,1,3,"[0.2, 0.2]",None,0,0,0,0,,,,,0,0,0,0,0,64,64,64,,,,,,,,,None,None,0,208.42331579999882,None,208.42331579999882,209.42335470000398,209.4066552000004,210.40659820000292,0,1,208.42331579999882,None,,,6,m,11,r,MK,2022_Jan_14_1143,WASABI Nback,2020.2.10,60.0041642962622,
0,1,9,"[0.2, -0.2]",1,0,0,0,0,,,,,0,0,0,0,0,65,65,65,,,,,,,,,None,None,0,210.42333620000863,None,210.42333620000863,211.42335189998266,211.40666829998372,212.40669329999946,0,1,210.42333620000863,None,,,6,m,11,r,MK,2022_Jan_14_1143,WASABI Nback,2020.2.10,60.0041642962622,
0,1,7,"[-0.2, -0.2]",None,0,0,0,0,,,,,0,0,0,0,0,66,66,66,,,,,,,,,None,None,0,212.4233556999825,None,212.4233556999825,213.42336469999282,213.40667520000716,214.40668029998778,0,1,212.4233556999825,None,,,6,m,11,r,MK,2022_Jan_14_1143,WASABI Nback,2020.2.10,60.0041642962622,
0,1,1,"[-0.2, 0.2]",None,0,0,0,0,,,,,0,0,0,0,0,67,67,67,,,,,,,,,None,None,0,214.42340709999553,None,214.42340709999553,215.42337499998393,215.40668479999295,216.40669879998313,0,1,214.42340709999553,None,,,6,m,11,r,MK,2022_Jan_14_1143,WASABI Nback,2020.2.10,60.0041642962622,
0,1,5,"[0, 0]",None,0,0,0,0,,,,,0,0,0,0,0,68,68,68,,,,,,,,,None,None,0,216.42337959998986,None,216.42337959998986,217.4233830999874,217.4067214000097,218.4067226999905,0,1,216.42337959998986,None,,,6,m,11,r,MK,2022_Jan_14_1143,WASABI Nback,2020.2.10,60.0041642962622,
0,1,7,"[-0.2, -0.2]",None,0,0,0,0,,,,,0,0,0,0,0,69,69,69,,,,,,,,,None,None,0,218.4233957999968,None,218.4233957999968,219.4234196000034,219.40674109998508,220.40674010000657,0,1,218.4233957999968,None,,,6,m,11,r,MK,2022_Jan_14_1143,WASABI Nback,2020.2.10,60.0041642962622,
0,1,5,"[0, 0]",1,0,0,0,0,,,,,0,0,0,0,0,70,70,70,,,,,,,,,None,None,0,220.42339539999375,None,220.42339539999375,221.42341560000204,221.4067367000098,222.40674400000717,0,1,220.42339539999375,None,,,6,m,11,r,MK,2022_Jan_14_1143,WASABI Nback,2020.2.10,60.0041642962622,
0,1,6,"[0.2, 0]",None,0,0,0,0,,,,,0,0,0,0,0,71,71,71,,,,,,,,,None,None,0,222.42342129998724,None,222.42342129998724,223.42344409998623,223.40676959999837,224.40676179999718,0,1,222.42342129998724,None,,,6,m,11,r,MK,2022_Jan_14_1143,WASABI Nback,2020.2.10,60.0041642962622,
0,1,3,"[0.2, 0.2]",None,0,0,0,0,,,,,0,0,0,0,0,72,72,72,,,,,,,,,None,None,0,224.42344980000053,None,224.42344980000053,225.42344610000146,225.4067900000082,226.4067842999939,0,1,224.42344980000053,None,,,6,m,11,r,MK,2022_Jan_14_1143,WASABI Nback,2020.2.10,60.0041642962622,
0,1,6,"[0.2, 0]",1,0,0,0,0,,,,,0,0,0,0,0,73,73,73,,,,,,,,,None,None,0,226.42334229999688,None,226.42334229999688,227.42346220000763,227.40678130000015,228.4067936000065,0,0,226.42334229999688,None,,,6,m,11,r,MK,2022_Jan_14_1143,WASABI Nback,2020.2.10,60.0041642962622,
0,1,8,"[0, -0.2]",None,0,0,0,0,,,,,0,0,0,0,0,74,74,74,,,,,,,,,None,None,0,228.42345100000966,None,228.42345100000966,229.4234887000057,229.40680870000506,230.40680430000066,0,1,228.42345100000966,None,,,6,m,11,r,MK,2022_Jan_14_1143,WASABI Nback,2020.2.10,60.0041642962622,
0,1,9,"[0.2, -0.2]",None,0,0,0,0,,,,,0,0,0,0,0,75,75,75,,,,,,,,,None,None,0,230.4233658000012,None,230.4233658000012,231.42347350000637,231.40681419998873,232.40682820000802,0,1,230.4233658000012,None,,,6,m,11,r,MK,2022_Jan_14_1143,WASABI Nback,2020.2.10,60.0041642962622,
0,1,9,"[0.2, -0.2]",None,0,0,0,0,,,,,0,0,0,0,0,76,76,76,,,,,,,,,None,None,0,232.423515100003,None,232.423515100003,233.423506799998,233.40683980000904,234.4068360000092,0,1,232.423515100003,None,,,6,m,11,r,MK,2022_Jan_14_1143,WASABI Nback,2020.2.10,60.0041642962622,
0,1,1,"[-0.2, 0.2]",None,0,0,0,0,,,,,0,0,0,0,0,77,77,77,,,,,,,,,None,None,0,234.42352039998514,None,234.42352039998514,235.42352710000705,235.40684029998374,236.40685289999237,0,1,234.42352039998514,None,,,6,m,11,r,MK,2022_Jan_14_1143,WASABI Nback,2020.2.10,60.0041642962622,
0,1,3,"[0.2, 0.2]",None,0,0,0,0,,,,,0,0,0,0,0,78,78,78,,,,,,,,,None,None,0,236.42352389998268,None,236.42352389998268,237.42353440000443,237.40687189999153,238.40686540000024,0,1,236.42352389998268,None,,,6,m,11,r,MK,2022_Jan_14_1143,WASABI Nback,2020.2.10,60.0041642962622,
0,1,5,"[0, 0]",None,0,0,0,0,,,,,0,0,0,0,0,79,79,79,,,,,,,,,None,None,0,238.4235536000051,None,238.4235536000051,239.42355139998836,239.40687129998696,240.4069038000016,0,1,238.4235536000051,None,,,6,m,11,r,MK,2022_Jan_14_1143,WASABI Nback,2020.2.10,60.0041642962622,
0,1,3,"[0.2, 0.2]",1,0,0,0,0,,,,,0,0,0,0,0,80,80,80,,,,,,,,,None,None,0,240.42359920000308,None,240.42359920000308,241.4235761000018,241.4069007000071,242.40690390000236,0,1,240.42359920000308,None,,,6,m,11,r,MK,2022_Jan_14_1143,WASABI Nback,2020.2.10,60.0041642962622,
0,1,4,"[-0.2, 0]",None,0,0,0,0,,,,,0,0,0,0,0,81,81,81,,,,,,,,,None,None,0,242.42357260000426,None,242.42357260000426,243.42358840000816,243.4069138999912,244.4069174999895,0,1,242.42357260000426,None,,,6,m,11,r,MK,2022_Jan_14_1143,WASABI Nback,2020.2.10,60.0041642962622,
0,1,7,"[-0.2, -0.2]",None,0,0,0,0,,,,,0,0,0,0,0,82,82,82,,,,,,,,,None,None,0,244.4235999000084,None,244.4235999000084,245.42360039998312,245.40692300000228,246.4069285999867,0,1,244.4235999000084,None,,,6,m,11,r,MK,2022_Jan_14_1143,WASABI Nback,2020.2.10,60.0041642962622,
0,1,4,"[-0.2, 0]",1,0,0,0,0,,,,,0,0,0,0,0,83,83,83,,,,,,,,,None,None,0,246.4236641000025,None,246.4236641000025,247.42361269998946,247.4069279000105,248.4069457000005,0,0,246.4236641000025,None,,,6,m,11,r,MK,2022_Jan_14_1143,WASABI Nback,2020.2.10,60.0041642962622,
0,1,4,"[-0.2, 0]",None,0,0,0,0,,,,,0,0,0,0,0,84,84,84,,,,,,,,,None,None,0,248.4236236999859,None,248.4236236999859,249.4236222000036,249.4069579000061,250.40695289999712,0,1,248.4236236999859,None,,,6,m,11,r,MK,2022_Jan_14_1143,WASABI Nback,2020.2.10,60.0041642962622,
0,1,5,"[0, 0]",None,0,0,0,0,,,,,0,0,0,0,0,85,85,85,,,,,,,,,None,None,0,250.4236302000063,None,250.4236302000063,251.42352859998937,251.406879999995,252.40697189999628,0,1,250.4236302000063,None,,,6,m,11,r,MK,2022_Jan_14_1143,WASABI Nback,2020.2.10,60.0041642962622,
0,1,2,"[0, 0.2]",None,0,0,0,0,,,,,0,0,0,0,0,86,86,86,,,,,,,,,None,None,0,252.42364709998947,None,252.42364709998947,253.42365019998397,253.4069821999874,254.4069865999918,0,1,252.42364709998947,None,,,6,m,11,r,MK,2022_Jan_14_1143,WASABI Nback,2020.2.10,60.0041642962622,
0,1,6,"[0.2, 0]",None,0,0,0,0,,,,,0,0,0,0,0,87,87,87,,,,,,,,,None,None,0,254.42367200000444,None,254.42367200000444,255.4236707999953,255.4069945999945,256.40700669999933,0,1,254.42367200000444,None,,,6,m,11,r,MK,2022_Jan_14_1143,WASABI Nback,2020.2.10,60.0041642962622,
0,1,7,"[-0.2, -0.2]",None,0,0,0,0,,,,,0,0,0,0,0,88,88,88,,,,,,,,,None,None,0,256.42369480000343,None,256.42369480000343,257.42368229999556,257.40700350000407,258.4070100999961,0,1,256.42369480000343,None,,,6,m,11,r,MK,2022_Jan_14_1143,WASABI Nback,2020.2.10,60.0041642962622,
0,1,6,"[0.2, 0]",1,0,0,0,0,,,,,0,0,0,0,0,89,89,89,,,,,,,,,None,None,0,258.4236883999838,None,258.4236883999838,259.4236969999911,259.40703249999206,260.40703689999646,0,1,258.4236883999838,None,,,6,m,11,r,MK,2022_Jan_14_1143,WASABI Nback,2020.2.10,60.0041642962622,
0,1,6,"[0.2, 0]",None,0,0,0,0,,,,,0,0,0,0,0,90,90,90,,,,,,,,,None,None,0,260.42371179998736,None,260.42371179998736,261.42370660000597,261.4069528999971,262.4070636999968,0,1,260.42371179998736,None,,,6,m,11,r,MK,2022_Jan_14_1143,WASABI Nback,2020.2.10,60.0041642962622,
0,1,7,"[-0.2, -0.2]",None,0,0,0,0,,,,,0,0,0,0,0,91,91,91,,,,,,,,,None,None,0,262.4237204999954,None,262.4237204999954,263.42372059999616,263.40704829999595,264.4070522999973,0,0,262.4237204999954,None,,,6,m,11,r,MK,2022_Jan_14_1143,WASABI Nback,2020.2.10,60.0041642962622,
0,1,6,"[0.2, 0]",1,0,0,0,0,,,,,0,0,0,0,0,92,92,92,,,,,,,,,None,None,0,264.42373360000784,None,264.42373360000784,265.4237528000085,265.4070856999897,266.40707680000924,0,0,264.42373360000784,None,,,6,m,11,r,MK,2022_Jan_14_1143,WASABI Nback,2020.2.10,60.0041642962622,
0,1,2,"[0, 0.2]",None,0,0,0,0,,,,,0,0,0,0,0,93,93,93,,,,,,,,,None,None,0,266.4237409000052,None,266.4237409000052,267.42375859999447,267.4071011999913,268.4071190000104,0,1,266.4237409000052,None,,,6,m,11,r,MK,2022_Jan_14_1143,WASABI Nback,2020.2.10,60.0041642962622,
0,1,5,"[0, 0]",None,0,0,0,0,,,,,0,0,0,0,0,94,94,94,,,,,,,,,None,None,0,268.42376619999413,None,268.42376619999413,269.4237608999829,269.40710260000196,270.40713109998615,0,1,268.42376619999413,None,,,6,m,11,r,MK,2022_Jan_14_1143,WASABI Nback,2020.2.10,60.0041642962622,
0,1,4,"[-0.2, 0]",None,0,0,0,0,,,,,0,0,0,0,0,95,95,95,,,,,,,,,None,None,0,270.42378069998813,None,270.42378069998813,271.42379309999524,271.4071304000099,272.40712570000323,0,1,270.42378069998813,None,,,6,m,11,r,MK,2022_Jan_14_1143,WASABI Nback,2020.2.10,60.0041642962622,
0,1,4,"[-0.2, 0]",None,0,0,0,0,,,,,0,0,0,0,0,96,96,96,,,,,,,,,None,None,0,272.42378069998813,None,272.42378069998813,273.4238017000025,273.4071485000022,274.4071427999879,0,1,272.42378069998813,None,,,6,m,11,r,MK,2022_Jan_14_1143,WASABI Nback,2020.2.10,60.0041642962622,
0,1,7,"[-0.2, -0.2]",None,0,0,0,0,,,,,0,0,0,0,0,97,97,97,,,,,,,,,None,None,0,274.4238142000104,None,274.4238142000104,275.4238769999938,275.40716080000857,276.4071694999875,0,1,274.4238142000104,None,,,6,m,11,r,MK,2022_Jan_14_1143,WASABI Nback,2020.2.10,60.0041642962622,
0,1,4,"[-0.2, 0]",1,0,0,0,0,,,,,0,0,0,0,0,98,98,98,,,,,,,,,None,None,0,276.423830499989,None,276.423830499989,277.4238467999967,277.4071789000009,278.40716549998615,0,1,276.423830499989,None,,,6,m,11,r,MK,2022_Jan_14_1143,WASABI Nback,2020.2.10,60.0041642962622,
0,1,3,"[0.2, 0.2]",None,0,0,0,0,,,,,0,0,0,0,0,99,99,99,,,,,,,,,None,None,0,278.4238466999959,None,278.4238466999959,279.42384689999744,279.4071932999941,280.4071919999842,0,1,278.4238466999959,None,,,6,m,11,r,MK,2022_Jan_14_1143,WASABI Nback,2020.2.10,60.0041642962622,
0,1,5,"[0, 0]",None,0,0,0,0,,,,,0,0,0,0,0,100,100,100,,,,,,,,,None,None,0,280.42384579998907,None,280.42384579998907,281.42385459999787,281.40720719998353,282.4072664999985,0,1,280.42384579998907,None,,,6,m,11,r,MK,2022_Jan_14_1143,WASABI Nback,2020.2.10,60.0041642962622,
0,1,3,"[0.2, 0.2]",1,0,0,0,0,,,,,0,0,0,0,0,101,101,101,,,,,,,,,None,None,0,282.42387709999457,None,282.42387709999457,283.4238925999962,283.40721000000485,284.4072227999859,0,1,282.42387709999457,None,,,6,m,11,r,MK,2022_Jan_14_1143,WASABI Nback,2020.2.10,60.0041642962622,
0,1,1,"[-0.2, 0.2]",None,0,0,0,0,,,,,0,0,0,0,0,102,102,102,,,,,,,,,None,None,0,284.42388409998966,None,284.42388409998966,285.42389499998535,285.4072288000025,286.40723789998447,0,1,284.42388409998966,None,,,6,m,11,r,MK,2022_Jan_14_1143,WASABI Nback,2020.2.10,60.0041642962622,
0,1,9,"[0.2, -0.2]",None,0,0,0,0,,,,,0,0,0,0,0,103,103,103,,,,,,,,,None,None,0,286.4239114999946,None,286.4239114999946,287.42391310000676,287.40724569998565,288.40723670000443,0,1,286.4239114999946,None,,,6,m,11,r,MK,2022_Jan_14_1143,WASABI Nback,2020.2.10,60.0041642962622,
0,1,9,"[0.2, -0.2]",None,0,0,0,0,,,,,0,0,0,0,0,104,104,104,,,,,,,,,None,None,0,288.4239181999874,None,288.4239181999874,289.42391569999745,289.4072690999892,290.40732639998896,0,1,288.4239181999874,None,,,6,m,11,r,MK,2022_Jan_14_1143,WASABI Nback,2020.2.10,60.0041642962622,
0,1,8,"[0, -0.2]",None,0,0,0,0,,,,,0,0,0,0,0,105,105,105,,,,,,,,,None,None,0,290.4239331999852,None,290.4239331999852,291.4239396000048,291.40727419999894,292.407294500008,0,1,290.4239331999852,None,,,6,m,11,r,MK,2022_Jan_14_1143,WASABI Nback,2020.2.10,60.0041642962622,
0,1,6,"[0.2, 0]",None,0,0,0,0,,,,,0,0,0,0,0,106,106,106,,,,,,,,,None,None,0,292.42395189998206,None,292.42395189998206,293.42394209999475,293.40729430000647,294.4072925999935,0,1,292.42395189998206,None,,,6,m,11,r,MK,2022_Jan_14_1143,WASABI Nback,2020.2.10,60.0041642962622,
0,1,3,"[0.2, 0.2]",None,0,0,0,0,,,,,0,0,0,0,0,107,107,107,,,,,,,,,None,None,0,294.4239621000015,None,294.4239621000015,295.42397730000084,295.40730809999513,296.4073146999872,0,1,294.4239621000015,None,,,6,m,11,r,MK,2022_Jan_14_1143,WASABI Nback,2020.2.10,60.0041642962622,
0,1,6,"[0.2, 0]",1,0,0,0,0,,,,,0,0,0,0,0,108,108,108,,,,,,,,,None,None,0,296.4239615999977,None,296.4239615999977,297.42397939998773,297.40733449999243,298.40733570000157,0,1,296.4239615999977,None,,,6,m,11,r,MK,2022_Jan_14_1143,WASABI Nback,2020.2.10,60.0041642962622,
0,1,5,"[0, 0]",None,0,0,0,0,,,,,0,0,0,0,0,109,109,109,,,,,,,,,None,None,0,298.42400289999205,None,298.42400289999205,299.42400470000575,299.4073359000031,300.40735619998304,0,1,298.42400289999205,None,,,6,m,11,r,MK,2022_Jan_14_1143,WASABI Nback,2020.2.10,60.0041642962622,
0,1,7,"[-0.2, -0.2]",None,0,0,0,0,,,,,0,0,0,0,0,110,110,110,,,,,,,,,None,None,0,300.42401059999247,None,300.42401059999247,301.4240035999974,301.4073560999823,302.40737249999074,0,1,300.42401059999247,None,,,6,m,11,r,MK,2022_Jan_14_1143,WASABI Nback,2020.2.10,60.0041642962622,
0,1,5,"[0, 0]",1,0,0,0,0,,,,,0,0,0,0,0,111,111,111,,,,,,,,,None,None,0,302.4240058999858,None,302.4240058999858,303.42405519998283,303.4073739000014,304.40737969998736,0,1,302.4240058999858,None,,,6,m,11,r,MK,2022_Jan_14_1143,WASABI Nback,2020.2.10,60.0041642962622,
0,1,1,"[-0.2, 0.2]",None,0,0,0,0,,,,,0,0,0,0,0,112,112,112,,,,,,,,,None,None,0,304.42403029999696,None,304.42403029999696,305.42405259999214,305.40739829998347,306.40739989999565,0,1,304.42403029999696,None,,,6,m,11,r,MK,2022_Jan_14_1143,WASABI Nback,2020.2.10,60.0041642962622,
0,1,7,"[-0.2, -0.2]",None,0,0,0,0,,,,,0,0,0,0,0,113,113,113,,,,,,,,,None,None,0,306.42405359999975,None,306.42405359999975,307.42406520000077,307.40740199998254,308.4074139999866,0,1,306.42405359999975,None,,,6,m,11,r,MK,2022_Jan_14_1143,WASABI Nback,2020.2.10,60.0041642962622,
0,1,9,"[0.2, -0.2]",None,0,0,0,0,,,,,0,0,0,0,0,114,114,114,,,,,,,,,None,None,0,308.42407280000043,None,308.42407280000043,309.4240625000093,309.40741359998356,310.4074339999934,0,1,308.42407280000043,None,,,6,m,11,r,MK,2022_Jan_14_1143,WASABI Nback,2020.2.10,60.0041642962622,
0,1,3,"[0.2, 0.2]",None,0,0,0,0,,,,,0,0,0,0,0,115,115,115,,,,,,,,,None,None,0,310.42408019999857,None,310.42408019999857,311.42409600000246,311.40744159999304,312.40743220000877,0,1,310.42408019999857,None,,,6,m,11,r,MK,2022_Jan_14_1143,WASABI Nback,2020.2.10,60.0041642962622,
0,1,9,"[0.2, -0.2]",1,0,0,0,0,,,,,0,0,0,0,0,116,116,116,,,,,,,,,None,None,0,312.4241020999907,None,312.4241020999907,313.4241054999875,313.40746640000725,314.40746849999414,0,1,312.4241020999907,None,,,6,m,11,r,MK,2022_Jan_14_1143,WASABI Nback,2020.2.10,60.0041642962622,
0,1,6,"[0.2, 0]",None,0,0,0,0,,,,,0,0,0,0,0,117,117,117,,,,,,,,,None,None,0,314.4241226000013,None,314.4241226000013,315.42412730000797,315.40746200000285,316.407466500008,0,1,314.4241226000013,None,,,6,m,11,r,MK,2022_Jan_14_1143,WASABI Nback,2020.2.10,60.0041642962622,
0,1,2,"[0, 0.2]",None,0,0,0,0,,,,,0,0,0,0,0,118,118,118,,,,,,,,,None,None,0,316.4241437999881,None,316.4241437999881,317.4241276999819,317.40747909998754,318.407478499983,0,1,316.4241437999881,None,,,6,m,11,r,MK,2022_Jan_14_1143,WASABI Nback,2020.2.10,60.0041642962622,
0,1,5,"[0, 0]",None,0,0,0,0,,,,,0,0,0,0,0,119,119,119,,,,,,,,,None,None,0,318.4241514999885,None,318.4241514999885,319.42416850000154,319.4074922,320.4074896000093,0,1,318.4241514999885,None,,,6,m,11,r,MK,2022_Jan_14_1143,WASABI Nback,2020.2.10,60.0041642962622,
1,0,,,,0,1,1,1,0,0,0,0,,,,,,,,,,,,,,,,,,,,,,,,,,,,,,365.65789249999216,None,6,m,11,r,MK,2022_Jan_14_1143,WASABI Nback,2020.2.10,60.0041642962622,
