	order	onset	duration	rt	correct
0	1	416.12963860016316	1.9311622399836779		1
1	1	418.08008279977366	1.9888109602034092		1
2	1	420.08012969978154	1.9911264604888856		1
3	1	422.0801284997724	1.9912635600194335		1
4	1	424.080149800051	1.9912497601471841		1
5	1	426.0801793001592	1.9908734592609107	1.1336457999423146	1
6	1	428.0801794999279	1.9909103601239622		1
7	1	430.08017840003595	1.9909383594058454		1
8	1	432.08021119982004	1.9910469599999487		1
9	1	434.0802409001626	1.9911778601817787		1
10	1	436.08024130016565	1.991168160457164	0.8169788001105189	1
11	1	438.0802795998752	1.9913491597399116		1
12	1	440.08028810005635	1.9906889600679278		1
13	1	442.08030360005796	1.990624359343201	0.5170188997872174	1
14	1	444.08032430009916	1.99109165975824		1
15	1	446.08036469994113	1.9906688597984612		1
16	1	448.0803494001739	1.9911319599486887		1
17	1	450.08038150006905	1.9910440598614514		1
18	1	452.0803824001923	1.9914402603171766		1
19	1	454.0803886000067	1.9912575595080853		1
20	1	456.0804131999612	1.9907228606753051	0.8336677001789212	1
21	1	458.0804436998442	1.991300560068339		1
22	1	460.08045569993556	1.9911881596781313		1
23	1	462.0804789997637	1.9912210600450635	0.6169687998481095	1
24	1	464.08050639973953	1.9912565592676401		1
25	1	466.0804981999099	1.9903586604632437		1
26	1	468.08054320001975	1.9913346599787474		1
27	1	470.080555499997	1.9912685598246753		1
28	1	472.0805679000914	1.9910691604018211		1
29	1	474.08057510014623	1.9914182596839964	0.6336098997853696	1
30	1	476.0806096000597	1.9912325609475374		1
31	1	478.0806249999441	1.9912072601728141		1
32	1	480.0806293999776	1.9910311601124704	1.3003207999281585	1
33	1	482.08063599979505	1.991174359805882		1
34	1	484.08065439993516	1.9913009596057236		1
35	1	486.0806872998364	1.9909594603814185		1
36	1	488.08069959981367	1.9912043600343168		1
37	1	490.08072429988533	1.991252460051328		1
38	1	492.0807235999964	1.9912226595915854	0.7002934999763966	1
39	1	494.08075169986114	1.9911932605318725		1
40	1	496.0807705000043	1.9909186600707471		1
41	1	498.0807660999708	1.9909875597804785	0.9002974000759423	1
42	1	500.0807920000516	1.9910721597261727		1
43	1	502.0808104998432	1.9911806602030993		1
44	1	504.08082420006394	1.9913032595068216		1
45	1	506.080852500163	1.9912170595489442		1
46	1	508.08086659992114	1.9913894599303603		1
47	1	510.08088780008256	1.9913904597051442		1
48	1	512.0808306001127	1.9913344602100551	0.6671519000083208	1
49	1	514.0809153001755	1.9915350596420467		1
50	1	516.0809248001315	1.991172059904784		1
51	1	518.0810114000924	1.9882216597907245	0.7335279998369515	1
52	1	520.0809633000754	1.9908019602298737		1
53	1	522.0809810999781	1.9914574599824846		1
54	1	524.0810126001015	1.9912903597578406		1
55	1	526.0810163998976	1.991154260467738		1
56	1	528.0810345001519	1.9914431595243514	0.5669472999870777	1
57	1	530.0810444997624	1.9914511595852673		1
58	1	532.0810678000562	1.9915119600482285		1
59	1	534.0810704999603	1.9911278602667153		1
60	1	536.0810929997824	1.9913567593321204		1
61	1	538.0811151000671	1.9911965602077544		1
62	1	540.0811490998603	1.991293960250914		1
63	1	542.0811477000825	1.9912942596711218		1
64	1	544.0811709999107	1.991030660457909		1
65	1	546.0811982001178	1.9911587596870959	0.7669190000742674	1
66	1	548.0812018001452	1.9908616594038904		1
67	1	550.0812157997862	1.9909615595825016		1
68	1	552.0812448998913	1.991203960031271	1.8532308000139892	0
69	1	554.0812492999248	1.9907605601474643		1
70	1	556.0812633000314	1.990887260530144	0.8336700000800192	1
71	1	558.0813020998612	1.9909566598944366		1
72	1	560.0813005999662	1.9912310605868697		1
73	1	562.0813239999115	1.9911573599092662	1.2169659002684057	1
74	1	564.0813675001264	1.9911673595197499		1
75	1	566.0813710000366	1.9908429603092372		1
76	1	568.0813666000031	1.9912526598200202		1
77	1	570.081406199839	1.9912514598108828		1
78	1	572.0814100001007	1.9912822600454092		1
79	1	574.0814282000065	1.9912520600482821		1
80	1	576.0814573997632	1.9911166597157717	0.9003936997614801	1
81	1	578.081453199964	1.991297859698534		1
82	1	580.0814963998273	1.9912390601821244		1
83	1	582.0815077000298	1.9914339599199593	0.6191146997734904	1
84	1	584.0815071999095	1.991433760151267		1
85	1	586.0815333998762	1.9910544599406421		1
86	1	588.0815616999753	1.9915029597468674		1
87	1	590.0815648999996	1.9909816598519683		1
88	1	592.0815950999968	1.9913632599636912		1
89	1	594.0816202000715	1.9906000602059066	0.7835784000344574	1
90	1	596.0816478999332	1.990843360312283		1
91	1	598.081644800026	1.9912197599187493		1
92	1	600.0816676001996	1.9910781597718596	0.6169528998434544	1
93	1	602.0816616998054	1.9912136597558856		1
94	1	604.08167460002	1.9914002600125968		1
95	1	606.0817215000279	1.99108776031062		1
96	1	608.0817121001892	1.991228159982711		1
97	1	610.0817256998271	1.9913185597397387		1
98	1	612.0817670999095	1.9914322602562606	1.4002857999876142	1
99	1	614.0817681998014	1.991052160039544		1
100	1	616.0817728000693	1.9912020601332188		1
101	1	618.0818282999098	1.9914827598258853	0.7169673000462353	1
102	1	620.0817702999339	1.9914271598681808		1
103	1	622.0818320000544	1.9910357594490051		1
104	1	624.0818718001246	1.9914808594621718		1
105	1	626.0818623998202	1.9911641599610448		1
106	1	628.0818849997595	1.9911798601970077		1
107	1	630.0819171001203	1.9910266594961286		1
108	1	632.081817000173	1.9911067602224648	0.9710999000817537	1
109	1	634.081945899874	1.9913554601371288		1
110	1	636.08197080018	1.9909931598231196		1
111	1	638.0819667000324	1.991483660414815	0.8669956000521779	1
112	1	640.0819900999777	1.9911334598436952		1
113	1	642.082024899777	1.9913630597293377		1
114	1	644.0820324998349	1.9913498600944877		1
115	1	646.082050499972	1.9909602599218488		1
116	1	648.0820706998929	1.991410159971565	0.633688900154084	1
117	1	650.0819517998025	1.9912522602826357		1
118	1	652.0821006000042	1.991371660027653		1
119	1	654.0821031997912	1.9916347595863044		1
