	order	onset	duration	rt	correct
0	2	90.79887340008281	1.138943600235507		1
1	2	91.94883060012944	1.988844650099054		1
2	2	93.94884700002149	1.9910055501386523		1
3	2	95.9488713000901	1.9912777501158416		1
4	2	97.94876140006818	1.9912357502616942		1
5	2	99.948898000177	1.9911513500846922	0.7335822999011725	1
6	2	101.94891620008275	1.9908867499325424		1
7	2	103.94892240012996	1.9913721501361579		1
8	2	105.94888710021041	1.991234350251034		1
9	2	107.9489510001149	1.9913615500554442		1
10	2	109.94896720000543	1.9911817500833422	0.8836316999513656	1
11	2	111.94897470017895	1.9913130498025566		1
12	2	113.94900280004367	1.9910613500978798		1
13	2	115.9490069001913	1.990949850063771	0.6336339998524636	1
14	2	117.94901600014418	1.9912264503072947		1
15	2	119.94904640014283	1.990633049979806		1
16	2	121.94905580021441	1.9912931500002742		1
17	2	123.94906480005011	1.9911774501670152		1
18	2	125.9491011002101	1.9911327499430627		1
19	2	127.9490959001705	1.99132565013133		1
20	2	129.9491068001371	1.9905326501466334	0.6669880000408739	1
21	2	131.9491342001129	1.9912269501946867		1
22	2	133.949151000008	1.9912078501656651		1
23	2	135.94914819998667	1.9913014501798898	0.7169617000035942	1
24	2	137.94917410006747	1.9911399497650564		1
25	2	139.94919780013151	1.991106549743563		1
26	2	141.9491983000189	1.9911953501868993		1
27	2	143.94921370013617	1.9913039500825107		1
28	2	145.9492379000876	1.9913643500767648		1
29	2	147.9492470000405	1.9910158501006663	0.48362299986183643	1
30	2	149.949260200141	1.9904951502103359		1
31	2	151.94927640003152	1.991265350021422		1
32	2	153.94928820012137	1.9913126500323415	1.166969700017944	1
33	2	155.94919610000215	1.9911282500252128		1
34	2	157.94932700018398	1.9913673500996083		1
35	2	159.94933279999532	1.990703650051728		1
36	2	161.9493536001537	1.9912469503469765		1
37	2	163.94935660017654	1.9912988501600921		1
38	2	165.94938340014778	1.991102950181812	1.1870515998452902	1
39	2	167.94939790014178	1.991250550141558		1
40	2	169.9494110001251	1.9911649501882493		1
41	2	171.9494211000856	1.9905900498852134	0.5669637999963015	1
42	2	173.94944420014508	1.9913788500707597		1
43	2	175.94948240020312	1.9910223500337452		1
44	2	177.94946890021674	1.9911782499402761		1
45	2	179.94950270000845	1.991108249872923		1
46	2	181.94950890005566	1.9913515499792993		1
47	2	183.94950510002673	1.9912957502529025		1
48	2	185.9495300000999	1.9910740500781685	0.6503127000760287	1
49	2	187.94954910012893	1.9917506501078606		1
50	2	189.94957510009408	1.9907637499272823		1
51	2	191.94958600006066	1.9913725501392037	0.6336141999345273	1
52	2	193.9495906000957	1.9908954498823732		1
53	2	195.94959610002115	1.9909766502678394	0.6669747999403626	0
54	2	197.94961260003038	1.9910340500064194		1
55	2	199.9496113001369	1.9910622499883175		1
56	2	201.94964480004273	1.99132395000197	0.5336428999435157	1
57	2	203.94965920015238	1.991154049988836		1
58	2	205.9495815001428	1.9911189500708133		1
59	2	207.94955330016091	1.9912311502266675		1
60	2	209.9496620001737	1.9910158501006663		1
61	2	211.9497184001375	1.9912639500107616		1
62	2	213.9497378000524	1.9908984499052167		1
63	2	215.9497551000677	1.9912113500759006		1
64	2	217.94975400017574	1.9914051499217749		1
65	2	219.94976850016974	1.9909557499922812	0.7502929999027401	1
66	2	221.94979280000553	1.9911551501136273		1
67	2	223.94981470005587	1.9913579497952014		1
68	2	225.9498203000985	1.9914341501425952		1
69	2	227.94984450004995	1.991261149989441		1
70	2	229.94985980005004	1.991124149877578		0
71	2	231.94986680010334	1.9914134503342211		1
72	2	233.9498801000882	1.9913985501043499		1
73	2	235.9499042001553	1.9911832499783486	0.6836116998456419	1
74	2	237.9499112002086	1.9911820499692112		1
75	2	239.94985440000892	1.9907194499392062		1
76	2	241.94994560000487	1.9912252500653267		1
77	2	243.94994570012204	1.9911963499616832		1
78	2	245.94995240005665	1.991319949971512		1
79	2	247.9499921000097	1.991408650064841		1
80	2	249.94999230001122	1.9908648498822004	0.6525690001435578	1
81	2	251.95002020010725	1.9912988501600921		1
82	2	253.95003599999472	1.9912899499759078		1
83	2	255.9500428000465	1.9912543499376625	0.6336336000822484	1
84	2	257.9500578001607	1.9910289500840008		1
85	2	259.9500790000893	1.991253149928525		1
86	2	261.95008820015937	1.9912241499405354		1
87	2	263.95010840008035	1.9912640501279384		1
88	2	265.9501263999846	1.9912758502177894		1
89	2	267.9501407002099	1.9911366500891745		0
90	2	269.9501509000547	1.9906665498856455		1
91	2	271.95016610017046	1.9911914500407875		1
92	2	273.9501810001675	1.991280450252816		0
93	2	275.9501862002071	1.9911342500708997		1
94	2	277.95021560019813	1.991454950068146		1
95	2	279.95022590016015	1.9911244499962777		1
96	2	281.9502315002028	1.9913692497648299		1
97	2	283.95013120002113	1.9913170498330146		1
98	2	285.9502674001269	1.9912916498724371	0.5669666999019682	1
99	2	287.95027390006	1.9913152500521392		1
100	2	289.95030020014383	1.9912581499665976		1
101	2	291.9503150000237	1.9911836504470557	0.8002971999812871	1
102	2	293.95033090002835	1.9910634499974549		1
103	2	295.95034119999036	1.990784350084141		1
104	2	297.9503632001579	1.9910131499636918		1
105	2	299.9503536000848	1.9911021499428898		1
106	2	301.950397600187	1.9913597500417382		1
107	2	303.9504074000288	1.9912211501505226		1
108	2	305.9504231000319	1.9911938498262316	0.6169642999302596	1
109	2	307.9504397001583	1.9913519502151757		1
110	2	309.9504534001462	1.991018250118941		1
111	2	311.95047420007177	1.9913332499563694	0.4336647999007255	1
112	2	313.95048230001703	1.9912289502099156		1
113	2	315.9504977001343	1.9911594500299543		1
114	2	317.9505400999915	1.9911249501165003		1
115	2	319.9505276000127	1.9910947503522038		1
116	2	321.95055570011027	1.99117985018529	0.8169746999628842	1
117	2	323.95054300013	1.9907354502938688		1
118	2	325.9505645001773	1.9914313501212746		1
119	2	327.950580800185	1.9914008500054479		1
