RestT1,TaskT1,square,location,corrAns,counterbalancer.thisRepN,counterbalancer.thisTrialN,counterbalancer.thisN,counterbalancer.thisIndex,RestT1Loop.thisRepN,RestT1Loop.thisTrialN,RestT1Loop.thisN,RestT1Loop.thisIndex,TaskT1Loop.thisRepN,TaskT1Loop.thisTrialN,TaskT1Loop.thisN,TaskT1Loop.thisIndex,trials_2.thisRepN,trials_2.thisTrialN,trials_2.thisN,trials_2.thisIndex,NbackInstructions.started,NbackInstructions.stopped,NbackStart.keys,NbackStart.rt,NbackStart.started,NbackStart.stopped,fixation_2.started,fixation_2.stopped,response_2.x,response_2.y,response_2.leftButton,grid_lines_2.started,grid_lines_2.stopped,target_square_2.started,target_square_2.stopped,fixation_3.started,fixation_3.stopped,response_2.click,response_2.corr,response_2.started,response_2.stopped,fixation_1.started,fixation_1.stopped,subject number,gender,session,handedness,scanner,date,expName,psychopyVersion,frameRate,
0,1,,,,0,0,0,0,,,,,0,0,0,0,,,,,25.047514499980025,None,space,93.34947849996388,25.047514499980025,None,,,,,,,,,,,,,,,,,,8,f,5,r,CIB,2021_Oct_08_1525,WASABI Nback,2020.2.10,59.96925976074086,
0,1,5,"[0, 0]",None,0,0,0,0,,,,,0,0,0,0,0,0,0,0,,,,,,,None,None,None,None,0,119.50643309997395,None,119.50643309997395,120.50650560000213,120.47318669996457,None,0,1,119.50643309997395,None,,,8,f,5,r,CIB,2021_Oct_08_1525,WASABI Nback,2020.2.10,59.96925976074086,
0,1,2,"[0, 0.2]",None,0,0,0,0,,,,,0,0,0,0,0,1,1,1,,,,,,,,,None,None,0,121.43985839997185,None,121.43985839997185,122.43986409995705,122.42319119995227,123.42320169997402,0,1,121.43985839997185,None,,,8,f,5,r,CIB,2021_Oct_08_1525,WASABI Nback,2020.2.10,59.96925976074086,
0,1,6,"[0.2, 0]",None,0,0,0,0,,,,,0,0,0,0,0,2,2,2,,,,,,,,,None,None,0,123.43986709997989,None,123.43986709997989,124.43986829998903,124.42318289994728,125.42321499995887,0,1,123.43986709997989,None,,,8,f,5,r,CIB,2021_Oct_08_1525,WASABI Nback,2020.2.10,59.96925976074086,
0,1,9,"[0.2, -0.2]",None,0,0,0,0,,,,,0,0,0,0,0,3,3,3,,,,,,,,,None,None,0,125.43990129994927,None,125.43990129994927,126.43988979997812,126.423226599989,127.42323959997157,0,1,125.43990129994927,None,,,8,f,5,r,CIB,2021_Oct_08_1525,WASABI Nback,2020.2.10,59.96925976074086,
0,1,3,"[0.2, 0.2]",None,0,0,0,0,,,,,0,0,0,0,0,4,4,4,,,,,,,,,None,None,0,127.43991570000071,None,127.43991570000071,128.4399216999882,128.4232371999533,129.4232469999697,0,1,127.43991570000071,None,,,8,f,5,r,CIB,2021_Oct_08_1525,WASABI Nback,2020.2.10,59.96925976074086,
0,1,9,"[0.2, -0.2]",1,0,0,0,0,,,,,0,0,0,0,0,5,5,5,,,,,,,,,None,None,0,129.43992999999318,None,129.43992999999318,130.43993369996315,130.42326499999035,131.4232539999648,0,1,129.43992999999318,None,,,8,f,5,r,CIB,2021_Oct_08_1525,WASABI Nback,2020.2.10,59.96925976074086,
0,1,7,"[-0.2, -0.2]",None,0,0,0,0,,,,,0,0,0,0,0,6,6,6,,,,,,,,,None,None,0,131.43993649998447,None,131.43993649998447,132.43993549997685,132.42328369995812,133.42329109995626,0,1,131.43993649998447,None,,,8,f,5,r,CIB,2021_Oct_08_1525,WASABI Nback,2020.2.10,59.96925976074086,
0,1,1,"[-0.2, 0.2]",None,0,0,0,0,,,,,0,0,0,0,0,7,7,7,,,,,,,,,None,None,0,133.43995129998075,None,133.43995129998075,134.43996170000173,134.4232901999494,135.42329319997225,0,1,133.43995129998075,None,,,8,f,5,r,CIB,2021_Oct_08_1525,WASABI Nback,2020.2.10,59.96925976074086,
0,1,5,"[0, 0]",None,0,0,0,0,,,,,0,0,0,0,0,8,8,8,,,,,,,,,None,None,0,135.4399622999481,None,135.4399622999481,136.43999419995816,136.42329389997758,137.42329919995973,0,1,135.4399622999481,None,,,8,f,5,r,CIB,2021_Oct_08_1525,WASABI Nback,2020.2.10,59.96925976074086,
0,1,7,"[-0.2, -0.2]",None,0,0,0,0,,,,,0,0,0,0,0,9,9,9,,,,,,,,,None,None,0,137.43996940000216,None,137.43996940000216,138.439982699987,138.42332679999527,139.42333379999036,0,1,137.43996940000216,None,,,8,f,5,r,CIB,2021_Oct_08_1525,WASABI Nback,2020.2.10,59.96925976074086,
0,1,5,"[0, 0]",1,0,0,0,0,,,,,0,0,0,0,0,10,10,10,,,,,,,,,None,None,0,139.43999289994827,None,139.43999289994827,140.43999559996882,140.42332909995457,141.42334809998283,0,1,139.43999289994827,None,,,8,f,5,r,CIB,2021_Oct_08_1525,WASABI Nback,2020.2.10,59.96925976074086,
0,1,6,"[0.2, 0]",None,0,0,0,0,,,,,0,0,0,0,0,11,11,11,,,,,,,,,None,None,0,141.44000479998067,None,141.44000479998067,142.4400266999728,142.42334189999383,143.42335479997564,0,1,141.44000479998067,None,,,8,f,5,r,CIB,2021_Oct_08_1525,WASABI Nback,2020.2.10,59.96925976074086,
0,1,3,"[0.2, 0.2]",None,0,0,0,0,,,,,0,0,0,0,0,12,12,12,,,,,,,,,None,None,0,143.44000899995444,None,143.44000899995444,144.44003869994776,144.42337589996168,145.42336999997497,0,1,143.44000899995444,None,,,8,f,5,r,CIB,2021_Oct_08_1525,WASABI Nback,2020.2.10,59.96925976074086,
0,1,6,"[0.2, 0]",1,0,0,0,0,,,,,0,0,0,0,0,13,13,13,,,,,,,,,None,None,0,145.44005029997788,None,145.44005029997788,146.44003800000064,146.42338279995602,147.42339489998994,0,1,145.44005029997788,None,,,8,f,5,r,CIB,2021_Oct_08_1525,WASABI Nback,2020.2.10,59.96925976074086,
0,1,8,"[0, -0.2]",None,0,0,0,0,,,,,0,0,0,0,0,14,14,14,,,,,,,,,None,None,0,147.44006459997036,None,147.44006459997036,148.44007319997763,148.42340209998656,149.42340239998884,0,1,147.44006459997036,None,,,8,f,5,r,CIB,2021_Oct_08_1525,WASABI Nback,2020.2.10,59.96925976074086,
0,1,9,"[0.2, -0.2]",None,0,0,0,0,,,,,0,0,0,0,0,15,15,15,,,,,,,,,None,None,0,149.4400820999872,None,149.4400820999872,150.44006749999244,150.42340829997556,151.42341659998056,0,1,149.4400820999872,None,,,8,f,5,r,CIB,2021_Oct_08_1525,WASABI Nback,2020.2.10,59.96925976074086,
0,1,9,"[0.2, -0.2]",None,0,0,0,0,,,,,0,0,0,0,0,16,16,16,,,,,,,,,None,None,0,151.44008349999785,None,151.44008349999785,152.44010189996334,152.42342169996118,153.42342740000458,0,1,151.44008349999785,None,,,8,f,5,r,CIB,2021_Oct_08_1525,WASABI Nback,2020.2.10,59.96925976074086,
0,1,1,"[-0.2, 0.2]",None,0,0,0,0,,,,,0,0,0,0,0,17,17,17,,,,,,,,,None,None,0,153.4400931999553,None,153.4400931999553,154.44010169996182,154.42343549994985,155.42344489996321,0,1,153.4400931999553,None,,,8,f,5,r,CIB,2021_Oct_08_1525,WASABI Nback,2020.2.10,59.96925976074086,
0,1,3,"[0.2, 0.2]",None,0,0,0,0,,,,,0,0,0,0,0,18,18,18,,,,,,,,,None,None,0,155.44012379995547,None,155.44012379995547,156.44012119999388,156.42347199999494,157.42347199999494,0,1,155.44012379995547,None,,,8,f,5,r,CIB,2021_Oct_08_1525,WASABI Nback,2020.2.10,59.96925976074086,
0,1,5,"[0, 0]",None,0,0,0,0,,,,,0,0,0,0,0,19,19,19,,,,,,,,,None,None,0,157.4401386999525,None,157.4401386999525,158.44013730000006,158.42347169999266,159.42347539996263,0,1,157.4401386999525,None,,,8,f,5,r,CIB,2021_Oct_08_1525,WASABI Nback,2020.2.10,59.96925976074086,
0,1,3,"[0.2, 0.2]",1,0,0,0,0,,,,,0,0,0,0,0,20,20,20,,,,,,,,,None,None,0,159.4401459999499,None,159.4401459999499,160.44014979997883,160.42349739995552,161.42348850000417,0,1,159.4401459999499,None,,,8,f,5,r,CIB,2021_Oct_08_1525,WASABI Nback,2020.2.10,59.96925976074086,
0,1,4,"[-0.2, 0]",None,0,0,0,0,,,,,0,0,0,0,0,21,21,21,,,,,,,,,None,None,0,161.44015159999253,None,161.44015159999253,162.44017479999457,162.4235023999936,163.42350849998184,0,1,161.44015159999253,None,,,8,f,5,r,CIB,2021_Oct_08_1525,WASABI Nback,2020.2.10,59.96925976074086,
0,1,7,"[-0.2, -0.2]",None,0,0,0,0,,,,,0,0,0,0,0,22,22,22,,,,,,,,,None,None,0,163.44018599996343,None,163.44018599996343,164.4401808999828,164.42352640000172,165.4235178999952,0,1,163.44018599996343,None,,,8,f,5,r,CIB,2021_Oct_08_1525,WASABI Nback,2020.2.10,59.96925976074086,
0,1,4,"[-0.2, 0]",1,0,0,0,0,,,,,0,0,0,0,0,23,23,23,,,,,,,,,None,None,0,165.44020039995667,None,165.44020039995667,166.44020489999093,166.42354019999038,167.4235434999573,0,1,165.44020039995667,None,,,8,f,5,r,CIB,2021_Oct_08_1525,WASABI Nback,2020.2.10,59.96925976074086,
0,1,4,"[-0.2, 0]",None,0,0,0,0,,,,,0,0,0,0,0,24,24,24,,,,,,,,,None,None,0,167.4402111999807,None,167.4402111999807,168.4402090999647,168.42356829997152,169.4235481999931,0,1,167.4402111999807,None,,,8,f,5,r,CIB,2021_Oct_08_1525,WASABI Nback,2020.2.10,59.96925976074086,
0,1,5,"[0, 0]",None,0,0,0,0,,,,,0,0,0,0,0,25,25,25,,,,,,,,,None,None,0,169.44023769994965,None,169.44023769994965,170.4402253999724,170.42356609995477,171.42357719998108,0,1,169.44023769994965,None,,,8,f,5,r,CIB,2021_Oct_08_1525,WASABI Nback,2020.2.10,59.96925976074086,
0,1,2,"[0, 0.2]",None,0,0,0,0,,,,,0,0,0,0,0,26,26,26,,,,,,,,,None,None,0,171.44024729996454,None,171.44024729996454,172.44024099997478,172.42358729999978,173.42358039994724,0,1,171.44024729996454,None,,,8,f,5,r,CIB,2021_Oct_08_1525,WASABI Nback,2020.2.10,59.96925976074086,
0,1,6,"[0.2, 0]",None,0,0,0,0,,,,,0,0,0,0,0,27,27,27,,,,,,,,,None,None,0,173.4402481999714,None,173.4402481999714,174.44026479998138,174.42360229999758,175.423622399976,0,1,173.4402481999714,None,,,8,f,5,r,CIB,2021_Oct_08_1525,WASABI Nback,2020.2.10,59.96925976074086,
0,1,7,"[-0.2, -0.2]",None,0,0,0,0,,,,,0,0,0,0,0,28,28,28,,,,,,,,,None,None,0,175.4402688999544,None,175.4402688999544,176.44028589996742,176.4236549999914,177.42366529995343,0,1,175.4402688999544,None,,,8,f,5,r,CIB,2021_Oct_08_1525,WASABI Nback,2020.2.10,59.96925976074086,
0,1,6,"[0.2, 0]",1,0,0,0,0,,,,,0,0,0,0,0,29,29,29,,,,,,,,,None,None,0,177.44028869998874,None,177.44028869998874,178.4402939999709,178.42362999997567,179.4236521999701,0,1,177.44028869998874,None,,,8,f,5,r,CIB,2021_Oct_08_1525,WASABI Nback,2020.2.10,59.96925976074086,
0,1,6,"[0.2, 0]",None,0,0,0,0,,,,,0,0,0,0,0,30,30,30,,,,,,,,,None,None,0,179.44029339996632,None,179.44029339996632,180.44031320000067,180.42364289995749,181.42365959996823,0,1,179.44029339996632,None,,,8,f,5,r,CIB,2021_Oct_08_1525,WASABI Nback,2020.2.10,59.96925976074086,
0,1,7,"[-0.2, -0.2]",None,0,0,0,0,,,,,0,0,0,0,0,31,31,31,,,,,,,,,None,None,0,181.44031589996303,None,181.44031589996303,182.4403231999604,182.42367839999497,183.42367709998507,0,0,181.44031589996303,None,,,8,f,5,r,CIB,2021_Oct_08_1525,WASABI Nback,2020.2.10,59.96925976074086,
0,1,6,"[0.2, 0]",1,0,0,0,0,,,,,0,0,0,0,0,32,32,32,,,,,,,,,None,None,0,183.44033239997225,None,183.44033239997225,184.4403487999807,184.42369079997297,185.42369349999353,0,1,183.44033239997225,None,,,8,f,5,r,CIB,2021_Oct_08_1525,WASABI Nback,2020.2.10,59.96925976074086,
0,1,2,"[0, 0.2]",None,0,0,0,0,,,,,0,0,0,0,0,33,33,33,,,,,,,,,None,None,0,185.44035279995296,None,185.44035279995296,186.44035569997504,186.42368749994785,187.42370230000233,0,1,185.44035279995296,None,,,8,f,5,r,CIB,2021_Oct_08_1525,WASABI Nback,2020.2.10,59.96925976074086,
0,1,5,"[0, 0]",None,0,0,0,0,,,,,0,0,0,0,0,34,34,34,,,,,,,,,None,None,0,187.44036389997927,None,187.44036389997927,188.44037329999264,188.42369889997644,189.42371099995216,0,1,187.44036389997927,None,,,8,f,5,r,CIB,2021_Oct_08_1525,WASABI Nback,2020.2.10,59.96925976074086,
0,1,4,"[-0.2, 0]",None,0,0,0,0,,,,,0,0,0,0,0,35,35,35,,,,,,,,,None,None,0,189.44037899997784,None,189.44037899997784,190.4403906999505,190.42372449999675,191.4237240999937,0,1,189.44037899997784,None,,,8,f,5,r,CIB,2021_Oct_08_1525,WASABI Nback,2020.2.10,59.96925976074086,
0,1,4,"[-0.2, 0]",None,0,0,0,0,,,,,0,0,0,0,0,36,36,36,,,,,,,,,None,None,0,191.44040219997987,None,191.44040219997987,192.44040530000348,192.4237675999757,193.42374619998736,0,1,191.44040219997987,None,,,8,f,5,r,CIB,2021_Oct_08_1525,WASABI Nback,2020.2.10,59.96925976074086,
0,1,7,"[-0.2, -0.2]",None,0,0,0,0,,,,,0,0,0,0,0,37,37,37,,,,,,,,,None,None,0,193.4404064999544,None,193.4404064999544,194.44042859994806,194.42375629994785,195.42375699995318,0,1,193.4404064999544,None,,,8,f,5,r,CIB,2021_Oct_08_1525,WASABI Nback,2020.2.10,59.96925976074086,
0,1,4,"[-0.2, 0]",1,0,0,0,0,,,,,0,0,0,0,0,38,38,38,,,,,,,,,None,None,0,195.44042649999028,None,195.44042649999028,196.44042559998343,196.42377629998373,197.42377149994718,0,1,195.44042649999028,None,,,8,f,5,r,CIB,2021_Oct_08_1525,WASABI Nback,2020.2.10,59.96925976074086,
0,1,3,"[0.2, 0.2]",None,0,0,0,0,,,,,0,0,0,0,0,39,39,39,,,,,,,,,None,None,0,197.44043849996524,None,197.44043849996524,198.44044079998275,198.42377699998906,199.4237892999663,0,1,197.44043849996524,None,,,8,f,5,r,CIB,2021_Oct_08_1525,WASABI Nback,2020.2.10,59.96925976074086,
0,1,5,"[0, 0]",None,0,0,0,0,,,,,0,0,0,0,0,40,40,40,,,,,,,,,None,None,0,199.44047259999206,None,199.44047259999206,200.44046699994942,200.42379430000437,201.4238017000025,0,0,199.44047259999206,None,,,8,f,5,r,CIB,2021_Oct_08_1525,WASABI Nback,2020.2.10,59.96925976074086,
0,1,3,"[0.2, 0.2]",1,0,0,0,0,,,,,0,0,0,0,0,41,41,41,,,,,,,,,None,None,0,201.44046439998783,None,201.44046439998783,202.44048339995788,202.42381739994744,203.42381919996114,0,1,201.44046439998783,None,,,8,f,5,r,CIB,2021_Oct_08_1525,WASABI Nback,2020.2.10,59.96925976074086,
0,1,1,"[-0.2, 0.2]",None,0,0,0,0,,,,,0,0,0,0,0,42,42,42,,,,,,,,,None,None,0,203.44047959998716,None,203.44047959998716,204.44050599995535,204.42383829999017,205.4238384999917,0,1,203.44047959998716,None,,,8,f,5,r,CIB,2021_Oct_08_1525,WASABI Nback,2020.2.10,59.96925976074086,
0,1,9,"[0.2, -0.2]",None,0,0,0,0,,,,,0,0,0,0,0,43,43,43,,,,,,,,,None,None,0,205.44050579995383,None,205.44050579995383,206.4405024999869,206.42385469999863,207.423730599985,0,1,205.44050579995383,None,,,8,f,5,r,CIB,2021_Oct_08_1525,WASABI Nback,2020.2.10,59.96925976074086,
0,1,9,"[0.2, -0.2]",None,0,0,0,0,,,,,0,0,0,0,0,44,44,44,,,,,,,,,None,None,0,207.44051980000222,None,207.44051980000222,208.4405433999491,208.42385699995793,209.4237509999657,0,1,207.44051980000222,None,,,8,f,5,r,CIB,2021_Oct_08_1525,WASABI Nback,2020.2.10,59.96925976074086,
0,1,8,"[0, -0.2]",None,0,0,0,0,,,,,0,0,0,0,0,45,45,45,,,,,,,,,None,None,0,209.44053829996847,None,209.44053829996847,210.4405485999887,210.42388929997105,211.42388369998662,0,1,209.44053829996847,None,,,8,f,5,r,CIB,2021_Oct_08_1525,WASABI Nback,2020.2.10,59.96925976074086,
0,1,6,"[0.2, 0]",None,0,0,0,0,,,,,0,0,0,0,0,46,46,46,,,,,,,,,None,None,0,211.44054300000425,None,211.44054300000425,212.44055859994842,212.42389809997985,213.42389119998552,0,1,211.44054300000425,None,,,8,f,5,r,CIB,2021_Oct_08_1525,WASABI Nback,2020.2.10,59.96925976074086,
0,1,3,"[0.2, 0.2]",None,0,0,0,0,,,,,0,0,0,0,0,47,47,47,,,,,,,,,None,None,0,213.44056529999943,None,213.44056529999943,214.44056439999258,214.42390870000236,215.42391489999136,0,1,213.44056529999943,None,,,8,f,5,r,CIB,2021_Oct_08_1525,WASABI Nback,2020.2.10,59.96925976074086,
0,1,6,"[0.2, 0]",1,0,0,0,0,,,,,0,0,0,0,0,48,48,48,,,,,,,,,None,None,0,215.44057409995003,None,215.44057409995003,216.44059059995925,216.4239121999708,217.42391949996818,0,1,215.44057409995003,None,,,8,f,5,r,CIB,2021_Oct_08_1525,WASABI Nback,2020.2.10,59.96925976074086,
0,1,5,"[0, 0]",None,0,0,0,0,,,,,0,0,0,0,0,49,49,49,,,,,,,,,None,None,0,217.4405884000007,None,217.4405884000007,218.4406054999563,218.4239442999824,219.42393639998045,0,1,217.4405884000007,None,,,8,f,5,r,CIB,2021_Oct_08_1525,WASABI Nback,2020.2.10,59.96925976074086,
0,1,7,"[-0.2, -0.2]",None,0,0,0,0,,,,,0,0,0,0,0,50,50,50,,,,,,,,,None,None,0,219.4406142999651,None,219.4406142999651,220.44060869998066,220.42395649995888,221.42395119997673,0,1,219.4406142999651,None,,,8,f,5,r,CIB,2021_Oct_08_1525,WASABI Nback,2020.2.10,59.96925976074086,
0,1,5,"[0, 0]",1,0,0,0,0,,,,,0,0,0,0,0,51,51,51,,,,,,,,,None,None,0,221.4406333999941,None,221.4406333999941,222.44063799997093,222.42397099995287,223.4239675999852,0,1,221.4406333999941,None,,,8,f,5,r,CIB,2021_Oct_08_1525,WASABI Nback,2020.2.10,59.96925976074086,
0,1,1,"[-0.2, 0.2]",None,0,0,0,0,,,,,0,0,0,0,0,52,52,52,,,,,,,,,None,None,0,223.44063719996484,None,223.44063719996484,224.4406569999992,224.42398289998528,225.4239913999918,0,1,223.44063719996484,None,,,8,f,5,r,CIB,2021_Oct_08_1525,WASABI Nback,2020.2.10,59.96925976074086,
0,1,7,"[-0.2, -0.2]",None,0,0,0,0,,,,,0,0,0,0,0,53,53,53,,,,,,,,,None,None,0,225.4406589999562,None,225.4406589999562,226.44069029996172,226.42399379995186,227.42400149995228,0,1,225.4406589999562,None,,,8,f,5,r,CIB,2021_Oct_08_1525,WASABI Nback,2020.2.10,59.96925976074086,
0,1,9,"[0.2, -0.2]",None,0,0,0,0,,,,,0,0,0,0,0,54,54,54,,,,,,,,,None,None,0,227.44068949995562,None,227.44068949995562,228.44067889999133,228.42401429999154,229.42398869997123,0,1,227.44068949995562,None,,,8,f,5,r,CIB,2021_Oct_08_1525,WASABI Nback,2020.2.10,59.96925976074086,
0,1,3,"[0.2, 0.2]",None,0,0,0,0,,,,,0,0,0,0,0,55,55,55,,,,,,,,,None,None,0,229.4407001999789,None,229.4407001999789,230.44070320000174,230.4240232000011,231.42402199999196,0,1,229.4407001999789,None,,,8,f,5,r,CIB,2021_Oct_08_1525,WASABI Nback,2020.2.10,59.96925976074086,
0,1,9,"[0.2, -0.2]",1,0,0,0,0,,,,,0,0,0,0,0,56,56,56,,,,,,,,,None,None,0,231.4407037999481,None,231.4407037999481,232.44070659996942,232.42405599995982,233.4240391999483,0,1,231.4407037999481,None,,,8,f,5,r,CIB,2021_Oct_08_1525,WASABI Nback,2020.2.10,59.96925976074086,
0,1,6,"[0.2, 0]",None,0,0,0,0,,,,,0,0,0,0,0,57,57,57,,,,,,,,,None,None,0,233.44070909998845,None,233.44070909998845,234.44072389998473,234.424049299967,235.42407009995077,0,1,233.44070909998845,None,,,8,f,5,r,CIB,2021_Oct_08_1525,WASABI Nback,2020.2.10,59.96925976074086,
0,1,2,"[0, 0.2]",None,0,0,0,0,,,,,0,0,0,0,0,58,58,58,,,,,,,,,None,None,0,235.44074979994912,None,235.44074979994912,236.4407397999894,236.42407409998123,237.42406920000212,0,1,235.44074979994912,None,,,8,f,5,r,CIB,2021_Oct_08_1525,WASABI Nback,2020.2.10,59.96925976074086,
0,1,5,"[0, 0]",None,0,0,0,0,,,,,0,0,0,0,0,59,59,59,,,,,,,,,None,None,0,237.4407549999887,None,237.4407549999887,238.44074629998067,238.42409190000035,239.42409419995965,0,1,237.4407549999887,None,,,8,f,5,r,CIB,2021_Oct_08_1525,WASABI Nback,2020.2.10,59.96925976074086,
0,1,5,"[0, 0]",None,0,0,0,0,,,,,0,0,0,0,0,60,60,60,,,,,,,,,None,None,0,239.44076789997052,None,239.44076789997052,240.4407876000041,240.42408460000297,241.42411329998868,0,1,239.44076789997052,None,,,8,f,5,r,CIB,2021_Oct_08_1525,WASABI Nback,2020.2.10,59.96925976074086,
0,1,2,"[0, 0.2]",None,0,0,0,0,,,,,0,0,0,0,0,61,61,61,,,,,,,,,None,None,0,241.44079480000073,None,241.44079480000073,242.44079109997256,242.42410949995974,243.42412629997125,0,0,241.44079480000073,None,,,8,f,5,r,CIB,2021_Oct_08_1525,WASABI Nback,2020.2.10,59.96925976074086,
0,1,6,"[0.2, 0]",None,0,0,0,0,,,,,0,0,0,0,0,62,62,62,,,,,,,,,None,None,0,243.4407322999905,None,243.4407322999905,244.4408168999944,244.4241400999599,245.42413349996787,0,1,243.4407322999905,None,,,8,f,5,r,CIB,2021_Oct_08_1525,WASABI Nback,2020.2.10,59.96925976074086,
0,1,9,"[0.2, -0.2]",None,0,0,0,0,,,,,0,0,0,0,0,63,63,63,,,,,,,,,None,None,0,245.4408191999537,None,245.4408191999537,246.44081979995826,246.42414909997024,247.42416269995738,0,1,245.4408191999537,None,,,8,f,5,r,CIB,2021_Oct_08_1525,WASABI Nback,2020.2.10,59.96925976074086,
0,1,3,"[0.2, 0.2]",None,0,0,0,0,,,,,0,0,0,0,0,64,64,64,,,,,,,,,None,None,0,247.44083959999261,None,247.44083959999261,248.440850999963,248.42415959999198,249.42417630000273,0,1,247.44083959999261,None,,,8,f,5,r,CIB,2021_Oct_08_1525,WASABI Nback,2020.2.10,59.96925976074086,
0,1,9,"[0.2, -0.2]",1,0,0,0,0,,,,,0,0,0,0,0,65,65,65,,,,,,,,,None,None,0,249.44085139996605,None,249.44085139996605,250.44085839996114,250.42418269999325,251.42418249999173,0,1,249.44085139996605,None,,,8,f,5,r,CIB,2021_Oct_08_1525,WASABI Nback,2020.2.10,59.96925976074086,
0,1,7,"[-0.2, -0.2]",None,0,0,0,0,,,,,0,0,0,0,0,66,66,66,,,,,,,,,None,None,0,251.44085009995615,None,251.44085009995615,252.44086339999922,252.42419029999292,253.4241959999781,0,1,251.44085009995615,None,,,8,f,5,r,CIB,2021_Oct_08_1525,WASABI Nback,2020.2.10,59.96925976074086,
0,1,1,"[-0.2, 0.2]",None,0,0,0,0,,,,,0,0,0,0,0,67,67,67,,,,,,,,,None,None,0,253.44088399998145,None,253.44088399998145,254.44088319997536,254.42420019995188,255.42422519996762,0,1,253.44088399998145,None,,,8,f,5,r,CIB,2021_Oct_08_1525,WASABI Nback,2020.2.10,59.96925976074086,
0,1,5,"[0, 0]",None,0,0,0,0,,,,,0,0,0,0,0,68,68,68,,,,,,,,,None,None,0,255.44089789997088,None,255.44089789997088,256.44094169995515,256.424220099987,257.42424039996695,0,1,255.44089789997088,None,,,8,f,5,r,CIB,2021_Oct_08_1525,WASABI Nback,2020.2.10,59.96925976074086,
0,1,7,"[-0.2, -0.2]",None,0,0,0,0,,,,,0,0,0,0,0,69,69,69,,,,,,,,,None,None,0,257.440907399985,None,257.440907399985,258.4409370999783,258.4242521999986,259.42424709995976,0,1,257.440907399985,None,,,8,f,5,r,CIB,2021_Oct_08_1525,WASABI Nback,2020.2.10,59.96925976074086,
0,1,5,"[0, 0]",1,0,0,0,0,,,,,0,0,0,0,0,70,70,70,,,,,,,,,None,None,0,259.440834399953,None,259.440834399953,260.4409314999939,260.42416459997185,261.42425409995485,0,1,259.440834399953,None,,,8,f,5,r,CIB,2021_Oct_08_1525,WASABI Nback,2020.2.10,59.96925976074086,
0,1,6,"[0.2, 0]",None,0,0,0,0,,,,,0,0,0,0,0,71,71,71,,,,,,,,,None,None,0,261.44095279998146,None,261.44095279998146,262.4409409999498,262.42426939995494,263.4242757000029,0,1,261.44095279998146,None,,,8,f,5,r,CIB,2021_Oct_08_1525,WASABI Nback,2020.2.10,59.96925976074086,
0,1,3,"[0.2, 0.2]",None,0,0,0,0,,,,,0,0,0,0,0,72,72,72,,,,,,,,,None,None,0,263.44093889999203,None,263.44093889999203,264.44096029998036,264.4242922999547,265.42428409995046,0,1,263.44093889999203,None,,,8,f,5,r,CIB,2021_Oct_08_1525,WASABI Nback,2020.2.10,59.96925976074086,
0,1,6,"[0.2, 0]",1,0,0,0,0,,,,,0,0,0,0,0,73,73,73,,,,,,,,,None,None,0,265.44096989999525,None,265.44096989999525,266.4409596999758,266.42431279999437,267.4243060000008,0,1,265.44096989999525,None,,,8,f,5,r,CIB,2021_Oct_08_1525,WASABI Nback,2020.2.10,59.96925976074086,
0,1,8,"[0, -0.2]",None,0,0,0,0,,,,,0,0,0,0,0,74,74,74,,,,,,,,,None,None,0,267.44097269995837,None,267.44097269995837,268.4409756999812,268.4243245999678,269.424324099964,0,1,267.44097269995837,None,,,8,f,5,r,CIB,2021_Oct_08_1525,WASABI Nback,2020.2.10,59.96925976074086,
0,1,9,"[0.2, -0.2]",None,0,0,0,0,,,,,0,0,0,0,0,75,75,75,,,,,,,,,None,None,0,269.4410013000015,None,269.4410013000015,270.44099400000414,270.42433349997737,271.4243351999903,0,1,269.4410013000015,None,,,8,f,5,r,CIB,2021_Oct_08_1525,WASABI Nback,2020.2.10,59.96925976074086,
0,1,9,"[0.2, -0.2]",None,0,0,0,0,,,,,0,0,0,0,0,76,76,76,,,,,,,,,None,None,0,271.4410083999974,None,271.4410083999974,272.44102549995296,272.42434539995156,273.4243600000045,0,1,271.4410083999974,None,,,8,f,5,r,CIB,2021_Oct_08_1525,WASABI Nback,2020.2.10,59.96925976074086,
0,1,1,"[-0.2, 0.2]",None,0,0,0,0,,,,,0,0,0,0,0,77,77,77,,,,,,,,,None,None,0,273.4410191999632,None,273.4410191999632,274.4410188999609,274.4242943999707,275.42437539994717,0,1,273.4410191999632,None,,,8,f,5,r,CIB,2021_Oct_08_1525,WASABI Nback,2020.2.10,59.96925976074086,
0,1,3,"[0.2, 0.2]",None,0,0,0,0,,,,,0,0,0,0,0,78,78,78,,,,,,,,,None,None,0,275.4410400999477,None,275.4410400999477,276.4410514999763,276.42439169995487,277.42439169995487,0,1,275.4410400999477,None,,,8,f,5,r,CIB,2021_Oct_08_1525,WASABI Nback,2020.2.10,59.96925976074086,
0,1,5,"[0, 0]",None,0,0,0,0,,,,,0,0,0,0,0,79,79,79,,,,,,,,,None,None,0,277.4410621999996,None,277.4410621999996,278.44106359995203,278.4243877999834,279.4243938999716,0,1,277.4410621999996,None,,,8,f,5,r,CIB,2021_Oct_08_1525,WASABI Nback,2020.2.10,59.96925976074086,
0,1,3,"[0.2, 0.2]",1,0,0,0,0,,,,,0,0,0,0,0,80,80,80,,,,,,,,,None,None,0,279.4410649999627,None,279.4410649999627,280.4410889999708,280.42440939997323,281.4244153999607,0,1,279.4410649999627,None,,,8,f,5,r,CIB,2021_Oct_08_1525,WASABI Nback,2020.2.10,59.96925976074086,
0,1,4,"[-0.2, 0]",None,0,0,0,0,,,,,0,0,0,0,0,81,81,81,,,,,,,,,None,None,0,281.44108009996125,None,281.44108009996125,282.4410916999914,282.4244209000026,283.4244284000015,0,1,281.44108009996125,None,,,8,f,5,r,CIB,2021_Oct_08_1525,WASABI Nback,2020.2.10,59.96925976074086,
0,1,7,"[-0.2, -0.2]",None,0,0,0,0,,,,,0,0,0,0,0,82,82,82,,,,,,,,,None,None,0,283.44110629998613,None,283.44110629998613,284.44111219997285,284.4244396999711,285.4244528999552,0,1,283.44110629998613,None,,,8,f,5,r,CIB,2021_Oct_08_1525,WASABI Nback,2020.2.10,59.96925976074086,
0,1,4,"[-0.2, 0]",1,0,0,0,0,,,,,0,0,0,0,0,83,83,83,,,,,,,,,None,None,0,285.44111869996414,None,285.44111869996414,286.44111819996033,286.4244583999971,287.42447399999946,0,1,285.44111869996414,None,,,8,f,5,r,CIB,2021_Oct_08_1525,WASABI Nback,2020.2.10,59.96925976074086,
0,1,4,"[-0.2, 0]",None,0,0,0,0,,,,,0,0,0,0,0,84,84,84,,,,,,,,,None,None,0,287.44113439996727,None,287.44113439996727,288.44114660000196,288.4244767999626,289.42448389995843,0,1,287.44113439996727,None,,,8,f,5,r,CIB,2021_Oct_08_1525,WASABI Nback,2020.2.10,59.96925976074086,
0,1,5,"[0, 0]",None,0,0,0,0,,,,,0,0,0,0,0,85,85,85,,,,,,,,,None,None,0,289.4411404999555,None,289.4411404999555,290.4411482999567,290.42449189996114,291.4244983999524,0,1,289.4411404999555,None,,,8,f,5,r,CIB,2021_Oct_08_1525,WASABI Nback,2020.2.10,59.96925976074086,
0,1,2,"[0, 0.2]",None,0,0,0,0,,,,,0,0,0,0,0,86,86,86,,,,,,,,,None,None,0,291.4411632999545,None,291.4411632999545,292.44116109999595,292.42451019998407,293.4245015999768,0,1,291.4411632999545,None,,,8,f,5,r,CIB,2021_Oct_08_1525,WASABI Nback,2020.2.10,59.96925976074086,
0,1,6,"[0.2, 0]",None,0,0,0,0,,,,,0,0,0,0,0,87,87,87,,,,,,,,,None,None,0,293.4411899999832,None,293.4411899999832,294.4411894999794,294.42451879999135,295.4245307999663,0,1,293.4411899999832,None,,,8,f,5,r,CIB,2021_Oct_08_1525,WASABI Nback,2020.2.10,59.96925976074086,
0,1,7,"[-0.2, -0.2]",None,0,0,0,0,,,,,0,0,0,0,0,88,88,88,,,,,,,,,None,None,0,295.44120089994976,None,295.44120089994976,296.44120299996575,296.4245245999773,297.4245331999846,0,1,295.44120089994976,None,,,8,f,5,r,CIB,2021_Oct_08_1525,WASABI Nback,2020.2.10,59.96925976074086,
0,1,6,"[0.2, 0]",1,0,0,0,0,,,,,0,0,0,0,0,89,89,89,,,,,,,,,None,None,0,297.44121439999435,None,297.44121439999435,298.4412139999913,298.4245442999527,299.42455679998966,0,1,297.44121439999435,None,,,8,f,5,r,CIB,2021_Oct_08_1525,WASABI Nback,2020.2.10,59.96925976074086,
0,1,6,"[0.2, 0]",None,0,0,0,0,,,,,0,0,0,0,0,90,90,90,,,,,,,,,None,None,0,299.4412230000016,None,299.4412230000016,300.44123479997506,300.4246161999763,301.424576099962,0,1,299.4412230000016,None,,,8,f,5,r,CIB,2021_Oct_08_1525,WASABI Nback,2020.2.10,59.96925976074086,
0,1,7,"[-0.2, -0.2]",None,0,0,0,0,,,,,0,0,0,0,0,91,91,91,,,,,,,,,None,None,0,301.44124600000214,None,301.44124600000214,302.4412515999866,302.4245855999761,303.4245975999511,0,1,301.44124600000214,None,,,8,f,5,r,CIB,2021_Oct_08_1525,WASABI Nback,2020.2.10,59.96925976074086,
0,1,6,"[0.2, 0]",1,0,0,0,0,,,,,0,0,0,0,0,92,92,92,,,,,,,,,None,None,0,303.44125889998395,None,303.44125889998395,304.4412548999535,304.42460549995303,305.4246065999614,0,1,303.44125889998395,None,,,8,f,5,r,CIB,2021_Oct_08_1525,WASABI Nback,2020.2.10,59.96925976074086,
0,1,2,"[0, 0.2]",None,0,0,0,0,,,,,0,0,0,0,0,93,93,93,,,,,,,,,None,None,0,305.4412749999901,None,305.4412749999901,306.44127229996957,306.42465589998756,307.4246110999957,0,1,305.4412749999901,None,,,8,f,5,r,CIB,2021_Oct_08_1525,WASABI Nback,2020.2.10,59.96925976074086,
0,1,5,"[0, 0]",None,0,0,0,0,,,,,0,0,0,0,0,94,94,94,,,,,,,,,None,None,0,307.4412947999663,None,307.4412947999663,308.4412982999929,308.42463259998476,309.4246464999742,0,1,307.4412947999663,None,,,8,f,5,r,CIB,2021_Oct_08_1525,WASABI Nback,2020.2.10,59.96925976074086,
0,1,4,"[-0.2, 0]",None,0,0,0,0,,,,,0,0,0,0,0,95,95,95,,,,,,,,,None,None,0,309.44130209996365,None,309.44130209996365,310.4413138999953,310.42464429995744,311.42465329996776,0,1,309.44130209996365,None,,,8,f,5,r,CIB,2021_Oct_08_1525,WASABI Nback,2020.2.10,59.96925976074086,
0,1,4,"[-0.2, 0]",None,0,0,0,0,,,,,0,0,0,0,0,96,96,96,,,,,,,,,None,None,0,311.44132260000333,None,311.44132260000333,312.44133079994936,312.4246476999833,313.42466879996937,0,1,311.44132260000333,None,,,8,f,5,r,CIB,2021_Oct_08_1525,WASABI Nback,2020.2.10,59.96925976074086,
0,1,7,"[-0.2, -0.2]",None,0,0,0,0,,,,,0,0,0,0,0,97,97,97,,,,,,,,,None,None,0,313.4413428999833,None,313.4413428999833,314.44133879995206,314.42466599994805,315.42467349994695,0,1,313.4413428999833,None,,,8,f,5,r,CIB,2021_Oct_08_1525,WASABI Nback,2020.2.10,59.96925976074086,
0,1,4,"[-0.2, 0]",1,0,0,0,0,,,,,0,0,0,0,0,98,98,98,,,,,,,,,None,None,0,315.4413459999487,None,315.4413459999487,316.4413624999579,316.42469759995583,317.42469009995693,0,1,315.4413459999487,None,,,8,f,5,r,CIB,2021_Oct_08_1525,WASABI Nback,2020.2.10,59.96925976074086,
0,1,3,"[0.2, 0.2]",None,0,0,0,0,,,,,0,0,0,0,0,99,99,99,,,,,,,,,None,None,0,317.44136679999065,None,317.44136679999065,318.4413676999975,318.42471900000237,319.42473999998765,0,1,317.44136679999065,None,,,8,f,5,r,CIB,2021_Oct_08_1525,WASABI Nback,2020.2.10,59.96925976074086,
0,1,5,"[0, 0]",None,0,0,0,0,,,,,0,0,0,0,0,100,100,100,,,,,,,,,None,None,0,319.44138329999987,None,319.44138329999987,320.44139449996874,320.4247403999907,321.4247234999784,0,1,319.44138329999987,None,,,8,f,5,r,CIB,2021_Oct_08_1525,WASABI Nback,2020.2.10,59.96925976074086,
0,1,3,"[0.2, 0.2]",1,0,0,0,0,,,,,0,0,0,0,0,101,101,101,,,,,,,,,None,None,0,321.441386099963,None,321.441386099963,322.4413239999558,322.4246378999669,323.42474099999527,0,1,321.441386099963,None,,,8,f,5,r,CIB,2021_Oct_08_1525,WASABI Nback,2020.2.10,59.96925976074086,
0,1,1,"[-0.2, 0.2]",None,0,0,0,0,,,,,0,0,0,0,0,102,102,102,,,,,,,,,None,None,0,323.44141879997915,None,323.44141879997915,324.44140709994826,324.42474329995457,325.4247586999554,0,1,323.44141879997915,None,,,8,f,5,r,CIB,2021_Oct_08_1525,WASABI Nback,2020.2.10,59.96925976074086,
0,1,9,"[0.2, -0.2]",None,0,0,0,0,,,,,0,0,0,0,0,103,103,103,,,,,,,,,None,None,0,325.4414333999739,None,325.4414333999739,326.4414194999845,326.42476589995204,327.4247855999856,0,1,325.4414333999739,None,,,8,f,5,r,CIB,2021_Oct_08_1525,WASABI Nback,2020.2.10,59.96925976074086,
0,1,9,"[0.2, -0.2]",None,0,0,0,0,,,,,0,0,0,0,0,104,104,104,,,,,,,,,None,None,0,327.44144569995115,None,327.44144569995115,328.4414462999557,328.42478609998943,329.4247855999856,0,1,327.44144569995115,None,,,8,f,5,r,CIB,2021_Oct_08_1525,WASABI Nback,2020.2.10,59.96925976074086,
0,1,8,"[0, -0.2]",None,0,0,0,0,,,,,0,0,0,0,0,105,105,105,,,,,,,,,None,None,0,329.4414467999595,None,329.4414467999595,330.44146969995927,330.4248111999477,331.4248021999956,0,1,329.4414467999595,None,,,8,f,5,r,CIB,2021_Oct_08_1525,WASABI Nback,2020.2.10,59.96925976074086,
0,1,6,"[0.2, 0]",None,0,0,0,0,,,,,0,0,0,0,0,106,106,106,,,,,,,,,None,None,0,331.44146559998626,None,331.44146559998626,332.4414661999908,332.42482099996414,333.4248174999957,0,1,331.44146559998626,None,,,8,f,5,r,CIB,2021_Oct_08_1525,WASABI Nback,2020.2.10,59.96925976074086,
0,1,3,"[0.2, 0.2]",None,0,0,0,0,,,,,0,0,0,0,0,107,107,107,,,,,,,,,None,None,0,333.4414874999784,None,333.4414874999784,334.44148270000005,334.4248233999824,335.42471900000237,0,1,333.4414874999784,None,,,8,f,5,r,CIB,2021_Oct_08_1525,WASABI Nback,2020.2.10,59.96925976074086,
0,1,6,"[0.2, 0]",1,0,0,0,0,,,,,0,0,0,0,0,108,108,108,,,,,,,,,None,None,0,335.4415106999804,None,335.4415106999804,336.44151559995953,336.42484429996694,337.42485999997007,0,1,335.4415106999804,None,,,8,f,5,r,CIB,2021_Oct_08_1525,WASABI Nback,2020.2.10,59.96925976074086,
0,1,5,"[0, 0]",None,0,0,0,0,,,,,0,0,0,0,0,109,109,109,,,,,,,,,None,None,0,337.4415179999778,None,337.4415179999778,338.4415179999778,338.4248702999903,339.4248624999891,0,1,337.4415179999778,None,,,8,f,5,r,CIB,2021_Oct_08_1525,WASABI Nback,2020.2.10,59.96925976074086,
0,1,7,"[-0.2, -0.2]",None,0,0,0,0,,,,,0,0,0,0,0,110,110,110,,,,,,,,,None,None,0,339.44152719998965,None,339.44152719998965,340.44154379999964,340.4248834999744,341.4248789999983,0,1,339.44152719998965,None,,,8,f,5,r,CIB,2021_Oct_08_1525,WASABI Nback,2020.2.10,59.96925976074086,
0,1,5,"[0, 0]",1,0,0,0,0,,,,,0,0,0,0,0,111,111,111,,,,,,,,,None,None,0,341.4415560999769,None,341.4415560999769,342.44155829999363,342.42488849995425,343.4248683999758,0,1,341.4415560999769,None,,,8,f,5,r,CIB,2021_Oct_08_1525,WASABI Nback,2020.2.10,59.96925976074086,
0,1,1,"[-0.2, 0.2]",None,0,0,0,0,,,,,0,0,0,0,0,112,112,112,,,,,,,,,None,None,0,343.44156239996664,None,343.44156239996664,344.44158099999186,344.42491439997684,345.4249232999864,0,1,343.44156239996664,None,,,8,f,5,r,CIB,2021_Oct_08_1525,WASABI Nback,2020.2.10,59.96925976074086,
0,1,7,"[-0.2, -0.2]",None,0,0,0,0,,,,,0,0,0,0,0,113,113,113,,,,,,,,,None,None,0,345.4415797999827,None,345.4415797999827,346.4415890999953,346.42493009998,347.42493039998226,0,0,345.4415797999827,None,,,8,f,5,r,CIB,2021_Oct_08_1525,WASABI Nback,2020.2.10,59.96925976074086,
0,1,9,"[0.2, -0.2]",None,0,0,0,0,,,,,0,0,0,0,0,114,114,114,,,,,,,,,None,None,0,347.4416018999764,None,347.4416018999764,348.4416020999779,348.4249499999569,349.424940900004,0,1,347.4416018999764,None,,,8,f,5,r,CIB,2021_Oct_08_1525,WASABI Nback,2020.2.10,59.96925976074086,
0,1,3,"[0.2, 0.2]",None,0,0,0,0,,,,,0,0,0,0,0,115,115,115,,,,,,,,,None,None,0,349.4416300999583,None,349.4416300999583,350.4416149999597,350.42495729995426,351.424973999965,0,1,349.4416300999583,None,,,8,f,5,r,CIB,2021_Oct_08_1525,WASABI Nback,2020.2.10,59.96925976074086,
0,1,9,"[0.2, -0.2]",1,0,0,0,0,,,,,0,0,0,0,0,116,116,116,,,,,,,,,None,None,0,351.44163169997046,None,351.44163169997046,352.44162939995294,352.42498159996467,353.42497130000265,0,1,351.44163169997046,None,,,8,f,5,r,CIB,2021_Oct_08_1525,WASABI Nback,2020.2.10,59.96925976074086,
0,1,6,"[0.2, 0]",None,0,0,0,0,,,,,0,0,0,0,0,117,117,117,,,,,,,,,None,None,0,353.4416341999895,None,353.4416341999895,354.44164439995075,354.42496869998286,355.4249948999495,0,1,353.4416341999895,None,,,8,f,5,r,CIB,2021_Oct_08_1525,WASABI Nback,2020.2.10,59.96925976074086,
0,1,2,"[0, 0.2]",None,0,0,0,0,,,,,0,0,0,0,0,118,118,118,,,,,,,,,None,None,0,355.4416626999737,None,355.4416626999737,356.44167599995853,356.4249936999986,357.4250005999929,0,1,355.4416626999737,None,,,8,f,5,r,CIB,2021_Oct_08_1525,WASABI Nback,2020.2.10,59.96925976074086,
0,1,5,"[0, 0]",None,0,0,0,0,,,,,0,0,0,0,0,119,119,119,,,,,,,,,None,None,0,357.4416701999726,None,357.4416701999726,358.4416597999516,358.4250164999976,359.42501629999606,0,1,357.4416701999726,None,,,8,f,5,r,CIB,2021_Oct_08_1525,WASABI Nback,2020.2.10,59.96925976074086,
1,0,,,,0,1,1,1,0,0,0,0,,,,,,,,,,,,,,,,,,,,,,,,,,,,,,418.02549319999525,None,8,f,5,r,CIB,2021_Oct_08_1525,WASABI Nback,2020.2.10,59.96925976074086,
