	SID	day	sex	session	handedness	scanner	onset	duration	value	body_site	skin_site	temperature	condition	keys	rt	phase	biopac_channel
0	2586	3	F	03	R	MH	2.7749840000178665	5.00717916758731		Left Leg	2	48.0	Instructions			Control	19
1	2586	3	F	03	R	MH	8.109001900069416	5.008212699904107	36.7283950617284	Left Leg	2	48.0	Expectancy		2.6858892999589443	Control	51
2	2586	3	F	03	R	MH	13.510363599983975	2.0055406800238416		Left Leg	2	48.0	Cue			Control	6
3	2586	3	F	03	R	MH	15.525613200035878	4.008448570035398		Left Leg	2	48.0	Pre-Jitter			Control	7
4	2586	3	F	03	R	MH	19.564823399996385	15.013596209930256		Left Leg	2	48.0	Control Heat 			Control	15
5	2586	3	F	03	R	MH	34.57318499998655	8.997120769927278		Left Leg	2	48.0	Mid-Jitter			Control	8
6	2586	3	F	03	R	MH	43.592014600057155	5.00953474000562	1.0	Left Leg	2	48.0	PainBinary		0.9690209999680519	Control	20
7	2586	3	F	03	R	MH	48.62308530008886	5.014271339983679	30.617283950617285	Left Leg	2	48.0	IntensityRating		2.6166824999963865	Control	21
8	2586	3	F	03	R	MH	53.64298180001788	9.007981269969605		Left Leg	2	48.0	Post-Q-Jitter			Control	9
9	2586	3	F	03	R	MH	63.339705000049435	5.0144963399507105	31.296296296296294	Left Leg	2	48.0	Expectancy		3.0500421000178903	Control	51
10	2586	3	F	03	R	MH	68.73150690004695	2.0143462799023837		Left Leg	2	48.0	Cue			Control	6
11	2586	3	F	03	R	MH	70.741850099992	5.993773569935001		Left Leg	2	48.0	Pre-Jitter			Control	7
12	2586	3	F	03	R	MH	76.78551060007885	15.006725879968144		Left Leg	2	48.0	Control Heat 			Control	15
13	2586	3	F	03	R	MH	91.79108009999618	4.995789369917475		Left Leg	2	48.0	Mid-Jitter			Control	8
14	2586	3	F	03	R	MH	96.8091309000738	5.009788239956833	1.0	Left Leg	2	48.0	PainBinary		1.3354864999419078	Control	20
15	2586	3	F	03	R	MH	101.84093559999019	5.012936240062118	31.11111111111111	Left Leg	2	48.0	IntensityRating		3.3167102999286726	Control	21
16	2586	3	F	03	R	MH	106.85908690001816	4.993403170024976		Left Leg	2	48.0	Post-Q-Jitter			Control	9
17	2586	3	F	03	R	MH	112.0283854000736	5.0048718699254096	30.925925925925927	Left Leg	2	48.0	Expectancy		2.416679500020109	Control	51
18	2586	3	F	03	R	MH	117.41236730001401	2.0036219101166353		Left Leg	2	48.0	Cue			Control	6
19	2586	3	F	03	R	MH	119.42595170007553	8.009931169915944		Left Leg	2	48.0	Pre-Jitter			Control	7
20	2586	3	F	03	R	MH	127.47311670007184	14.999161010026		Left Leg	2	48.0	Control Heat 			Control	15
21	2586	3	F	03	R	MH	142.47354869998526	8.998561069951393		Left Leg	2	48.0	Mid-Jitter			Control	8
22	2586	3	F	03	R	MH	151.49197810003534	4.995149740134366	1.0	Left Leg	2	48.0	PainBinary		0.8345557000720873	Control	20
23	2586	3	F	03	R	MH	156.50769630004652	5.013851040042937	32.901234567901234	Left Leg	2	48.0	IntensityRating		2.766639900044538	Control	21
24	2586	3	F	03	R	MH	161.52708780008834	9.008549869875424		Left Leg	2	48.0	Post-Q-Jitter			Control	9
25	2586	3	F	03	R	MH	170.73817010002676	5.0031592099694535	30.864197530864196	Left Leg	2	48.0	Expectancy		3.683688799967058	Control	51
26	2586	3	F	03	R	MH	176.12885720003396	2.0051545798778534		Left Leg	2	48.0	Cue			Control	6
27	2586	3	F	03	R	MH	178.14396340004168	6.008407370070927		Left Leg	2	48.0	Pre-Jitter			Control	7
28	2586	3	F	03	R	MH	184.1935131000355	15.009537309990264		Left Leg	2	48.0	Control Heat 			Control	15
29	2586	3	F	03	R	MH	199.20752040005755	4.998415769892745		Left Leg	2	48.0	Mid-Jitter			Control	8
30	2586	3	F	03	R	MH	204.22585320007056	4.9951580399647355	1.0	Left Leg	2	48.0	PainBinary		0.8006511999992654	Control	20
31	2586	3	F	03	R	MH	209.2418566000415	4.996603940031491	34.01234567901235	Left Leg	2	48.0	IntensityRating		2.984495000098832	Control	21
32	2586	3	F	03	R	MH	214.24423110007774	5.008611969999038		Left Leg	2	48.0	Post-Q-Jitter			Control	9
33	2586	3	F	03	R	MH	219.4665144000901	5.0141107798554	30.432098765432098	Left Leg	2	48.0	Expectancy		2.6003185999579728	Control	51
34	2586	3	F	03	R	MH	224.84611250006128	2.0049662098754197		Left Leg	2	48.0	Cue			Control	6
35	2586	3	F	03	R	MH	226.86022490006872	8.010211269953288		Left Leg	2	48.0	Pre-Jitter			Control	7
36	2586	3	F	03	R	MH	234.90883720002603	14.996557009988464		Left Leg	2	48.0	Control Heat 			Control	15
37	2586	3	F	03	R	MH	249.9093352999771	4.995626069838181		Left Leg	2	48.0	Mid-Jitter			Control	8
38	2586	3	F	03	R	MH	254.9263246000046	4.995094340061769	1.0	Left Leg	2	48.0	PainBinary		0.9200931000523269	Control	20
39	2586	3	F	03	R	MH	259.9431270000059	5.011726339929737	28.888888888888893	Left Leg	2	48.0	IntensityRating		3.4666062999749556	Control	21
40	2586	3	F	03	R	MH	264.96127040009014	5.008866569842212		Left Leg	2	48.0	Post-Q-Jitter			Control	9
41	2586	3	F	03	R	MH	270.6313236000715	5.002108699874952	29.691358024691354	Left Leg	2	48.0	Expectancy		3.6670040000462905	Control	51
42	2586	3	F	03	R	MH	276.0275846000295	2.0096868800465018		Left Leg	2	48.0	Cue			Control	6
43	2586	3	F	03	R	MH	278.04414510005154	8.010071169934236		Left Leg	2	48.0	Pre-Jitter			Control	7
44	2586	3	F	03	R	MH	286.1016150000505	15.012034479994327		Left Leg	2	48.0	Control Heat 			Control	15
45	2586	3	F	03	R	MH	301.10826310003176	6.998925469932146		Left Leg	2	48.0	Mid-Jitter			Control	8
46	2586	3	F	03	R	MH	308.1272254000651	5.01110843999777	1.0	Left Leg	2	48.0	PainBinary		0.9166852000635117	Control	20
47	2586	3	F	03	R	MH	313.15934890008066	5.013657239964232	30.555555555555554	Left Leg	2	48.0	IntensityRating		2.91670029994566	Control	21
48	2586	3	F	03	R	MH	318.17837360000703	7.009064869955182		Left Leg	2	48.0	Post-Q-Jitter			Control	9
49	2586	3	F	03	R	MH	325.21735200006515	2.397967609926127	-5.308641975308646	Left Leg	2	48.0	ComfortRating		2.3669631000375375	Control	26
50	2586	3	F	03	R	MH	327.6301642000908	3.6058083401294425	50.37037037037037	Left Leg	2	48.0	ValenceRating		3.583685899968259	Control	24
51	2586	3	F	03	R	MH	331.25842970004305	1.6993034400511533	56.111111111111114	Left Leg	2	48.0	IntensityRating		1.6836357000283897	Control	26
52	2586	3	F	03	R	MH	332.9762560999952	3.0303410399938002	49.1358024691358	Left Leg	2	48.0	AvoidanceRating		3.000035199918784	Control	27
53	2586	3	F	03	R	MH	336.02264640002977	2.254307640134357	50.0	Left Leg	2	48.0	RelaxationRating		2.2192454000469297	Control	28
54	2586	3	F	03	R	MH	338.29344080004375	3.096110140089877	72.40740740740742	Left Leg	2	48.0	AttentionRating		3.052518400014378	Control	29
55	2586	3	F	03	R	MH	341.4058534000069	2.354671139968559	20.432098765432098	Left Leg	2	48.0	BoredomRating		2.3341311000986025	Control	30
56	2586	3	F	03	R	MH	343.77606970001943	2.981044140062295	67.65432098765433	Left Leg	2	48.0	AlertnessRating		2.9672360999975353	Control	31
57	2586	3	F	03	R	MH	346.77490900002886	1.5833067401545122	0.0	Left Leg	2	48.0	PosThxRating		1.5669960000086576	Control	32
58	2586	3	F	03	R	MH	348.374979800079	2.299856740050018	0.0	Left Leg	2	48.0	NegThxRating		2.283666600007564	Control	33
59	2586	3	F	03	R	MH	350.69034460000694	2.385841240058653	24.938271604938265	Left Leg	2	48.0	SelfRating		2.3528735999716446	Control	34
60	2586	3	F	03	R	MH	353.0909742000513	2.834634940023534	-87.1604938271605	Left Leg	2	48.0	OtherRating		2.816998800029978	Control	35
61	2586	3	F	03	R	MH	355.94230810005683	4.59871394012589	-11.975308641975303	Left Leg	2	48.0	ImageryRating		4.584249499952421	Control	32
62	2586	3	F	03	R	MH	360.5606442000717	2.9287623399868608	87.16049382716048	Left Leg	2	48.0	PresentRating		2.9000401999801397	Control	37
