RestT1,TaskT1,square,location,corrAns,counterbalancer.thisRepN,counterbalancer.thisTrialN,counterbalancer.thisN,counterbalancer.thisIndex,RestT1Loop.thisRepN,RestT1Loop.thisTrialN,RestT1Loop.thisN,RestT1Loop.thisIndex,TaskT1Loop.thisRepN,TaskT1Loop.thisTrialN,TaskT1Loop.thisN,TaskT1Loop.thisIndex,trials_2.thisRepN,trials_2.thisTrialN,trials_2.thisN,trials_2.thisIndex,fixation_1.started,fixation_1.stopped,NbackInstructions.started,NbackInstructions.stopped,NbackStart.keys,NbackStart.rt,NbackStart.started,NbackStart.stopped,fixation_2.started,fixation_2.stopped,response_2.x,response_2.y,response_2.leftButton,grid_lines_2.started,grid_lines_2.stopped,target_square_2.started,target_square_2.stopped,fixation_3.started,fixation_3.stopped,response_2.click,response_2.corr,response_2.started,response_2.stopped,subject number,gender,session,handedness,scanner,date,expName,psychopyVersion,frameRate,
1,0,,,,0,0,0,0,0,0,0,0,,,,,,,,,78.93043090007268,None,,,,,,,,,,,,,,,,,,,,,,3,f,7,l,KB,2021_Jun_04_1154,WASABI Nback,2020.2.10,60.003768209453895,
0,1,,,,0,1,1,1,,,,,0,0,0,0,,,,,,,355.5662278998643,None,space,38.27141630020924,355.5662278998643,None,,,,,,,,,,,,,,,,3,f,7,l,KB,2021_Jun_04_1154,WASABI Nback,2020.2.10,60.003768209453895,
0,1,5,"[0, 0]",None,0,1,1,1,,,,,0,0,0,0,0,0,0,0,,,,,,,,,None,None,None,None,[],None,None,None,None,None,None,[],[],None,None,3,f,7,l,KB,2021_Jun_04_1154,WASABI Nback,2020.2.10,60.003768209453895,
0,1,2,"[0, 0.2]",None,0,1,1,1,,,,,0,0,0,0,0,1,1,1,,,,,,,,,,,None,None,[],None,None,None,None,None,None,[],[],None,None,3,f,7,l,KB,2021_Jun_04_1154,WASABI Nback,2020.2.10,60.003768209453895,
0,1,6,"[0.2, 0]",None,0,1,1,1,,,,,0,0,0,0,0,2,2,2,,,,,,,,,,,None,None,[],None,None,None,None,None,None,[],[],None,None,3,f,7,l,KB,2021_Jun_04_1154,WASABI Nback,2020.2.10,60.003768209453895,
0,1,9,"[0.2, -0.2]",None,0,1,1,1,,,,,0,0,0,0,0,3,3,3,,,,,,,,,,,None,None,[],None,None,None,None,None,None,[],[],None,None,3,f,7,l,KB,2021_Jun_04_1154,WASABI Nback,2020.2.10,60.003768209453895,
0,1,3,"[0.2, 0.2]",None,0,1,1,1,,,,,0,0,0,0,0,4,4,4,,,,,,,,,,,None,None,0,403.64996299985796,None,403.64996299985796,404.6499693999067,404.6166296999436,None,0,1,403.64996299985796,None,3,f,7,l,KB,2021_Jun_04_1154,WASABI Nback,2020.2.10,60.003768209453895,
0,1,9,"[0.2, -0.2]",1,0,1,1,1,,,,,0,0,0,0,0,5,5,5,,,,,,,,,,,None,None,0,404.88329639984295,None,404.88329639984295,405.88330830005,405.86663419986144,406.86664739996195,0,0,404.88329639984295,None,3,f,7,l,KB,2021_Jun_04_1154,WASABI Nback,2020.2.10,60.003768209453895,
0,1,7,"[-0.2, -0.2]",None,0,1,1,1,,,,,0,0,0,0,0,6,6,6,,,,,,,,,,,None,None,0,406.88330599991605,None,406.88330599991605,407.8833027998917,407.8666642999742,408.86665309988894,0,1,406.88330599991605,None,3,f,7,l,KB,2021_Jun_04_1154,WASABI Nback,2020.2.10,60.003768209453895,
0,1,1,"[-0.2, 0.2]",None,0,1,1,1,,,,,0,0,0,0,0,7,7,7,,,,,,,,,,,None,None,0,408.8833383999299,None,408.8833383999299,409.8833256000653,409.86666269996203,410.8665656000376,0,1,408.8833383999299,None,3,f,7,l,KB,2021_Jun_04_1154,WASABI Nback,2020.2.10,60.003768209453895,
0,1,5,"[0, 0]",None,0,1,1,1,,,,,0,0,0,0,0,8,8,8,,,,,,,,,,,None,None,0,410.88335819984786,None,410.88335819984786,411.8833583998494,411.8666795999743,412.86676390003413,0,1,410.88335819984786,None,3,f,7,l,KB,2021_Jun_04_1154,WASABI Nback,2020.2.10,60.003768209453895,
0,1,7,"[-0.2, -0.2]",None,0,1,1,1,,,,,0,0,0,0,0,9,9,9,,,,,,,,,,,None,None,0,412.883362499997,None,412.883362499997,413.8833474998828,413.86670490005054,414.8667128998786,0,1,412.883362499997,None,3,f,7,l,KB,2021_Jun_04_1154,WASABI Nback,2020.2.10,60.003768209453895,
0,1,5,"[0, 0]",1,0,1,1,1,,,,,0,0,0,0,0,10,10,10,,,,,,,,,,,None,None,0,414.88335369993,None,414.88335369993,415.8833967000246,415.8667082998436,416.8667323999107,0,1,414.88335369993,None,3,f,7,l,KB,2021_Jun_04_1154,WASABI Nback,2020.2.10,60.003768209453895,
0,1,6,"[0.2, 0]",None,0,1,1,1,,,,,0,0,0,0,0,11,11,11,,,,,,,,,,,None,None,0,416.88341149990447,None,416.88341149990447,417.8834015999455,417.8667142998893,418.86674760002643,0,1,416.88341149990447,None,3,f,7,l,KB,2021_Jun_04_1154,WASABI Nback,2020.2.10,60.003768209453895,
0,1,3,"[0.2, 0.2]",None,0,1,1,1,,,,,0,0,0,0,0,12,12,12,,,,,,,,,,,None,None,0,418.8834041999653,None,418.8834041999653,419.88342550001107,419.86675519985147,420.8667581998743,0,1,418.8834041999653,None,3,f,7,l,KB,2021_Jun_04_1154,WASABI Nback,2020.2.10,60.003768209453895,
0,1,6,"[0.2, 0]",1,0,1,1,1,,,,,0,0,0,0,0,13,13,13,,,,,,,,,,,None,None,0,420.8834263999015,None,420.8834263999015,421.88342870003544,421.86676819995046,422.8667830999475,0,1,420.8834263999015,None,3,f,7,l,KB,2021_Jun_04_1154,WASABI Nback,2020.2.10,60.003768209453895,
0,1,8,"[0, -0.2]",None,0,1,1,1,,,,,0,0,0,0,0,14,14,14,,,,,,,,,,,None,None,0,422.8834520999808,None,422.8834520999808,423.88346390007064,423.8667876999825,424.866791700013,0,1,422.8834520999808,None,3,f,7,l,KB,2021_Jun_04_1154,WASABI Nback,2020.2.10,60.003768209453895,
0,1,9,"[0.2, -0.2]",None,0,1,1,1,,,,,0,0,0,0,0,15,15,15,,,,,,,,,,,None,None,0,424.88345919991843,None,424.88345919991843,425.8834758999292,425.8668112999294,426.8667997000739,0,1,424.88345919991843,None,3,f,7,l,KB,2021_Jun_04_1154,WASABI Nback,2020.2.10,60.003768209453895,
0,1,9,"[0.2, -0.2]",None,0,1,1,1,,,,,0,0,0,0,0,16,16,16,,,,,,,,,,,None,None,0,426.88346969988197,None,426.88346969988197,427.88347520004027,427.8668281000573,428.8668344998732,0,1,426.88346969988197,None,3,f,7,l,KB,2021_Jun_04_1154,WASABI Nback,2020.2.10,60.003768209453895,
0,1,1,"[-0.2, 0.2]",None,0,1,1,1,,,,,0,0,0,0,0,17,17,17,,,,,,,,,,,None,None,0,428.88350680004805,None,428.88350680004805,429.8835459998809,429.8668200999964,430.86685210000724,0,1,428.88350680004805,None,3,f,7,l,KB,2021_Jun_04_1154,WASABI Nback,2020.2.10,60.003768209453895,
0,1,3,"[0.2, 0.2]",None,0,1,1,1,,,,,0,0,0,0,0,18,18,18,,,,,,,,,,,None,None,0,430.88350780005567,None,430.88350780005567,431.8835072000511,431.86685650004074,432.8668529998977,0,1,430.88350780005567,None,3,f,7,l,KB,2021_Jun_04_1154,WASABI Nback,2020.2.10,60.003768209453895,
0,1,5,"[0, 0]",None,0,1,1,1,,,,,0,0,0,0,0,19,19,19,,,,,,,,,,,None,None,0,432.8835270998534,None,432.8835270998534,433.88353889994323,433.8668784999754,434.8668811998796,0,1,432.8835270998534,None,3,f,7,l,KB,2021_Jun_04_1154,WASABI Nback,2020.2.10,60.003768209453895,
0,1,3,"[0.2, 0.2]",1,0,1,1,1,,,,,0,0,0,0,0,20,20,20,,,,,,,,,,,None,None,0,434.88343070005067,None,434.88343070005067,435.88388159987517,435.8668744000606,436.86688979994506,0,1,434.88343070005067,None,3,f,7,l,KB,2021_Jun_04_1154,WASABI Nback,2020.2.10,60.003768209453895,
0,1,4,"[-0.2, 0]",None,0,1,1,1,,,,,0,0,0,0,0,21,21,21,,,,,,,,,,,None,None,0,436.883571599843,None,436.883571599843,437.88357120007277,437.86691049998626,438.86690069991164,0,1,436.883571599843,None,3,f,7,l,KB,2021_Jun_04_1154,WASABI Nback,2020.2.10,60.003768209453895,
0,1,7,"[-0.2, -0.2]",None,0,1,1,1,,,,,0,0,0,0,0,22,22,22,,,,,,,,,,,None,None,0,438.88358390005305,None,438.88358390005305,439.8835859000683,439.86691799992695,440.86693720007315,0,1,438.88358390005305,None,3,f,7,l,KB,2021_Jun_04_1154,WASABI Nback,2020.2.10,60.003768209453895,
0,1,4,"[-0.2, 0]",1,0,1,1,1,,,,,0,0,0,0,0,23,23,23,,,,,,,,,,,None,None,0,440.8835881999694,None,440.8835881999694,441.88360819988884,441.8669364999514,442.8669447998982,0,1,440.8835881999694,None,3,f,7,l,KB,2021_Jun_04_1154,WASABI Nback,2020.2.10,60.003768209453895,
0,1,4,"[-0.2, 0]",None,0,1,1,1,,,,,0,0,0,0,0,24,24,24,,,,,,,,,,,None,None,0,442.88360169995576,None,442.88360169995576,443.8836308000609,443.86695889988914,444.8669687998481,0,1,442.88360169995576,None,3,f,7,l,KB,2021_Jun_04_1154,WASABI Nback,2020.2.10,60.003768209453895,
0,1,5,"[0, 0]",None,0,1,1,1,,,,,0,0,0,0,0,25,25,25,,,,,,,,,,,None,None,0,444.8836417000275,None,444.8836417000275,445.88362809992395,445.8669745998923,446.8669860998634,0,1,444.8836417000275,None,3,f,7,l,KB,2021_Jun_04_1154,WASABI Nback,2020.2.10,60.003768209453895,
0,1,2,"[0, 0.2]",None,0,1,1,1,,,,,0,0,0,0,0,26,26,26,,,,,,,,,,,None,None,0,446.8836568999104,None,446.8836568999104,447.8837063999381,447.8670212000143,448.8669920999091,0,1,446.8836568999104,None,3,f,7,l,KB,2021_Jun_04_1154,WASABI Nback,2020.2.10,60.003768209453895,
0,1,6,"[0.2, 0]",None,0,1,1,1,,,,,0,0,0,0,0,27,27,27,,,,,,,,,,,None,None,0,448.88367010001093,None,448.88367010001093,449.8836916000582,449.8670105000492,450.8670198000036,0,1,448.88367010001093,None,3,f,7,l,KB,2021_Jun_04_1154,WASABI Nback,2020.2.10,60.003768209453895,
0,1,7,"[-0.2, -0.2]",None,0,1,1,1,,,,,0,0,0,0,0,28,28,28,,,,,,,,,,,None,None,0,450.88369529997,None,450.88369529997,451.88370759994723,451.8670139000751,452.8670502998866,0,1,450.88369529997,None,3,f,7,l,KB,2021_Jun_04_1154,WASABI Nback,2020.2.10,60.003768209453895,
0,1,6,"[0.2, 0]",1,0,1,1,1,,,,,0,0,0,0,0,29,29,29,,,,,,,,,,,None,None,0,452.88370530004613,None,452.88370530004613,453.8837206000462,453.86704299994744,454.86704479996115,0,1,452.88370530004613,None,3,f,7,l,KB,2021_Jun_04_1154,WASABI Nback,2020.2.10,60.003768209453895,
0,1,6,"[0.2, 0]",None,0,1,1,1,,,,,0,0,0,0,0,30,30,30,,,,,,,,,,,None,None,0,454.88373159989715,None,454.88373159989715,455.883743399987,455.8670588999521,456.8670550000388,0,1,454.88373159989715,None,3,f,7,l,KB,2021_Jun_04_1154,WASABI Nback,2020.2.10,60.003768209453895,
0,1,7,"[-0.2, -0.2]",None,0,1,1,1,,,,,0,0,0,0,0,31,31,31,,,,,,,,,,,None,None,0,456.88373989984393,None,456.88373989984393,457.88374139997177,457.86708280001767,458.8670880999416,0,1,456.88373989984393,None,3,f,7,l,KB,2021_Jun_04_1154,WASABI Nback,2020.2.10,60.003768209453895,
0,1,6,"[0.2, 0]",1,0,1,1,1,,,,,0,0,0,0,0,32,32,32,,,,,,,,,,,None,None,0,458.883763599908,None,458.883763599908,459.8837613000069,459.86702200002037,460.8670965000056,0,1,458.883763599908,None,3,f,7,l,KB,2021_Jun_04_1154,WASABI Nback,2020.2.10,60.003768209453895,
0,1,2,"[0, 0.2]",None,0,1,1,1,,,,,0,0,0,0,0,33,33,33,,,,,,,,,,,None,None,0,460.8837598999962,None,460.8837598999962,461.88380089984275,461.8671925000381,462.86710839997977,0,1,460.8837598999962,None,3,f,7,l,KB,2021_Jun_04_1154,WASABI Nback,2020.2.10,60.003768209453895,
0,1,5,"[0, 0]",None,0,1,1,1,,,,,0,0,0,0,0,34,34,34,,,,,,,,,,,None,None,0,462.8837991000619,None,462.8837991000619,463.8837923000101,463.8671313999221,464.867129100021,0,1,462.8837991000619,None,3,f,7,l,KB,2021_Jun_04_1154,WASABI Nback,2020.2.10,60.003768209453895,
0,1,4,"[-0.2, 0]",None,0,1,1,1,,,,,0,0,0,0,0,35,35,35,,,,,,,,,,,None,None,0,464.8838221000042,None,464.8838221000042,465.8838165998459,465.8671395999845,466.86715759988874,0,1,464.8838221000042,None,3,f,7,l,KB,2021_Jun_04_1154,WASABI Nback,2020.2.10,60.003768209453895,
0,1,4,"[-0.2, 0]",None,0,1,1,1,,,,,0,0,0,0,0,36,36,36,,,,,,,,,,,None,None,0,466.8838206999935,None,466.8838206999935,467.8838221998885,467.86715779989026,468.86717389989644,0,1,466.8838206999935,None,3,f,7,l,KB,2021_Jun_04_1154,WASABI Nback,2020.2.10,60.003768209453895,
0,1,7,"[-0.2, -0.2]",None,0,1,1,1,,,,,0,0,0,0,0,37,37,37,,,,,,,,,,,None,None,0,468.88381619984284,None,468.88381619984284,469.88381819985807,469.8671768999193,470.8671863998752,0,1,468.88381619984284,None,3,f,7,l,KB,2021_Jun_04_1154,WASABI Nback,2020.2.10,60.003768209453895,
0,1,4,"[-0.2, 0]",1,0,1,1,1,,,,,0,0,0,0,0,38,38,38,,,,,,,,,,,None,None,0,470.8838380998932,None,470.8838380998932,471.8838428000454,471.8671822999604,472.86720940005034,0,0,470.8838380998932,None,3,f,7,l,KB,2021_Jun_04_1154,WASABI Nback,2020.2.10,60.003768209453895,
0,1,3,"[0.2, 0.2]",None,0,1,1,1,,,,,0,0,0,0,0,39,39,39,,,,,,,,,,,None,None,0,472.8838855000213,None,472.8838855000213,473.88387669995427,473.8671982998494,474.867222199915,0,1,472.8838855000213,None,3,f,7,l,KB,2021_Jun_04_1154,WASABI Nback,2020.2.10,60.003768209453895,
0,1,5,"[0, 0]",None,0,1,1,1,,,,,0,0,0,0,0,40,40,40,,,,,,,,,,,None,None,0,474.88388970005326,None,474.88388970005326,475.88388879993,475.86723929992877,476.8672499000095,0,1,474.88388970005326,None,3,f,7,l,KB,2021_Jun_04_1154,WASABI Nback,2020.2.10,60.003768209453895,
0,1,3,"[0.2, 0.2]",1,0,1,1,1,,,,,0,0,0,0,0,41,41,41,,,,,,,,,,,None,None,0,476.8838973999955,None,476.8838973999955,477.88393909996375,477.86730759986676,478.86726239998825,0,0,476.8838973999955,None,3,f,7,l,KB,2021_Jun_04_1154,WASABI Nback,2020.2.10,60.003768209453895,
0,1,1,"[-0.2, 0.2]",None,0,1,1,1,,,,,0,0,0,0,0,42,42,42,,,,,,,,,,,None,None,0,478.88392699998803,None,478.88392699998803,479.8839546998497,479.8672656000126,480.8672624998726,0,1,478.88392699998803,None,3,f,7,l,KB,2021_Jun_04_1154,WASABI Nback,2020.2.10,60.003768209453895,
0,1,9,"[0.2, -0.2]",None,0,1,1,1,,,,,0,0,0,0,0,43,43,43,,,,,,,,,,,None,None,0,480.88393400004134,None,480.88393400004134,481.88394499989226,481.8672843000386,482.86729369987734,0,1,480.88393400004134,None,3,f,7,l,KB,2021_Jun_04_1154,WASABI Nback,2020.2.10,60.003768209453895,
0,1,9,"[0.2, -0.2]",None,0,1,1,1,,,,,0,0,0,0,0,44,44,44,,,,,,,,,,,None,None,0,482.88397759990767,None,482.88397759990767,483.8839509000536,483.8672966999002,484.86718109995127,0,1,482.88397759990767,None,3,f,7,l,KB,2021_Jun_04_1154,WASABI Nback,2020.2.10,60.003768209453895,
0,1,8,"[0, -0.2]",None,0,1,1,1,,,,,0,0,0,0,0,45,45,45,,,,,,,,,,,None,None,0,484.88399009988643,None,484.88399009988643,485.8839996000752,485.867313799914,486.86731359991245,0,1,484.88399009988643,None,3,f,7,l,KB,2021_Jun_04_1154,WASABI Nback,2020.2.10,60.003768209453895,
0,1,6,"[0.2, 0]",None,0,1,1,1,,,,,0,0,0,0,0,46,46,46,,,,,,,,,,,None,None,0,486.8840001998469,None,486.8840001998469,487.8839922999032,487.8673171000555,488.86732479999773,0,1,486.8840001998469,None,3,f,7,l,KB,2021_Jun_04_1154,WASABI Nback,2020.2.10,60.003768209453895,
0,1,3,"[0.2, 0.2]",None,0,1,1,1,,,,,0,0,0,0,0,47,47,47,,,,,,,,,,,None,None,0,488.88401799998246,None,488.88401799998246,489.8840065000113,489.86733859987,490.86736280005425,0,1,488.88401799998246,None,3,f,7,l,KB,2021_Jun_04_1154,WASABI Nback,2020.2.10,60.003768209453895,
0,1,6,"[0.2, 0]",1,0,1,1,1,,,,,0,0,0,0,0,48,48,48,,,,,,,,,,,None,None,0,490.88403299986385,None,490.88403299986385,491.8840162998531,491.8673622000497,492.86738219996914,0,0,490.88403299986385,None,3,f,7,l,KB,2021_Jun_04_1154,WASABI Nback,2020.2.10,60.003768209453895,
0,1,5,"[0, 0]",None,0,1,1,1,,,,,0,0,0,0,0,49,49,49,,,,,,,,,,,None,None,0,492.8840318999719,None,492.8840318999719,493.88407010002993,493.8673894999083,494.86736349994317,0,1,492.8840318999719,None,3,f,7,l,KB,2021_Jun_04_1154,WASABI Nback,2020.2.10,60.003768209453895,
0,1,7,"[-0.2, -0.2]",None,0,1,1,1,,,,,0,0,0,0,0,50,50,50,,,,,,,,,,,None,None,0,494.88406229997054,None,494.88406229997054,495.8840633998625,495.8674031998962,496.8674067000393,0,1,494.88406229997054,None,3,f,7,l,KB,2021_Jun_04_1154,WASABI Nback,2020.2.10,60.003768209453895,
0,1,5,"[0, 0]",1,0,1,1,1,,,,,0,0,0,0,0,51,51,51,,,,,,,,,,,None,None,0,496.88408609991893,None,496.88408609991893,497.8840884999372,497.8674115999602,498.86741940001957,0,0,496.88408609991893,None,3,f,7,l,KB,2021_Jun_04_1154,WASABI Nback,2020.2.10,60.003768209453895,
0,1,1,"[-0.2, 0.2]",None,0,1,1,1,,,,,0,0,0,0,0,52,52,52,,,,,,,,,,,None,None,0,498.8840973000042,None,498.8840973000042,499.8841089999769,499.8674293998629,500.867445099866,0,1,498.8840973000042,None,3,f,7,l,KB,2021_Jun_04_1154,WASABI Nback,2020.2.10,60.003768209453895,
0,1,7,"[-0.2, -0.2]",None,0,1,1,1,,,,,0,0,0,0,0,53,53,53,,,,,,,,,,,None,None,0,500.88410359993577,None,500.88410359993577,501.88412199984305,501.8674546999391,502.86743890005164,0,1,500.88410359993577,None,3,f,7,l,KB,2021_Jun_04_1154,WASABI Nback,2020.2.10,60.003768209453895,
0,1,9,"[0.2, -0.2]",None,0,1,1,1,,,,,0,0,0,0,0,54,54,54,,,,,,,,,,,None,None,0,502.8841291000135,None,502.8841291000135,503.8841275998857,503.867471100064,504.86748180002905,0,1,502.8841291000135,None,3,f,7,l,KB,2021_Jun_04_1154,WASABI Nback,2020.2.10,60.003768209453895,
0,1,3,"[0.2, 0.2]",None,0,1,1,1,,,,,0,0,0,0,0,55,55,55,,,,,,,,,,,None,None,0,504.88415999989957,None,504.88415999989957,505.88413259992376,505.86749590002,506.86747070006095,0,1,504.88415999989957,None,3,f,7,l,KB,2021_Jun_04_1154,WASABI Nback,2020.2.10,60.003768209453895,
0,1,9,"[0.2, -0.2]",1,0,1,1,1,,,,,0,0,0,0,0,56,56,56,,,,,,,,,,,None,None,0,506.8841810999438,None,506.8841810999438,507.8841899000108,507.8675136999227,508.86752610001713,0,1,506.8841810999438,None,3,f,7,l,KB,2021_Jun_04_1154,WASABI Nback,2020.2.10,60.003768209453895,
0,1,6,"[0.2, 0]",None,0,1,1,1,,,,,0,0,0,0,0,57,57,57,,,,,,,,,,,None,None,0,508.88416259991936,None,508.88416259991936,509.8842269999441,509.86746359989047,510.8675313999411,0,1,508.88416259991936,None,3,f,7,l,KB,2021_Jun_04_1154,WASABI Nback,2020.2.10,60.003768209453895,
0,1,2,"[0, 0.2]",None,0,1,1,1,,,,,0,0,0,0,0,58,58,58,,,,,,,,,,,None,None,0,510.8842005999759,None,510.8842005999759,511.88421979988925,511.86754149990156,512.8675495998468,0,1,510.8842005999759,None,3,f,7,l,KB,2021_Jun_04_1154,WASABI Nback,2020.2.10,60.003768209453895,
0,1,5,"[0, 0]",None,0,1,1,1,,,,,0,0,0,0,0,59,59,59,,,,,,,,,,,None,None,0,512.8842305999715,None,512.8842305999715,513.8842358998954,513.8675579000264,514.8675714000128,0,1,512.8842305999715,None,3,f,7,l,KB,2021_Jun_04_1154,WASABI Nback,2020.2.10,60.003768209453895,
0,1,5,"[0, 0]",None,0,1,1,1,,,,,0,0,0,0,0,60,60,60,,,,,,,,,,,None,None,0,514.8842253000475,None,514.8842253000475,515.8842339999974,515.8675772999413,516.8675829998683,0,1,514.8842253000475,None,3,f,7,l,KB,2021_Jun_04_1154,WASABI Nback,2020.2.10,60.003768209453895,
0,1,2,"[0, 0.2]",None,0,1,1,1,,,,,0,0,0,0,0,61,61,61,,,,,,,,,,,None,None,0,516.8842573000584,None,516.8842573000584,517.8842662998941,517.8675965999719,518.8675974998623,0,1,516.8842573000584,None,3,f,7,l,KB,2021_Jun_04_1154,WASABI Nback,2020.2.10,60.003768209453895,
0,1,6,"[0.2, 0]",None,0,1,1,1,,,,,0,0,0,0,0,62,62,62,,,,,,,,,,,None,None,0,518.8842796999961,None,518.8842796999961,519.8842827999033,519.8676129998639,520.8676100999583,0,1,518.8842796999961,None,3,f,7,l,KB,2021_Jun_04_1154,WASABI Nback,2020.2.10,60.003768209453895,
0,1,9,"[0.2, -0.2]",None,0,1,1,1,,,,,0,0,0,0,0,63,63,63,,,,,,,,,,,None,None,0,520.8842807000037,None,520.8842807000037,521.8842815000098,521.867626799969,522.8676638000179,0,1,520.8842807000037,None,3,f,7,l,KB,2021_Jun_04_1154,WASABI Nback,2020.2.10,60.003768209453895,
0,1,3,"[0.2, 0.2]",None,0,1,1,1,,,,,0,0,0,0,0,64,64,64,,,,,,,,,,,None,None,0,522.8843171000481,None,522.8843171000481,523.8843028000556,523.8676527000498,524.8676535999402,0,1,522.8843171000481,None,3,f,7,l,KB,2021_Jun_04_1154,WASABI Nback,2020.2.10,60.003768209453895,
0,1,9,"[0.2, -0.2]",1,0,1,1,1,,,,,0,0,0,0,0,65,65,65,,,,,,,,,,,None,None,0,524.8843070999719,None,524.8843070999719,525.884342599893,525.8676588998642,526.8677357998677,0,0,524.8843070999719,None,3,f,7,l,KB,2021_Jun_04_1154,WASABI Nback,2020.2.10,60.003768209453895,
0,1,7,"[-0.2, -0.2]",None,0,1,1,1,,,,,0,0,0,0,0,66,66,66,,,,,,,,,,,None,None,0,526.8843316000421,None,526.8843316000421,527.8843328000512,527.8676843000576,528.8676857000683,0,1,526.8843316000421,None,3,f,7,l,KB,2021_Jun_04_1154,WASABI Nback,2020.2.10,60.003768209453895,
0,1,1,"[-0.2, 0.2]",None,0,1,1,1,,,,,0,0,0,0,0,67,67,67,,,,,,,,,,,None,None,0,528.8843332000542,None,528.8843332000542,529.8843551999889,529.8676990000531,530.8677143999375,0,1,528.8843332000542,None,3,f,7,l,KB,2021_Jun_04_1154,WASABI Nback,2020.2.10,60.003768209453895,
0,1,5,"[0, 0]",None,0,1,1,1,,,,,0,0,0,0,0,68,68,68,,,,,,,,,,,None,None,0,530.8843793999404,None,530.8843793999404,531.8843753000256,531.867714199936,532.8677833999973,0,1,530.8843793999404,None,3,f,7,l,KB,2021_Jun_04_1154,WASABI Nback,2020.2.10,60.003768209453895,
0,1,7,"[-0.2, -0.2]",None,0,1,1,1,,,,,0,0,0,0,0,69,69,69,,,,,,,,,,,None,None,0,532.8843950999435,None,532.8843950999435,533.8843854998704,533.8677318999544,534.8677354999818,0,1,532.8843950999435,None,3,f,7,l,KB,2021_Jun_04_1154,WASABI Nback,2020.2.10,60.003768209453895,
0,1,5,"[0, 0]",1,0,1,1,1,,,,,0,0,0,0,0,70,70,70,,,,,,,,,,,None,None,0,534.8844186998904,None,534.8844186998904,535.8844085999299,535.867732899962,536.8677588999271,0,0,534.8844186998904,None,3,f,7,l,KB,2021_Jun_04_1154,WASABI Nback,2020.2.10,60.003768209453895,
0,1,6,"[0.2, 0]",None,0,1,1,1,,,,,0,0,0,0,0,71,71,71,,,,,,,,,,,None,None,0,536.8844031000044,None,536.8844031000044,537.8844165999908,537.8677574999165,538.867655799957,0,1,536.8844031000044,None,3,f,7,l,KB,2021_Jun_04_1154,WASABI Nback,2020.2.10,60.003768209453895,
0,1,3,"[0.2, 0.2]",None,0,1,1,1,,,,,0,0,0,0,0,72,72,72,,,,,,,,,,,None,None,0,538.8844294999726,None,538.8844294999726,539.8844264999498,539.8678105999716,540.8677906999364,0,1,538.8844294999726,None,3,f,7,l,KB,2021_Jun_04_1154,WASABI Nback,2020.2.10,60.003768209453895,
0,1,6,"[0.2, 0]",1,0,1,1,1,,,,,0,0,0,0,0,73,73,73,,,,,,,,,,,None,None,0,540.8844846999273,None,540.8844846999273,541.8844508999027,541.8677964999806,542.8678075000644,0,1,540.8844846999273,None,3,f,7,l,KB,2021_Jun_04_1154,WASABI Nback,2020.2.10,60.003768209453895,
0,1,8,"[0, -0.2]",None,0,1,1,1,,,,,0,0,0,0,0,74,74,74,,,,,,,,,,,None,None,0,542.8844566999469,None,542.8844566999469,543.8844989999197,543.8678230999503,544.8678085999563,0,1,542.8844566999469,None,3,f,7,l,KB,2021_Jun_04_1154,WASABI Nback,2020.2.10,60.003768209453895,
0,1,9,"[0.2, -0.2]",None,0,1,1,1,,,,,0,0,0,0,0,75,75,75,,,,,,,,,,,None,None,0,544.8844895998482,None,544.8844895998482,545.8844788998831,545.8678494999185,546.8678387000691,0,1,544.8844895998482,None,3,f,7,l,KB,2021_Jun_04_1154,WASABI Nback,2020.2.10,60.003768209453895,
0,1,9,"[0.2, -0.2]",None,0,1,1,1,,,,,0,0,0,0,0,76,76,76,,,,,,,,,,,None,None,0,546.8845247998834,None,546.8845247998834,547.8845142999198,547.8678568999749,548.8678578999825,0,1,546.8845247998834,None,3,f,7,l,KB,2021_Jun_04_1154,WASABI Nback,2020.2.10,60.003768209453895,
0,1,1,"[-0.2, 0.2]",None,0,1,1,1,,,,,0,0,0,0,0,77,77,77,,,,,,,,,,,None,None,0,548.88439989998,None,548.88439989998,549.8845353999641,549.8678512999322,550.8678709999658,0,1,548.88439989998,None,3,f,7,l,KB,2021_Jun_04_1154,WASABI Nback,2020.2.10,60.003768209453895,
0,1,3,"[0.2, 0.2]",None,0,1,1,1,,,,,0,0,0,0,0,78,78,78,,,,,,,,,,,None,None,0,550.8845198999625,None,550.8845198999625,551.8845776000526,551.8678836000618,552.8678794999141,0,1,550.8845198999625,None,3,f,7,l,KB,2021_Jun_04_1154,WASABI Nback,2020.2.10,60.003768209453895,
0,1,5,"[0, 0]",None,0,1,1,1,,,,,0,0,0,0,0,79,79,79,,,,,,,,,,,None,None,0,552.8845672998577,None,552.8845672998577,553.8845617999323,553.8679020998534,554.8679140999448,0,1,552.8845672998577,None,3,f,7,l,KB,2021_Jun_04_1154,WASABI Nback,2020.2.10,60.003768209453895,
0,1,3,"[0.2, 0.2]",1,0,1,1,1,,,,,0,0,0,0,0,80,80,80,,,,,,,,,,,None,None,0,554.884582699975,None,554.884582699975,555.8845903000329,555.8679106000345,556.8679337999783,0,1,554.884582699975,None,3,f,7,l,KB,2021_Jun_04_1154,WASABI Nback,2020.2.10,60.003768209453895,
0,1,4,"[-0.2, 0]",None,0,1,1,1,,,,,0,0,0,0,0,81,81,81,,,,,,,,,,,None,None,0,556.8845764000434,None,556.8845764000434,557.8845877998974,557.8679289000574,558.8679365999997,0,1,556.8845764000434,None,3,f,7,l,KB,2021_Jun_04_1154,WASABI Nback,2020.2.10,60.003768209453895,
0,1,7,"[-0.2, -0.2]",None,0,1,1,1,,,,,0,0,0,0,0,82,82,82,,,,,,,,,,,None,None,0,558.8845951000694,None,558.8845951000694,559.8845984998625,559.8679249999113,560.8679567999206,0,1,558.8845951000694,None,3,f,7,l,KB,2021_Jun_04_1154,WASABI Nback,2020.2.10,60.003768209453895,
0,1,4,"[-0.2, 0]",1,0,1,1,1,,,,,0,0,0,0,0,83,83,83,,,,,,,,,,,None,None,0,560.8846358999144,None,560.8846358999144,561.8846199999098,561.8679750999436,562.8679825998843,0,0,560.8846358999144,None,3,f,7,l,KB,2021_Jun_04_1154,WASABI Nback,2020.2.10,60.003768209453895,
0,1,4,"[-0.2, 0]",None,0,1,1,1,,,,,0,0,0,0,0,84,84,84,,,,,,,,,,,None,None,0,562.8845238999929,None,562.8845238999929,563.8846680000424,563.8679712000303,564.86799469986,0,1,562.8845238999929,None,3,f,7,l,KB,2021_Jun_04_1154,WASABI Nback,2020.2.10,60.003768209453895,
0,1,5,"[0, 0]",None,0,1,1,1,,,,,0,0,0,0,0,85,85,85,,,,,,,,,,,None,None,0,564.8846553000621,None,564.8846553000621,565.8846704000607,565.8680145000108,566.8680056000594,0,1,564.8846553000621,None,3,f,7,l,KB,2021_Jun_04_1154,WASABI Nback,2020.2.10,60.003768209453895,
0,1,2,"[0, 0.2]",None,0,1,1,1,,,,,0,0,0,0,0,86,86,86,,,,,,,,,,,None,None,0,566.8846916998737,None,566.8846916998737,567.8846855999436,567.8680163999088,568.8680457000155,0,1,566.8846916998737,None,3,f,7,l,KB,2021_Jun_04_1154,WASABI Nback,2020.2.10,60.003768209453895,
0,1,6,"[0.2, 0]",None,0,1,1,1,,,,,0,0,0,0,0,87,87,87,,,,,,,,,,,None,None,0,568.8847010999452,None,568.8847010999452,569.8846901999786,569.8680163999088,570.8680507999379,0,1,568.8847010999452,None,3,f,7,l,KB,2021_Jun_04_1154,WASABI Nback,2020.2.10,60.003768209453895,
0,1,7,"[-0.2, -0.2]",None,0,1,1,1,,,,,0,0,0,0,0,88,88,88,,,,,,,,,,,None,None,0,570.8847085998859,None,570.8847085998859,571.8846962999087,571.8680660000537,572.8680708999746,0,1,570.8847085998859,None,3,f,7,l,KB,2021_Jun_04_1154,WASABI Nback,2020.2.10,60.003768209453895,
0,1,6,"[0.2, 0]",1,0,1,1,1,,,,,0,0,0,0,0,89,89,89,,,,,,,,,,,None,None,0,572.8847256000154,None,572.8847256000154,573.8847584999166,573.8680592998862,574.8680883999914,0,0,572.8847256000154,None,3,f,7,l,KB,2021_Jun_04_1154,WASABI Nback,2020.2.10,60.003768209453895,
0,1,6,"[0.2, 0]",None,0,1,1,1,,,,,0,0,0,0,0,90,90,90,,,,,,,,,,,None,None,0,574.8847530998755,None,574.8847530998755,575.8847475000657,575.868083700072,576.8680884998757,0,1,574.8847530998755,None,3,f,7,l,KB,2021_Jun_04_1154,WASABI Nback,2020.2.10,60.003768209453895,
0,1,7,"[-0.2, -0.2]",None,0,1,1,1,,,,,0,0,0,0,0,91,91,91,,,,,,,,,,,None,None,0,576.8847664999776,None,576.8847664999776,577.8847535999957,577.8681143000722,578.8681169999763,0,1,576.8847664999776,None,3,f,7,l,KB,2021_Jun_04_1154,WASABI Nback,2020.2.10,60.003768209453895,
0,1,6,"[0.2, 0]",1,0,1,1,1,,,,,0,0,0,0,0,92,92,92,,,,,,,,,,,None,None,0,578.884786099894,None,578.884786099894,579.8847310000565,579.8681218998972,580.8681369998958,0,0,578.884786099894,None,3,f,7,l,KB,2021_Jun_04_1154,WASABI Nback,2020.2.10,60.003768209453895,
0,1,2,"[0, 0.2]",None,0,1,1,1,,,,,0,0,0,0,0,93,93,93,,,,,,,,,,,None,None,0,580.8848035000265,None,580.8848035000265,581.884819699917,581.8681401999202,582.8681369000115,0,1,580.8848035000265,None,3,f,7,l,KB,2021_Jun_04_1154,WASABI Nback,2020.2.10,60.003768209453895,
0,1,5,"[0, 0]",None,0,1,1,1,,,,,0,0,0,0,0,94,94,94,,,,,,,,,,,None,None,0,582.8848264999688,None,582.8848264999688,583.8848313998897,583.8681647998746,584.8681679000147,0,1,582.8848264999688,None,3,f,7,l,KB,2021_Jun_04_1154,WASABI Nback,2020.2.10,60.003768209453895,
0,1,4,"[-0.2, 0]",None,0,1,1,1,,,,,0,0,0,0,0,95,95,95,,,,,,,,,,,None,None,0,584.8848170998972,None,584.8848170998972,585.8848579998594,585.8681781999767,586.8681904000696,0,1,584.8848170998972,None,3,f,7,l,KB,2021_Jun_04_1154,WASABI Nback,2020.2.10,60.003768209453895,
0,1,4,"[-0.2, 0]",None,0,1,1,1,,,,,0,0,0,0,0,96,96,96,,,,,,,,,,,None,None,0,586.8848266999703,None,586.8848266999703,587.8848556999583,587.8681071000174,588.8681951998733,0,1,586.8848266999703,None,3,f,7,l,KB,2021_Jun_04_1154,WASABI Nback,2020.2.10,60.003768209453895,
0,1,7,"[-0.2, -0.2]",None,0,1,1,1,,,,,0,0,0,0,0,97,97,97,,,,,,,,,,,None,None,0,588.8848782998975,None,588.8848782998975,589.8848878999706,589.8682221998461,590.8682144999038,0,1,588.8848782998975,None,3,f,7,l,KB,2021_Jun_04_1154,WASABI Nback,2020.2.10,60.003768209453895,
0,1,4,"[-0.2, 0]",1,0,1,1,1,,,,,0,0,0,0,0,98,98,98,,,,,,,,,,,None,None,0,590.8848808999173,None,590.8848808999173,591.8849023999646,591.8682112998795,592.8682533998508,0,0,590.8848808999173,None,3,f,7,l,KB,2021_Jun_04_1154,WASABI Nback,2020.2.10,60.003768209453895,
0,1,3,"[0.2, 0.2]",None,0,1,1,1,,,,,0,0,0,0,0,99,99,99,,,,,,,,,,,None,None,0,592.884914000053,None,592.884914000053,593.8848971000407,593.8682482999284,594.8682454999071,0,1,592.884914000053,None,3,f,7,l,KB,2021_Jun_04_1154,WASABI Nback,2020.2.10,60.003768209453895,
0,1,5,"[0, 0]",None,0,1,1,1,,,,,0,0,0,0,0,100,100,100,,,,,,,,,,,None,None,0,594.8849160999525,None,594.8849160999525,595.884907499887,595.868259599898,596.8682663000654,0,1,594.8849160999525,None,3,f,7,l,KB,2021_Jun_04_1154,WASABI Nback,2020.2.10,60.003768209453895,
0,1,3,"[0.2, 0.2]",1,0,1,1,1,,,,,0,0,0,0,0,101,101,101,,,,,,,,,,,None,None,0,596.884920499986,None,596.884920499986,597.8849326998461,597.8682796000503,598.8682863998692,0,0,596.884920499986,None,3,f,7,l,KB,2021_Jun_04_1154,WASABI Nback,2020.2.10,60.003768209453895,
0,1,1,"[-0.2, 0.2]",None,0,1,1,1,,,,,0,0,0,0,0,102,102,102,,,,,,,,,,,None,None,0,598.8849615999497,None,598.8849615999497,599.8849374998827,599.8682957000565,600.8683126000687,0,1,598.8849615999497,None,3,f,7,l,KB,2021_Jun_04_1154,WASABI Nback,2020.2.10,60.003768209453895,
0,1,9,"[0.2, -0.2]",None,0,1,1,1,,,,,0,0,0,0,0,103,103,103,,,,,,,,,,,None,None,0,600.8849819998723,None,600.8849819998723,601.8849974998739,601.8682315000333,602.8683231999166,0,1,600.8849819998723,None,3,f,7,l,KB,2021_Jun_04_1154,WASABI Nback,2020.2.10,60.003768209453895,
0,1,9,"[0.2, -0.2]",None,0,1,1,1,,,,,0,0,0,0,0,104,104,104,,,,,,,,,,,None,None,0,602.8849988000002,None,602.8849988000002,603.8850203000475,603.8683302998543,604.8683438000735,0,1,602.8849988000002,None,3,f,7,l,KB,2021_Jun_04_1154,WASABI Nback,2020.2.10,60.003768209453895,
0,1,8,"[0, -0.2]",None,0,1,1,1,,,,,0,0,0,0,0,105,105,105,,,,,,,,,,,None,None,0,604.8850336999167,None,604.8850336999167,605.8850040000398,605.8683513000142,606.8683535999153,0,1,604.8850336999167,None,3,f,7,l,KB,2021_Jun_04_1154,WASABI Nback,2020.2.10,60.003768209453895,
0,1,6,"[0.2, 0]",None,0,1,1,1,,,,,0,0,0,0,0,106,106,106,,,,,,,,,,,None,None,0,606.8850328999106,None,606.8850328999106,607.8850549999624,607.868361099856,608.8683783998713,0,1,606.8850328999106,None,3,f,7,l,KB,2021_Jun_04_1154,WASABI Nback,2020.2.10,60.003768209453895,
0,1,3,"[0.2, 0.2]",None,0,1,1,1,,,,,0,0,0,0,0,107,107,107,,,,,,,,,,,None,None,0,608.885026599979,None,608.885026599979,609.8850362000521,609.8683857000433,610.8683638998773,0,1,608.885026599979,None,3,f,7,l,KB,2021_Jun_04_1154,WASABI Nback,2020.2.10,60.003768209453895,
0,1,6,"[0.2, 0]",1,0,1,1,1,,,,,0,0,0,0,0,108,108,108,,,,,,,,,,,None,None,0,610.8850554998498,None,610.8850554998498,611.885059399996,611.8683937999886,612.8684092999902,0,1,610.8850554998498,None,3,f,7,l,KB,2021_Jun_04_1154,WASABI Nback,2020.2.10,60.003768209453895,
0,1,5,"[0, 0]",None,0,1,1,1,,,,,0,0,0,0,0,109,109,109,,,,,,,,,,,None,None,0,612.8850847999565,None,612.8850847999565,613.8850793999154,613.8684157000389,614.8684231999796,0,1,612.8850847999565,None,3,f,7,l,KB,2021_Jun_04_1154,WASABI Nback,2020.2.10,60.003768209453895,
0,1,7,"[-0.2, -0.2]",None,0,1,1,1,,,,,0,0,0,0,0,110,110,110,,,,,,,,,,,None,None,0,614.8850807000417,None,614.8850807000417,615.8851103000343,615.8684324000496,616.868447399931,0,1,614.8850807000417,None,3,f,7,l,KB,2021_Jun_04_1154,WASABI Nback,2020.2.10,60.003768209453895,
0,1,5,"[0, 0]",1,0,1,1,1,,,,,0,0,0,0,0,111,111,111,,,,,,,,,,,None,None,0,616.8851006999612,None,616.8851006999612,617.8851103000343,617.8684421000071,618.8684640999418,0,1,616.8851006999612,None,3,f,7,l,KB,2021_Jun_04_1154,WASABI Nback,2020.2.10,60.003768209453895,
0,1,1,"[-0.2, 0.2]",None,0,1,1,1,,,,,0,0,0,0,0,112,112,112,,,,,,,,,,,None,None,0,618.8850676000584,None,618.8850676000584,619.8851324999705,619.8684487000573,620.8684592000209,0,1,618.8850676000584,None,3,f,7,l,KB,2021_Jun_04_1154,WASABI Nback,2020.2.10,60.003768209453895,
0,1,7,"[-0.2, -0.2]",None,0,1,1,1,,,,,0,0,0,0,0,113,113,113,,,,,,,,,,,None,None,0,620.8851184998639,None,620.8851184998639,621.8851580999326,621.8684902000241,622.8684938000515,0,1,620.8851184998639,None,3,f,7,l,KB,2021_Jun_04_1154,WASABI Nback,2020.2.10,60.003768209453895,
0,1,9,"[0.2, -0.2]",None,0,1,1,1,,,,,0,0,0,0,0,114,114,114,,,,,,,,,,,None,None,0,622.885159800062,None,622.885159800062,623.8851582999341,623.8685075999238,624.8685246999376,0,1,622.885159800062,None,3,f,7,l,KB,2021_Jun_04_1154,WASABI Nback,2020.2.10,60.003768209453895,
0,1,3,"[0.2, 0.2]",None,0,1,1,1,,,,,0,0,0,0,0,115,115,115,,,,,,,,,,,None,None,0,624.88519489998,None,624.88519489998,625.8852035999298,625.8685192000121,626.8685170998797,0,1,624.88519489998,None,3,f,7,l,KB,2021_Jun_04_1154,WASABI Nback,2020.2.10,60.003768209453895,
0,1,9,"[0.2, -0.2]",1,0,1,1,1,,,,,0,0,0,0,0,116,116,116,,,,,,,,,,,None,None,0,626.8852069999557,None,626.8852069999557,627.8852166999131,627.8685367999133,628.8685456998646,0,1,626.8852069999557,None,3,f,7,l,KB,2021_Jun_04_1154,WASABI Nback,2020.2.10,60.003768209453895,
0,1,6,"[0.2, 0]",None,0,1,1,1,,,,,0,0,0,0,0,117,117,117,,,,,,,,,,,None,None,0,628.8852023000363,None,628.8852023000363,629.8852174000349,629.8685377999209,630.8685630999971,0,1,628.8852023000363,None,3,f,7,l,KB,2021_Jun_04_1154,WASABI Nback,2020.2.10,60.003768209453895,
0,1,2,"[0, 0.2]",None,0,1,1,1,,,,,0,0,0,0,0,118,118,118,,,,,,,,,,,None,None,0,630.8852396998554,None,630.8852396998554,631.8852317999117,631.8685679000337,632.868586299941,0,1,630.8852396998554,None,3,f,7,l,KB,2021_Jun_04_1154,WASABI Nback,2020.2.10,60.003768209453895,
0,1,5,"[0, 0]",None,0,1,1,1,,,,,0,0,0,0,0,119,119,119,,,,,,,,,,,None,None,0,632.8852400998585,None,632.8852400998585,633.885267799953,633.8685961998999,634.86860539997,0,1,632.8852400998585,None,3,f,7,l,KB,2021_Jun_04_1154,WASABI Nback,2020.2.10,60.003768209453895,
