square,location,corrAns,trials_2.thisRepN,trials_2.thisTrialN,trials_2.thisN,trials_2.thisIndex,fixation_1.started,fixation_1.stopped,response_2.x,response_2.y,response_2.leftButton,grid_lines_2.started,grid_lines_2.stopped,target_square_2.started,target_square_2.stopped,fixation_3.started,fixation_3.stopped,response_2.click,response_2.corr,response_2.started,response_2.stopped,response_2.rt_left,response_2.rt_right,ScoreReportText.started,ScoreReportText.stopped,ScoreReportResponse.keys,ScoreReportResponse.started,ScoreReportResponse.stopped,BodySiteInstructionText.started,BodySiteImg.started,BodySiteImg.stopped,BodySiteInstructionRead.keys,BodySiteInstructionRead.rt,BodySiteInstructionRead.started,BodySiteInstructionRead.stopped,fixation_rest.started,fixation_rest.stopped,IntensityRating.response,IntensityRating.rt,IntensityRating.started,IntensityRating.stopped,subject number,gender,distractMap first- or second-half (1 or 2),session,handedness,scanner,bodysite1 temp,bodysite2 temp,date,psychopyVersion,expName,frameRate,body_site_order,
6,"[0.2, 0]",None,0,0,0,0,51.95567879988812,None,None,None,"[0, 0, 0]",52.98904439993203,None,52.98904439993203,53.98908929992467,53.97237529978156,None,"[0, 0, 0]",0,52.98904439993203,None,,,,,,,,,,,,,,,,,,,,,1,M,1,99,r,MS,49,49,2022_Jul_01_1325,2020.2.10,distractmap1,60.01248263554586,"['Left Leg', 'Left Face', 'Left Leg', 'Left Face']",
7,"[-0.2, -0.2]",None,0,1,1,1,,,None,None,"[0, 0, 0]",54.97238409984857,56.97239219979383,54.97238409984857,55.97240319987759,55.9557248998899,56.95572159998119,"[0, 0, 0]",0,54.97238409984857,56.97239219979383,,,,,,,,,,,,,,,,,,,,,1,M,1,99,r,MS,49,49,2022_Jul_01_1325,2020.2.10,distractmap1,60.01248263554586,"['Left Leg', 'Left Face', 'Left Leg', 'Left Face']",
6,"[0.2, 0]",1,0,2,2,2,,,None,None,"[0, 0, 1]",56.98910739994608,58.98908879980445,56.98910739994608,57.98909019981511,57.972401099978015,58.97240259987302,"[0, 0, 1]",0,56.98910739994608,58.98908879980445,1.7168825999833643,1.9335392999928445,,,,,,,,,,,,,,,,,,,1,M,1,99,r,MS,49,49,2022_Jul_01_1325,2020.2.10,distractmap1,60.01248263554586,"['Left Leg', 'Left Face', 'Left Leg', 'Left Face']",
2,"[0, 0.2]",0,0,3,3,3,,,None,None,"[0, 0, 0]",59.0057379999198,61.0057591998484,59.0057379999198,60.00575539981946,59.989124099956825,60.98909689998254,"[0, 0, 0]",1,59.0057379999198,61.0057591998484,,,,,,,,,,,,,,,,,,,,,1,M,1,99,r,MS,49,49,2022_Jul_01_1325,2020.2.10,distractmap1,60.01248263554586,"['Left Leg', 'Left Face', 'Left Leg', 'Left Face']",
5,"[0, 0]",0,0,4,4,4,,,None,None,"[0, 0, 0]",61.02234389982186,63.02243889984675,61.02234389982186,62.0224291998893,62.00576979992911,63.00578229990788,"[0, 0, 0]",1,61.02234389982186,63.02243889984675,,,,,,,,,,,,,,,,,,,,,1,M,1,99,r,MS,49,49,2022_Jul_01_1325,2020.2.10,distractmap1,60.01248263554586,"['Left Leg', 'Left Face', 'Left Leg', 'Left Face']",
4,"[-0.2, 0]",0,0,5,5,5,,,None,None,"[0, 0, 0]",63.03911259979941,65.03913619997911,63.03911259979941,64.0391441998072,64.02248679986224,65.0224651999306,"[0, 0, 0]",1,63.03911259979941,65.03913619997911,,,,,,,,,,,,,,,,,,,,,1,M,1,99,r,MS,49,49,2022_Jul_01_1325,2020.2.10,distractmap1,60.01248263554586,"['Left Leg', 'Left Face', 'Left Leg', 'Left Face']",
4,"[-0.2, 0]",0,0,6,6,6,,,None,None,"[0, 0, 1]",65.05580989993177,67.05580789991654,65.05580989993177,66.05579989985563,66.03915369999595,67.03915179986507,"[0, 0, 1]",1,65.05580989993177,67.05580789991654,0.0,1.9669182999059558,,,,,,,,,,,,,,,,,,,1,M,1,99,r,MS,49,49,2022_Jul_01_1325,2020.2.10,distractmap1,60.01248263554586,"['Left Leg', 'Left Face', 'Left Leg', 'Left Face']",
7,"[-0.2, -0.2]",0,0,7,7,7,,,None,None,"[0, 0, 1]",67.07247319980524,69.0725134999957,67.07247319980524,68.07249129982665,68.05584919988178,69.05583549989387,"[0, 0, 1]",1,67.07247319980524,69.0725134999957,0.0,1.9336139999795705,,,,,,,,,,,,,,,,,,,1,M,1,99,r,MS,49,49,2022_Jul_01_1325,2020.2.10,distractmap1,60.01248263554586,"['Left Leg', 'Left Face', 'Left Leg', 'Left Face']",
4,"[-0.2, 0]",1,0,8,8,8,,,None,None,"[0, 0, 1]",69.08916709991172,71.08917239983566,69.08916709991172,70.08917970000766,70.0724963999819,71.07251289999112,"[0, 0, 1]",0,69.08916709991172,71.08917239983566,0.0,1.9669121999759227,,,,,,,,,,,,,,,,,,,1,M,1,99,r,MS,49,49,2022_Jul_01_1325,2020.2.10,distractmap1,60.01248263554586,"['Left Leg', 'Left Face', 'Left Leg', 'Left Face']",
3,"[0.2, 0.2]",0,0,9,9,9,,,None,None,"[0, 0, 0]",71.10573609988205,73.10586499981582,71.10573609988205,72.1058676999528,72.08919289987534,73.08919529989362,"[0, 0, 0]",1,71.10573609988205,73.10586499981582,,,,,,,,,,,,,,,,,,,,,1,M,1,99,r,MS,49,49,2022_Jul_01_1325,2020.2.10,distractmap1,60.01248263554586,"['Left Leg', 'Left Face', 'Left Leg', 'Left Face']",
5,"[0, 0]",0,0,10,10,10,,,None,None,"[0, 0, 1]",73.12254759995267,75.12255159998313,73.12254759995267,74.12254249979742,74.10576379997656,75.10589289991185,"[0, 0, 1]",1,73.12254759995267,75.12255159998313,0.0,1.9218997000716627,,,,,,,,,,,,,,,,,,,1,M,1,99,r,MS,49,49,2022_Jul_01_1325,2020.2.10,distractmap1,60.01248263554586,"['Left Leg', 'Left Face', 'Left Leg', 'Left Face']",
3,"[0.2, 0.2]",1,0,11,11,11,,,None,None,"[0, 0, 0]",75.13921629986726,77.13922589994036,75.13921629986726,76.139231499983,76.12258059997112,77.12256099982187,"[0, 0, 0]",0,75.13921629986726,77.13922589994036,,,,,,,,,,,,,,,,,,,,,1,M,1,99,r,MS,49,49,2022_Jul_01_1325,2020.2.10,distractmap1,60.01248263554586,"['Left Leg', 'Left Face', 'Left Leg', 'Left Face']",
1,"[-0.2, 0.2]",0,0,12,12,12,,,None,None,"[0, 0, 0]",77.15590809984133,79.15592409996316,77.15590809984133,78.15597119997256,78.13925799983554,79.13925779983401,"[0, 0, 0]",1,77.15590809984133,79.15592409996316,,,,,,,,,,,,,,,,,,,,,1,M,1,99,r,MS,49,49,2022_Jul_01_1325,2020.2.10,distractmap1,60.01248263554586,"['Left Leg', 'Left Face', 'Left Leg', 'Left Face']",
9,"[0.2, -0.2]",0,0,13,13,13,,,None,None,"[0, 0, 0]",79.1725967999082,81.17261020001024,79.1725967999082,80.17258029989898,80.1559249998536,81.1559570999816,"[0, 0, 0]",1,79.1725967999082,81.17261020001024,,,,,,,,,,,,,,,,,,,,,1,M,1,99,r,MS,49,49,2022_Jul_01_1325,2020.2.10,distractmap1,60.01248263554586,"['Left Leg', 'Left Face', 'Left Leg', 'Left Face']",
9,"[0.2, -0.2]",0,0,14,14,14,,,None,None,"[0, 0, 0]",81.18926529982127,83.18919289996848,81.18926529982127,82.18926679994911,82.17262769979425,83.17258299980313,"[0, 0, 0]",1,81.18926529982127,83.18919289996848,,,,,,,,,,,,,,,,,,,,,1,M,1,99,r,MS,49,49,2022_Jul_01_1325,2020.2.10,distractmap1,60.01248263554586,"['Left Leg', 'Left Face', 'Left Leg', 'Left Face']",
8,"[0, -0.2]",0,0,15,15,15,,,None,None,"[0, 0, 0]",83.20596339995973,85.20599709986709,83.20596339995973,84.20596949988976,84.18929659994319,85.18934159982018,"[0, 0, 0]",1,83.20596339995973,85.20599709986709,,,,,,,,,,,,,,,,,,,,,1,M,1,99,r,MS,49,49,2022_Jul_01_1325,2020.2.10,distractmap1,60.01248263554586,"['Left Leg', 'Left Face', 'Left Leg', 'Left Face']",
6,"[0.2, 0]",0,0,16,16,16,,,None,None,"[0, 0, 0]",85.22263649990782,87.22267479985021,85.22263649990782,86.22265269979835,86.20590079994872,87.2059921999462,"[0, 0, 0]",1,85.22263649990782,87.22267479985021,,,,,,,,,,,,,,,,,,,,,1,M,1,99,r,MS,49,49,2022_Jul_01_1325,2020.2.10,distractmap1,60.01248263554586,"['Left Leg', 'Left Face', 'Left Leg', 'Left Face']",
3,"[0.2, 0.2]",0,0,17,17,17,,,None,None,"[0, 0, 0]",87.23932509985752,89.23932819999754,87.23932509985752,88.23933059978299,88.22265909984708,89.22266749991104,"[0, 0, 0]",1,87.23932509985752,89.23932819999754,,,,,,,,,,,,,,,,,,,,,1,M,1,99,r,MS,49,49,2022_Jul_01_1325,2020.2.10,distractmap1,60.01248263554586,"['Left Leg', 'Left Face', 'Left Leg', 'Left Face']",
6,"[0.2, 0]",1,0,18,18,18,,,None,None,"[0, 0, 0]",89.25548719987273,91.25602279999293,89.25548719987273,90.25603399984539,90.23935059993528,91.23937699990347,"[0, 0, 0]",0,89.25548719987273,91.25602279999293,,,,,,,,,,,,,,,,,,,,,1,M,1,99,r,MS,49,49,2022_Jul_01_1325,2020.2.10,distractmap1,60.01248263554586,"['Left Leg', 'Left Face', 'Left Leg', 'Left Face']",
5,"[0, 0]",0,0,19,19,19,,,None,None,"[0, 0, 1]",91.27260499983095,93.27271549985744,91.27260499983095,92.2727008999791,92.25592029979452,93.25605029985309,"[0, 0, 1]",1,91.27260499983095,93.27271549985744,0.0,1.9337188000790775,,,,,,,,,,,,,,,,,,,1,M,1,99,r,MS,49,49,2022_Jul_01_1325,2020.2.10,distractmap1,60.01248263554586,"['Left Leg', 'Left Face', 'Left Leg', 'Left Face']",
7,"[-0.2, -0.2]",0,0,20,20,20,,,None,None,"[0, 0, 0]",93.28938400000334,95.2893842998892,93.28938400000334,94.28940389980562,94.27274109981954,95.27262439997867,"[0, 0, 0]",1,93.28938400000334,95.2893842998892,,,,,,,,,,,,,,,,,,,,,1,M,1,99,r,MS,49,49,2022_Jul_01_1325,2020.2.10,distractmap1,60.01248263554586,"['Left Leg', 'Left Face', 'Left Leg', 'Left Face']",
5,"[0, 0]",1,0,21,21,21,,,None,None,"[0, 0, 0]",95.30606499989517,97.30607389984652,95.30606499989517,96.30608939984813,96.28938839980401,97.28941529989243,"[0, 0, 0]",0,95.30606499989517,97.30607389984652,,,,,,,,,,,,,,,,,,,,,1,M,1,99,r,MS,49,49,2022_Jul_01_1325,2020.2.10,distractmap1,60.01248263554586,"['Left Leg', 'Left Face', 'Left Leg', 'Left Face']",
1,"[-0.2, 0.2]",0,0,22,22,22,,,None,None,"[0, 0, 0]",97.32278459984809,99.32276159990579,97.32278459984809,98.32276759995148,98.30609179986641,99.30609179986641,"[0, 0, 0]",1,97.32278459984809,99.32276159990579,,,,,,,,,,,,,,,,,,,,,1,M,1,99,r,MS,49,49,2022_Jul_01_1325,2020.2.10,distractmap1,60.01248263554586,"['Left Leg', 'Left Face', 'Left Leg', 'Left Face']",
7,"[-0.2, -0.2]",0,0,23,23,23,,,None,None,"[0, 0, 0]",99.339431299828,101.3394374998752,99.339431299828,100.33943609986454,100.3227695999667,101.32279319991358,"[0, 0, 0]",1,99.339431299828,101.3394374998752,,,,,,,,,,,,,,,,,,,,,1,M,1,99,r,MS,49,49,2022_Jul_01_1325,2020.2.10,distractmap1,60.01248263554586,"['Left Leg', 'Left Face', 'Left Leg', 'Left Face']",
9,"[0.2, -0.2]",0,0,24,24,24,,,None,None,"[0, 0, 0]",101.35617309994996,103.35611910000443,101.35617309994996,102.35612089978531,102.33948039985262,103.33945299987681,"[0, 0, 0]",1,101.35617309994996,103.35611910000443,,,,,,,,,,,,,,,,,,,,,1,M,1,99,r,MS,49,49,2022_Jul_01_1325,2020.2.10,distractmap1,60.01248263554586,"['Left Leg', 'Left Face', 'Left Leg', 'Left Face']",
3,"[0.2, 0.2]",0,0,25,25,25,,,None,None,"[0, 0, 0]",103.37280499981716,105.37282699998468,103.37280499981716,104.37280239979737,104.35613929992542,105.3561483998783,"[0, 0, 0]",1,103.37280499981716,105.37282699998468,,,,,,,,,,,,,,,,,,,,,1,M,1,99,r,MS,49,49,2022_Jul_01_1325,2020.2.10,distractmap1,60.01248263554586,"['Left Leg', 'Left Face', 'Left Leg', 'Left Face']",
9,"[0.2, -0.2]",1,0,26,26,26,,,None,None,"[0, 0, 0]",105.38948279991746,107.38950509997085,105.38948279991746,106.38949189987034,106.37282729987055,107.3728268998675,"[0, 0, 0]",0,105.38948279991746,107.38950509997085,,,,,,,,,,,,,,,,,,,,,1,M,1,99,r,MS,49,49,2022_Jul_01_1325,2020.2.10,distractmap1,60.01248263554586,"['Left Leg', 'Left Face', 'Left Leg', 'Left Face']",
6,"[0.2, 0]",0,0,27,27,27,,,None,None,"[0, 0, 1]",107.40615449985489,109.40525659988634,107.40615449985489,108.40525139984675,108.38858429994434,109.38859259989113,"[0, 0, 1]",1,107.40615449985489,109.40525659988634,0.0,1.9660010999068618,,,,,,,,,,,,,,,,,,,1,M,1,99,r,MS,49,49,2022_Jul_01_1325,2020.2.10,distractmap1,60.01248263554586,"['Left Leg', 'Left Face', 'Left Leg', 'Left Face']",
2,"[0, 0.2]",0,0,28,28,28,,,None,None,"[0, 0, 0]",109.42189949983731,111.42266389983706,109.42189949983731,110.422007399844,110.40535519993864,111.40593189978972,"[0, 0, 0]",1,109.42189949983731,111.42266389983706,,,,,,,,,,,,,,,,,,,,,1,M,1,99,r,MS,49,49,2022_Jul_01_1325,2020.2.10,distractmap1,60.01248263554586,"['Left Leg', 'Left Face', 'Left Leg', 'Left Face']",
5,"[0, 0]",0,0,29,29,29,,,None,None,"[0, 0, 0]",111.43931429996155,113.43954099994153,111.43931429996155,112.43935149977915,112.42269439995289,113.42289109993726,"[0, 0, 0]",1,111.43931429996155,113.43954099994153,,,,,,,,,,,,,,,,,,,,,1,M,1,99,r,MS,49,49,2022_Jul_01_1325,2020.2.10,distractmap1,60.01248263554586,"['Left Leg', 'Left Face', 'Left Leg', 'Left Face']",
,,,,,,,,,,,,,,,,,,,,,,,,113.4728882999625,None,space,113.4728882999625,None,,,,,,,,,,,,,,1,M,1,99,r,MS,49,49,2022_Jul_01_1325,2020.2.10,distractmap1,60.01248263554586,"['Left Leg', 'Left Face', 'Left Leg', 'Left Face']",
3,"[0.2, 0.2]",None,0,0,0,0,224.35727419983596,None,None,None,"[0, 0, 0]",226.923877999885,None,226.923877999885,227.92389789992012,227.90721509978175,228.90721859992482,"[0, 0, 0]",1,226.923877999885,None,,,,,,,,118.97313439985737,118.97313439985737,None,space,1.261354099959135,118.97313439985737,None,191.84023939981125,None,,,,,1,M,1,99,r,MS,49,49,2022_Jul_01_1325,2020.2.10,distractmap1,60.01248263554586,"['Left Leg', 'Left Face', 'Left Leg', 'Left Face']",
3,"[0.2, 0.2]",None,0,1,1,1,,,None,None,"[0, 0, 0]",228.92389409989119,230.9239046999719,228.92389409989119,229.92390850000083,229.90722569986247,230.90724969981238,"[0, 0, 0]",1,228.92389409989119,230.9239046999719,,,,,,,,,,,,,,,,,,,,,1,M,1,99,r,MS,49,49,2022_Jul_01_1325,2020.2.10,distractmap1,60.01248263554586,"['Left Leg', 'Left Face', 'Left Leg', 'Left Face']",
5,"[0, 0]",0,0,2,2,2,,,None,None,"[0, 0, 0]",230.9405691998545,232.94058309984393,230.9405691998545,231.94060059986077,231.92391669983044,232.92393429996446,"[0, 0, 0]",0,230.9405691998545,232.94058309984393,,,,,,,,,,,,,,,,,,,,,1,M,1,99,r,MS,49,49,2022_Jul_01_1325,2020.2.10,distractmap1,60.01248263554586,"['Left Leg', 'Left Face', 'Left Leg', 'Left Face']",
1,"[-0.2, 0.2]",0,0,3,3,3,,,None,None,"[0, 0, 0]",232.95725639979355,234.95727739995345,232.95725639979355,233.95727849984542,233.94059959985316,234.94061699998565,"[0, 0, 0]",0,232.95725639979355,234.95727739995345,,,,,,,,,,,,,,,,,,,,,1,M,1,99,r,MS,49,49,2022_Jul_01_1325,2020.2.10,distractmap1,60.01248263554586,"['Left Leg', 'Left Face', 'Left Leg', 'Left Face']",
5,"[0, 0]",1,0,4,4,4,,,None,None,"[0, 0, 0]",235.0074028999079,None,235.0074028999079,236.0072809997946,235.97395669994876,236.97402429999784,"[0, 0, 0]",0,235.0074028999079,None,,,,,,,,,,,,,,,,,,,,,1,M,1,99,r,MS,49,49,2022_Jul_01_1325,2020.2.10,distractmap1,60.01248263554586,"['Left Leg', 'Left Face', 'Left Leg', 'Left Face']",
8,"[0, -0.2]",0,0,5,5,5,,,None,None,"[0, 0, 0]",236.9906335999258,238.99064529989846,236.9906335999258,237.9906363999471,237.97398000000976,238.9739919998683,"[0, 0, 0]",0,236.9906335999258,238.99064529989846,,,,,,,,,,,,,,,,,,,,,1,M,1,99,r,MS,49,49,2022_Jul_01_1325,2020.2.10,distractmap1,60.01248263554586,"['Left Leg', 'Left Face', 'Left Leg', 'Left Face']",
5,"[0, 0]",1,0,6,6,6,,,None,None,"[0, 0, 0]",239.00731149991043,241.00731069990434,239.00731149991043,240.00724589987658,239.99064069986343,240.9906686998438,"[0, 0, 0]",0,239.00731149991043,241.00731069990434,,,,,,,,,,,,,,,,,,,,,1,M,1,99,r,MS,49,49,2022_Jul_01_1325,2020.2.10,distractmap1,60.01248263554586,"['Left Leg', 'Left Face', 'Left Leg', 'Left Face']",
7,"[-0.2, -0.2]",0,0,7,7,7,,,None,None,"[0, 0, 0]",241.0240203998983,243.02401789999567,241.0240203998983,242.02401489997283,242.00733819999732,243.00734049989842,"[0, 0, 0]",0,241.0240203998983,243.02401789999567,,,,,,,,,,,,,,,,,,,,,1,M,1,99,r,MS,49,49,2022_Jul_01_1325,2020.2.10,distractmap1,60.01248263554586,"['Left Leg', 'Left Face', 'Left Leg', 'Left Face']",
5,"[0, 0]",1,0,8,8,8,,,None,None,"[0, 0, 0]",243.04067859984934,245.04069539997727,243.04067859984934,244.04068169998936,244.024023699807,245.0240112999454,"[0, 0, 0]",0,243.04067859984934,245.04069539997727,,,,,,,,,,,,,,,,,,,,,1,M,1,99,r,MS,49,49,2022_Jul_01_1325,2020.2.10,distractmap1,60.01248263554586,"['Left Leg', 'Left Face', 'Left Leg', 'Left Face']",
7,"[-0.2, -0.2]",1,0,9,9,9,,,None,None,"[0, 0, 0]",245.0573670999147,247.0573732999619,245.0573670999147,246.05733049986884,246.04070189991035,247.04071759991348,"[0, 0, 0]",0,245.0573670999147,247.0573732999619,,,,,,,,,,,,,,,,,,,,,1,M,1,99,r,MS,49,49,2022_Jul_01_1325,2020.2.10,distractmap1,60.01248263554586,"['Left Leg', 'Left Face', 'Left Leg', 'Left Face']",
,,,,,,,,,,,,,,,,,,,,,,,,247.09070599987172,None,,,,,,,,,,,,,,,,,1,M,1,99,r,MS,49,49,2022_Jul_01_1325,2020.2.10,distractmap1,60.01248263554586,"['Left Leg', 'Left Face', 'Left Leg', 'Left Face']",
,,,,,,,,,,,,,,,,,,,,,,,,,,,,,,,,,,,,,,40.24691358024692,236.12741462001577,,,1,M,1,99,r,MS,49,49,2022_Jul_01_1325,2020.2.10,distractmap1,60.01248263554586,"['Left Leg', 'Left Face', 'Left Leg', 'Left Face']",
6,"[0.2, 0]",None,0,0,0,0,262.3741928997915,None,None,None,"[0, 0, 0]",267.1575565999374,None,267.1575565999374,268.1575577999465,268.14092319994234,269.14093029988,"[0, 0, 0]",1,267.1575565999374,None,,,,,,,,,,,,,,,,,,,0.012430780101567507,5.007294879993424,1,M,1,99,r,MS,49,49,2022_Jul_01_1325,2020.2.10,distractmap1,60.01248263554586,"['Left Leg', 'Left Face', 'Left Leg', 'Left Face']",
1,"[-0.2, 0.2]",None,0,1,1,1,,,None,None,"[0, 0, 0]",269.1575764999725,271.15758949983865,269.1575764999725,270.1575803998858,270.14092289982364,271.14095109980553,"[0, 0, 0]",1,269.1575764999725,271.15758949983865,,,,,,,,,,,,,,,,,,,,,1,M,1,99,r,MS,49,49,2022_Jul_01_1325,2020.2.10,distractmap1,60.01248263554586,"['Left Leg', 'Left Face', 'Left Leg', 'Left Face']",
6,"[0.2, 0]",1,0,2,2,2,,,None,None,"[0, 0, 0]",271.17426129989326,273.1742786997929,271.17426129989326,272.1742681998294,272.1576053998433,273.15760249993764,"[0, 0, 0]",0,271.17426129989326,273.1742786997929,,,,,,,,,,,,,,,,,,,,,1,M,1,99,r,MS,49,49,2022_Jul_01_1325,2020.2.10,distractmap1,60.01248263554586,"['Left Leg', 'Left Face', 'Left Leg', 'Left Face']",
4,"[-0.2, 0]",0,0,3,3,3,,,None,None,"[0, 0, 0]",273.19095979980193,275.1910069999285,273.19095979980193,274.1909564998932,274.17427729978226,275.17429629992694,"[0, 0, 0]",0,273.19095979980193,275.1910069999285,,,,,,,,,,,,,,,,,,,,,1,M,1,99,r,MS,49,49,2022_Jul_01_1325,2020.2.10,distractmap1,60.01248263554586,"['Left Leg', 'Left Face', 'Left Leg', 'Left Face']",
1,"[-0.2, 0.2]",0,0,4,4,4,,,None,None,"[0, 0, 0]",275.24099229997955,None,275.24099229997955,276.2409736998379,276.22429919987917,None,"[0, 0, 0]",0,275.24099229997955,None,,,,,,,,,,,,,,,,,,,,,1,M,1,99,r,MS,49,49,2022_Jul_01_1325,2020.2.10,distractmap1,60.01248263554586,"['Left Leg', 'Left Face', 'Left Leg', 'Left Face']",
8,"[0, -0.2]",0,0,5,5,5,,,None,None,"[0, 0, 0]",277.2243150998838,279.22434019995853,277.2243150998838,278.22431939980015,278.20760679990053,279.2076514000073,"[0, 0, 0]",0,277.2243150998838,279.22434019995853,,,,,,,,,,,,,,,,,,,,,1,M,1,99,r,MS,49,49,2022_Jul_01_1325,2020.2.10,distractmap1,60.01248263554586,"['Left Leg', 'Left Face', 'Left Leg', 'Left Face']",
1,"[-0.2, 0.2]",1,0,6,6,6,,,None,None,"[0, 0, 0]",279.2410089999903,281.2410106000025,279.2410089999903,280.24102789978497,280.2243415999692,281.2243435999844,"[0, 0, 0]",0,279.2410089999903,281.2410106000025,,,,,,,,,,,,,,,,,,,,,1,M,1,99,r,MS,49,49,2022_Jul_01_1325,2020.2.10,distractmap1,60.01248263554586,"['Left Leg', 'Left Face', 'Left Leg', 'Left Face']",
8,"[0, -0.2]",1,0,7,7,7,,,None,None,"[0, 0, 0]",281.25767520000227,283.25769249978475,281.25767520000227,282.257683099946,282.2410277999006,283.2410216999706,"[0, 0, 0]",0,281.25767520000227,283.25769249978475,,,,,,,,,,,,,,,,,,,,,1,M,1,99,r,MS,49,49,2022_Jul_01_1325,2020.2.10,distractmap1,60.01248263554586,"['Left Leg', 'Left Face', 'Left Leg', 'Left Face']",
1,"[-0.2, 0.2]",1,0,8,8,8,,,None,None,"[0, 0, 0]",283.27436439995654,285.27437959983945,283.27436439995654,284.2743799998425,284.2577034998685,285.25771119981073,"[0, 0, 0]",0,283.27436439995654,285.27437959983945,,,,,,,,,,,,,,,,,,,,,1,M,1,99,r,MS,49,49,2022_Jul_01_1325,2020.2.10,distractmap1,60.01248263554586,"['Left Leg', 'Left Face', 'Left Leg', 'Left Face']",
6,"[0.2, 0]",0,0,9,9,9,,,None,None,"[0, 0, 0]",285.2910637999885,287.29106069984846,285.2910637999885,286.29106249986216,286.27437549992464,287.2744006998837,"[0, 0, 0]",0,285.2910637999885,287.29106069984846,,,,,,,,,,,,,,,,,,,,,1,M,1,99,r,MS,49,49,2022_Jul_01_1325,2020.2.10,distractmap1,60.01248263554586,"['Left Leg', 'Left Face', 'Left Leg', 'Left Face']",
,,,,,,,,,,,,,,,,,,,,,,,,287.30773379979655,None,,,,,,,,,,,,,,,,,1,M,1,99,r,MS,49,49,2022_Jul_01_1325,2020.2.10,distractmap1,60.01248263554586,"['Left Leg', 'Left Face', 'Left Leg', 'Left Face']",
,,,,,,,,,,,,,,,,,,,,,,,,,,,,,,,,,,,,,,50.0,279.2272301199846,,,1,M,1,99,r,MS,49,49,2022_Jul_01_1325,2020.2.10,distractmap1,60.01248263554586,"['Left Leg', 'Left Face', 'Left Leg', 'Left Face']",
7,"[-0.2, -0.2]",None,0,0,0,0,304.55801949999295,None,None,None,"[0, 0, 0]",307.3745809998363,None,307.3745809998363,308.3745887000114,308.3579607999418,309.3579335999675,"[0, 0, 0]",1,307.3745809998363,None,,,,,,,,,,,,,,,,,,,0.012987180147320032,5.0086244801059365,1,M,1,99,r,MS,49,49,2022_Jul_01_1325,2020.2.10,distractmap1,60.01248263554586,"['Left Leg', 'Left Face', 'Left Leg', 'Left Face']",
7,"[-0.2, -0.2]",None,0,1,1,1,,,None,None,"[0, 0, 0]",309.3745973999612,311.3745334998239,309.3745973999612,310.3746009999886,310.35793609987013,311.3579431998078,"[0, 0, 0]",1,309.3745973999612,311.3745334998239,,,,,,,,,,,,,,,,,,,,,1,M,1,99,r,MS,49,49,2022_Jul_01_1325,2020.2.10,distractmap1,60.01248263554586,"['Left Leg', 'Left Face', 'Left Leg', 'Left Face']",
7,"[-0.2, -0.2]",1,0,2,2,2,,,None,None,"[0, 0, 0]",311.3913395998534,313.3912890998181,311.3913395998534,312.39129880000837,312.37461329996586,313.374620199902,"[0, 0, 0]",0,311.3913395998534,313.3912890998181,,,,,,,,,,,,,,,,,,,,,1,M,1,99,r,MS,49,49,2022_Jul_01_1325,2020.2.10,distractmap1,60.01248263554586,"['Left Leg', 'Left Face', 'Left Leg', 'Left Face']",
5,"[0, 0]",0,0,3,3,3,,,None,None,"[0, 0, 0]",313.40795179991983,315.40798539994285,313.40795179991983,314.40797579986975,314.3913090999704,315.3913164997939,"[0, 0, 0]",0,313.40795179991983,315.40798539994285,,,,,,,,,,,,,,,,,,,,,1,M,1,99,r,MS,49,49,2022_Jul_01_1325,2020.2.10,distractmap1,60.01248263554586,"['Left Leg', 'Left Face', 'Left Leg', 'Left Face']",
1,"[-0.2, 0.2]",0,0,4,4,4,,,None,None,"[0, 0, 0]",315.4914564997889,None,315.4914564997889,316.4913442998659,316.47465119999833,None,"[0, 0, 0]",0,315.4914564997889,None,,,,,,,,,,,,,,,,,,,,,1,M,1,99,r,MS,49,49,2022_Jul_01_1325,2020.2.10,distractmap1,60.01248263554586,"['Left Leg', 'Left Face', 'Left Leg', 'Left Face']",
6,"[0.2, 0]",0,0,5,5,5,,,None,None,"[0, 0, 0]",317.44132349989377,319.44134879997,317.44132349989377,318.4413200998679,318.42467039986514,319.4246735998895,"[0, 0, 0]",0,317.44132349989377,319.44134879997,,,,,,,,,,,,,,,,,,,,,1,M,1,99,r,MS,49,49,2022_Jul_01_1325,2020.2.10,distractmap1,60.01248263554586,"['Left Leg', 'Left Face', 'Left Leg', 'Left Face']",
1,"[-0.2, 0.2]",1,0,6,6,6,,,None,None,"[0, 0, 0]",319.45803159987554,321.4580376998056,319.45803159987554,320.45802589994855,320.44136799988337,321.4413552999031,"[0, 0, 0]",0,319.45803159987554,321.4580376998056,,,,,,,,,,,,,,,,,,,,,1,M,1,99,r,MS,49,49,2022_Jul_01_1325,2020.2.10,distractmap1,60.01248263554586,"['Left Leg', 'Left Face', 'Left Leg', 'Left Face']",
7,"[-0.2, -0.2]",0,0,7,7,7,,,None,None,"[0, 0, 0]",321.47468679980375,323.4746239997912,321.47468679980375,322.4746231997851,322.4580459999852,323.4580606999807,"[0, 0, 0]",0,321.47468679980375,323.4746239997912,,,,,,,,,,,,,,,,,,,,,1,M,1,99,r,MS,49,49,2022_Jul_01_1325,2020.2.10,distractmap1,60.01248263554586,"['Left Leg', 'Left Face', 'Left Leg', 'Left Face']",
6,"[0.2, 0]",0,0,8,8,8,,,None,None,"[0, 0, 0]",323.4913850999437,325.4913974998053,323.4913850999437,324.49138839985244,324.47473079990596,325.47473489982076,"[0, 0, 0]",0,323.4913850999437,325.4913974998053,,,,,,,,,,,,,,,,,,,,,1,M,1,99,r,MS,49,49,2022_Jul_01_1325,2020.2.10,distractmap1,60.01248263554586,"['Left Leg', 'Left Face', 'Left Leg', 'Left Face']",
7,"[-0.2, -0.2]",1,0,9,9,9,,,None,None,"[0, 0, 0]",325.5080633999314,327.5080861998722,325.5080633999314,326.5080738000106,326.4914166999515,327.491437099874,"[0, 0, 0]",0,325.5080633999314,327.5080861998722,,,,,,,,,,,,,,,,,,,,,1,M,1,99,r,MS,49,49,2022_Jul_01_1325,2020.2.10,distractmap1,60.01248263554586,"['Left Leg', 'Left Face', 'Left Leg', 'Left Face']",
,,,,,,,,,,,,,,,,,,,,,,,,327.52474649995565,None,,,,,,,,,,,,,,,,,1,M,1,99,r,MS,49,49,2022_Jul_01_1325,2020.2.10,distractmap1,60.01248263554586,"['Left Leg', 'Left Face', 'Left Leg', 'Left Face']",
,,,,,,,,,,,,,,,,,,,,,,,,,,,,,,,,,,,,,,50.0,319.4443982196972,,,1,M,1,99,r,MS,49,49,2022_Jul_01_1325,2020.2.10,distractmap1,60.01248263554586,"['Left Leg', 'Left Face', 'Left Leg', 'Left Face']",
,,,,,,,362.54172879992984,None,,,,,,,,,,,,,,,,,,,,,,,,,,,,342.5415415999014,None,50.0,350.4595436200034,0.012824580306187272,5.008300080429763,1,M,1,99,r,MS,49,49,2022_Jul_01_1325,2020.2.10,distractmap1,60.01248263554586,"['Left Leg', 'Left Face', 'Left Leg', 'Left Face']",
,,,,,,,397.5586902999785,None,,,,,,,,,,,,,,,,,,,,,,,,,,,,377.55852289986797,None,50.0,389.47665302013047,0.014625580050051212,5.011935780057684,1,M,1,99,r,MS,49,49,2022_Jul_01_1325,2020.2.10,distractmap1,60.01248263554586,"['Left Leg', 'Left Face', 'Left Leg', 'Left Face']",
,,,,,,,409.57554139988497,None,,,,,,,,,,,,,,,,,,,,,,,,,,,,,,,,0.014547379920259118,5.01176867983304,,,,,,,,,,,,,,
