	SID	biopac_channel	body_site	condition	correct	date	duration	handedness	mouseclick	onset	rt	scanner	score	session	sex	skin_site	temperature	value
0	3115	51	Left Leg	Expectancy		2025_Apr_22_1637	5.015428606886417	r		3.843660800019279	2.085692800115794	JD SS		2	m	2		37.77777777777778
1	3115	44	Left Leg	0-back Instruction		2025_Apr_22_1637	5.020972500089556	r		9.2230336999055		JD SS		2	m	2		
2	3115	7	Left Leg	Pre-Trial Jitter		2025_Apr_22_1637	5.010780399898067	r		14.241806000005454		JD SS		2	m	2		
3	3115	44.0	Left Leg	pretrialfixation		2025_Apr_22_1637	1.0001157000660896	r		19.542001799913123		JD SS		2	m	2		
4	3115		Left Leg	0-back	1.0	2025_Apr_22_1637	1.9928893002215773	r	0.0	20.54732730006799	1.164837900083512	JD SS	12.5	2	m	2	48.5	
5	3115		Left Leg	0-back	1.0	2025_Apr_22_1637	1.9729695001151413	r	0.0	22.559337599901482	0.36813160008750856	JD SS	25.0	2	m	2	48.5	
6	3115		Left Leg	0-back	1.0	2025_Apr_22_1637	1.990745099959895	r	0.0	24.544127400033176	0.2975362001452595	JD SS	37.5	2	m	2	48.5	
7	3115		Left Leg	0-back	1.0	2025_Apr_22_1637	1.9907237000297755	r	0.0	26.546193399932235	0.2675556999165565	JD SS	50.0	2	m	2	48.5	
8	3115		Left Leg	0-back	1.0	2025_Apr_22_1637	1.9912811000831425	r	0.0	28.54795329994522	0.26393850008025765	JD SS	62.5	2	m	2	48.5	
9	3115		Left Leg	0-back	1.0	2025_Apr_22_1637	1.9908505002968013	r	0.0	30.550242400029674	0.28038050001487136	JD SS	75.0	2	m	2	48.5	
10	3115		Left Leg	0-back	1.0	2025_Apr_22_1637	1.991149899782613	r	0.0	32.55210920004174	0.2505950001068413	JD SS	87.5	2	m	2	48.5	
11	3115		Left Leg	0-back	1.0	2025_Apr_22_1637	1.991055600112304	r	0.0	34.554164699977264	0.2805921998806298	JD SS	100.0	2	m	2	48.5	
12	3115	48.0	Left Leg	ScoreReport		2025_Apr_22_1637	5.01053630025126	r		36.56471919990145		JD SS		2	m	2		
13	3115	8	Left Leg	Post-Trial Jitter		2025_Apr_22_1637	7.004395899828523	r		41.63228140003048		JD SS		2	m	2		
14	3115	20	Left Leg	PainBinary		2025_Apr_22_1637	5.014411199837923	r		48.6501142999623	0.9846189999952912	JD SS		2	m	2		1.0
15	3115	21	Left Leg	IntensityRating		2025_Apr_22_1637	5.006407800130546	r		53.67592699988745	2.069132599979639	JD SS		2	m	2		45.4320987654321
16	3115	23	Left Leg	DistractBinary		2025_Apr_22_1637	5.016900500049815	r		58.69251349987462	0.8678333999123424	JD SS		2	m	2		1.0
17	3115	9	Left Leg	Post-Q-Jitter		2025_Apr_22_1637	7.003928300226107	r		63.70512589998543		JD SS		2	m	2		
18	3115	51	Left Leg	Expectancy		2025_Apr_22_1637	5.018838300136849	r		71.07892189989798	1.5203523999080062	JD SS		2	m	2		46.17283950617284
19	3115	44	Left Leg	0-back Instruction		2025_Apr_22_1637	5.007306999992579	r		76.45683909999207		JD SS		2	m	2		
20	3115	7	Left Leg	Pre-Trial Jitter		2025_Apr_22_1637	7.013266300084069	r		81.47690830007195		JD SS		2	m	2		
21	3115	44.0	Left Leg	pretrialfixation		2025_Apr_22_1637	1.0122676002793014	r		88.75659710005857		JD SS		2	m	2		
22	3115		Left Leg	0-back	1.0	2025_Apr_22_1637	1.9945099002216011	r	0.0	89.76719329995103	0.5306269000284374	JD SS	12.5	2	m	2	48.5	
23	3115		Left Leg	0-back	1.0	2025_Apr_22_1637	1.973533899988979	r	0.0	91.77971559995785	0.4140811001416296	JD SS	25.0	2	m	2	48.5	
24	3115		Left Leg	0-back	1.0	2025_Apr_22_1637	1.9901636000722647	r	0.0	93.76513949991204	0.39746579993516207	JD SS	37.5	2	m	2	48.5	
25	3115		Left Leg	0-back	1.0	2025_Apr_22_1637	1.991199400043115	r	0.0	95.76662919996306	0.297295399941504	JD SS	50.0	2	m	2	48.5	
26	3115		Left Leg	0-back	1.0	2025_Apr_22_1637	1.9893644000403583	r	0.0	97.76959519996308	0.33075029985047877	JD SS	62.5	2	m	2	48.5	
27	3115		Left Leg	0-back	1.0	2025_Apr_22_1637	1.9909838000312448	r	0.0	99.77082709991373	0.2846874000970274	JD SS	75.0	2	m	2	48.5	
28	3115		Left Leg	0-back	1.0	2025_Apr_22_1637	1.9909560000523925	r	0.0	101.77289279992692	0.2973464000970125	JD SS	87.5	2	m	2	48.5	
29	3115		Left Leg	0-back	1.0	2025_Apr_22_1637	1.9912342999596149	r	0.0	103.77479489985853	0.29724400001578033	JD SS	100.0	2	m	2	48.5	
30	3115	48.0	Left Leg	ScoreReport		2025_Apr_22_1637	5.009318800177425	r		105.78598559997045		JD SS		2	m	2		
31	3115	8	Left Leg	Post-Trial Jitter		2025_Apr_22_1637	7.008237699978054	r		110.85103369993158		JD SS		2	m	2		
32	3115	20	Left Leg	PainBinary		2025_Apr_22_1637	5.010572199942544	r		117.87270449986681	1.7042107000015676	JD SS		2	m	2		1.0
33	3115	21	Left Leg	IntensityRating		2025_Apr_22_1637	5.0068047002423555	r		122.89640589989722	1.718802300048992	JD SS		2	m	2		41.419753086419746
34	3115	23	Left Leg	DistractBinary		2025_Apr_22_1637	5.014078999869525	r		127.91455089999363	1.6352905000094324	JD SS		2	m	2		1.0
35	3115	9	Left Leg	Post-Q-Jitter		2025_Apr_22_1637	7.003473500255495	r		132.92602050001733		JD SS		2	m	2		
36	3115	43	Left Leg	2-back Instruction		2025_Apr_22_1637	5.015660000033677	r		139.95107070007361		JD SS		2	m	2		
37	3115	7	Left Leg	Pre-trial Jitter		2025_Apr_22_1637	7.012330799829215	r		144.97554640006274		JD SS		2	m	2		
38	3115	44.0	Left Leg	pretrialfixation		2025_Apr_22_1637	0.9990665002260357	r		152.22801349987276		JD SS		2	m	2		
39	3115		Left Leg	2-back	1.0	2025_Apr_22_1637	1.993388800183311	r		153.232542200014		JD SS	12.5	2	m	2	32.0	
40	3115		Left Leg	2-back	1.0	2025_Apr_22_1637	1.9722891999408603	r		155.2451472999528		JD SS	25.0	2	m	2	32.0	
41	3115		Left Leg	2-back	1.0	2025_Apr_22_1637	1.9903959000948817	r	0	157.22980610001832	0.531050099991262	JD SS	37.5	2	m	2	32.0	
42	3115		Left Leg	2-back	1.0	2025_Apr_22_1637	1.989522400079295	r	2	159.23226399999112	0.5014535000082105	JD SS	50.0	2	m	2	32.0	
43	3115		Left Leg	2-back	1.0	2025_Apr_22_1637	1.9898771999869496	r	0	161.23412909987383	0.38466079998761415	JD SS	62.5	2	m	2	32.0	
44	3115		Left Leg	2-back	1.0	2025_Apr_22_1637	1.9898670001421124	r	2	163.23619259987026	0.6812502001412213	JD SS	75.0	2	m	2	32.0	
45	3115		Left Leg	2-back	1.0	2025_Apr_22_1637	1.9901121000293642	r	2	165.2381408000365	0.4807688998989761	JD SS	87.5	2	m	2	32.0	
46	3115		Left Leg	2-back	1.0	2025_Apr_22_1637	1.9896824001334608	r	2	167.24037120002322	0.4673446000088006	JD SS	100.0	2	m	2	32.0	
47	3115	48.0	Left Leg	ScoreReport		2025_Apr_22_1637	5.007060400210321	r		169.25193469994701		JD SS		2	m	2		
48	3115	8	Left Leg	Post-trial Jitter		2025_Apr_22_1637	7.010840599890798	r		174.3145381999202		JD SS		2	m	2		
49	3115	43	Left Leg	2-back Instruction		2025_Apr_22_1637	5.013716599904001	r		181.34427220001817		JD SS		2	m	2		
50	3115	7	Left Leg	Pre-trial Jitter		2025_Apr_22_1637	7.010269100079313	r		186.36883360007778		JD SS		2	m	2		
51	3115	44.0	Left Leg	pretrialfixation		2025_Apr_22_1637	1.0002659000456333	r		193.61969279986806		JD SS		2	m	2		
52	3115		Left Leg	2-back	1.0	2025_Apr_22_1637	1.9944685001391917	r		194.62428810005076		JD SS	12.5	2	m	2	32.0	
53	3115		Left Leg	2-back	1.0	2025_Apr_22_1637	1.9717732998542488	r		196.6376696000807		JD SS	25.0	2	m	2	32.0	
54	3115		Left Leg	2-back	1.0	2025_Apr_22_1637	1.9900802001357079	r	2	198.6222155999858	0.547961600124836	JD SS	37.5	2	m	2	32.0	
55	3115		Left Leg	2-back	1.0	2025_Apr_22_1637	1.989622900262475	r	2	200.62449149996974	0.6477677999064326	JD SS	50.0	2	m	2	32.0	
56	3115		Left Leg	2-back	1.0	2025_Apr_22_1637	1.9898169999942183	r	0	202.62644069991075	0.4342434999998659	JD SS	62.5	2	m	2	32.0	
57	3115		Left Leg	2-back	1.0	2025_Apr_22_1637	1.990011600079015	r	0	204.62838290003128	0.7644201000221074	JD SS	75.0	2	m	2	32.0	
58	3115		Left Leg	2-back	1.0	2025_Apr_22_1637	1.989916300168261	r	2	206.63048539985903	0.5473368999082595	JD SS	87.5	2	m	2	32.0	
59	3115		Left Leg	2-back	1.0	2025_Apr_22_1637	1.9896889000665396	r	2	208.63263310003094	0.5142705999314785	JD SS	100.0	2	m	2	32.0	
60	3115	48.0	Left Leg	ScoreReport		2025_Apr_22_1637	5.007361400173977	r		210.6440570000559		JD SS		2	m	2		
61	3115	8	Left Leg	Post-trial Jitter		2025_Apr_22_1637	9.011780899949372	r		215.70736070000567		JD SS		2	m	2		
62	3115	51	Left Leg	Expectancy		2025_Apr_22_1637	5.015977300470695	r		225.8212248000782	1.9355742000043392	JD SS		2	m	2		41.54320987654321
63	3115	45	Left Leg	2-back Instruction		2025_Apr_22_1637	5.020064900163561	r		231.20013289991766		JD SS		2	m	2		
64	3115	7	Left Leg	Pre-trial Jitter		2025_Apr_22_1637	5.007319800090045	r		236.22018079995178		JD SS		2	m	2		
65	3115	44.0	Left Leg	pretrialfixation		2025_Apr_22_1637	1.0036742000374943	r		241.50020639994182		JD SS		2	m	2		
66	3115		Left Leg	2-back	1.0	2025_Apr_22_1637	1.994096500100568	r		242.50670309993438		JD SS	12.5	2	m	2	48.5	
67	3115		Left Leg	2-back	1.0	2025_Apr_22_1637	1.9722256001550704	r		244.5196825999301		JD SS	25.0	2	m	2	48.5	
68	3115		Left Leg	2-back	1.0	2025_Apr_22_1637	1.9900732000824064	r	2	246.50445399992168	0.5642921000253409	JD SS	37.5	2	m	2	48.5	
69	3115		Left Leg	2-back	1.0	2025_Apr_22_1637	1.990053100278601	r	0	248.50652220007032	0.3807083999272436	JD SS	50.0	2	m	2	48.5	
70	3115		Left Leg	2-back	1.0	2025_Apr_22_1637	1.9901069002225995	r	2	250.50851759989746	0.36419069999828935	JD SS	62.5	2	m	2	48.5	
71	3115		Left Leg	2-back	1.0	2025_Apr_22_1637	1.9899240001104772	r	2	252.51064489991404	0.45109239988960326	JD SS	75.0	2	m	2	48.5	
72	3115		Left Leg	2-back	1.0	2025_Apr_22_1637	1.9897875001188368	r	2	254.51272120000795	0.38096130010671914	JD SS	87.5	2	m	2	48.5	
73	3115		Left Leg	2-back	1.0	2025_Apr_22_1637	1.9894320000894368	r	0	256.5149991000071	0.45125339995138347	JD SS	100.0	2	m	2	48.5	
74	3115	48.0	Left Leg	ScoreReport		2025_Apr_22_1637	5.007516500074416	r		258.5262158999685		JD SS		2	m	2		
75	3115	8	Left Leg	Post-trial Jitter		2025_Apr_22_1637	5.006592700025067	r		263.59013810008764		JD SS		2	m	2		
76	3115	20	Left Leg	PainBinary		2025_Apr_22_1637	5.011419799877331	r		268.60954199987464	1.168148399796337	JD SS		2	m	2		1.0
77	3115	21	Left Leg	IntensityRating		2025_Apr_22_1637	5.016166399931535	r		273.6373167000711	1.7710994998924434	JD SS		2	m	2		39.75308641975309
78	3115	23	Left Leg	DistractBinary		2025_Apr_22_1637	5.009587799897417	r		278.670731500024	0.8178147000726312	JD SS		2	m	2		1.0
79	3115	9	Left Leg	Post-Q-Jitter		2025_Apr_22_1637	5.016062899958342	r		283.6809704999905		JD SS		2	m	2		
80	3115	51	Left Leg	Expectancy		2025_Apr_22_1637	5.01086060074158	r		289.8974746998865	2.019016900099814	JD SS		2	m	2		40.123456790123456
81	3115	45	Left Leg	2-back Instruction		2025_Apr_22_1637	5.021554500097409	r		295.2648094999604		JD SS		2	m	2		
82	3115	7	Left Leg	Pre-trial Jitter		2025_Apr_22_1637	9.01153999986127	r		300.28553280001506		JD SS		2	m	2		
83	3115	44.0	Left Leg	pretrialfixation		2025_Apr_22_1637	0.9990271001588553	r		309.58870649989694		JD SS		2	m	2		
84	3115		Left Leg	2-back	1.0	2025_Apr_22_1637	1.9935671999119222	r		310.59316279995255		JD SS	12.5	2	m	2	48.5	
85	3115		Left Leg	2-back	1.0	2025_Apr_22_1637	1.9725331000518054	r		312.60566579992883		JD SS	25.0	2	m	2	48.5	
86	3115		Left Leg	2-back	1.0	2025_Apr_22_1637	1.9902592001017183	r	2	314.59055049996823	0.5643591000698507	JD SS	37.5	2	m	2	48.5	
87	3115		Left Leg	2-back	1.0	2025_Apr_22_1637	1.9887956001330167	r	2	316.5933131999336	0.597283500013873	JD SS	50.0	2	m	2	48.5	
88	3115		Left Leg	2-back	1.0	2025_Apr_22_1637	1.9891961002722383	r	0	318.59516589995474	0.3640651998575777	JD SS	62.5	2	m	2	48.5	
89	3115		Left Leg	2-back	1.0	2025_Apr_22_1637	1.9900452999863774	r	2	320.5967850999441	0.6970758000388741	JD SS	75.0	2	m	2	48.5	
90	3115		Left Leg	2-back	1.0	2025_Apr_22_1637	1.990000800229609	r	2	322.598856800003	0.4475078999530524	JD SS	87.5	2	m	2	48.5	
91	3115		Left Leg	2-back	1.0	2025_Apr_22_1637	1.9891292999964207	r	0	324.60133929993026	0.38074630009941757	JD SS	100.0	2	m	2	48.5	
92	3115	48.0	Left Leg	ScoreReport		2025_Apr_22_1637	5.006632200209424	r		326.6127515998669		JD SS		2	m	2		
93	3115	8	Left Leg	Post-trial Jitter		2025_Apr_22_1637	7.010360099840909	r		331.67543000006117		JD SS		2	m	2		
94	3115	20	Left Leg	PainBinary		2025_Apr_22_1637	5.012095399666578	r		338.69739819993265	1.418389700120315	JD SS		2	m	2		1.0
95	3115	21	Left Leg	IntensityRating		2025_Apr_22_1637	5.018001299817115	r		343.7246075998992	1.184792899992317	JD SS		2	m	2		40.49382716049383
96	3115	23	Left Leg	DistractBinary		2025_Apr_22_1637	5.011294000083581	r		348.75808609998785	1.451740400167182	JD SS		2	m	2		1.0
97	3115	9	Left Leg	Post-Q-Jitter		2025_Apr_22_1637	7.017485300078988	r		353.76947489986196		JD SS		2	m	2		
98	3115	51	Left Leg	Expectancy		2025_Apr_22_1637	5.010641500353813	r		361.92116750008427	1.3516544001176953	JD SS		2	m	2		42.77777777777778
99	3115	44	Left Leg	0-back Instruction		2025_Apr_22_1637	5.020257700234652	r		367.28898090007715		JD SS		2	m	2		
100	3115	7	Left Leg	Pre-Trial Jitter		2025_Apr_22_1637	7.01047890027985	r		372.30859160004184		JD SS		2	m	2		
101	3115	44.0	Left Leg	pretrialfixation		2025_Apr_22_1637	1.0062349003273994	r		379.598301500082		JD SS		2	m	2		
102	3115		Left Leg	0-back	1.0	2025_Apr_22_1637	1.9920571001712233	r	0.0	380.6154155000113	1.0981650999747217	JD SS	12.5	2	m	2	48.5	
103	3115		Left Leg	0-back	1.0	2025_Apr_22_1637	1.9728604999836534	r	0.0	382.62703870004043	0.38091730000451207	JD SS	25.0	2	m	2	48.5	
104	3115		Left Leg	0-back	1.0	2025_Apr_22_1637	1.9911450000945479	r	0.0	384.6116180000827	0.29740130016580224	JD SS	37.5	2	m	2	48.5	
105	3115		Left Leg	0-back	1.0	2025_Apr_22_1637	1.9908805000595748	r	0.0	386.61378020001575	0.23078510002233088	JD SS	50.0	2	m	2	48.5	
106	3115		Left Leg	0-back	1.0	2025_Apr_22_1637	1.9911185002420098	r	0.0	388.61571489996277	0.21341260010376573	JD SS	62.5	2	m	2	48.5	
107	3115		Left Leg	0-back	1.0	2025_Apr_22_1637	1.991160400211811	r	0.0	390.6177316000685	0.36786270001903176	JD SS	75.0	2	m	2	48.5	
108	3115		Left Leg	0-back	1.0	2025_Apr_22_1637	1.9913564999587834	r	0.0	392.61969810002483	0.23061349987983704	JD SS	87.5	2	m	2	48.5	
109	3115		Left Leg	0-back	1.0	2025_Apr_22_1637	1.991094200173393	r	0.0	394.6218824998941	0.28385729994624853	JD SS	100.0	2	m	2	48.5	
110	3115	48.0	Left Leg	ScoreReport		2025_Apr_22_1637	5.010203400393948	r		396.63254659995437		JD SS		2	m	2		
111	3115	8	Left Leg	Post-Trial Jitter		2025_Apr_22_1637	5.003247899701819	r		401.6994934999384		JD SS		2	m	2		
112	3115	20	Left Leg	PainBinary		2025_Apr_22_1637	5.013003799831495	r		406.7163734000642	0.9512251000851393	JD SS		2	m	2		1.0
113	3115	21	Left Leg	IntensityRating		2025_Apr_22_1637	5.0050055999308825	r		411.74216410005465	1.7880574001464993	JD SS		2	m	2		42.34567901234568
114	3115	23	Left Leg	DistractBinary		2025_Apr_22_1637	5.013385700061917	r		416.75982909998856	1.134770599892363	JD SS		2	m	2		1.0
115	3115	9	Left Leg	Post-Q-Jitter		2025_Apr_22_1637	5.016558800125495	r		421.77171349991113		JD SS		2	m	2		
116	3115	51	Left Leg	Expectancy		2025_Apr_22_1637	5.014055500039831	r		427.1699073999189	1.685364899924025	JD SS		2	m	2		42.839506172839506
117	3115	44	Left Leg	0-back Instruction		2025_Apr_22_1637	5.017541400156915	r		432.54867510008626		JD SS		2	m	2		
118	3115	7	Left Leg	Pre-Trial Jitter		2025_Apr_22_1637	9.012405700283125	r		437.5753130998928		JD SS		2	m	2		
119	3115	44.0	Left Leg	pretrialfixation		2025_Apr_22_1637	1.0069581000134349	r		446.87492059986107		JD SS		2	m	2		
120	3115		Left Leg	0-back	1.0	2025_Apr_22_1637	1.992437300272286	r	0.0	447.8838927000761	0.6141815001610667	JD SS	12.5	2	m	2	48.5	
121	3115		Left Leg	0-back	1.0	2025_Apr_22_1637	1.9733300004154444	r	0.0	449.89549540006556	0.3306260001845658	JD SS	25.0	2	m	2	48.5	
122	3115		Left Leg	0-back	1.0	2025_Apr_22_1637	1.991304500028491	r	0.0	451.8802137998864	0.3140666000545025	JD SS	37.5	2	m	2	48.5	
123	3115		Left Leg	0-back	1.0	2025_Apr_22_1637	1.990435800049454	r	0.0	453.88267989992164	0.3140816001687199	JD SS	50.0	2	m	2	48.5	
124	3115		Left Leg	0-back	1.0	2025_Apr_22_1637	1.990487600211054	r	0.0	455.884747199947	0.23436590004712343	JD SS	62.5	2	m	2	48.5	
125	3115		Left Leg	0-back	1.0	2025_Apr_22_1637	1.9907092002686113	r	0.0	457.8866967000067	0.34733320004306734	JD SS	75.0	2	m	2	48.5	
126	3115		Left Leg	0-back	1.0	2025_Apr_22_1637	1.9910649000667036	r	0.0	459.8885206999257	0.4472628999501467	JD SS	87.5	2	m	2	48.5	
127	3115		Left Leg	0-back	1.0	2025_Apr_22_1637	1.9913086001761258	r	0.0	461.89044169988483	0.34730889997445047	JD SS	100.0	2	m	2	48.5	
128	3115	48.0	Left Leg	ScoreReport		2025_Apr_22_1637	5.009547400055453	r		463.90157229988836		JD SS		2	m	2		
129	3115	8	Left Leg	Post-Trial Jitter		2025_Apr_22_1637	5.005085799843073	r		468.9672814998776		JD SS		2	m	2		
130	3115	20	Left Leg	PainBinary		2025_Apr_22_1637	5.0113485001493245	r		473.9859650998842	1.0850530001334846	JD SS		2	m	2		1.0
131	3115	21	Left Leg	IntensityRating		2025_Apr_22_1637	5.004546700045466	r		479.011140699964	1.7687671999447048	JD SS		2	m	2		40.80246913580247
132	3115	23	Left Leg	DistractBinary		2025_Apr_22_1637	5.011178700020537	r		484.0296165999025	1.3182783999945968	JD SS		2	m	2		1.0
133	3115	9	Left Leg	Post-Q-Jitter		2025_Apr_22_1637	5.000716799870133	r		489.03997769998387		JD SS		2	m	2		
134	3115	42	Left Leg	0-back Instruction		2025_Apr_22_1637	5.0148380000609905	r		494.06305349990726		JD SS		2	m	2		
135	3115	7	Left Leg	Pre-Trial Jitter		2025_Apr_22_1637	9.012226999970153	r		499.08821960003115		JD SS		2	m	2		
136	3115	44.0	Left Leg	pretrialfixation		2025_Apr_22_1637	1.001436599995941	r		508.34047310007736		JD SS		2	m	2		
137	3115		Left Leg	0-back	1.0	2025_Apr_22_1637	1.993803899968043	r	0.0	509.3459765999578	0.5139957000501454	JD SS	12.5	2	m	2	32.0	
138	3115		Left Leg	0-back	1.0	2025_Apr_22_1637	1.9729689001105726	r	0.0	511.358415100025	0.3140737998764962	JD SS	25.0	2	m	2	32.0	
139	3115		Left Leg	0-back	1.0	2025_Apr_22_1637	1.9907458999659866	r	0.0	513.3432571999729	0.19725590012967587	JD SS	37.5	2	m	2	32.0	
140	3115		Left Leg	0-back	1.0	2025_Apr_22_1637	1.9907510003540665	r	0.0	515.3453138999175	0.5308812998700887	JD SS	50.0	2	m	2	32.0	
141	3115		Left Leg	0-back	1.0	2025_Apr_22_1637	1.9914029000792652	r	0.0	517.3470077998936	0.19702360010705888	JD SS	62.5	2	m	2	32.0	
142	3115		Left Leg	0-back	1.0	2025_Apr_22_1637	1.9904608000069857	r	0.0	519.349483500002	0.04680700018070638	JD SS	75.0	2	m	2	32.0	
143	3115		Left Leg	0-back	1.0	2025_Apr_22_1637	1.9907220001332462	r	0.0	521.351446500048	0.16378449997864664	JD SS	87.5	2	m	2	32.0	
144	3115		Left Leg	0-back	0.0	2025_Apr_22_1637	1.9894154998473823	r		523.354136900045		JD SS	87.5	2	m	2	32.0	
145	3115	48.0	Left Leg	ScoreReport		2025_Apr_22_1637	5.017910199938342	r		525.3684642999433		JD SS		2	m	2		
146	3115	8	Left Leg	Post-Trial Jitter		2025_Apr_22_1637	7.007705499883741	r		530.4297213999089		JD SS		2	m	2		
147	3115	42	Left Leg	0-back Instruction		2025_Apr_22_1637	5.000474300002679	r		537.4561972999945		JD SS		2	m	2		
148	3115	7	Left Leg	Pre-Trial Jitter		2025_Apr_22_1637	7.008370800176635	r		542.4667265000753		JD SS		2	m	2		
149	3115	44.0	Left Leg	pretrialfixation		2025_Apr_22_1637	1.0038574000354856	r		549.7148307999596		JD SS		2	m	2		
150	3115		Left Leg	0-back	1.0	2025_Apr_22_1637	1.9925760000478476	r	0.0	550.7221683999524	0.4138378999195993	JD SS	12.5	2	m	2	32.0	
151	3115		Left Leg	0-back	1.0	2025_Apr_22_1637	1.9900832001585513	r	0.0	552.7338038999587	0.2975206000264734	JD SS	25.0	2	m	2	32.0	
152	3115		Left Leg	0-back	1.0	2025_Apr_22_1637	1.9740796000696719	r	0.0	554.7354538000654	0.24732790002599359	JD SS	37.5	2	m	2	32.0	
153	3115		Left Leg	0-back	1.0	2025_Apr_22_1637	1.9913013002369553	r	0.0	556.7205860998947	0.20100010000169277	JD SS	50.0	2	m	2	32.0	
154	3115		Left Leg	0-back	1.0	2025_Apr_22_1637	1.990370600251481	r	0.0	558.7230980999302	0.1513237999752164	JD SS	62.5	2	m	2	32.0	
155	3115		Left Leg	0-back	1.0	2025_Apr_22_1637	1.9908712999895215	r	0.0	560.7249131000135	0.06389959994703531	JD SS	75.0	2	m	2	32.0	
156	3115		Left Leg	0-back	1.0	2025_Apr_22_1637	1.9912492001894861	r	0.0	562.7267680999357	0.2510170000605285	JD SS	87.5	2	m	2	32.0	
157	3115		Left Leg	0-back	1.0	2025_Apr_22_1637	1.9912088999990374	r	0.0	564.728815499926	0.16390509996563196	JD SS	100.0	2	m	2	32.0	
158	3115	48.0	Left Leg	ScoreReport		2025_Apr_22_1637	5.010126800043508	r		566.7396209998988		JD SS		2	m	2		
159	3115	8	Left Leg	Post-Trial Jitter		2025_Apr_22_1637	7.009606699924916	r		571.8043812999967		JD SS		2	m	2		
160	3115	51	Left Leg	Expectancy		2025_Apr_22_1637	5.018520800629631	r		579.8982048998587	3.136709799990058	JD SS		2	m	2		39.62962962962963
161	3115	45	Left Leg	2-back Instruction		2025_Apr_22_1637	5.022499900078401	r		585.2855001999997		JD SS		2	m	2		
162	3115	7	Left Leg	Pre-trial Jitter		2025_Apr_22_1637	7.010408899979666	r		590.3145554000512		JD SS		2	m	2		
163	3115	44.0	Left Leg	pretrialfixation		2025_Apr_22_1637	1.002163799945265	r		597.622906900011		JD SS		2	m	2		
164	3115		Left Leg	2-back	1.0	2025_Apr_22_1637	1.9939255001954734	r		598.6370522999205		JD SS	12.5	2	m	2	48.5	
165	3115		Left Leg	2-back	1.0	2025_Apr_22_1637	1.9722592004109174	r		600.6499806998763		JD SS	25.0	2	m	2	48.5	
166	3115		Left Leg	2-back	1.0	2025_Apr_22_1637	1.9898831001482904	r	0	602.6348526999354	0.4142962000332773	JD SS	37.5	2	m	2	48.5	
167	3115		Left Leg	2-back	1.0	2025_Apr_22_1637	1.9892474000807852	r	2	604.6371915000491	0.34749079984612763	JD SS	50.0	2	m	2	48.5	
168	3115		Left Leg	2-back	1.0	2025_Apr_22_1637	1.989957100013271	r	0	606.6388695999049	0.46417609998025	JD SS	62.5	2	m	2	48.5	
169	3115		Left Leg	2-back	1.0	2025_Apr_22_1637	1.9894604000728577	r	2	608.6411997000687	0.38419630005955696	JD SS	75.0	2	m	2	48.5	
170	3115		Left Leg	2-back	1.0	2025_Apr_22_1637	1.9887399000581354	r	2	610.6436147999484	0.4343461999669671	JD SS	87.5	2	m	2	48.5	
171	3115		Left Leg	2-back	1.0	2025_Apr_22_1637	1.9887704001739621	r	2	612.6456382998731	0.41406690003350377	JD SS	100.0	2	m	2	48.5	
172	3115	48.0	Left Leg	ScoreReport		2025_Apr_22_1637	5.007286499952897	r		614.6566238999367		JD SS		2	m	2		
173	3115	8	Left Leg	Post-trial Jitter		2025_Apr_22_1637	5.006964800180867	r		619.7202619998716		JD SS		2	m	2		
174	3115	20	Left Leg	PainBinary		2025_Apr_22_1637	5.009584099985659	r		624.7407756000757	1.3683305999729782	JD SS		2	m	2		1.0
175	3115	21	Left Leg	IntensityRating		2025_Apr_22_1637	5.020273599773645	r		629.765505499905	1.8354537000413984	JD SS		2	m	2		40.123456790123456
176	3115	23	Left Leg	DistractBinary		2025_Apr_22_1637	5.011425099801272	r		634.8000789000653	1.5017643999308348	JD SS		2	m	2		1.0
177	3115	9	Left Leg	Post-Q-Jitter		2025_Apr_22_1637	4.999066800111905	r		639.8114276998676		JD SS		2	m	2		
178	3115	51	Left Leg	Expectancy		2025_Apr_22_1637	5.018028000369668	r		645.9825289000291	1.6852115001529455	JD SS		2	m	2		41.111111111111114
179	3115	45	Left Leg	2-back Instruction		2025_Apr_22_1637	5.0194717003032565	r		651.3711278000847		JD SS		2	m	2		
180	3115	7	Left Leg	Pre-trial Jitter		2025_Apr_22_1637	9.010705000022426	r		656.3995872000232		JD SS		2	m	2		
181	3115	44.0	Left Leg	pretrialfixation		2025_Apr_22_1637	0.9981126000639051	r		665.6860974999145		JD SS		2	m	2		
182	3115		Left Leg	2-back	1.0	2025_Apr_22_1637	1.993985200067982	r		666.6898835999891		JD SS	12.5	2	m	2	48.5	
183	3115		Left Leg	2-back	1.0	2025_Apr_22_1637	1.9725345999468118	r		668.702589499997		JD SS	25.0	2	m	2	48.5	
184	3115		Left Leg	2-back	1.0	2025_Apr_22_1637	1.9903721001464874	r	2	670.6874456999358	0.8813877999782562	JD SS	37.5	2	m	2	48.5	
185	3115		Left Leg	2-back	1.0	2025_Apr_22_1637	1.9899799001868814	r	2	672.6896818000823	0.5975234999787062	JD SS	50.0	2	m	2	48.5	
186	3115		Left Leg	2-back	1.0	2025_Apr_22_1637	1.9899042001925409	r	0	674.6917594000697	0.380842600017786	JD SS	62.5	2	m	2	48.5	
187	3115		Left Leg	2-back	1.0	2025_Apr_22_1637	1.9896889000665396	r	2	676.6939153999556	0.4681873999070376	JD SS	75.0	2	m	2	48.5	
188	3115		Left Leg	2-back	1.0	2025_Apr_22_1637	1.9896988002583385	r	0	678.6959420000203	0.3973408001475036	JD SS	87.5	2	m	2	48.5	
189	3115		Left Leg	2-back	1.0	2025_Apr_22_1637	1.989537700312212	r	2	680.6980717000552	0.43071290012449026	JD SS	100.0	2	m	2	48.5	
190	3115	48.0	Left Leg	ScoreReport		2025_Apr_22_1637	5.006732600275427	r		682.7097453998867		JD SS		2	m	2		
191	3115	8	Left Leg	Post-trial Jitter		2025_Apr_22_1637	7.006485900143161	r		687.7743430000264		JD SS		2	m	2		
192	3115	20	Left Leg	PainBinary		2025_Apr_22_1637	5.011915900046006	r		694.7944761000108	1.0684322998858988	JD SS		2	m	2		1.0
193	3115	21	Left Leg	IntensityRating		2025_Apr_22_1637	5.005605600075796	r		699.8194325999357	1.5852041998878121	JD SS		2	m	2		41.66666666666667
194	3115	23	Left Leg	DistractBinary		2025_Apr_22_1637	5.010143999941647	r		704.8389608999714	1.3040396999567747	JD SS		2	m	2		1.0
195	3115	9	Left Leg	Post-Q-Jitter		2025_Apr_22_1637	7.017058599973097	r		709.8499716999941		JD SS		2	m	2		
196	3115	26	Left Leg	ComfortRating		2025_Apr_22_1637	4.18277099984698	r		716.8895608999301	4.140068000182509	JD SS		2	m	2		5.185185185185176
197	3115	24	Left Leg	ValenceRating		2025_Apr_22_1637	3.2820955999195576	r		721.0937461000867	3.2535588999744505	JD SS		2	m	2		39.567901234567906
198	3115	26	Left Leg	IntensityRating		2025_Apr_22_1637	2.1689770999364555	r		724.3947717000265	2.138065400067717	JD SS		2	m	2		80.4320987654321
199	3115	27	Left Leg	AvoidanceRating		2025_Apr_22_1637	2.333496199687943	r		726.5814918999095	2.320454200031236	JD SS		2	m	2		31.111111111111114
200	3115	28	Left Leg	RelaxationRating		2025_Apr_22_1637	2.4736244999803603	r		728.9305652999319	2.43871509982273	JD SS		2	m	2		36.2962962962963
201	3115	29	Left Leg	AttentionRating		2025_Apr_22_1637	3.8845182999502867	r		731.4200521998573	3.8403447000309825	JD SS		2	m	2		83.51851851851852
202	3115	30	Left Leg	BoredomRating		2025_Apr_22_1637	2.3896597002167255	r		735.3207233999856	2.369399700080976	JD SS		2	m	2		23.641975308641975
203	3115	31	Left Leg	AlertnessRating		2025_Apr_22_1637	3.0055599997285753	r		737.723863299936	2.986710000084713	JD SS		2	m	2		81.35802469135803
204	3115	32	Left Leg	PosThxRating		2025_Apr_22_1637	4.270323999924585	r		740.7452527000569	4.254839799832553	JD SS		2	m	2		1.481481481481481
205	3115	33	Left Leg	NegThxRating		2025_Apr_22_1637	1.6513282002415508	r		745.0327868000604	1.6357462001033127	JD SS		2	m	2		0.0
206	3115	34	Left Leg	SelfRating		2025_Apr_22_1637	2.436907600145787	r		746.7003999000881	2.419463099911809	JD SS		2	m	2		14.567901234567898
207	3115	35	Left Leg	OtherRating		2025_Apr_22_1637	2.486715700244531	r		749.15294849989	2.4693392999470234	JD SS		2	m	2		-14.691358024691354
208	3115	32	Left Leg	ImageryRating		2025_Apr_22_1637	1.7943634998518974	r		751.6596677000634	1.7687456000130624	JD SS		2	m	2		0.0
209	3115	37	Left Leg	PresentRating		2025_Apr_22_1637	4.232822300167754	r		753.4768962999806	4.1905955001711845	JD SS		2	m	2		82.22222222222223
