square,location,corrAns,trials.thisRepN,trials.thisTrialN,trials.thisN,trials.thisIndex,trials_2.thisRepN,trials_2.thisTrialN,trials_2.thisN,trials_2.thisIndex,fixation_1.started,fixation_1.stopped,grid_lines.started,grid_lines.stopped,target_square.started,target_square.stopped,fixation_2.started,fixation_2.stopped,response.corr,response.x,response.y,response.leftButton,response.click_left,response.click_right,response.started,response.stopped,ScoreReportText.started,ScoreReportText.stopped,ScoreReportResponse.keys,ScoreReportResponse.started,ScoreReportResponse.stopped,response_2.x,response_2.y,response_2.leftButton,grid_lines_2.started,grid_lines_2.stopped,target_square_2.started,target_square_2.stopped,fixation_3.started,fixation_3.stopped,response_2.click,response_2.corr,response_2.started,response_2.stopped,BodySiteInstructionText.started,BodySiteImg.started,BodySiteImg.stopped,BodySiteInstructionRead.keys,BodySiteInstructionRead.rt,BodySiteInstructionRead.started,BodySiteInstructionRead.stopped,response.click,IntensityRating.response,IntensityRating.rt,IntensityRating.started,IntensityRating.stopped,response.rt_left,response.rt_right,response_2.rt_left,response_2.rt_right,subject number,gender,distractMap first- or second-half (1 or 2),session,handedness,scanner,date,psychopyVersion,expName,frameRate,body_site_order,
6,"[0.2, 0]",None,0,0,0,0,,,,,84.91771439999866,None,85.95105590000458,None,85.95105590000458,86.95105420000618,86.93439629999921,None,1,0.05555555555555555,0.08888888888888889,"[0, 0, 0]",0,0,85.95105590000458,None,,,,,,,,,,,,,,,,,,,,,,,,,,,,,,,,,,,3,F,2,19,L,MCK,2021_Oct_05_1848,2020.2.10,distractmap2,59.99480444878698,"['Left Arm', 'Abdomen', 'Chest', 'Left Face']",
6,"[0.2, 0]",1,0,1,1,1,,,,,,,87.93427329999395,None,87.93427329999395,88.93440830000327,88.91773790000298,89.91774449999502,1,0.05555555555555555,0.08888888888888889,"[0, 0, 0]",0,0,87.93427329999395,None,,,,,,,,,,,,,,,,,,,,,,,,,,,,,,,,,,,3,F,2,19,L,MCK,2021_Oct_05_1848,2020.2.10,distractmap2,59.99480444878698,"['Left Arm', 'Abdomen', 'Chest', 'Left Face']",
2,"[0, 0.2]",0,0,2,2,2,,,,,,,89.93441479999456,None,89.93441479999456,90.934427900007,90.91773820000526,91.91775979999511,1,0.05555555555555555,0.08888888888888889,"[0, 0, 0]",0,0,89.93441479999456,None,,,,,,,,,,,,,,,,,,,,,,,,,,,,,,,,,,,3,F,2,19,L,MCK,2021_Oct_05_1848,2020.2.10,distractmap2,59.99480444878698,"['Left Arm', 'Abdomen', 'Chest', 'Left Face']",
9,"[0.2, -0.2]",0,0,3,3,3,,,,,,,91.93442639999557,None,91.93442639999557,92.93443209999532,92.91776599999866,93.91778430000704,1,0.05555555555555555,0.08888888888888889,"[0, 0, 0]",0,0,91.93442639999557,None,,,,,,,,,,,,,,,,,,,,,,,,,,,,,,,,,,,3,F,2,19,L,MCK,2021_Oct_05_1848,2020.2.10,distractmap2,59.99480444878698,"['Left Arm', 'Abdomen', 'Chest', 'Left Face']",
9,"[0.2, -0.2]",1,0,4,4,4,,,,,,,93.93443049999769,None,93.93443049999769,94.95146860000386,94.91777620000357,95.91778210000484,1,0.05555555555555555,0.08888888888888889,"[0, 0, 0]",0,0,93.93443049999769,None,,,,,,,,,,,,,,,,,,,,,,,,,,,,,,,,,,,3,F,2,19,L,MCK,2021_Oct_05_1848,2020.2.10,distractmap2,59.99480444878698,"['Left Arm', 'Abdomen', 'Chest', 'Left Face']",
6,"[0.2, 0]",0,0,5,5,5,,,,,,,95.93445220000285,None,95.93445220000285,96.93444799999997,96.91779490000044,97.91779370000586,1,0.05555555555555555,0.08888888888888889,"[0, 0, 0]",0,0,95.93445220000285,None,,,,,,,,,,,,,,,,,,,,,,,,,,,,,,,,,,,3,F,2,19,L,MCK,2021_Oct_05_1848,2020.2.10,distractmap2,59.99480444878698,"['Left Arm', 'Abdomen', 'Chest', 'Left Face']",
4,"[-0.2, 0]",0,0,6,6,6,,,,,,,97.93447229999583,None,97.93447229999583,98.93447799999558,98.91780039999867,99.91780959999596,1,0.05555555555555555,0.08888888888888889,"[0, 0, 0]",0,0,97.93447229999583,None,,,,,,,,,,,,,,,,,,,,,,,,,,,,,,,,,,,3,F,2,19,L,MCK,2021_Oct_05_1848,2020.2.10,distractmap2,59.99480444878698,"['Left Arm', 'Abdomen', 'Chest', 'Left Face']",
3,"[0.2, 0.2]",0,0,7,7,7,,,,,,,99.93446689999837,None,99.93446689999837,100.93448660000286,100.91785700000764,101.91781240000273,1,0.05555555555555555,0.08888888888888889,"[0, 0, 0]",0,0,99.93446689999837,None,,,,,,,,,,,,,,,,,,,,,,,,,,,,,,,,,,,3,F,2,19,L,MCK,2021_Oct_05_1848,2020.2.10,distractmap2,59.99480444878698,"['Left Arm', 'Abdomen', 'Chest', 'Left Face']",
3,"[0.2, 0.2]",1,0,8,8,8,,,,,,,101.93449119999423,None,101.93449119999423,102.95117780000146,102.93486320000375,None,0,0.05555555555555555,0.08888888888888889,"[0, 0, 0]",0,0,101.93449119999423,None,,,,,,,,,,,,,,,,,,,,,,,,,,,,,,,,,,,3,F,2,19,L,MCK,2021_Oct_05_1848,2020.2.10,distractmap2,59.99480444878698,"['Left Arm', 'Abdomen', 'Chest', 'Left Face']",
8,"[0, -0.2]",0,0,9,9,9,,,,,,,103.9345134000032,None,103.9345134000032,104.93451530000311,104.9177794999996,105.91791679999733,1,0.05555555555555555,0.08888888888888889,"[0, 0, 0]",0,0,103.9345134000032,None,,,,,,,,,,,,,,,,,,,,,,,,,,,,,,,,,,,3,F,2,19,L,MCK,2021_Oct_05_1848,2020.2.10,distractmap2,59.99480444878698,"['Left Arm', 'Abdomen', 'Chest', 'Left Face']",
1,"[-0.2, 0.2]",0,0,10,10,10,,,,,,,105.93451669999922,None,105.93451669999922,106.93453050000244,106.91786790000333,107.91777050000383,1,0.05555555555555555,0.08888888888888889,"[0, 0, 0]",0,0,105.93451669999922,None,,,,,,,,,,,,,,,,,,,,,,,,,,,,,,,,,,,3,F,2,19,L,MCK,2021_Oct_05_1848,2020.2.10,distractmap2,59.99480444878698,"['Left Arm', 'Abdomen', 'Chest', 'Left Face']",
2,"[0, 0.2]",0,0,11,11,11,,,,,,,107.93453569999838,None,107.93453569999838,108.93454000000202,108.9178760000068,109.9178896999947,1,0.05555555555555555,0.08888888888888889,"[0, 0, 0]",0,0,107.93453569999838,None,,,,,,,,,,,,,,,,,,,,,,,,,,,,,,,,,,,3,F,2,19,L,MCK,2021_Oct_05_1848,2020.2.10,distractmap2,59.99480444878698,"['Left Arm', 'Abdomen', 'Chest', 'Left Face']",
4,"[-0.2, 0]",0,0,12,12,12,,,,,,,109.93456069999957,None,109.93456069999957,110.93455570000515,110.9178888000024,111.91790139999648,1,0.05555555555555555,0.08888888888888889,"[0, 0, 0]",0,0,109.93456069999957,None,,,,,,,,,,,,,,,,,,,,,,,,,,,,,,,,,,,3,F,2,19,L,MCK,2021_Oct_05_1848,2020.2.10,distractmap2,59.99480444878698,"['Left Arm', 'Abdomen', 'Chest', 'Left Face']",
4,"[-0.2, 0]",1,0,13,13,13,,,,,,,111.93455429999449,None,111.93455429999449,112.93459069999517,112.91791200000443,113.91791139999987,0,0.05555555555555555,0.08888888888888889,"[0, 0, 0]",0,0,111.93455429999449,None,,,,,,,,,,,,,,,,,,,,,,,,,,,,,,,,,,,3,F,2,19,L,MCK,2021_Oct_05_1848,2020.2.10,distractmap2,59.99480444878698,"['Left Arm', 'Abdomen', 'Chest', 'Left Face']",
8,"[0, -0.2]",0,0,14,14,14,,,,,,,113.93458020000253,None,113.93458020000253,114.95161720000033,114.91792639999767,115.91786689999572,1,0.05555555555555555,0.08888888888888889,"[0, 0, 0]",0,0,113.93458020000253,None,,,,,,,,,,,,,,,,,,,,,,,,,,,,,,,,,,,3,F,2,19,L,MCK,2021_Oct_05_1848,2020.2.10,distractmap2,59.99480444878698,"['Left Arm', 'Abdomen', 'Chest', 'Left Face']",
5,"[0, 0]",0,0,15,15,15,,,,,,,115.93459289999737,None,115.93459289999737,116.93460190000769,116.91794630000368,117.9179482000036,1,0.05555555555555555,0.08888888888888889,"[0, 0, 0]",0,0,115.93459289999737,None,,,,,,,,,,,,,,,,,,,,,,,,,,,,,,,,,,,3,F,2,19,L,MCK,2021_Oct_05_1848,2020.2.10,distractmap2,59.99480444878698,"['Left Arm', 'Abdomen', 'Chest', 'Left Face']",
5,"[0, 0]",1,0,16,16,16,,,,,,,117.9346080999967,None,117.9346080999967,118.93462489999365,118.91794699999446,119.9179609999992,1,0.05555555555555555,0.08888888888888889,"[0, 0, 0]",0,0,117.9346080999967,None,,,,,,,,,,,,,,,,,,,,,,,,,,,,,,,,,,,3,F,2,19,L,MCK,2021_Oct_05_1848,2020.2.10,distractmap2,59.99480444878698,"['Left Arm', 'Abdomen', 'Chest', 'Left Face']",
1,"[-0.2, 0.2]",0,0,17,17,17,,,,,,,119.93461290000414,None,119.93461290000414,120.93463459999475,120.91797490000317,121.91797419999784,1,0.05555555555555555,0.08888888888888889,"[0, 0, 0]",0,0,119.93461290000414,None,,,,,,,,,,,,,,,,,,,,,,,,,,,,,,,,,,,3,F,2,19,L,MCK,2021_Oct_05_1848,2020.2.10,distractmap2,59.99480444878698,"['Left Arm', 'Abdomen', 'Chest', 'Left Face']",
3,"[0.2, 0.2]",0,0,18,18,18,,,,,,,121.9346341000055,None,121.9346341000055,122.9341684999963,122.91798440000275,123.9180003000074,1,0.05555555555555555,0.08888888888888889,"[0, 0, 0]",0,0,121.9346341000055,None,,,,,,,,,,,,,,,,,,,,,,,,,,,,,,,,,,,3,F,2,19,L,MCK,2021_Oct_05_1848,2020.2.10,distractmap2,59.99480444878698,"['Left Arm', 'Abdomen', 'Chest', 'Left Face']",
6,"[0.2, 0]",0,0,19,19,19,,,,,,,123.93467499999679,None,123.93467499999679,124.93467519999831,124.91798640000343,125.91801459999988,1,0.05555555555555555,0.08888888888888889,"[0, 0, 0]",0,0,123.93467499999679,None,,,,,,,,,,,,,,,,,,,,,,,,,,,,,,,,,,,3,F,2,19,L,MCK,2021_Oct_05_1848,2020.2.10,distractmap2,59.99480444878698,"['Left Arm', 'Abdomen', 'Chest', 'Left Face']",
1,"[-0.2, 0.2]",0,0,20,20,20,,,,,,,125.93467079999391,None,125.93467079999391,126.9346874000039,126.91800580000563,127.91801720000512,1,0.05555555555555555,0.08888888888888889,"[0, 0, 0]",0,0,125.93467079999391,None,,,,,,,,,,,,,,,,,,,,,,,,,,,,,,,,,,,3,F,2,19,L,MCK,2021_Oct_05_1848,2020.2.10,distractmap2,59.99480444878698,"['Left Arm', 'Abdomen', 'Chest', 'Left Face']",
1,"[-0.2, 0.2]",1,0,21,21,21,,,,,,,127.93467750000127,None,127.93467750000127,128.93468890000076,128.91804050000792,129.9180217999965,1,0.05555555555555555,0.08888888888888889,"[0, 0, 0]",0,0,127.93467750000127,None,,,,,,,,,,,,,,,,,,,,,,,,,,,,,,,,,,,3,F,2,19,L,MCK,2021_Oct_05_1848,2020.2.10,distractmap2,59.99480444878698,"['Left Arm', 'Abdomen', 'Chest', 'Left Face']",
1,"[-0.2, 0.2]",1,0,22,22,22,,,,,,,129.934697100005,None,129.934697100005,130.93470690000686,130.91803990000335,131.91805570000724,1,0.05555555555555555,0.08888888888888889,"[0, 0, 0]",0,0,129.934697100005,None,,,,,,,,,,,,,,,,,,,,,,,,,,,,,,,,,,,3,F,2,19,L,MCK,2021_Oct_05_1848,2020.2.10,distractmap2,59.99480444878698,"['Left Arm', 'Abdomen', 'Chest', 'Left Face']",
3,"[0.2, 0.2]",0,0,23,23,23,,,,,,,131.9347190999979,None,131.9347190999979,132.93471499999578,132.91804600000614,133.91807349999726,1,0.05555555555555555,0.08888888888888889,"[0, 0, 0]",0,0,131.9347190999979,None,,,,,,,,,,,,,,,,,,,,,,,,,,,,,,,,,,,3,F,2,19,L,MCK,2021_Oct_05_1848,2020.2.10,distractmap2,59.99480444878698,"['Left Arm', 'Abdomen', 'Chest', 'Left Face']",
2,"[0, 0.2]",0,0,24,24,24,,,,,,,133.9347173999995,None,133.9347173999995,134.93474310000602,134.91794630000368,135.91806300000462,1,0.05555555555555555,0.08888888888888889,"[0, 0, 0]",0,0,133.9347173999995,None,,,,,,,,,,,,,,,,,,,,,,,,,,,,,,,,,,,3,F,2,19,L,MCK,2021_Oct_05_1848,2020.2.10,distractmap2,59.99480444878698,"['Left Arm', 'Abdomen', 'Chest', 'Left Face']",
1,"[-0.2, 0.2]",0,0,25,25,25,,,,,,,135.93474050000077,None,135.93474050000077,136.93473190000805,136.9180808999954,137.9180985999992,1,0.05555555555555555,0.08888888888888889,"[0, 0, 0]",0,0,135.93474050000077,None,,,,,,,,,,,,,,,,,,,,,,,,,,,,,,,,,,,3,F,2,19,L,MCK,2021_Oct_05_1848,2020.2.10,distractmap2,59.99480444878698,"['Left Arm', 'Abdomen', 'Chest', 'Left Face']",
7,"[-0.2, -0.2]",0,0,26,26,26,,,,,,,137.93466980000085,None,137.93466980000085,138.93475630000466,138.91809130000183,139.91804269999557,1,0.05555555555555555,0.08888888888888889,"[0, 0, 0]",0,0,137.93466980000085,None,,,,,,,,,,,,,,,,,,,,,,,,,,,,,,,,,,,3,F,2,19,L,MCK,2021_Oct_05_1848,2020.2.10,distractmap2,59.99480444878698,"['Left Arm', 'Abdomen', 'Chest', 'Left Face']",
7,"[-0.2, -0.2]",1,0,27,27,27,,,,,,,139.93467339999916,None,139.93467339999916,140.93477469999925,140.9181011000037,141.91811739999685,1,0.05555555555555555,0.08888888888888889,"[0, 0, 0]",0,0,139.93467339999916,None,,,,,,,,,,,,,,,,,,,,,,,,,,,,,,,,,,,3,F,2,19,L,MCK,2021_Oct_05_1848,2020.2.10,distractmap2,59.99480444878698,"['Left Arm', 'Abdomen', 'Chest', 'Left Face']",
2,"[0, 0.2]",0,0,28,28,28,,,,,,,141.9347809000028,None,141.9347809000028,142.93480970000383,142.9181227000081,143.9181183000037,1,0.05555555555555555,0.08888888888888889,"[0, 0, 0]",0,0,141.9347809000028,None,,,,,,,,,,,,,,,,,,,,,,,,,,,,,,,,,,,3,F,2,19,L,MCK,2021_Oct_05_1848,2020.2.10,distractmap2,59.99480444878698,"['Left Arm', 'Abdomen', 'Chest', 'Left Face']",
6,"[0.2, 0]",0,0,29,29,29,,,,,,,143.9347953999968,None,143.9347953999968,144.9347992999974,144.9181208999944,145.91814140000497,1,0.05555555555555555,0.08888888888888889,"[0, 0, 0]",0,0,143.9347953999968,None,,,,,,,,,,,,,,,,,,,,,,,,,,,,,,,,,,,3,F,2,19,L,MCK,2021_Oct_05_1848,2020.2.10,distractmap2,59.99480444878698,"['Left Arm', 'Abdomen', 'Chest', 'Left Face']",
,,,,,,,,,,,,,,,,,,,,,,,,,,,145.95147030000226,None,space,145.95147030000226,None,,,,,,,,,,,,,,,,,,,,,,,,,,,,,,3,F,2,19,L,MCK,2021_Oct_05_1848,2020.2.10,distractmap2,59.99480444878698,"['Left Arm', 'Abdomen', 'Chest', 'Left Face']",
6,"[0.2, 0]",None,,,,,0,0,0,0,193.18515659999684,None,,,,,,,,,,,,,,,,,,,,None,None,"[0, 0, 0]",194.20173210000212,None,194.20173210000212,195.2018212999974,195.18516829999862,196.18518159999803,"[0, 0, 0]",1,194.20173210000212,None,,,,,,,,,,,,,,,,,3,F,2,19,L,MCK,2021_Oct_05_1848,2020.2.10,distractmap2,59.99480444878698,"['Left Arm', 'Abdomen', 'Chest', 'Left Face']",
7,"[-0.2, -0.2]",None,,,,,0,1,1,1,,,,,,,,,,,,,,,,,,,,,,None,None,"[0, 0, 0]",196.2018315000023,198.20175140000356,196.2018315000023,197.2018490000046,197.1851830999949,198.18518329999642,"[0, 0, 0]",1,196.2018315000023,198.20175140000356,,,,,,,,,,,,,,,,,3,F,2,19,L,MCK,2021_Oct_05_1848,2020.2.10,distractmap2,59.99480444878698,"['Left Arm', 'Abdomen', 'Chest', 'Left Face']",
6,"[0.2, 0]",1,,,,,0,2,2,2,,,,,,,,,,,,,,,,,,,,,,None,None,"[0, 0, 0]",198.21851799999422,200.21851799999422,198.21851799999422,199.21851510000124,199.2018517999968,200.20186919999833,"[0, 0, 0]",1,198.21851799999422,200.21851799999422,,,,,,,,,,,,,,,,,3,F,2,19,L,MCK,2021_Oct_05_1848,2020.2.10,distractmap2,59.99480444878698,"['Left Arm', 'Abdomen', 'Chest', 'Left Face']",
2,"[0, 0.2]",0,,,,,0,3,3,3,,,,,,,,,,,,,,,,,,,,,,None,None,"[0, 0, 0]",200.2352033000061,202.2352130000072,200.2352033000061,201.23522620000585,201.2185390999948,202.2185390999948,"[0, 0, 0]",0,200.2352033000061,202.2352130000072,,,,,,,,,,,,,,,,,3,F,2,19,L,MCK,2021_Oct_05_1848,2020.2.10,distractmap2,59.99480444878698,"['Left Arm', 'Abdomen', 'Chest', 'Left Face']",
5,"[0, 0]",0,,,,,0,4,4,4,,,,,,,,,,,,,,,,,,,,,,None,None,"[0, 0, 0]",202.25187399999413,204.2519026999944,202.25187399999413,203.25188389999676,203.23523150000256,204.23526929999935,"[0, 0, 0]",1,202.25187399999413,204.2519026999944,,,,,,,,,,,,,,,,,3,F,2,19,L,MCK,2021_Oct_05_1848,2020.2.10,distractmap2,59.99480444878698,"['Left Arm', 'Abdomen', 'Chest', 'Left Face']",
4,"[-0.2, 0]",0,,,,,0,5,5,5,,,,,,,,,,,,,,,,,,,,,,None,None,"[0, 0, 0]",204.26846439999645,206.26856620000035,204.26846439999645,205.26856209999823,205.2519023000059,206.2519006000075,"[0, 0, 0]",1,204.26846439999645,206.26856620000035,,,,,,,,,,,,,,,,,3,F,2,19,L,MCK,2021_Oct_05_1848,2020.2.10,distractmap2,59.99480444878698,"['Left Arm', 'Abdomen', 'Chest', 'Left Face']",
4,"[-0.2, 0]",0,,,,,0,6,6,6,,,,,,,,,,,,,,,,,,,,,,None,None,"[0, 0, 0]",206.2852547999937,208.2852630999987,206.2852547999937,207.28525570000056,207.2685788999952,208.26859039999545,"[0, 0, 0]",1,206.2852547999937,208.2852630999987,,,,,,,,,,,,,,,,,3,F,2,19,L,MCK,2021_Oct_05_1848,2020.2.10,distractmap2,59.99480444878698,"['Left Arm', 'Abdomen', 'Chest', 'Left Face']",
7,"[-0.2, -0.2]",0,,,,,0,7,7,7,,,,,,,,,,,,,,,,,,,,,,None,None,"[0, 0, 0]",208.3019373999996,210.3019490000006,208.3019373999996,209.30194479999773,209.2852625999949,210.2851554999943,"[0, 0, 0]",1,208.3019373999996,210.3019490000006,,,,,,,,,,,,,,,,,3,F,2,19,L,MCK,2021_Oct_05_1848,2020.2.10,distractmap2,59.99480444878698,"['Left Arm', 'Abdomen', 'Chest', 'Left Face']",
4,"[-0.2, 0]",1,,,,,0,8,8,8,,,,,,,,,,,,,,,,,,,,,,None,None,"[0, 0, 0]",210.3185911000037,212.31861529999878,210.3185911000037,211.3185996999964,211.3019340000028,212.30196799999976,"[0, 0, 0]",1,210.3185911000037,212.31861529999878,,,,,,,,,,,,,,,,,3,F,2,19,L,MCK,2021_Oct_05_1848,2020.2.10,distractmap2,59.99480444878698,"['Left Arm', 'Abdomen', 'Chest', 'Left Face']",
3,"[0.2, 0.2]",0,,,,,0,9,9,9,,,,,,,,,,,,,,,,,,,,,,None,None,"[0, 0, 0]",212.335376300005,214.3353111000033,212.335376300005,213.33530409999366,213.3186141000042,214.3186388000031,"[0, 0, 0]",1,212.335376300005,214.3353111000033,,,,,,,,,,,,,,,,,3,F,2,19,L,MCK,2021_Oct_05_1848,2020.2.10,distractmap2,59.99480444878698,"['Left Arm', 'Abdomen', 'Chest', 'Left Face']",
5,"[0, 0]",0,,,,,0,10,10,10,,,,,,,,,,,,,,,,,,,,,,None,None,"[0, 0, 0]",214.3519612999953,216.35198700000183,214.3519612999953,215.35199110000394,215.33531599999696,216.33531799999764,"[0, 0, 0]",1,214.3519612999953,216.35198700000183,,,,,,,,,,,,,,,,,3,F,2,19,L,MCK,2021_Oct_05_1848,2020.2.10,distractmap2,59.99480444878698,"['Left Arm', 'Abdomen', 'Chest', 'Left Face']",
3,"[0.2, 0.2]",1,,,,,0,11,11,11,,,,,,,,,,,,,,,,,,,,,,None,None,"[0, 0, 0]",216.36865010000474,218.3686624999973,216.36865010000474,217.36864329999662,217.35197990000597,218.35199969999667,"[0, 0, 0]",1,216.36865010000474,218.3686624999973,,,,,,,,,,,,,,,,,3,F,2,19,L,MCK,2021_Oct_05_1848,2020.2.10,distractmap2,59.99480444878698,"['Left Arm', 'Abdomen', 'Chest', 'Left Face']",
1,"[-0.2, 0.2]",0,,,,,0,12,12,12,,,,,,,,,,,,,,,,,,,,,,None,None,"[0, 0, 0]",218.38533439999446,220.38536329999624,218.38533439999446,219.38533940000343,219.36866799999552,220.36867589999747,"[0, 0, 0]",1,218.38533439999446,220.38536329999624,,,,,,,,,,,,,,,,,3,F,2,19,L,MCK,2021_Oct_05_1848,2020.2.10,distractmap2,59.99480444878698,"['Left Arm', 'Abdomen', 'Chest', 'Left Face']",
9,"[0.2, -0.2]",0,,,,,0,13,13,13,,,,,,,,,,,,,,,,,,,,,,None,None,"[0, 0, 0]",220.4020237999939,222.40202520000457,220.4020237999939,221.40202470000077,221.38535460000276,222.38536539999768,"[0, 0, 0]",1,220.4020237999939,222.40202520000457,,,,,,,,,,,,,,,,,3,F,2,19,L,MCK,2021_Oct_05_1848,2020.2.10,distractmap2,59.99480444878698,"['Left Arm', 'Abdomen', 'Chest', 'Left Face']",
9,"[0.2, -0.2]",0,,,,,0,14,14,14,,,,,,,,,,,,,,,,,,,,,,None,None,"[0, 0, 0]",222.418691400002,224.4187307999964,222.418691400002,223.41870239999844,223.40204470000754,224.40205170000263,"[0, 0, 0]",1,222.418691400002,224.4187307999964,,,,,,,,,,,,,,,,,3,F,2,19,L,MCK,2021_Oct_05_1848,2020.2.10,distractmap2,59.99480444878698,"['Left Arm', 'Abdomen', 'Chest', 'Left Face']",
8,"[0, -0.2]",0,,,,,0,15,15,15,,,,,,,,,,,,,,,,,,,,,,None,None,"[0, 0, 0]",224.43538969999645,226.43537859999924,224.43538969999645,225.4353931000078,225.41871110000648,226.4187460999965,"[0, 0, 0]",1,224.43538969999645,226.43537859999924,,,,,,,,,,,,,,,,,3,F,2,19,L,MCK,2021_Oct_05_1848,2020.2.10,distractmap2,59.99480444878698,"['Left Arm', 'Abdomen', 'Chest', 'Left Face']",
6,"[0.2, 0]",0,,,,,0,16,16,16,,,,,,,,,,,,,,,,,,,,,,None,None,"[0, 0, 0]",226.45204669999657,228.45206809999945,226.45204669999657,227.4520760000014,227.43529350000608,228.4354083000071,"[0, 0, 0]",1,226.45204669999657,228.45206809999945,,,,,,,,,,,,,,,,,3,F,2,19,L,MCK,2021_Oct_05_1848,2020.2.10,distractmap2,59.99480444878698,"['Left Arm', 'Abdomen', 'Chest', 'Left Face']",
3,"[0.2, 0.2]",0,,,,,0,17,17,17,,,,,,,,,,,,,,,,,,,,,,None,None,"[0, 0, 0]",228.46874450000178,230.46876479999628,228.46874450000178,229.46874090000347,229.45196629999555,230.45210090000182,"[0, 0, 0]",1,228.46874450000178,230.46876479999628,,,,,,,,,,,,,,,,,3,F,2,19,L,MCK,2021_Oct_05_1848,2020.2.10,distractmap2,59.99480444878698,"['Left Arm', 'Abdomen', 'Chest', 'Left Face']",
6,"[0.2, 0]",1,,,,,0,18,18,18,,,,,,,,,,,,,,,,,,,,,,None,None,"[0, 0, 0]",230.48542050000106,232.48543470000732,230.48542050000106,231.48543990000326,231.4687830000039,232.46876299999713,"[0, 0, 0]",1,230.48542050000106,232.48543470000732,,,,,,,,,,,,,,,,,3,F,2,19,L,MCK,2021_Oct_05_1848,2020.2.10,distractmap2,59.99480444878698,"['Left Arm', 'Abdomen', 'Chest', 'Left Face']",
5,"[0, 0]",0,,,,,0,19,19,19,,,,,,,,,,,,,,,,,,,,,,None,None,"[0, 0, 0]",232.50209690000338,234.5021049000061,232.50209690000338,233.50211080000736,233.4854469999991,234.4854592000047,"[0, 0, 0]",1,232.50209690000338,234.5021049000061,,,,,,,,,,,,,,,,,3,F,2,19,L,MCK,2021_Oct_05_1848,2020.2.10,distractmap2,59.99480444878698,"['Left Arm', 'Abdomen', 'Chest', 'Left Face']",
7,"[-0.2, -0.2]",0,,,,,0,20,20,20,,,,,,,,,,,,,,,,,,,,,,None,None,"[0, 0, 0]",234.51878220000071,236.51881599999615,234.51878220000071,235.51878600000055,235.5021179000032,236.502135799994,"[0, 0, 0]",1,234.51878220000071,236.51881599999615,,,,,,,,,,,,,,,,,3,F,2,19,L,MCK,2021_Oct_05_1848,2020.2.10,distractmap2,59.99480444878698,"['Left Arm', 'Abdomen', 'Chest', 'Left Face']",
5,"[0, 0]",1,,,,,0,21,21,21,,,,,,,,,,,,,,,,,,,,,,None,None,"[0, 0, 0]",236.5354595999961,238.5355133999983,236.5354595999961,237.53547750000143,237.51879430000554,238.51884230000724,"[0, 0, 0]",1,236.5354595999961,238.5355133999983,,,,,,,,,,,,,,,,,3,F,2,19,L,MCK,2021_Oct_05_1848,2020.2.10,distractmap2,59.99480444878698,"['Left Arm', 'Abdomen', 'Chest', 'Left Face']",
1,"[-0.2, 0.2]",0,,,,,0,22,22,22,,,,,,,,,,,,,,,,,,,,,,None,None,"[0, 0, 0]",238.55214810000325,240.55215719999978,238.55214810000325,239.5521599000058,239.5354820000066,240.53548849999788,"[0, 0, 0]",1,238.55214810000325,240.55215719999978,,,,,,,,,,,,,,,,,3,F,2,19,L,MCK,2021_Oct_05_1848,2020.2.10,distractmap2,59.99480444878698,"['Left Arm', 'Abdomen', 'Chest', 'Left Face']",
7,"[-0.2, -0.2]",0,,,,,0,23,23,23,,,,,,,,,,,,,,,,,,,,,,None,None,"[0, 0, 0]",240.56883230000676,242.56884779999382,240.56883230000676,241.5688300000038,241.55215319999843,242.55217569999513,"[0, 0, 0]",1,240.56883230000676,242.56884779999382,,,,,,,,,,,,,,,,,3,F,2,19,L,MCK,2021_Oct_05_1848,2020.2.10,distractmap2,59.99480444878698,"['Left Arm', 'Abdomen', 'Chest', 'Left Face']",
9,"[0.2, -0.2]",0,,,,,0,24,24,24,,,,,,,,,,,,,,,,,,,,,,None,None,"[0, 0, 0]",242.58551889999944,244.58551259999513,242.58551889999944,243.5855300999974,243.56884130000253,244.5688450000016,"[0, 0, 0]",1,242.58551889999944,244.58551259999513,,,,,,,,,,,,,,,,,3,F,2,19,L,MCK,2021_Oct_05_1848,2020.2.10,distractmap2,59.99480444878698,"['Left Arm', 'Abdomen', 'Chest', 'Left Face']",
3,"[0.2, 0.2]",0,,,,,0,25,25,25,,,,,,,,,,,,,,,,,,,,,,None,None,"[0, 0, 0]",244.6021904000081,246.60219679999864,244.6021904000081,245.60218479999457,245.5855345000018,246.58554569999978,"[0, 0, 0]",1,244.6021904000081,246.60219679999864,,,,,,,,,,,,,,,,,3,F,2,19,L,MCK,2021_Oct_05_1848,2020.2.10,distractmap2,59.99480444878698,"['Left Arm', 'Abdomen', 'Chest', 'Left Face']",
9,"[0.2, -0.2]",1,,,,,0,26,26,26,,,,,,,,,,,,,,,,,,,,,,None,None,"[0, 0, 0]",246.61886750000122,248.61887960000604,246.61886750000122,247.61888189999445,247.60222970000177,248.60221979999915,"[0, 0, 0]",1,246.61886750000122,248.61887960000604,,,,,,,,,,,,,,,,,3,F,2,19,L,MCK,2021_Oct_05_1848,2020.2.10,distractmap2,59.99480444878698,"['Left Arm', 'Abdomen', 'Chest', 'Left Face']",
6,"[0.2, 0]",0,,,,,0,27,27,27,,,,,,,,,,,,,,,,,,,,,,None,None,"[0, 0, 0]",248.63555219999398,250.63548609999998,248.63555219999398,249.63556399999652,249.6188809000014,250.61890180000046,"[0, 0, 0]",1,248.63555219999398,250.63548609999998,,,,,,,,,,,,,,,,,3,F,2,19,L,MCK,2021_Oct_05_1848,2020.2.10,distractmap2,59.99480444878698,"['Left Arm', 'Abdomen', 'Chest', 'Left Face']",
2,"[0, 0.2]",0,,,,,0,28,28,28,,,,,,,,,,,,,,,,,,,,,,None,None,"[0, 0, 0]",250.6522454000078,252.6522694000014,250.6522454000078,251.65226220000477,251.63547890000336,252.63558349999948,"[0, 0, 0]",1,250.6522454000078,252.6522694000014,,,,,,,,,,,,,,,,,3,F,2,19,L,MCK,2021_Oct_05_1848,2020.2.10,distractmap2,59.99480444878698,"['Left Arm', 'Abdomen', 'Chest', 'Left Face']",
5,"[0, 0]",0,,,,,0,29,29,29,,,,,,,,,,,,,,,,,,,,,,None,None,"[0, 0, 0]",252.66890689999855,254.6689258999977,252.66890689999855,253.6689161999966,253.65216050000163,254.65228840000054,"[0, 0, 0]",1,252.66890689999855,254.6689258999977,,,,,,,,,,,,,,,,,3,F,2,19,L,MCK,2021_Oct_05_1848,2020.2.10,distractmap2,59.99480444878698,"['Left Arm', 'Abdomen', 'Chest', 'Left Face']",
,,,,,,,,,,,,,,,,,,,,,,,,,,,254.68550409999443,None,space,254.68550409999443,None,,,,,,,,,,,,,,,,,,,,,,,,,,,,,,3,F,2,19,L,MCK,2021_Oct_05_1848,2020.2.10,distractmap2,59.99480444878698,"['Left Arm', 'Abdomen', 'Chest', 'Left Face']",
5,"[0, 0]",None,0,0,0,0,,,,,525.7379604000016,None,530.3543218999985,None,530.3543218999985,531.3543058000068,531.337660499994,532.3376600000047,1,None,None,"[0, 0, 0]",,,530.3543218999985,None,,,,,,,,,,,,,,,,,,,289.7028030000074,289.7028030000074,None,space,197.91114050000033,289.7028030000074,None,"[0, 0, 0]",,,,,,,,,3,F,2,19,L,MCK,2021_Oct_05_1848,2020.2.10,distractmap2,59.99480444878698,"['Left Arm', 'Abdomen', 'Chest', 'Left Face']",
5,"[0, 0]",1,0,1,1,1,,,,,,,532.3543237999984,None,532.3543237999984,533.3543269999936,533.3376489000075,534.3376698000066,1,None,None,"[0, 0, 0]",,,532.3543237999984,None,,,,,,,,,,,,,,,,,,,,,,,,,,"[0, 0, 0]",,,,,,,,,3,F,2,19,L,MCK,2021_Oct_05_1848,2020.2.10,distractmap2,59.99480444878698,"['Left Arm', 'Abdomen', 'Chest', 'Left Face']",
4,"[-0.2, 0]",0,0,2,2,2,,,,,,,534.3543289999943,534.3543289999943,534.3543289999943,535.3543474000035,535.3376837999967,536.3377178999945,1,None,None,"[0, 0, 0]",,,534.3543289999943,534.3543289999943,,,,,,,,,,,,,,,,,,,,,,,,,,"[0, 0, 0]",,,,,,,,,3,F,2,19,L,MCK,2021_Oct_05_1848,2020.2.10,distractmap2,59.99480444878698,"['Left Arm', 'Abdomen', 'Chest', 'Left Face']",
2,"[0, 0.2]",0,0,3,3,3,,,,,,,536.3543705000047,536.3543705000047,536.3543705000047,537.3543696999986,537.3376886000042,538.3376934999978,1,None,None,"[0, 0, 0]",,,536.3543705000047,536.3543705000047,,,,,,,,,,,,,,,,,,,,,,,,,,"[0, 0, 0]",,,,,,,,,3,F,2,19,L,MCK,2021_Oct_05_1848,2020.2.10,distractmap2,59.99480444878698,"['Left Arm', 'Abdomen', 'Chest', 'Left Face']",
6,"[0.2, 0]",0,0,4,4,4,,,,,,,538.3880637999973,538.3880637999973,538.3880637999973,539.3877172000066,539.3710484000039,None,1,None,None,"[0, 0, 0]",,,538.3880637999973,538.3880637999973,,,,,,,,,,,,,,,,,,,,,,,,,,"[0, 0, 0]",,,,,,,,,3,F,2,19,L,MCK,2021_Oct_05_1848,2020.2.10,distractmap2,59.99480444878698,"['Left Arm', 'Abdomen', 'Chest', 'Left Face']",
8,"[0, -0.2]",0,0,5,5,5,,,,,,,540.3710700999945,None,540.3710700999945,541.3710707999999,541.3543806999951,542.354414100002,1,None,None,"[0, 0, 0]",,,540.3710700999945,None,,,,,,,,,,,,,,,,,,,,,,,,,,"[0, 0, 0]",,,,,,,,,3,F,2,19,L,MCK,2021_Oct_05_1848,2020.2.10,distractmap2,59.99480444878698,"['Left Arm', 'Abdomen', 'Chest', 'Left Face']",
1,"[-0.2, 0.2]",0,0,6,6,6,,,,,,,542.3710683999961,542.3710683999961,542.3710683999961,543.3710617000033,543.3544183000049,544.3544187999942,1,None,None,"[0, 0, 0]",,,542.3710683999961,542.3710683999961,,,,,,,,,,,,,,,,,,,,,,,,,,"[0, 0, 0]",,,,,,,,,3,F,2,19,L,MCK,2021_Oct_05_1848,2020.2.10,distractmap2,59.99480444878698,"['Left Arm', 'Abdomen', 'Chest', 'Left Face']",
4,"[-0.2, 0]",0,0,7,7,7,,,,,,,544.3710764999996,544.3710764999996,544.3710764999996,545.3710929000081,545.3544302999944,546.3544371000025,1,None,None,"[0, 0, 0]",,,544.3710764999996,544.3710764999996,,,,,,,,,,,,,,,,,,,,,,,,,,"[0, 0, 0]",,,,,,,,,3,F,2,19,L,MCK,2021_Oct_05_1848,2020.2.10,distractmap2,59.99480444878698,"['Left Arm', 'Abdomen', 'Chest', 'Left Face']",
8,"[0, -0.2]",0,0,8,8,8,,,,,,,546.3710889000067,546.3710889000067,546.3710889000067,547.3710917999997,547.3544302999944,548.3544345999981,1,None,None,"[0, 0, 0]",,,546.3710889000067,546.3710889000067,,,,,,,,,,,,,,,,,,,,,,,,,,"[0, 0, 0]",,,,,,,,,3,F,2,19,L,MCK,2021_Oct_05_1848,2020.2.10,distractmap2,59.99480444878698,"['Left Arm', 'Abdomen', 'Chest', 'Left Face']",
8,"[0, -0.2]",1,0,9,9,9,,,,,,,548.3711108999996,548.3711108999996,548.3711108999996,549.3711145999987,549.3544588999939,550.3544617000007,1,None,None,"[0, 0, 0]",,,548.3711108999996,548.3711108999996,,,,,,,,,,,,,,,,,,,,,,,,,,"[0, 0, 0]",,,,,,,,,3,F,2,19,L,MCK,2021_Oct_05_1848,2020.2.10,distractmap2,59.99480444878698,"['Left Arm', 'Abdomen', 'Chest', 'Left Face']",
,,,,,,,,,,,550.3711101000081,None,,,,,,,,,,,,,,,,,,,,,,,,,,,,,,,,,,,,,,,,,35.0,531.5496303099935,,,,,,,3,F,2,19,L,MCK,2021_Oct_05_1848,2020.2.10,distractmap2,59.99480444878698,"['Left Arm', 'Abdomen', 'Chest', 'Left Face']",
3,"[0.2, 0.2]",None,,,,,0,0,0,0,567.621421799995,None,,,,,,,,,,,,,,,,,,,,None,None,"[0, 0, 0]",570.4379444000078,None,570.4379444000078,571.4379404000065,571.4212866000016,572.421279800008,"[0, 0, 0]",1,570.4379444000078,None,,,,,,,,,,,0.01524919000803493,5.012869890008005,,,,,3,F,2,19,L,MCK,2021_Oct_05_1848,2020.2.10,distractmap2,59.99480444878698,"['Left Arm', 'Abdomen', 'Chest', 'Left Face']",
3,"[0.2, 0.2]",None,,,,,0,1,1,1,,,,,,,,,,,,,,,,,,,,,,None,None,"[0, 0, 0]",572.4379504999961,574.4379591000034,572.4379504999961,573.4379633000062,573.4212880999985,574.4213066999946,"[0, 0, 0]",1,572.4379504999961,574.4379591000034,,,,,,,,,,,,,,,,,3,F,2,19,L,MCK,2021_Oct_05_1848,2020.2.10,distractmap2,59.99480444878698,"['Left Arm', 'Abdomen', 'Chest', 'Left Face']",
5,"[0, 0]",0,,,,,0,2,2,2,,,,,,,,,,,,,,,,,,,,,,None,None,"[0, 0, 0]",574.4546511999943,576.4546542000026,574.4546511999943,575.454659199997,575.4379672000068,576.4379945999972,"[0, 0, 0]",1,574.4546511999943,576.4546542000026,,,,,,,,,,,,,,,,,3,F,2,19,L,MCK,2021_Oct_05_1848,2020.2.10,distractmap2,59.99480444878698,"['Left Arm', 'Abdomen', 'Chest', 'Left Face']",
1,"[-0.2, 0.2]",0,,,,,0,3,3,3,,,,,,,,,,,,,,,,,,,,,,None,None,"[0, 0, 0]",576.4713103999966,578.4713406999945,576.4713103999966,577.471326400002,577.4546545000048,578.4546755000047,"[0, 0, 0]",1,576.4713103999966,578.4713406999945,,,,,,,,,,,,,,,,,3,F,2,19,L,MCK,2021_Oct_05_1848,2020.2.10,distractmap2,59.99480444878698,"['Left Arm', 'Abdomen', 'Chest', 'Left Face']",
5,"[0, 0]",1,,,,,0,4,4,4,,,,,,,,,,,,,,,,,,,,,,None,None,"[0, 0, 0]",578.5216990000044,None,578.5216990000044,579.5213631999941,579.5046892999962,None,"[0, 0, 0]",1,578.5216990000044,None,,,,,,,,,,,,,,,,,3,F,2,19,L,MCK,2021_Oct_05_1848,2020.2.10,distractmap2,59.99480444878698,"['Left Arm', 'Abdomen', 'Chest', 'Left Face']",
8,"[0, -0.2]",0,,,,,0,5,5,5,,,,,,,,,,,,,,,,,,,,,,None,None,"[0, 0, 0]",580.5046770000044,582.5046986999951,580.5046770000044,581.5046937000006,581.4880243999942,582.4880284999963,"[0, 0, 0]",1,580.5046770000044,582.5046986999951,,,,,,,,,,,,,,,,,3,F,2,19,L,MCK,2021_Oct_05_1848,2020.2.10,distractmap2,59.99480444878698,"['Left Arm', 'Abdomen', 'Chest', 'Left Face']",
5,"[0, 0]",1,,,,,0,6,6,6,,,,,,,,,,,,,,,,,,,,,,None,None,"[0, 0, 0]",582.5213619999995,584.5213788999972,582.5213619999995,583.5213798000041,583.5046958000021,584.5047061000078,"[0, 0, 0]",0,582.5213619999995,584.5213788999972,,,,,,,,,,,,,,,,,3,F,2,19,L,MCK,2021_Oct_05_1848,2020.2.10,distractmap2,59.99480444878698,"['Left Arm', 'Abdomen', 'Chest', 'Left Face']",
7,"[-0.2, -0.2]",0,,,,,0,7,7,7,,,,,,,,,,,,,,,,,,,,,,None,None,"[0, 0, 0]",584.5380504000059,586.5380569999979,584.5380504000059,585.5380676000059,585.5213868999999,586.5213927000004,"[0, 0, 0]",1,584.5380504000059,586.5380569999979,,,,,,,,,,,,,,,,,3,F,2,19,L,MCK,2021_Oct_05_1848,2020.2.10,distractmap2,59.99480444878698,"['Left Arm', 'Abdomen', 'Chest', 'Left Face']",
5,"[0, 0]",1,,,,,0,8,8,8,,,,,,,,,,,,,,,,,,,,,,None,None,"[0, 0, 0]",586.5547413000022,588.5547478999943,586.5547413000022,587.5547450000013,587.5380737999949,588.5380751000048,"[0, 0, 0]",1,586.5547413000022,588.5547478999943,,,,,,,,,,,,,,,,,3,F,2,19,L,MCK,2021_Oct_05_1848,2020.2.10,distractmap2,59.99480444878698,"['Left Arm', 'Abdomen', 'Chest', 'Left Face']",
7,"[-0.2, -0.2]",1,,,,,0,9,9,9,,,,,,,,,,,,,,,,,,,,,,None,None,"[0, 0, 0]",588.5714051999967,590.5714436999988,588.5714051999967,589.5714193000022,589.554753599994,590.5547666000057,"[0, 0, 0]",0,588.5714051999967,590.5714436999988,,,,,,,,,,,,,,,,,3,F,2,19,L,MCK,2021_Oct_05_1848,2020.2.10,distractmap2,59.99480444878698,"['Left Arm', 'Abdomen', 'Chest', 'Left Face']",
,,,,,,,,,,,590.5880896000017,None,,,,,,,,,,,,,,,,,,,,,,,,,,,,,,,,,,,,,,,,,34.5679012345679,567.7333429100108,,,,,,,3,F,2,19,L,MCK,2021_Oct_05_1848,2020.2.10,distractmap2,59.99480444878698,"['Left Arm', 'Abdomen', 'Chest', 'Left Face']",
6,"[0.2, 0]",None,,,,,0,0,0,0,603.8048821999982,None,,,,,,,,,,,,,,,,,,,,None,None,"[0, 0, 0]",610.6215813000017,None,610.6215813000017,611.6216004000016,611.6049196999957,612.6049156000081,"[0, 0, 0]",1,610.6215813000017,None,,,,,,,,,,,0.015146289995755069,5.012734889998683,,,,,3,F,2,19,L,MCK,2021_Oct_05_1848,2020.2.10,distractmap2,59.99480444878698,"['Left Arm', 'Abdomen', 'Chest', 'Left Face']",
1,"[-0.2, 0.2]",None,,,,,0,1,1,1,,,,,,,,,,,,,,,,,,,,,,None,None,"[0, 0, 0]",612.6215882999968,614.621607299996,612.6215882999968,613.6215969000041,613.6049224000017,614.6049469999998,"[0, 0, 0]",1,612.6215882999968,614.621607299996,,,,,,,,,,,,,,,,,3,F,2,19,L,MCK,2021_Oct_05_1848,2020.2.10,distractmap2,59.99480444878698,"['Left Arm', 'Abdomen', 'Chest', 'Left Face']",
6,"[0.2, 0]",1,,,,,0,2,2,2,,,,,,,,,,,,,,,,,,,,,,None,None,"[0, 0, 0]",614.6382730000041,616.6382920000033,614.6382730000041,615.6383039000066,615.6216292000026,616.6216477999988,"[0, 0, 0]",0,614.6382730000041,616.6382920000033,,,,,,,,,,,,,,,,,3,F,2,19,L,MCK,2021_Oct_05_1848,2020.2.10,distractmap2,59.99480444878698,"['Left Arm', 'Abdomen', 'Chest', 'Left Face']",
4,"[-0.2, 0]",0,,,,,0,3,3,3,,,,,,,,,,,,,,,,,,,,,,None,None,"[0, 0, 0]",616.654947899995,618.6549640000012,616.654947899995,617.6549632999959,617.6382914999995,618.638291700001,"[0, 0, 0]",1,616.654947899995,618.6549640000012,,,,,,,,,,,,,,,,,3,F,2,19,L,MCK,2021_Oct_05_1848,2020.2.10,distractmap2,59.99480444878698,"['Left Arm', 'Abdomen', 'Chest', 'Left Face']",
1,"[-0.2, 0.2]",0,,,,,0,4,4,4,,,,,,,,,,,,,,,,,,,,,,None,None,"[0, 0, 0]",618.7052416000079,None,618.7052416000079,619.7049867000023,619.6883114999946,None,"[0, 0, 0]",1,618.7052416000079,None,,,,,,,,,,,,,,,,,3,F,2,19,L,MCK,2021_Oct_05_1848,2020.2.10,distractmap2,59.99480444878698,"['Left Arm', 'Abdomen', 'Chest', 'Left Face']",
8,"[0, -0.2]",0,,,,,0,5,5,5,,,,,,,,,,,,,,,,,,,,,,None,None,"[0, 0, 0]",620.6883200000011,622.6883288999961,620.6883200000011,621.6883162000013,621.6716745000012,622.671671300006,"[0, 0, 0]",1,620.6883200000011,622.6883288999961,,,,,,,,,,,,,,,,,3,F,2,19,L,MCK,2021_Oct_05_1848,2020.2.10,distractmap2,59.99480444878698,"['Left Arm', 'Abdomen', 'Chest', 'Left Face']",
1,"[-0.2, 0.2]",1,,,,,0,6,6,6,,,,,,,,,,,,,,,,,,,,,,None,None,"[0, 0, 0]",622.705002600007,624.705005900003,622.705002600007,623.7050057000015,623.6883453000046,624.6883579999994,"[0, 0, 0]",0,622.705002600007,624.705005900003,,,,,,,,,,,,,,,,,3,F,2,19,L,MCK,2021_Oct_05_1848,2020.2.10,distractmap2,59.99480444878698,"['Left Arm', 'Abdomen', 'Chest', 'Left Face']",
8,"[0, -0.2]",1,,,,,0,7,7,7,,,,,,,,,,,,,,,,,,,,,,None,None,"[0, 0, 0]",624.721686799996,626.7217113999941,624.721686799996,625.7216941000079,625.7050084999937,626.7050481000042,"[0, 0, 0]",1,624.721686799996,626.7217113999941,,,,,,,,,,,,,,,,,3,F,2,19,L,MCK,2021_Oct_05_1848,2020.2.10,distractmap2,59.99480444878698,"['Left Arm', 'Abdomen', 'Chest', 'Left Face']",
1,"[-0.2, 0.2]",1,,,,,0,8,8,8,,,,,,,,,,,,,,,,,,,,,,None,None,"[0, 0, 0]",626.7383602000045,628.7382832000003,626.7383602000045,627.7383640000044,627.7217135999963,628.7217077999958,"[0, 0, 0]",1,626.7383602000045,628.7382832000003,,,,,,,,,,,,,,,,,3,F,2,19,L,MCK,2021_Oct_05_1848,2020.2.10,distractmap2,59.99480444878698,"['Left Arm', 'Abdomen', 'Chest', 'Left Face']",
6,"[0.2, 0]",0,,,,,0,9,9,9,,,,,,,,,,,,,,,,,,,,,,None,None,"[0, 0, 0]",628.755029699998,630.7550577000075,628.755029699998,629.755056199996,629.7383892000071,630.738394400003,"[0, 0, 0]",1,628.755029699998,630.7550577000075,,,,,,,,,,,,,,,,,3,F,2,19,L,MCK,2021_Oct_05_1848,2020.2.10,distractmap2,59.99480444878698,"['Left Arm', 'Abdomen', 'Chest', 'Left Face']",
,,,,,,,,,,,630.771731300003,None,,,,,,,,,,,,,,,,,,,,,,,,,,,,,,,,,,,,,,,,,23.45679012345679,612.1672875100194,,,,,,,3,F,2,19,L,MCK,2021_Oct_05_1848,2020.2.10,distractmap2,59.99480444878698,"['Left Arm', 'Abdomen', 'Chest', 'Left Face']",
3,"[0.2, 0.2]",None,0,0,0,0,,,,,648.0217337000067,None,650.838556600007,None,650.838556600007,651.838556799994,651.8218912000011,652.8218923999957,1,None,None,"[0, 0, 0]",,,650.838556600007,None,,,,,,,,,,,,,,,,,,,,,,,,,,"[0, 0, 0]",,,0.01487358998565469,5.012249789986527,,,,,3,F,2,19,L,MCK,2021_Oct_05_1848,2020.2.10,distractmap2,59.99480444878698,"['Left Arm', 'Abdomen', 'Chest', 'Left Face']",
4,"[-0.2, 0]",0,0,1,1,1,,,,,,,652.8385818999959,None,652.8385818999959,653.8385851000057,653.821890399995,654.8219164000038,1,None,None,"[0, 0, 0]",,,652.8385818999959,None,,,,,,,,,,,,,,,,,,,,,,,,,,"[0, 0, 0]",,,,,,,,,3,F,2,19,L,MCK,2021_Oct_05_1848,2020.2.10,distractmap2,59.99480444878698,"['Left Arm', 'Abdomen', 'Chest', 'Left Face']",
1,"[-0.2, 0.2]",0,0,2,2,2,,,,,,,654.8385820999974,654.8385820999974,654.8385820999974,655.8386021000042,655.8218428999971,656.8219258000026,1,None,None,"[0, 0, 0]",,,654.8385820999974,654.8385820999974,,,,,,,,,,,,,,,,,,,,,,,,,,"[0, 0, 0]",,,,,,,,,3,F,2,19,L,MCK,2021_Oct_05_1848,2020.2.10,distractmap2,59.99480444878698,"['Left Arm', 'Abdomen', 'Chest', 'Left Face']",
2,"[0, 0.2]",0,0,3,3,3,,,,,,,656.8386040000041,656.8386040000041,656.8386040000041,657.8385964000045,657.8219244000065,658.821930399994,1,None,None,"[0, 0, 0]",,,656.8386040000041,656.8386040000041,,,,,,,,,,,,,,,,,,,,,,,,,,"[0, 0, 0]",,,,,,,,,3,F,2,19,L,MCK,2021_Oct_05_1848,2020.2.10,distractmap2,59.99480444878698,"['Left Arm', 'Abdomen', 'Chest', 'Left Face']",
2,"[0, 0.2]",1,0,4,4,4,,,,,,,658.9052404999966,658.9052404999966,658.9052404999966,659.9052849,659.8886109000014,None,1,None,None,"[0, 0, 0]",,,658.9052404999966,658.9052404999966,,,,,,,,,,,,,,,,,,,,,,,,,,"[0, 0, 0]",,,,,,,,,3,F,2,19,L,MCK,2021_Oct_05_1848,2020.2.10,distractmap2,59.99480444878698,"['Left Arm', 'Abdomen', 'Chest', 'Left Face']",
5,"[0, 0]",0,0,5,5,5,,,,,,,660.8552900000068,None,660.8552900000068,661.855315000008,661.8386266000016,662.8386414999986,1,None,None,"[0, 0, 0]",,,660.8552900000068,None,,,,,,,,,,,,,,,,,,,,,,,,,,"[0, 0, 0]",,,,,,,,,3,F,2,19,L,MCK,2021_Oct_05_1848,2020.2.10,distractmap2,59.99480444878698,"['Left Arm', 'Abdomen', 'Chest', 'Left Face']",
1,"[-0.2, 0.2]",0,0,6,6,6,,,,,,,662.8553027000016,662.8553027000016,662.8553027000016,663.8553044,663.8386419000017,664.8385325999989,1,None,None,"[0, 0, 0]",,,662.8553027000016,662.8553027000016,,,,,,,,,,,,,,,,,,,,,,,,,,"[0, 0, 0]",,,,,,,,,3,F,2,19,L,MCK,2021_Oct_05_1848,2020.2.10,distractmap2,59.99480444878698,"['Left Arm', 'Abdomen', 'Chest', 'Left Face']",
1,"[-0.2, 0.2]",1,0,7,7,7,,,,,,,664.8553198000009,664.8553198000009,664.8553198000009,665.855329500002,665.8386555000034,666.8386696999951,0,None,None,"[0, 0, 0]",,,664.8553198000009,664.8553198000009,,,,,,,,,,,,,,,,,,,,,,,,,,"[0, 0, 0]",,,,,,,,,3,F,2,19,L,MCK,2021_Oct_05_1848,2020.2.10,distractmap2,59.99480444878698,"['Left Arm', 'Abdomen', 'Chest', 'Left Face']",
8,"[0, -0.2]",0,0,8,8,8,,,,,,,666.8552922999952,666.8552922999952,666.8552922999952,667.8553392000031,667.8386948999978,668.8386918000033,1,None,None,"[0, 0, 0]",,,666.8552922999952,666.8552922999952,,,,,,,,,,,,,,,,,,,,,,,,,,"[0, 0, 0]",,,,,,,,,3,F,2,19,L,MCK,2021_Oct_05_1848,2020.2.10,distractmap2,59.99480444878698,"['Left Arm', 'Abdomen', 'Chest', 'Left Face']",
7,"[-0.2, -0.2]",0,0,9,9,9,,,,,,,668.8553478999966,668.8553478999966,668.8553478999966,669.8553528000048,669.8386868999951,670.8387017000059,1,None,None,"[0, 0, 0]",,,668.8553478999966,668.8553478999966,,,,,,,,,,,,,,,,,,,,,,,,,,"[0, 0, 0]",,,,,,,,,3,F,2,19,L,MCK,2021_Oct_05_1848,2020.2.10,distractmap2,59.99480444878698,"['Left Arm', 'Abdomen', 'Chest', 'Left Face']",
,,,,,,,,,,,670.8553637000005,None,,,,,,,,,,,,,,,,,,,,,,,,,,,,,,,,,,,,,,,,,23.209876543209877,651.8513139100105,,,,,,,3,F,2,19,L,MCK,2021_Oct_05_1848,2020.2.10,distractmap2,59.99480444878698,"['Left Arm', 'Abdomen', 'Chest', 'Left Face']",
7,"[-0.2, -0.2]",None,,,,,0,0,0,0,688.739179199998,None,,,,,,,,,,,,,,,,,,,,None,None,"[0, 0, 0]",690.9222177000047,None,690.9222177000047,691.9221000999969,691.9055344999942,692.9055458000075,"[0, 0, 0]",1,690.9222177000047,None,,,,,,,,,,,0.014447989990003407,5.011360189993866,,,,,3,F,2,19,L,MCK,2021_Oct_05_1848,2020.2.10,distractmap2,59.99480444878698,"['Left Arm', 'Abdomen', 'Chest', 'Left Face']",
7,"[-0.2, -0.2]",None,,,,,0,1,1,1,,,,,,,,,,,,,,,,,,,,,,None,None,"[0, 0, 0]",692.9222087999951,694.922213400001,692.9222087999951,693.9222066000075,693.9055372000003,694.9055529000034,"[0, 0, 0]",1,692.9222087999951,694.922213400001,,,,,,,,,,,,,,,,,3,F,2,19,L,MCK,2021_Oct_05_1848,2020.2.10,distractmap2,59.99480444878698,"['Left Arm', 'Abdomen', 'Chest', 'Left Face']",
7,"[-0.2, -0.2]",1,,,,,0,2,2,2,,,,,,,,,,,,,,,,,,,,,,None,None,"[0, 0, 0]",694.9388980999938,696.9389274999994,694.9388980999938,695.9389038999943,695.922218199994,696.9222315000079,"[0, 0, 0]",1,694.9388980999938,696.9389274999994,,,,,,,,,,,,,,,,,3,F,2,19,L,MCK,2021_Oct_05_1848,2020.2.10,distractmap2,59.99480444878698,"['Left Arm', 'Abdomen', 'Chest', 'Left Face']",
5,"[0, 0]",0,,,,,0,3,3,3,,,,,,,,,,,,,,,,,,,,,,None,None,"[0, 0, 0]",696.9555578,698.9555872000055,696.9555578,697.9555744999961,697.9384222000081,698.938842699994,"[0, 0, 0]",1,696.9555578,698.9555872000055,,,,,,,,,,,,,,,,,3,F,2,19,L,MCK,2021_Oct_05_1848,2020.2.10,distractmap2,59.99480444878698,"['Left Arm', 'Abdomen', 'Chest', 'Left Face']",
1,"[-0.2, 0.2]",0,,,,,0,4,4,4,,,,,,,,,,,,,,,,,,,,,,None,None,"[0, 0, 0]",698.9885995000077,None,698.9885995000077,699.9889460999984,699.9721654000023,700.9722533000022,"[0, 0, 0]",1,698.9885995000077,None,,,,,,,,,,,,,,,,,3,F,2,19,L,MCK,2021_Oct_05_1848,2020.2.10,distractmap2,59.99480444878698,"['Left Arm', 'Abdomen', 'Chest', 'Left Face']",
6,"[0.2, 0]",0,,,,,0,5,5,5,,,,,,,,,,,,,,,,,,,,,,None,None,"[0, 0, 0]",700.9890085000079,702.9889477999968,700.9890085000079,701.9888164000004,701.9722693999938,702.9722712000075,"[0, 0, 0]",1,700.9890085000079,702.9889477999968,,,,,,,,,,,,,,,,,3,F,2,19,L,MCK,2021_Oct_05_1848,2020.2.10,distractmap2,59.99480444878698,"['Left Arm', 'Abdomen', 'Chest', 'Left Face']",
1,"[-0.2, 0.2]",1,,,,,0,6,6,6,,,,,,,,,,,,,,,,,,,,,,None,None,"[0, 0, 0]",703.0055008000054,705.0056143999973,703.0055008000054,704.0056187000009,703.988943999997,704.988973200001,"[0, 0, 0]",1,703.0055008000054,705.0056143999973,,,,,,,,,,,,,,,,,3,F,2,19,L,MCK,2021_Oct_05_1848,2020.2.10,distractmap2,59.99480444878698,"['Left Arm', 'Abdomen', 'Chest', 'Left Face']",
7,"[-0.2, -0.2]",0,,,,,0,7,7,7,,,,,,,,,,,,,,,,,,,,,,None,None,"[0, 0, 0]",705.0222809999977,707.0222970000032,705.0222809999977,706.0223052000074,706.0056406000076,707.0056474000012,"[0, 0, 0]",1,705.0222809999977,707.0222970000032,,,,,,,,,,,,,,,,,3,F,2,19,L,MCK,2021_Oct_05_1848,2020.2.10,distractmap2,59.99480444878698,"['Left Arm', 'Abdomen', 'Chest', 'Left Face']",
6,"[0.2, 0]",0,,,,,0,8,8,8,,,,,,,,,,,,,,,,,,,,,,None,None,"[0, 0, 0]",707.0389749000024,709.038991399997,707.0389749000024,708.0389942000038,708.0222960999963,709.0223056999967,"[0, 0, 0]",1,707.0389749000024,709.038991399997,,,,,,,,,,,,,,,,,3,F,2,19,L,MCK,2021_Oct_05_1848,2020.2.10,distractmap2,59.99480444878698,"['Left Arm', 'Abdomen', 'Chest', 'Left Face']",
7,"[-0.2, -0.2]",1,,,,,0,9,9,9,,,,,,,,,,,,,,,,,,,,,,None,None,"[0, 0, 0]",709.0556439000065,711.0556668000063,709.0556439000065,710.0556675999978,710.0389985999936,711.0390123999969,"[0, 0, 0]",1,709.0556439000065,711.0556668000063,,,,,,,,,,,,,,,,,3,F,2,19,L,MCK,2021_Oct_05_1848,2020.2.10,distractmap2,59.99480444878698,"['Left Arm', 'Abdomen', 'Chest', 'Left Face']",
,,,,,,,,,,,711.0723258000071,None,,,,,,,,,,,,,,,,,,,,,,,,,,,,,,,,,,,,,,,,,27.59259259259259,687.8507789099967,,,,,,,3,F,2,19,L,MCK,2021_Oct_05_1848,2020.2.10,distractmap2,59.99480444878698,"['Left Arm', 'Abdomen', 'Chest', 'Left Face']",
6,"[0.2, 0]",None,0,0,0,0,,,,,724.905946800005,None,731.1391556000017,None,731.1391556000017,732.1391616000037,732.1058398000023,733.1058378000016,1,None,None,"[0, 0, 0]",,,731.1391556000017,None,,,,,,,,,,,,,,,,,,,,,,,,,,"[0, 0, 0]",,,0.015266690010321327,5.012998090009205,,,,,3,F,2,19,L,MCK,2021_Oct_05_1848,2020.2.10,distractmap2,59.99480444878698,"['Left Arm', 'Abdomen', 'Chest', 'Left Face']",
6,"[0.2, 0]",1,0,1,1,1,,,,,,,733.1390660000034,None,733.1390660000034,734.1391627999983,734.1223897000018,735.1225120000017,1,None,None,"[0, 0, 0]",,,733.1390660000034,None,,,,,,,,,,,,,,,,,,,,,,,,,,"[0, 0, 0]",,,,,,,,,3,F,2,19,L,MCK,2021_Oct_05_1848,2020.2.10,distractmap2,59.99480444878698,"['Left Arm', 'Abdomen', 'Chest', 'Left Face']",
1,"[-0.2, 0.2]",0,0,2,2,2,,,,,,,735.1392306000052,735.1392306000052,735.1392306000052,736.1391877999995,736.122529100001,737.1225249999989,1,None,None,"[0, 0, 0]",,,735.1392306000052,735.1392306000052,,,,,,,,,,,,,,,,,,,,,,,,,,"[0, 0, 0]",,,,,,,,,3,F,2,19,L,MCK,2021_Oct_05_1848,2020.2.10,distractmap2,59.99480444878698,"['Left Arm', 'Abdomen', 'Chest', 'Left Face']",
8,"[0, -0.2]",0,0,3,3,3,,,,,,,737.1392064999964,737.1392064999964,737.1392064999964,738.1391936,738.1225341999962,739.1225506000046,1,None,None,"[0, 0, 0]",,,737.1392064999964,737.1392064999964,,,,,,,,,,,,,,,,,,,,,,,,,,"[0, 0, 0]",,,,,,,,,3,F,2,19,L,MCK,2021_Oct_05_1848,2020.2.10,distractmap2,59.99480444878698,"['Left Arm', 'Abdomen', 'Chest', 'Left Face']",
1,"[-0.2, 0.2]",0,0,4,4,4,,,,,,,739.2062499000021,739.2062499000021,739.2062499000021,740.2057907999988,740.1892087000015,None,1,None,None,"[0, 0, 0]",,,739.2062499000021,739.2062499000021,,,,,,,,,,,,,,,,,,,,,,,,,,"[0, 0, 0]",,,,,,,,,3,F,2,19,L,MCK,2021_Oct_05_1848,2020.2.10,distractmap2,59.99480444878698,"['Left Arm', 'Abdomen', 'Chest', 'Left Face']",
4,"[-0.2, 0]",0,0,5,5,5,,,,,,,741.1558958999958,None,741.1558958999958,742.1559071999945,742.1392350999959,743.1392320000014,1,None,None,"[0, 0, 0]",,,741.1558958999958,None,,,,,,,,,,,,,,,,,,,,,,,,,,"[0, 0, 0]",,,,,,,,,3,F,2,19,L,MCK,2021_Oct_05_1848,2020.2.10,distractmap2,59.99480444878698,"['Left Arm', 'Abdomen', 'Chest', 'Left Face']",
5,"[0, 0]",0,0,6,6,6,,,,,,,743.1559146000072,743.1559146000072,743.1559146000072,744.1559158000018,744.139253900008,745.1392544999981,1,None,None,"[0, 0, 0]",,,743.1559146000072,743.1559146000072,,,,,,,,,,,,,,,,,,,,,,,,,,"[0, 0, 0]",,,,,,,,,3,F,2,19,L,MCK,2021_Oct_05_1848,2020.2.10,distractmap2,59.99480444878698,"['Left Arm', 'Abdomen', 'Chest', 'Left Face']",
7,"[-0.2, -0.2]",0,0,7,7,7,,,,,,,745.1559263999952,745.1559263999952,745.1559263999952,746.155935799994,746.1392556000064,747.1392626000015,1,None,None,"[0, 0, 0]",,,745.1559263999952,745.1559263999952,,,,,,,,,,,,,,,,,,,,,,,,,,"[0, 0, 0]",,,,,,,,,3,F,2,19,L,MCK,2021_Oct_05_1848,2020.2.10,distractmap2,59.99480444878698,"['Left Arm', 'Abdomen', 'Chest', 'Left Face']",
7,"[-0.2, -0.2]",1,0,8,8,8,,,,,,,747.1559495999973,747.1559495999973,747.1559495999973,748.1559409000038,748.1392938000063,749.139281900003,1,None,None,"[0, 0, 0]",,,747.1559495999973,747.1559495999973,,,,,,,,,,,,,,,,,,,,,,,,,,"[0, 0, 0]",,,,,,,,,3,F,2,19,L,MCK,2021_Oct_05_1848,2020.2.10,distractmap2,59.99480444878698,"['Left Arm', 'Abdomen', 'Chest', 'Left Face']",
7,"[-0.2, -0.2]",1,0,9,9,9,,,,,,,749.155954700007,749.155954700007,749.155954700007,750.1559576,750.1393584000034,751.1393122000009,1,None,None,"[0, 0, 0]",,,749.155954700007,749.155954700007,,,,,,,,,,,,,,,,,,,,,,,,,,"[0, 0, 0]",,,,,,,,,3,F,2,19,L,MCK,2021_Oct_05_1848,2020.2.10,distractmap2,59.99480444878698,"['Left Arm', 'Abdomen', 'Chest', 'Left Face']",
,,,,,,,,,,,751.1559657000034,None,,,,,,,,,,,,,,,,,,,,,,,,,,,,,,,,,,,,,,,,,25.185185185185183,728.0510945099959,,,,,,,3,F,2,19,L,MCK,2021_Oct_05_1848,2020.2.10,distractmap2,59.99480444878698,"['Left Arm', 'Abdomen', 'Chest', 'Left Face']",
8,"[0, -0.2]",None,0,0,0,0,,,,,764.373093400005,None,771.2061335000035,None,771.2061335000035,772.2061379000079,772.1894552000012,773.1894690000045,1,None,None,"[0, 0, 0]",,,771.2061335000035,None,,,,,,,,,,,,,,,,,,,,,,,,,,"[0, 0, 0]",,,0.015262390006682836,5.012966289999895,,,,,3,F,2,19,L,MCK,2021_Oct_05_1848,2020.2.10,distractmap2,59.99480444878698,"['Left Arm', 'Abdomen', 'Chest', 'Left Face']",
6,"[0.2, 0]",0,0,1,1,1,,,,,,,773.2061420999962,None,773.2061420999962,774.2061369000003,774.1894698999968,775.1894981000078,0,None,None,"[0, 0, 0]",,,773.2061420999962,None,,,,,,,,,,,,,,,,,,,,,,,,,,"[0, 0, 0]",,,,,,,,,3,F,2,19,L,MCK,2021_Oct_05_1848,2020.2.10,distractmap2,59.99480444878698,"['Left Arm', 'Abdomen', 'Chest', 'Left Face']",
6,"[0.2, 0]",1,0,2,2,2,,,,,,,775.2061516999966,775.2061516999966,775.2061516999966,776.2061607000069,776.189494899998,777.1894975000032,1,None,None,"[1, 0, 0]",,,775.2061516999966,775.2061516999966,,,,,,,,,,,,,,,,,,,,,,,,,,"[1, 0, 0]",,,,,1.8168688000005204,0.0,,,3,F,2,19,L,MCK,2021_Oct_05_1848,2020.2.10,distractmap2,59.99480444878698,"['Left Arm', 'Abdomen', 'Chest', 'Left Face']",
2,"[0, 0.2]",0,0,3,3,3,,,,,,,777.2061727999971,777.2061727999971,777.2061727999971,778.2061774000031,778.1895229000074,779.1895364999946,0,None,None,"[0, 0, 0]",,,777.2061727999971,777.2061727999971,,,,,,,,,,,,,,,,,,,,,,,,,,"[0, 0, 0]",,,,,,,,,3,F,2,19,L,MCK,2021_Oct_05_1848,2020.2.10,distractmap2,59.99480444878698,"['Left Arm', 'Abdomen', 'Chest', 'Left Face']",
1,"[-0.2, 0.2]",0,0,4,4,4,,,,,,,779.2565407999937,779.2565407999937,779.2565407999937,780.2561900000001,780.2395326999977,None,1,None,None,"[0, 0, 0]",,,779.2565407999937,779.2565407999937,,,,,,,,,,,,,,,,,,,,,,,,,,"[0, 0, 0]",,,,,,,,,3,F,2,19,L,MCK,2021_Oct_05_1848,2020.2.10,distractmap2,59.99480444878698,"['Left Arm', 'Abdomen', 'Chest', 'Left Face']",
6,"[0.2, 0]",0,0,5,5,5,,,,,,,781.2228719999985,None,781.2228719999985,782.2228785000043,782.2061960999999,783.2062043000042,1,None,None,"[0, 0, 0]",,,781.2228719999985,None,,,,,,,,,,,,,,,,,,,,,,,,,,"[0, 0, 0]",,,,,,,,,3,F,2,19,L,MCK,2021_Oct_05_1848,2020.2.10,distractmap2,59.99480444878698,"['Left Arm', 'Abdomen', 'Chest', 'Left Face']",
9,"[0.2, -0.2]",0,0,6,6,6,,,,,,,783.222889800003,783.222889800003,783.222889800003,784.2228736999969,784.2062145999953,785.2062269000016,1,None,None,"[0, 0, 0]",,,783.222889800003,783.222889800003,,,,,,,,,,,,,,,,,,,,,,,,,,"[0, 0, 0]",,,,,,,,,3,F,2,19,L,MCK,2021_Oct_05_1848,2020.2.10,distractmap2,59.99480444878698,"['Left Arm', 'Abdomen', 'Chest', 'Left Face']",
1,"[-0.2, 0.2]",0,0,7,7,7,,,,,,,785.2228985999973,785.2228985999973,785.2228985999973,786.2229195999971,786.206239799998,787.2062358999974,1,None,None,"[0, 0, 0]",,,785.2228985999973,785.2228985999973,,,,,,,,,,,,,,,,,,,,,,,,,,"[0, 0, 0]",,,,,,,,,3,F,2,19,L,MCK,2021_Oct_05_1848,2020.2.10,distractmap2,59.99480444878698,"['Left Arm', 'Abdomen', 'Chest', 'Left Face']",
6,"[0.2, 0]",0,0,8,8,8,,,,,,,787.2229101999983,787.2229101999983,787.2229101999983,788.2229729999963,788.2062443000032,789.2062671000022,1,None,None,"[0, 0, 0]",,,787.2229101999983,787.2229101999983,,,,,,,,,,,,,,,,,,,,,,,,,,"[0, 0, 0]",,,,,,,,,3,F,2,19,L,MCK,2021_Oct_05_1848,2020.2.10,distractmap2,59.99480444878698,"['Left Arm', 'Abdomen', 'Chest', 'Left Face']",
6,"[0.2, 0]",1,0,9,9,9,,,,,,,789.2229235999985,789.2229235999985,789.2229235999985,790.2229238,790.2062748000026,791.2062678999937,1,None,None,"[0, 0, 0]",,,789.2229235999985,789.2229235999985,,,,,,,,,,,,,,,,,,,,,,,,,,"[0, 0, 0]",,,,,,,,,3,F,2,19,L,MCK,2021_Oct_05_1848,2020.2.10,distractmap2,59.99480444878698,"['Left Arm', 'Abdomen', 'Chest', 'Left Face']",
,,,,,,,,,,,791.2229373000009,None,,,,,,,,,,,,,,,,,,,,,,,,,,,,,,,,,,,,,,,,,26.79012345679012,770.8184364100016,,,,,,,3,F,2,19,L,MCK,2021_Oct_05_1848,2020.2.10,distractmap2,59.99480444878698,"['Left Arm', 'Abdomen', 'Chest', 'Left Face']",
9,"[0.2, -0.2]",None,0,0,0,0,,,,,806.4567012000043,None,811.2731123999984,None,811.2731123999984,812.2731097000069,812.2564461000002,813.2564343999984,1,None,None,"[0, 0, 0]",,,811.2731123999984,None,,,,,,,,,,,,,,,,,,,,,,,,,,"[0, 0, 0]",,,0.014936589999706484,5.012348490010481,,,,,3,F,2,19,L,MCK,2021_Oct_05_1848,2020.2.10,distractmap2,59.99480444878698,"['Left Arm', 'Abdomen', 'Chest', 'Left Face']",
9,"[0.2, -0.2]",1,0,1,1,1,,,,,,,813.2731020000065,None,813.2731020000065,814.2731170000043,814.2564416999958,815.2564571999974,1,None,None,"[0, 0, 0]",,,813.2731020000065,None,,,,,,,,,,,,,,,,,,,,,,,,,,"[0, 0, 0]",,,,,,,,,3,F,2,19,L,MCK,2021_Oct_05_1848,2020.2.10,distractmap2,59.99480444878698,"['Left Arm', 'Abdomen', 'Chest', 'Left Face']",
9,"[0.2, -0.2]",1,0,2,2,2,,,,,,,815.2731341000035,815.2731341000035,815.2731341000035,816.2731509000005,816.2564771000034,817.2563792000001,1,None,None,"[0, 0, 0]",,,815.2731341000035,815.2731341000035,,,,,,,,,,,,,,,,,,,,,,,,,,"[0, 0, 0]",,,,,,,,,3,F,2,19,L,MCK,2021_Oct_05_1848,2020.2.10,distractmap2,59.99480444878698,"['Left Arm', 'Abdomen', 'Chest', 'Left Face']",
3,"[0.2, 0.2]",0,0,3,3,3,,,,,,,817.2731372999988,817.2731372999988,817.2731372999988,818.2726554999972,818.2564801999979,819.256481999997,1,None,None,"[0, 0, 0]",,,817.2731372999988,817.2731372999988,,,,,,,,,,,,,,,,,,,,,,,,,,"[0, 0, 0]",,,,,,,,,3,F,2,19,L,MCK,2021_Oct_05_1848,2020.2.10,distractmap2,59.99480444878698,"['Left Arm', 'Abdomen', 'Chest', 'Left Face']",
5,"[0, 0]",0,0,4,4,4,,,,,,,819.3068506999989,819.3068506999989,819.3068506999989,820.3064943000063,820.2898169999971,None,1,None,None,"[0, 0, 0]",,,819.3068506999989,819.3068506999989,,,,,,,,,,,,,,,,,,,,,,,,,,"[0, 0, 0]",,,,,,,,,3,F,2,19,L,MCK,2021_Oct_05_1848,2020.2.10,distractmap2,59.99480444878698,"['Left Arm', 'Abdomen', 'Chest', 'Left Face']",
4,"[-0.2, 0]",0,0,5,5,5,,,,,,,821.289835699994,None,821.289835699994,822.289847299995,822.2731798000023,823.2731824000075,1,None,None,"[0, 0, 0]",,,821.289835699994,None,,,,,,,,,,,,,,,,,,,,,,,,,,"[0, 0, 0]",,,,,,,,,3,F,2,19,L,MCK,2021_Oct_05_1848,2020.2.10,distractmap2,59.99480444878698,"['Left Arm', 'Abdomen', 'Chest', 'Left Face']",
9,"[0.2, -0.2]",0,0,6,6,6,,,,,,,823.2898429000052,823.2898429000052,823.2898429000052,824.2898642000073,824.273202700002,825.2731918000063,1,None,None,"[0, 0, 0]",,,823.2898429000052,823.2898429000052,,,,,,,,,,,,,,,,,,,,,,,,,,"[0, 0, 0]",,,,,,,,,3,F,2,19,L,MCK,2021_Oct_05_1848,2020.2.10,distractmap2,59.99480444878698,"['Left Arm', 'Abdomen', 'Chest', 'Left Face']",
6,"[0.2, 0]",0,0,7,7,7,,,,,,,825.289863500002,825.289863500002,825.289863500002,826.2898640000058,826.2732013000059,827.2732286999963,1,None,None,"[0, 0, 0]",,,825.289863500002,825.289863500002,,,,,,,,,,,,,,,,,,,,,,,,,,"[0, 0, 0]",,,,,,,,,3,F,2,19,L,MCK,2021_Oct_05_1848,2020.2.10,distractmap2,59.99480444878698,"['Left Arm', 'Abdomen', 'Chest', 'Left Face']",
2,"[0, 0.2]",0,0,8,8,8,,,,,,,827.2898793000059,827.2898793000059,827.2898793000059,828.2898910999938,828.2732154999976,829.2732274000009,1,None,None,"[0, 0, 0]",,,827.2898793000059,827.2898793000059,,,,,,,,,,,,,,,,,,,,,,,,,,"[0, 0, 0]",,,,,,,,,3,F,2,19,L,MCK,2021_Oct_05_1848,2020.2.10,distractmap2,59.99480444878698,"['Left Arm', 'Abdomen', 'Chest', 'Left Face']",
2,"[0, 0.2]",1,0,9,9,9,,,,,,,829.289884400001,829.289884400001,829.289884400001,830.2899236999947,830.2732474000077,831.2732945000025,1,None,None,"[0, 0, 0]",,,829.289884400001,829.289884400001,,,,,,,,,,,,,,,,,,,,,,,,,,"[0, 0, 0]",,,,,,,,,3,F,2,19,L,MCK,2021_Oct_05_1848,2020.2.10,distractmap2,59.99480444878698,"['Left Arm', 'Abdomen', 'Chest', 'Left Face']",
,,,,,,,,,,,831.289912399996,None,,,,,,,,,,,,,,,,,,,,,,,,,,,,,,,,,,,,,,,,,30.925925925925927,813.2525121100043,,,,,,,3,F,2,19,L,MCK,2021_Oct_05_1848,2020.2.10,distractmap2,59.99480444878698,"['Left Arm', 'Abdomen', 'Chest', 'Left Face']",
4,"[-0.2, 0]",None,,,,,0,0,0,0,848.523382600004,None,,,,,,,,,,,,,,,,,,,,None,None,"[0, 0, 0]",851.3567473000003,None,851.3567473000003,852.3567416000005,852.3400779000076,853.3400985000044,"[0, 0, 0]",1,851.3567473000003,None,,,,,,,,,,,0.014506189996609464,5.0115769900003215,,,,,3,F,2,19,L,MCK,2021_Oct_05_1848,2020.2.10,distractmap2,59.99480444878698,"['Left Arm', 'Abdomen', 'Chest', 'Left Face']",
5,"[0, 0]",None,,,,,0,1,1,1,,,,,,,,,,,,,,,,,,,,,,None,None,"[0, 0, 0]",853.3567408999952,855.3567803000042,853.3567408999952,854.3567688000039,854.3400895999948,855.3400955999969,"[0, 0, 0]",1,853.3567408999952,855.3567803000042,,,,,,,,,,,,,,,,,3,F,2,19,L,MCK,2021_Oct_05_1848,2020.2.10,distractmap2,59.99480444878698,"['Left Arm', 'Abdomen', 'Chest', 'Left Face']",
6,"[0.2, 0]",0,,,,,0,2,2,2,,,,,,,,,,,,,,,,,,,,,,None,None,"[0, 0, 0]",855.3734391000035,857.3734377000073,855.3734391000035,856.3734423999995,856.3567802000034,857.3567868999962,"[0, 0, 0]",1,855.3734391000035,857.3734377000073,,,,,,,,,,,,,,,,,3,F,2,19,L,MCK,2021_Oct_05_1848,2020.2.10,distractmap2,59.99480444878698,"['Left Arm', 'Abdomen', 'Chest', 'Left Face']",
1,"[-0.2, 0.2]",0,,,,,0,3,3,3,,,,,,,,,,,,,,,,,,,,,,None,None,"[0, 0, 0]",857.3901713999949,859.3901224000001,857.3901713999949,858.3901135000051,858.3734428000025,859.373468699996,"[0, 0, 0]",1,857.3901713999949,859.3901224000001,,,,,,,,,,,,,,,,,3,F,2,19,L,MCK,2021_Oct_05_1848,2020.2.10,distractmap2,59.99480444878698,"['Left Arm', 'Abdomen', 'Chest', 'Left Face']",
6,"[0.2, 0]",1,,,,,0,4,4,4,,,,,,,,,,,,,,,,,,,,,,None,None,"[0, 0, 0]",859.4395798000041,None,859.4395798000041,860.4401249999937,860.4401249999937,None,"[0, 0, 0]",1,859.4395798000041,None,,,,,,,,,,,,,,,,,3,F,2,19,L,MCK,2021_Oct_05_1848,2020.2.10,distractmap2,59.99480444878698,"['Left Arm', 'Abdomen', 'Chest', 'Left Face']",
1,"[-0.2, 0.2]",1,,,,,0,5,5,5,,,,,,,,,,,,,,,,,,,,,,None,None,"[0, 0, 0]",861.4235365000059,863.4234827000037,861.4235365000059,862.4234778999962,862.4068261000066,863.4068352000031,"[0, 0, 0]",1,861.4235365000059,863.4234827000037,,,,,,,,,,,,,,,,,3,F,2,19,L,MCK,2021_Oct_05_1848,2020.2.10,distractmap2,59.99480444878698,"['Left Arm', 'Abdomen', 'Chest', 'Left Face']",
2,"[0, 0.2]",0,,,,,0,6,6,6,,,,,,,,,,,,,,,,,,,,,,None,None,"[0, 0, 0]",863.4401552000054,865.4401752999984,863.4401552000054,864.4401832000003,864.4235048999981,865.4235084999964,"[0, 0, 0]",1,863.4401552000054,865.4401752999984,,,,,,,,,,,,,,,,,3,F,2,19,L,MCK,2021_Oct_05_1848,2020.2.10,distractmap2,59.99480444878698,"['Left Arm', 'Abdomen', 'Chest', 'Left Face']",
3,"[0.2, 0.2]",0,,,,,0,7,7,7,,,,,,,,,,,,,,,,,,,,,,None,None,"[0, 0, 0]",865.456852000003,867.4568599000049,865.456852000003,866.456854300006,866.440194499999,867.4402082000015,"[0, 0, 0]",1,865.456852000003,867.4568599000049,,,,,,,,,,,,,,,,,3,F,2,19,L,MCK,2021_Oct_05_1848,2020.2.10,distractmap2,59.99480444878698,"['Left Arm', 'Abdomen', 'Chest', 'Left Face']",
6,"[0.2, 0]",0,,,,,0,8,8,8,,,,,,,,,,,,,,,,,,,,,,None,None,"[0, 0, 0]",867.4735291999968,869.4735349999974,867.4735291999968,868.4735330999974,868.4568906000059,869.4568784000003,"[0, 0, 0]",1,867.4735291999968,869.4735349999974,,,,,,,,,,,,,,,,,3,F,2,19,L,MCK,2021_Oct_05_1848,2020.2.10,distractmap2,59.99480444878698,"['Left Arm', 'Abdomen', 'Chest', 'Left Face']",
3,"[0.2, 0.2]",1,,,,,0,9,9,9,,,,,,,,,,,,,,,,,,,,,,None,None,"[0, 0, 0]",869.4902107999951,871.4902399999992,869.4902107999951,870.4897210000054,870.4735730999964,871.4735546000011,"[0, 0, 0]",1,869.4902107999951,871.4902399999992,,,,,,,,,,,,,,,,,3,F,2,19,L,MCK,2021_Oct_05_1848,2020.2.10,distractmap2,59.99480444878698,"['Left Arm', 'Abdomen', 'Chest', 'Left Face']",
,,,,,,,,,,,871.5068771000078,None,,,,,,,,,,,,,,,,,,,,,,,,,,,,,,,,,,,,,,,,,38.7037037037037,851.2364169100183,,,,,,,3,F,2,19,L,MCK,2021_Oct_05_1848,2020.2.10,distractmap2,59.99480444878698,"['Left Arm', 'Abdomen', 'Chest', 'Left Face']",
2,"[0, 0.2]",None,,,,,0,0,0,0,889.4237203999946,None,,,,,,,,,,,,,,,,,,,,None,None,"[0, 0, 0]",891.5570394999959,None,891.5570394999959,892.5570399999997,892.5403909000015,893.5404185999942,"[0, 0, 0]",1,891.5570394999959,None,,,,,,,,,,,0.014208489985321648,5.010873989987886,,,,,3,F,2,19,L,MCK,2021_Oct_05_1848,2020.2.10,distractmap2,59.99480444878698,"['Left Arm', 'Abdomen', 'Chest', 'Left Face']",
5,"[0, 0]",None,,,,,0,1,1,1,,,,,,,,,,,,,,,,,,,,,,None,None,"[0, 0, 0]",893.5570616000041,895.5570758999966,893.5570616000041,894.5570585999958,894.5403888000001,895.5404122000036,"[0, 0, 0]",1,893.5570616000041,895.5570758999966,,,,,,,,,,,,,,,,,3,F,2,19,L,MCK,2021_Oct_05_1848,2020.2.10,distractmap2,59.99480444878698,"['Left Arm', 'Abdomen', 'Chest', 'Left Face']",
6,"[0.2, 0]",0,,,,,0,2,2,2,,,,,,,,,,,,,,,,,,,,,,None,None,"[0, 0, 0]",895.5737176999974,897.5737487000006,895.5737176999974,896.5737597999978,896.5570795999956,897.5570932999981,"[0, 0, 0]",0,895.5737176999974,897.5737487000006,,,,,,,,,,,,,,,,,3,F,2,19,L,MCK,2021_Oct_05_1848,2020.2.10,distractmap2,59.99480444878698,"['Left Arm', 'Abdomen', 'Chest', 'Left Face']",
1,"[-0.2, 0.2]",0,,,,,0,3,3,3,,,,,,,,,,,,,,,,,,,,,,None,None,"[0, 0, 0]",897.5904256000067,899.5904363000009,897.5904256000067,898.5904165999964,898.5737651999953,899.5737817000045,"[0, 0, 0]",0,897.5904256000067,899.5904363000009,,,,,,,,,,,,,,,,,3,F,2,19,L,MCK,2021_Oct_05_1848,2020.2.10,distractmap2,59.99480444878698,"['Left Arm', 'Abdomen', 'Chest', 'Left Face']",
6,"[0.2, 0]",1,,,,,0,4,4,4,,,,,,,,,,,,,,,,,,,,,,None,None,"[0, 0, 0]",899.6574761999946,None,899.6574761999946,900.6571371000027,900.6404398000013,None,"[0, 0, 0]",0,899.6574761999946,None,,,,,,,,,,,,,,,,,3,F,2,19,L,MCK,2021_Oct_05_1848,2020.2.10,distractmap2,59.99480444878698,"['Left Arm', 'Abdomen', 'Chest', 'Left Face']",
6,"[0.2, 0]",0,,,,,0,5,5,5,,,,,,,,,,,,,,,,,,,,,,None,None,"[0, 0, 0]",901.6237876999949,903.6238069999963,901.6237876999949,902.6237930000061,902.6071370999998,903.6071397000051,"[0, 0, 0]",0,901.6237876999949,903.6238069999963,,,,,,,,,,,,,,,,,3,F,2,19,L,MCK,2021_Oct_05_1848,2020.2.10,distractmap2,59.99480444878698,"['Left Arm', 'Abdomen', 'Chest', 'Left Face']",
9,"[0.2, -0.2]",0,,,,,0,6,6,6,,,,,,,,,,,,,,,,,,,,,,None,None,"[0, 0, 0]",903.6404691000062,905.6404750000074,903.6404691000062,904.6404825000063,904.6238186999981,905.6238212000026,"[0, 0, 0]",0,903.6404691000062,905.6404750000074,,,,,,,,,,,,,,,,,3,F,2,19,L,MCK,2021_Oct_05_1848,2020.2.10,distractmap2,59.99480444878698,"['Left Arm', 'Abdomen', 'Chest', 'Left Face']",
6,"[0.2, 0]",1,,,,,0,7,7,7,,,,,,,,,,,,,,,,,,,,,,None,None,"[0, 0, 1]",905.6571560000011,907.6571733000019,905.6571560000011,906.657057599994,906.6404911999998,907.6405035000062,"[0, 0, 1]",0,905.6571560000011,907.6571733000019,,,,,,,,,,,,,,,0.0,1.8670226000103867,3,F,2,19,L,MCK,2021_Oct_05_1848,2020.2.10,distractmap2,59.99480444878698,"['Left Arm', 'Abdomen', 'Chest', 'Left Face']",
3,"[0.2, 0.2]",0,,,,,0,8,8,8,,,,,,,,,,,,,,,,,,,,,,None,None,"[0, 0, 0]",907.6738448999968,909.6738443000067,907.6738448999968,908.6738437000022,908.6571844999999,909.6571737000049,"[0, 0, 0]",1,907.6738448999968,909.6738443000067,,,,,,,,,,,,,,,,,3,F,2,19,L,MCK,2021_Oct_05_1848,2020.2.10,distractmap2,59.99480444878698,"['Left Arm', 'Abdomen', 'Chest', 'Left Face']",
9,"[0.2, -0.2]",0,,,,,0,9,9,9,,,,,,,,,,,,,,,,,,,,,,None,None,"[0, 0, 0]",909.6905057999975,911.6905223000067,909.6905057999975,910.6905279000057,910.6738513000018,911.6738635999936,"[0, 0, 0]",1,909.6905057999975,911.6905223000067,,,,,,,,,,,,,,,,,3,F,2,19,L,MCK,2021_Oct_05_1848,2020.2.10,distractmap2,59.99480444878698,"['Left Arm', 'Abdomen', 'Chest', 'Left Face']",
,,,,,,,,,,,911.7072040000057,None,,,,,,,,,,,,,,,,,,,,,,,,,,,,,,,,,,,,,,,,,22.71604938271605,890.9029203099926,,,,,,,3,F,2,19,L,MCK,2021_Oct_05_1848,2020.2.10,distractmap2,59.99480444878698,"['Left Arm', 'Abdomen', 'Chest', 'Left Face']",
3,"[0.2, 0.2]",None,,,,,0,0,0,0,926.9073435000028,None,,,,,,,,,,,,,,,,,,,,None,None,"[0, 0, 0]",931.7573509000067,None,931.7573509000067,932.7573453999939,932.7407004999986,933.7407141000003,"[0, 0, 0]",1,931.7573509000067,None,,,,,,,,,,,0.014682890003314242,5.011807490009232,,,,,3,F,2,19,L,MCK,2021_Oct_05_1848,2020.2.10,distractmap2,59.99480444878698,"['Left Arm', 'Abdomen', 'Chest', 'Left Face']",
9,"[0.2, -0.2]",None,,,,,0,1,1,1,,,,,,,,,,,,,,,,,,,,,,None,None,"[0, 0, 0]",933.7573682999937,935.757368999999,933.7573682999937,934.7573826000007,934.7407092000067,935.7407157999987,"[0, 0, 0]",1,933.7573682999937,935.757368999999,,,,,,,,,,,,,,,,,3,F,2,19,L,MCK,2021_Oct_05_1848,2020.2.10,distractmap2,59.99480444878698,"['Left Arm', 'Abdomen', 'Chest', 'Left Face']",
3,"[0.2, 0.2]",1,,,,,0,2,2,2,,,,,,,,,,,,,,,,,,,,,,None,None,"[0, 0, 0]",935.7740465999959,937.7740500000073,935.7740465999959,936.7740583999985,936.7573887000035,937.7574686000007,"[0, 0, 0]",1,935.7740465999959,937.7740500000073,,,,,,,,,,,,,,,,,3,F,2,19,L,MCK,2021_Oct_05_1848,2020.2.10,distractmap2,59.99480444878698,"['Left Arm', 'Abdomen', 'Chest', 'Left Face']",
7,"[-0.2, -0.2]",0,,,,,0,3,3,3,,,,,,,,,,,,,,,,,,,,,,None,None,"[0, 0, 0]",937.7907403999998,939.7907491000078,937.7907403999998,938.7907462000003,938.7740614000068,939.774067300008,"[0, 0, 0]",1,937.7907403999998,939.7907491000078,,,,,,,,,,,,,,,,,3,F,2,19,L,MCK,2021_Oct_05_1848,2020.2.10,distractmap2,59.99480444878698,"['Left Arm', 'Abdomen', 'Chest', 'Left Face']",
8,"[0, -0.2]",0,,,,,0,4,4,4,,,,,,,,,,,,,,,,,,,,,,None,None,"[0, 0, 0]",939.8403132999956,None,939.8403132999956,940.8407643999963,940.8240782000066,None,"[0, 0, 0]",1,939.8403132999956,None,,,,,,,,,,,,,,,,,3,F,2,19,L,MCK,2021_Oct_05_1848,2020.2.10,distractmap2,59.99480444878698,"['Left Arm', 'Abdomen', 'Chest', 'Left Face']",
4,"[-0.2, 0]",0,,,,,0,5,5,5,,,,,,,,,,,,,,,,,,,,,,None,None,"[0, 0, 0]",941.8240957999951,943.8240994999942,941.8240957999951,942.8240974000073,942.8074340000021,943.8074513000029,"[0, 0, 0]",1,941.8240957999951,943.8240994999942,,,,,,,,,,,,,,,,,3,F,2,19,L,MCK,2021_Oct_05_1848,2020.2.10,distractmap2,59.99480444878698,"['Left Arm', 'Abdomen', 'Chest', 'Left Face']",
4,"[-0.2, 0]",0,,,,,0,6,6,6,,,,,,,,,,,,,,,,,,,,,,None,None,"[0, 0, 0]",943.8407786000025,945.8407873999968,943.8407786000025,944.8407901000028,944.8241192999994,945.8241220000054,"[0, 0, 0]",1,943.8407786000025,945.8407873999968,,,,,,,,,,,,,,,,,3,F,2,19,L,MCK,2021_Oct_05_1848,2020.2.10,distractmap2,59.99480444878698,"['Left Arm', 'Abdomen', 'Chest', 'Left Face']",
1,"[-0.2, 0.2]",0,,,,,0,7,7,7,,,,,,,,,,,,,,,,,,,,,,None,None,"[0, 0, 0]",945.8574534000072,947.8574653999967,945.8574534000072,946.8574683000043,946.8408106999996,947.8408046999975,"[0, 0, 0]",1,945.8574534000072,947.8574653999967,,,,,,,,,,,,,,,,,3,F,2,19,L,MCK,2021_Oct_05_1848,2020.2.10,distractmap2,59.99480444878698,"['Left Arm', 'Abdomen', 'Chest', 'Left Face']",
4,"[-0.2, 0]",1,,,,,0,8,8,8,,,,,,,,,,,,,,,,,,,,,,None,None,"[0, 0, 0]",947.8741466000065,949.8741622999951,947.8741466000065,948.8741776999959,948.8574898999941,949.8574860999943,"[0, 0, 0]",1,947.8741466000065,949.8741622999951,,,,,,,,,,,,,,,,,3,F,2,19,L,MCK,2021_Oct_05_1848,2020.2.10,distractmap2,59.99480444878698,"['Left Arm', 'Abdomen', 'Chest', 'Left Face']",
8,"[0, -0.2]",0,,,,,0,9,9,9,,,,,,,,,,,,,,,,,,,,,,None,None,"[0, 0, 0]",949.8908215999982,951.8908467000001,949.8908215999982,950.8908368999982,950.8741666999995,951.8741802000004,"[0, 0, 0]",1,949.8908215999982,951.8908467000001,,,,,,,,,,,,,,,,,3,F,2,19,L,MCK,2021_Oct_05_1848,2020.2.10,distractmap2,59.99480444878698,"['Left Arm', 'Abdomen', 'Chest', 'Left Face']",
,,,,,,,,,,,951.9075064000062,None,,,,,,,,,,,,,,,,,,,,,,,,,,,,,,,,,,,,,,,,,23.024691358024693,932.9694824099861,,,,,,,3,F,2,19,L,MCK,2021_Oct_05_1848,2020.2.10,distractmap2,59.99480444878698,"['Left Arm', 'Abdomen', 'Chest', 'Left Face']",
2,"[0, 0.2]",None,0,0,0,0,,,,,969.1075151999976,None,971.9743302999996,None,971.9743302999996,972.9743808000057,972.9409948999964,973.9410063999967,1,None,None,"[0, 0, 0]",,,971.9743302999996,None,,,,,,,,,,,,,,,,,,,,,,,,,,"[0, 0, 0]",,,0.015108790015801787,5.01267679000739,,,,,3,F,2,19,L,MCK,2021_Oct_05_1848,2020.2.10,distractmap2,59.99480444878698,"['Left Arm', 'Abdomen', 'Chest', 'Left Face']",
8,"[0, -0.2]",0,0,1,1,1,,,,,,,973.9743323000002,None,973.9743323000002,974.9743409000075,974.9576930000039,975.9576948000031,0,None,None,"[0, 0, 0]",,,973.9743323000002,None,,,,,,,,,,,,,,,,,,,,,,,,,,"[0, 0, 0]",,,,,,,,,3,F,2,19,L,MCK,2021_Oct_05_1848,2020.2.10,distractmap2,59.99480444878698,"['Left Arm', 'Abdomen', 'Chest', 'Left Face']",
1,"[-0.2, 0.2]",0,0,2,2,2,,,,,,,975.9743531999993,975.9743531999993,975.9743531999993,976.9743536000024,976.9576889000018,977.9577178000036,1,None,None,"[0, 0, 1]",,,975.9743531999993,975.9743531999993,,,,,,,,,,,,,,,,,,,,,,,,,,"[0, 0, 1]",,,,,0.0,1.9132622000033734,,,3,F,2,19,L,MCK,2021_Oct_05_1848,2020.2.10,distractmap2,59.99480444878698,"['Left Arm', 'Abdomen', 'Chest', 'Left Face']",
2,"[0, 0.2]",0,0,3,3,3,,,,,,,977.9743754999945,977.9743754999945,977.9743754999945,978.9743653000041,978.9577187999967,979.9577187999967,0,None,None,"[0, 0, 0]",,,977.9743754999945,977.9743754999945,,,,,,,,,,,,,,,,,,,,,,,,,,"[0, 0, 0]",,,,,,,,,3,F,2,19,L,MCK,2021_Oct_05_1848,2020.2.10,distractmap2,59.99480444878698,"['Left Arm', 'Abdomen', 'Chest', 'Left Face']",
2,"[0, 0.2]",1,0,4,4,4,,,,,,,980.0410580000025,980.0410580000025,980.0410580000025,981.0410588999948,981.0243916000036,None,1,None,None,"[0, 0, 0]",,,980.0410580000025,980.0410580000025,,,,,,,,,,,,,,,,,,,,,,,,,,"[0, 0, 0]",,,,,,,,,3,F,2,19,L,MCK,2021_Oct_05_1848,2020.2.10,distractmap2,59.99480444878698,"['Left Arm', 'Abdomen', 'Chest', 'Left Face']",
7,"[-0.2, -0.2]",0,0,5,5,5,,,,,,,981.9910663000046,None,981.9910663000046,982.9910625000048,982.9744112000044,983.9744245000038,1,None,None,"[0, 0, 0]",,,981.9910663000046,None,,,,,,,,,,,,,,,,,,,,,,,,,,"[0, 0, 0]",,,,,,,,,3,F,2,19,L,MCK,2021_Oct_05_1848,2020.2.10,distractmap2,59.99480444878698,"['Left Arm', 'Abdomen', 'Chest', 'Left Face']",
9,"[0.2, -0.2]",0,0,6,6,6,,,,,,,983.9910831000016,983.9910831000016,983.9910831000016,984.9910949000041,984.9744173000072,985.9744404999947,1,None,None,"[0, 0, 0]",,,983.9910831000016,983.9910831000016,,,,,,,,,,,,,,,,,,,,,,,,,,"[0, 0, 0]",,,,,,,,,3,F,2,19,L,MCK,2021_Oct_05_1848,2020.2.10,distractmap2,59.99480444878698,"['Left Arm', 'Abdomen', 'Chest', 'Left Face']",
9,"[0.2, -0.2]",1,0,7,7,7,,,,,,,985.9910882999975,985.9910882999975,985.9910882999975,986.9910954000079,986.974452800001,987.974483900005,1,None,None,"[0, 0, 0]",,,985.9910882999975,985.9910882999975,,,,,,,,,,,,,,,,,,,,,,,,,,"[0, 0, 0]",,,,,,,,,3,F,2,19,L,MCK,2021_Oct_05_1848,2020.2.10,distractmap2,59.99480444878698,"['Left Arm', 'Abdomen', 'Chest', 'Left Face']",
4,"[-0.2, 0]",0,0,8,8,8,,,,,,,987.9910710999975,987.9910710999975,987.9910710999975,988.9910232999973,988.9744532000041,989.9744812999998,1,None,None,"[0, 0, 0]",,,987.9910710999975,987.9910710999975,,,,,,,,,,,,,,,,,,,,,,,,,,"[0, 0, 0]",,,,,,,,,3,F,2,19,L,MCK,2021_Oct_05_1848,2020.2.10,distractmap2,59.99480444878698,"['Left Arm', 'Abdomen', 'Chest', 'Left Face']",
5,"[0, 0]",0,0,9,9,9,,,,,,,989.991028000004,989.991028000004,989.991028000004,990.9911413999944,990.9744810999982,991.9744720000017,1,None,None,"[0, 0, 0]",,,989.991028000004,989.991028000004,,,,,,,,,,,,,,,,,,,,,,,,,,"[0, 0, 0]",,,,,,,,,3,F,2,19,L,MCK,2021_Oct_05_1848,2020.2.10,distractmap2,59.99480444878698,"['Left Arm', 'Abdomen', 'Chest', 'Left Face']",
,,,,,,,,,,,991.991139100006,None,,,,,,,,,,,,,,,,,,,,,,,,,,,,,,,,,,,,,,,,,23.271604938271608,967.9539194099925,,,,,,,3,F,2,19,L,MCK,2021_Oct_05_1848,2020.2.10,distractmap2,59.99480444878698,"['Left Arm', 'Abdomen', 'Chest', 'Left Face']",
2,"[0, 0.2]",None,0,0,0,0,,,,,1005.1911548000062,None,1012.041312900008,None,1012.041312900008,1013.0413096999982,1013.0079638000025,1014.0079750000004,1,None,None,"[0, 0, 0]",,,1012.041312900008,None,,,,,,,,,,,,,,,,,,,,,,,,,,"[0, 0, 0]",,,0.01428619000944309,5.011017790006008,,,,,3,F,2,19,L,MCK,2021_Oct_05_1848,2020.2.10,distractmap2,59.99480444878698,"['Left Arm', 'Abdomen', 'Chest', 'Left Face']",
2,"[0, 0.2]",1,0,1,1,1,,,,,,,1014.041344600002,None,1014.041344600002,1015.0413186000078,1015.024659200004,1016.024660199997,1,None,None,"[0, 0, 0]",,,1014.041344600002,None,,,,,,,,,,,,,,,,,,,,,,,,,,"[0, 0, 0]",,,,,,,,,3,F,2,19,L,MCK,2021_Oct_05_1848,2020.2.10,distractmap2,59.99480444878698,"['Left Arm', 'Abdomen', 'Chest', 'Left Face']",
1,"[-0.2, 0.2]",0,0,2,2,2,,,,,,,1016.0413432000059,1016.0413432000059,1016.0413432000059,1017.0413310000004,1017.0246707000042,1018.0246826999937,1,None,None,"[0, 0, 0]",,,1016.0413432000059,1016.0413432000059,,,,,,,,,,,,,,,,,,,,,,,,,,"[0, 0, 0]",,,,,,,,,3,F,2,19,L,MCK,2021_Oct_05_1848,2020.2.10,distractmap2,59.99480444878698,"['Left Arm', 'Abdomen', 'Chest', 'Left Face']",
2,"[0, 0.2]",0,0,3,3,3,,,,,,,1018.0413699000055,1018.0413699000055,1018.0413699000055,1019.0413619000028,1019.0246929999994,1020.0247070000041,1,None,None,"[0, 0, 0]",,,1018.0413699000055,1018.0413699000055,,,,,,,,,,,,,,,,,,,,,,,,,,"[0, 0, 0]",,,,,,,,,3,F,2,19,L,MCK,2021_Oct_05_1848,2020.2.10,distractmap2,59.99480444878698,"['Left Arm', 'Abdomen', 'Chest', 'Left Face']",
2,"[0, 0.2]",1,0,4,4,4,,,,,,,1020.0913669000001,1020.0913669000001,1020.0913669000001,1021.0914204000001,1021.0747033999942,None,1,None,None,"[0, 0, 0]",,,1020.0913669000001,1020.0913669000001,,,,,,,,,,,,,,,,,,,,,,,,,,"[0, 0, 0]",,,,,,,,,3,F,2,19,L,MCK,2021_Oct_05_1848,2020.2.10,distractmap2,59.99480444878698,"['Left Arm', 'Abdomen', 'Chest', 'Left Face']",
4,"[-0.2, 0]",0,0,5,5,5,,,,,,,1022.0580478000047,None,1022.0580478000047,1023.0580390999967,1023.0413789000013,1024.0413834000065,1,None,None,"[0, 0, 0]",,,1022.0580478000047,None,,,,,,,,,,,,,,,,,,,,,,,,,,"[0, 0, 0]",,,,,,,,,3,F,2,19,L,MCK,2021_Oct_05_1848,2020.2.10,distractmap2,59.99480444878698,"['Left Arm', 'Abdomen', 'Chest', 'Left Face']",
6,"[0.2, 0]",0,0,6,6,6,,,,,,,1024.0580641999986,1024.0580641999986,1024.0580641999986,1025.0580638999963,1025.0413862999994,1026.0413993999973,1,None,None,"[0, 0, 0]",,,1024.0580641999986,1024.0580641999986,,,,,,,,,,,,,,,,,,,,,,,,,,"[0, 0, 0]",,,,,,,,,3,F,2,19,L,MCK,2021_Oct_05_1848,2020.2.10,distractmap2,59.99480444878698,"['Left Arm', 'Abdomen', 'Chest', 'Left Face']",
8,"[0, -0.2]",0,0,7,7,7,,,,,,,1026.0580608000018,1026.0580608000018,1026.0580608000018,1027.0580754999974,1027.0414193000033,1028.041421700007,1,None,None,"[0, 0, 0]",,,1026.0580608000018,1026.0580608000018,,,,,,,,,,,,,,,,,,,,,,,,,,"[0, 0, 0]",,,,,,,,,3,F,2,19,L,MCK,2021_Oct_05_1848,2020.2.10,distractmap2,59.99480444878698,"['Left Arm', 'Abdomen', 'Chest', 'Left Face']",
9,"[0.2, -0.2]",0,0,8,8,8,,,,,,,1028.0579923000041,1028.0579923000041,1028.0579923000041,1029.0580922999943,1029.041434800005,1030.0413745999977,1,None,None,"[0, 0, 0]",,,1028.0579923000041,1028.0579923000041,,,,,,,,,,,,,,,,,,,,,,,,,,"[0, 0, 0]",,,,,,,,,3,F,2,19,L,MCK,2021_Oct_05_1848,2020.2.10,distractmap2,59.99480444878698,"['Left Arm', 'Abdomen', 'Chest', 'Left Face']",
9,"[0.2, -0.2]",1,0,9,9,9,,,,,,,1030.058108199999,1030.058108199999,1030.058108199999,1031.058112300001,1031.0414649000013,1032.0414578000054,0,None,None,"[0, 0, 0]",,,1030.058108199999,1030.058108199999,,,,,,,,,,,,,,,,,,,,,,,,,,"[0, 0, 0]",,,,,,,,,3,F,2,19,L,MCK,2021_Oct_05_1848,2020.2.10,distractmap2,59.99480444878698,"['Left Arm', 'Abdomen', 'Chest', 'Left Face']",
,,,,,,,,,,,1032.0581071000051,None,,,,,,,,,,,,,,,,,,,,,,,,,,,,,,,,,,,,,,,,,24.93827160493827,1011.1042873099941,,,,,,,3,F,2,19,L,MCK,2021_Oct_05_1848,2020.2.10,distractmap2,59.99480444878698,"['Left Arm', 'Abdomen', 'Chest', 'Left Face']",
4,"[-0.2, 0]",None,0,0,0,0,,,,,1047.808399600006,None,1052.108275599996,None,1052.108275599996,1053.1082738999976,1053.0749695999984,1054.0749645000033,1,None,None,"[0, 0, 0]",,,1052.108275599996,None,,,,,,,,,,,,,,,,,,,,,,,,,,"[0, 0, 0]",,,0.014230290005798452,5.010946990005323,,,,,3,F,2,19,L,MCK,2021_Oct_05_1848,2020.2.10,distractmap2,59.99480444878698,"['Left Arm', 'Abdomen', 'Chest', 'Left Face']",
7,"[-0.2, -0.2]",0,0,1,1,1,,,,,,,1054.1082935000013,None,1054.1082935000013,1055.1083012000017,1055.0916466000053,1056.0916279999947,0,None,None,"[0, 0, 0]",,,1054.1082935000013,None,,,,,,,,,,,,,,,,,,,,,,,,,,"[0, 0, 0]",,,,,,,,,3,F,2,19,L,MCK,2021_Oct_05_1848,2020.2.10,distractmap2,59.99480444878698,"['Left Arm', 'Abdomen', 'Chest', 'Left Face']",
7,"[-0.2, -0.2]",1,0,2,2,2,,,,,,,1056.1083032000024,1056.1083032000024,1056.1083032000024,1057.1083125000005,1057.0916504000052,1058.091652300005,1,None,None,"[1, 0, 0]",,,1056.1083032000024,1056.1083032000024,,,,,,,,,,,,,,,,,,,,,,,,,,"[1, 0, 0]",,,,,1.8832773000031011,0.0,,,3,F,2,19,L,MCK,2021_Oct_05_1848,2020.2.10,distractmap2,59.99480444878698,"['Left Arm', 'Abdomen', 'Chest', 'Left Face']",
4,"[-0.2, 0]",0,0,3,3,3,,,,,,,1058.1083025999978,1058.1083025999978,1058.1083025999978,1059.108317899998,1059.0916655000037,1060.0916916999995,1,None,None,"[0, 0, 0]",,,1058.1083025999978,1058.1083025999978,,,,,,,,,,,,,,,,,,,,,,,,,,"[0, 0, 0]",,,,,,,,,3,F,2,19,L,MCK,2021_Oct_05_1848,2020.2.10,distractmap2,59.99480444878698,"['Left Arm', 'Abdomen', 'Chest', 'Left Face']",
8,"[0, -0.2]",0,0,4,4,4,,,,,,,1060.1586145000038,1060.1586145000038,1060.1586145000038,1061.1583353000024,1061.1416757999978,None,0,None,None,"[0, 0, 0]",,,1060.1586145000038,1060.1586145000038,,,,,,,,,,,,,,,,,,,,,,,,,,"[0, 0, 0]",,,,,,,,,3,F,2,19,L,MCK,2021_Oct_05_1848,2020.2.10,distractmap2,59.99480444878698,"['Left Arm', 'Abdomen', 'Chest', 'Left Face']",
4,"[-0.2, 0]",0,0,5,5,5,,,,,,,1062.1250201000075,None,1062.1250201000075,1063.1250340999977,1063.1083485999989,1064.1083651999943,0,None,None,"[0, 0, 0]",,,1062.1250201000075,None,,,,,,,,,,,,,,,,,,,,,,,,,,"[0, 0, 0]",,,,,,,,,3,F,2,19,L,MCK,2021_Oct_05_1848,2020.2.10,distractmap2,59.99480444878698,"['Left Arm', 'Abdomen', 'Chest', 'Left Face']",
7,"[-0.2, -0.2]",0,0,6,6,6,,,,,,,1064.1250379999983,1064.1250379999983,1064.1250379999983,1065.1250448000064,1065.1083777000022,1066.108372200004,1,None,None,"[0, 0, 0]",,,1064.1250379999983,1064.1250379999983,,,,,,,,,,,,,,,,,,,,,,,,,,"[0, 0, 0]",,,,,,,,,3,F,2,19,L,MCK,2021_Oct_05_1848,2020.2.10,distractmap2,59.99480444878698,"['Left Arm', 'Abdomen', 'Chest', 'Left Face']",
6,"[0.2, 0]",0,0,7,7,7,,,,,,,1066.1250425000035,1066.1250425000035,1066.1250425000035,1067.1250690000015,1067.1083952000045,1068.1083849999995,1,None,None,"[0, 0, 0]",,,1066.1250425000035,1066.1250425000035,,,,,,,,,,,,,,,,,,,,,,,,,,"[0, 0, 0]",,,,,,,,,3,F,2,19,L,MCK,2021_Oct_05_1848,2020.2.10,distractmap2,59.99480444878698,"['Left Arm', 'Abdomen', 'Chest', 'Left Face']",
6,"[0.2, 0]",1,0,8,8,8,,,,,,,1068.1250667999993,1068.1250667999993,1068.1250667999993,1069.1250676000054,1069.1084115999984,1070.1083988000028,1,None,None,"[0, 0, 0]",,,1068.1250667999993,1068.1250667999993,,,,,,,,,,,,,,,,,,,,,,,,,,"[0, 0, 0]",,,,,,,,,3,F,2,19,L,MCK,2021_Oct_05_1848,2020.2.10,distractmap2,59.99480444878698,"['Left Arm', 'Abdomen', 'Chest', 'Left Face']",
1,"[-0.2, 0.2]",0,0,9,9,9,,,,,,,1070.125077100005,1070.125077100005,1070.125077100005,1071.1250890999945,1071.108426699997,1072.1084167999943,0,None,None,"[0, 0, 0]",,,1070.125077100005,1070.125077100005,,,,,,,,,,,,,,,,,,,,,,,,,,"[0, 0, 0]",,,,,,,,,3,F,2,19,L,MCK,2021_Oct_05_1848,2020.2.10,distractmap2,59.99480444878698,"['Left Arm', 'Abdomen', 'Chest', 'Left Face']",
,,,,,,,,,,,1072.125089299996,None,,,,,,,,,,,,,,,,,,,,,,,,,,,,,,,,,,,,,,,,,25.432098765432098,1052.0881552100036,,,,,,,3,F,2,19,L,MCK,2021_Oct_05_1848,2020.2.10,distractmap2,59.99480444878698,"['Left Arm', 'Abdomen', 'Chest', 'Left Face']",
2,"[0, 0.2]",None,,,,,0,0,0,0,1087.325217599995,None,,,,,,,,,,,,,,,,,,,,None,None,"[0, 0, 0]",1092.1752592999983,None,1092.1752592999983,1093.1752590999968,1093.1585876000026,1094.1586050000042,"[0, 0, 0]",1,1092.1752592999983,None,,,,,,,,,,,0.014024589996552095,5.010654689991497,,,,,3,F,2,19,L,MCK,2021_Oct_05_1848,2020.2.10,distractmap2,59.99480444878698,"['Left Arm', 'Abdomen', 'Chest', 'Left Face']",
5,"[0, 0]",None,,,,,0,1,1,1,,,,,,,,,,,,,,,,,,,,,,None,None,"[0, 0, 0]",1094.175261700002,1096.1753127999982,1094.175261700002,1095.1752866000024,1095.1586052000057,1096.1586217000004,"[0, 0, 0]",1,1094.175261700002,1096.1753127999982,,,,,,,,,,,,,,,,,3,F,2,19,L,MCK,2021_Oct_05_1848,2020.2.10,distractmap2,59.99480444878698,"['Left Arm', 'Abdomen', 'Chest', 'Left Face']",
3,"[0.2, 0.2]",0,,,,,0,2,2,2,,,,,,,,,,,,,,,,,,,,,,None,None,"[0, 0, 0]",1096.191961500008,1098.191963499994,1096.191961500008,1097.1919622999994,1097.1751922999974,1098.1752879999985,"[0, 0, 0]",1,1096.191961500008,1098.191963499994,,,,,,,,,,,,,,,,,3,F,2,19,L,MCK,2021_Oct_05_1848,2020.2.10,distractmap2,59.99480444878698,"['Left Arm', 'Abdomen', 'Chest', 'Left Face']",
5,"[0, 0]",1,,,,,0,3,3,3,,,,,,,,,,,,,,,,,,,,,,None,None,"[0, 0, 0]",1098.2087025000073,1100.208584299995,1098.2087025000073,1099.2081250000047,1099.1919817000016,1100.1919766000065,"[0, 0, 0]",1,1098.2087025000073,1100.208584299995,,,,,,,,,,,,,,,,,3,F,2,19,L,MCK,2021_Oct_05_1848,2020.2.10,distractmap2,59.99480444878698,"['Left Arm', 'Abdomen', 'Chest', 'Left Face']",
2,"[0, 0.2]",0,,,,,0,4,4,4,,,,,,,,,,,,,,,,,,,,,,None,None,"[0, 0, 0]",1100.292333999998,None,1100.292333999998,1101.2919923000009,1101.2753245000058,None,"[0, 0, 0]",1,1100.292333999998,None,,,,,,,,,,,,,,,,,3,F,2,19,L,MCK,2021_Oct_05_1848,2020.2.10,distractmap2,59.99480444878698,"['Left Arm', 'Abdomen', 'Chest', 'Left Face']",
8,"[0, -0.2]",0,,,,,0,5,5,5,,,,,,,,,,,,,,,,,,,,,,None,None,"[0, 0, 0]",1102.2418968999991,1104.2420091999957,1102.2418968999991,1103.2420108000078,1103.225350599998,1104.2253353999986,"[0, 0, 0]",0,1102.2418968999991,1104.2420091999957,,,,,,,,,,,,,,,,,3,F,2,19,L,MCK,2021_Oct_05_1848,2020.2.10,distractmap2,59.99480444878698,"['Left Arm', 'Abdomen', 'Chest', 'Left Face']",
4,"[-0.2, 0]",0,,,,,0,6,6,6,,,,,,,,,,,,,,,,,,,,,,None,None,"[0, 0, 0]",1104.258699500002,1106.2586975000013,1104.258699500002,1105.2587220999994,1105.242026100008,1106.242028099994,"[0, 0, 0]",1,1104.258699500002,1106.2586975000013,,,,,,,,,,,,,,,,,3,F,2,19,L,MCK,2021_Oct_05_1848,2020.2.10,distractmap2,59.99480444878698,"['Left Arm', 'Abdomen', 'Chest', 'Left Face']",
8,"[0, -0.2]",1,,,,,0,7,7,7,,,,,,,,,,,,,,,,,,,,,,None,None,"[0, 0, 0]",1106.2753501999978,1108.2753639000002,1106.2753501999978,1107.275373299999,1107.258711100003,1108.2587082999962,"[0, 0, 0]",1,1106.2753501999978,1108.2753639000002,,,,,,,,,,,,,,,,,3,F,2,19,L,MCK,2021_Oct_05_1848,2020.2.10,distractmap2,59.99480444878698,"['Left Arm', 'Abdomen', 'Chest', 'Left Face']",
7,"[-0.2, -0.2]",0,,,,,0,8,8,8,,,,,,,,,,,,,,,,,,,,,,None,None,"[0, 0, 0]",1108.2920395999972,1110.2920560000057,1108.2920395999972,1109.2920530999982,1109.2753757000028,1110.2753942999989,"[0, 0, 0]",1,1108.2920395999972,1110.2920560000057,,,,,,,,,,,,,,,,,3,F,2,19,L,MCK,2021_Oct_05_1848,2020.2.10,distractmap2,59.99480444878698,"['Left Arm', 'Abdomen', 'Chest', 'Left Face']",
8,"[0, -0.2]",1,,,,,0,9,9,9,,,,,,,,,,,,,,,,,,,,,,None,None,"[0, 0, 0]",1110.3087206000055,1112.308753300007,1110.3087206000055,1111.3087484999996,1111.2920635000046,1112.2920183999959,"[0, 0, 0]",1,1110.3087206000055,1112.308753300007,,,,,,,,,,,,,,,,,3,F,2,19,L,MCK,2021_Oct_05_1848,2020.2.10,distractmap2,59.99480444878698,"['Left Arm', 'Abdomen', 'Chest', 'Left Face']",
,,,,,,,,,,,1112.3254061000043,None,,,,,,,,,,,,,,,,,,,,,,,,,,,,,,,,,,,,,,,,,28.209876543209877,1092.2877375099924,,,,,,,3,F,2,19,L,MCK,2021_Oct_05_1848,2020.2.10,distractmap2,59.99480444878698,"['Left Arm', 'Abdomen', 'Chest', 'Left Face']",
2,"[0, 0.2]",None,,,,,0,0,0,0,1128.1088956000021,None,,,,,,,,,,,,,,,,,,,,None,None,"[0, 0, 0]",1132.375574699996,None,1132.375574699996,1133.3755772000004,1133.3589130000037,1134.3588968999975,"[0, 0, 0]",1,1132.375574699996,None,,,,,,,,,,,0.014766890002647415,5.01219349000894,,,,,3,F,2,19,L,MCK,2021_Oct_05_1848,2020.2.10,distractmap2,59.99480444878698,"['Left Arm', 'Abdomen', 'Chest', 'Left Face']",
2,"[0, 0.2]",None,,,,,0,1,1,1,,,,,,,,,,,,,,,,,,,,,,None,None,"[0, 0, 0]",1134.3755855000054,1136.3755900999968,1134.3755855000054,1135.375591300006,1135.358917400008,1136.358931499999,"[0, 0, 0]",1,1134.3755855000054,1136.3755900999968,,,,,,,,,,,,,,,,,3,F,2,19,L,MCK,2021_Oct_05_1848,2020.2.10,distractmap2,59.99480444878698,"['Left Arm', 'Abdomen', 'Chest', 'Left Face']",
2,"[0, 0.2]",1,,,,,0,2,2,2,,,,,,,,,,,,,,,,,,,,,,None,None,"[0, 0, 0]",1136.3922648000007,1138.3922687000013,1136.3922648000007,1137.3922654000053,1137.375595599995,1138.3756173000002,"[0, 0, 0]",1,1136.3922648000007,1138.3922687000013,,,,,,,,,,,,,,,,,3,F,2,19,L,MCK,2021_Oct_05_1848,2020.2.10,distractmap2,59.99480444878698,"['Left Arm', 'Abdomen', 'Chest', 'Left Face']",
8,"[0, -0.2]",0,,,,,0,3,3,3,,,,,,,,,,,,,,,,,,,,,,None,None,"[0, 0, 0]",1138.4089673999988,1140.4089430000022,1138.4089673999988,1139.4089557999978,1139.3922738999972,1140.3922868000082,"[0, 0, 0]",1,1138.4089673999988,1140.4089430000022,,,,,,,,,,,,,,,,,3,F,2,19,L,MCK,2021_Oct_05_1848,2020.2.10,distractmap2,59.99480444878698,"['Left Arm', 'Abdomen', 'Chest', 'Left Face']",
2,"[0, 0.2]",1,,,,,0,4,4,4,,,,,,,,,,,,,,,,,,,,,,None,None,"[0, 0, 0]",1140.475237999999,None,1140.475237999999,1141.4756328999938,1141.442299500006,None,"[0, 0, 0]",0,1140.475237999999,None,,,,,,,,,,,,,,,,,3,F,2,19,L,MCK,2021_Oct_05_1848,2020.2.10,distractmap2,59.99480444878698,"['Left Arm', 'Abdomen', 'Chest', 'Left Face']",
5,"[0, 0]",0,,,,,0,5,5,5,,,,,,,,,,,,,,,,,,,,,,None,None,"[0, 0, 0]",1142.4422980999952,1144.4423225000064,1142.4422980999952,1143.4423198000004,1143.4256430999958,1144.4256515000015,"[0, 0, 0]",0,1142.4422980999952,1144.4423225000064,,,,,,,,,,,,,,,,,3,F,2,19,L,MCK,2021_Oct_05_1848,2020.2.10,distractmap2,59.99480444878698,"['Left Arm', 'Abdomen', 'Chest', 'Left Face']",
1,"[-0.2, 0.2]",0,,,,,0,6,6,6,,,,,,,,,,,,,,,,,,,,,,None,None,"[0, 0, 0]",1144.4589794000058,1146.4589972999966,1144.4589794000058,1145.4589938999998,1145.4423271999985,1146.4423450000031,"[0, 0, 0]",0,1144.4589794000058,1146.4589972999966,,,,,,,,,,,,,,,,,3,F,2,19,L,MCK,2021_Oct_05_1848,2020.2.10,distractmap2,59.99480444878698,"['Left Arm', 'Abdomen', 'Chest', 'Left Face']",
1,"[-0.2, 0.2]",0,,,,,0,7,7,7,,,,,,,,,,,,,,,,,,,,,,None,None,"[0, 0, 0]",1146.4756770999957,1148.4756799000024,1146.4756770999957,1147.475677399998,1147.459019300004,1148.4590251000045,"[0, 0, 0]",0,1146.4756770999957,1148.4756799000024,,,,,,,,,,,,,,,,,3,F,2,19,L,MCK,2021_Oct_05_1848,2020.2.10,distractmap2,59.99480444878698,"['Left Arm', 'Abdomen', 'Chest', 'Left Face']",
6,"[0.2, 0]",0,,,,,0,8,8,8,,,,,,,,,,,,,,,,,,,,,,None,None,"[0, 0, 0]",1148.4923640000052,1150.4923570999963,1148.4923640000052,1149.4923598000023,1149.4756783000048,1150.4757078999974,"[0, 0, 0]",0,1148.4923640000052,1150.4923570999963,,,,,,,,,,,,,,,,,3,F,2,19,L,MCK,2021_Oct_05_1848,2020.2.10,distractmap2,59.99480444878698,"['Left Arm', 'Abdomen', 'Chest', 'Left Face']",
1,"[-0.2, 0.2]",1,,,,,0,9,9,9,,,,,,,,,,,,,,,,,,,,,,None,None,"[0, 0, 0]",1150.5090364000062,1152.5090509000001,1150.5090364000062,1151.5090347000078,1151.4923666999966,1152.4923815999937,"[0, 0, 0]",0,1150.5090364000062,1152.5090509000001,,,,,,,,,,,,,,,,,3,F,2,19,L,MCK,2021_Oct_05_1848,2020.2.10,distractmap2,59.99480444878698,"['Left Arm', 'Abdomen', 'Chest', 'Left Face']",
,,,,,,,,,,,1152.525733500006,None,,,,,,,,,,,,,,,,,,,,,,,,,,,,,,,,,,,,,,,,,23.14814814814815,1128.537887110011,,,,,,,3,F,2,19,L,MCK,2021_Oct_05_1848,2020.2.10,distractmap2,59.99480444878698,"['Left Arm', 'Abdomen', 'Chest', 'Left Face']",
5,"[0, 0]",None,0,0,0,0,,,,,1411.344753199999,None,1416.1777734000061,None,1416.1777734000061,1417.1776669999963,1417.1610777000024,None,1,None,None,"[0, 0, 0]",,,1416.1777734000061,None,,,,,,,,,,,,,,,,,,,1201.7930281000008,1201.7930281000008,None,space,181.35677179999766,1201.7930281000008,None,"[0, 0, 0]",,,0.014899789995979518,5.012232089997269,,,,,3,F,2,19,L,MCK,2021_Oct_05_1848,2020.2.10,distractmap2,59.99480444878698,"['Left Arm', 'Abdomen', 'Chest', 'Left Face']",
5,"[0, 0]",1,0,1,1,1,,,,,,,1418.1277905000024,None,1418.1277905000024,1419.127800999995,1419.1111092000065,1420.1111235999997,1,None,None,"[1, 0, 0]",,,1418.1277905000024,None,,,,,,,,,,,,,,,,,,,,,,,,,,"[1, 0, 0]",,,,,1.912829300010344,0.0,,,3,F,2,19,L,MCK,2021_Oct_05_1848,2020.2.10,distractmap2,59.99480444878698,"['Left Arm', 'Abdomen', 'Chest', 'Left Face']",
4,"[-0.2, 0]",0,0,2,2,2,,,,,,,1420.1277727999986,1420.1277727999986,1420.1277727999986,1421.1278074000002,1421.1111216999998,1422.1111347999977,1,None,None,"[0, 0, 0]",,,1420.1277727999986,1420.1277727999986,,,,,,,,,,,,,,,,,,,,,,,,,,"[0, 0, 0]",,,,,,,,,3,F,2,19,L,MCK,2021_Oct_05_1848,2020.2.10,distractmap2,59.99480444878698,"['Left Arm', 'Abdomen', 'Chest', 'Left Face']",
2,"[0, 0.2]",0,0,3,3,3,,,,,,,1422.1278034999996,1422.1278034999996,1422.1278034999996,1423.1278101000062,1423.1111354000022,1424.1111417000066,1,None,None,"[0, 0, 0]",,,1422.1278034999996,1422.1278034999996,,,,,,,,,,,,,,,,,,,,,,,,,,"[0, 0, 0]",,,,,,,,,3,F,2,19,L,MCK,2021_Oct_05_1848,2020.2.10,distractmap2,59.99480444878698,"['Left Arm', 'Abdomen', 'Chest', 'Left Face']",
6,"[0.2, 0]",0,0,4,4,4,,,,,,,1424.1609294999944,1424.1609294999944,1424.1609294999944,1425.1611716000043,1425.1611716000043,None,1,None,None,"[0, 0, 0]",,,1424.1609294999944,1424.1609294999944,,,,,,,,,,,,,,,,,,,,,,,,,,"[0, 0, 0]",,,,,,,,,3,F,2,19,L,MCK,2021_Oct_05_1848,2020.2.10,distractmap2,59.99480444878698,"['Left Arm', 'Abdomen', 'Chest', 'Left Face']",
8,"[0, -0.2]",0,0,5,5,5,,,,,,,1426.144503100004,None,1426.144503100004,1427.1445039999962,1427.127832099999,1428.1278865000058,1,None,None,"[0, 0, 0]",,,1426.144503100004,None,,,,,,,,,,,,,,,,,,,,,,,,,,"[0, 0, 0]",,,,,,,,,3,F,2,19,L,MCK,2021_Oct_05_1848,2020.2.10,distractmap2,59.99480444878698,"['Left Arm', 'Abdomen', 'Chest', 'Left Face']",
1,"[-0.2, 0.2]",0,0,6,6,6,,,,,,,1428.1445289999974,1428.1445289999974,1428.1445289999974,1429.1445246999938,1429.1278740999987,1430.127861800007,1,None,None,"[0, 0, 0]",,,1428.1445289999974,1428.1445289999974,,,,,,,,,,,,,,,,,,,,,,,,,,"[0, 0, 0]",,,,,,,,,3,F,2,19,L,MCK,2021_Oct_05_1848,2020.2.10,distractmap2,59.99480444878698,"['Left Arm', 'Abdomen', 'Chest', 'Left Face']",
4,"[-0.2, 0]",0,0,7,7,7,,,,,,,1430.1445304999943,1430.1445304999943,1430.1445304999943,1431.1445507000026,1431.1278689000028,1432.1279013000021,1,None,None,"[0, 0, 0]",,,1430.1445304999943,1430.1445304999943,,,,,,,,,,,,,,,,,,,,,,,,,,"[0, 0, 0]",,,,,,,,,3,F,2,19,L,MCK,2021_Oct_05_1848,2020.2.10,distractmap2,59.99480444878698,"['Left Arm', 'Abdomen', 'Chest', 'Left Face']",
8,"[0, -0.2]",0,0,8,8,8,,,,,,,1432.1445353000017,1432.1445353000017,1432.1445353000017,1433.1445439999952,1433.127896399994,1434.127877100007,1,None,None,"[0, 0, 0]",,,1432.1445353000017,1432.1445353000017,,,,,,,,,,,,,,,,,,,,,,,,,,"[0, 0, 0]",,,,,,,,,3,F,2,19,L,MCK,2021_Oct_05_1848,2020.2.10,distractmap2,59.99480444878698,"['Left Arm', 'Abdomen', 'Chest', 'Left Face']",
8,"[0, -0.2]",1,0,9,9,9,,,,,,,1434.1444615000073,1434.1444615000073,1434.1444615000073,1435.1445776000037,1435.1278998000053,1436.127919000006,1,None,None,"[0, 0, 0]",,,1434.1444615000073,1434.1444615000073,,,,,,,,,,,,,,,,,,,,,,,,,,"[0, 0, 0]",,,,,,,,,3,F,2,19,L,MCK,2021_Oct_05_1848,2020.2.10,distractmap2,59.99480444878698,"['Left Arm', 'Abdomen', 'Chest', 'Left Face']",
,,,,,,,,,,,1436.1445648999943,None,,,,,,,,,,,,,,,,,,,,,,,,,,,,,,,,,,,,,,,,,40.74074074074075,1416.3068280099978,,,,,,,3,F,2,19,L,MCK,2021_Oct_05_1848,2020.2.10,distractmap2,59.99480444878698,"['Left Arm', 'Abdomen', 'Chest', 'Left Face']",
3,"[0.2, 0.2]",None,0,0,0,0,,,,,1453.9450835000025,None,1456.1947402000078,None,1456.1947402000078,1457.1947761000047,1457.1780806000024,1458.1780740999966,1,None,None,"[0, 0, 0]",,,1456.1947402000078,None,,,,,,,,,,,,,,,,,,,,,,,,,,"[0, 0, 0]",,,0.014819290008745156,5.01203269000689,,,,,3,F,2,19,L,MCK,2021_Oct_05_1848,2020.2.10,distractmap2,59.99480444878698,"['Left Arm', 'Abdomen', 'Chest', 'Left Face']",
4,"[-0.2, 0]",0,0,1,1,1,,,,,,,1458.1947447999992,None,1458.1947447999992,1459.1947500999959,1459.178073899995,1460.178088700006,0,None,None,"[0, 0, 0]",,,1458.1947447999992,None,,,,,,,,,,,,,,,,,,,,,,,,,,"[0, 0, 0]",,,,,,,,,3,F,2,19,L,MCK,2021_Oct_05_1848,2020.2.10,distractmap2,59.99480444878698,"['Left Arm', 'Abdomen', 'Chest', 'Left Face']",
1,"[-0.2, 0.2]",0,0,2,2,2,,,,,,,1460.1947731999971,1460.1947731999971,1460.1947731999971,1461.1947803999938,1461.1781132000033,1462.178110000008,0,None,None,"[0, 0, 0]",,,1460.1947731999971,1460.1947731999971,,,,,,,,,,,,,,,,,,,,,,,,,,"[0, 0, 0]",,,,,,,,,3,F,2,19,L,MCK,2021_Oct_05_1848,2020.2.10,distractmap2,59.99480444878698,"['Left Arm', 'Abdomen', 'Chest', 'Left Face']",
2,"[0, 0.2]",0,0,3,3,3,,,,,,,1462.1947856000043,1462.1947856000043,1462.1947856000043,1463.1947938999947,1463.178121200006,1464.1781281000003,0,None,None,"[0, 0, 0]",,,1462.1947856000043,1462.1947856000043,,,,,,,,,,,,,,,,,,,,,,,,,,"[0, 0, 0]",,,,,,,,,3,F,2,19,L,MCK,2021_Oct_05_1848,2020.2.10,distractmap2,59.99480444878698,"['Left Arm', 'Abdomen', 'Chest', 'Left Face']",
2,"[0, 0.2]",1,0,4,4,4,,,,,,,1464.2451622999943,1464.2451622999943,1464.2451622999943,1465.2448265999992,1465.2281354000006,None,0,None,None,"[0, 0, 0]",,,1464.2451622999943,1464.2451622999943,,,,,,,,,,,,,,,,,,,,,,,,,,"[0, 0, 0]",,,,,,,,,3,F,2,19,L,MCK,2021_Oct_05_1848,2020.2.10,distractmap2,59.99480444878698,"['Left Arm', 'Abdomen', 'Chest', 'Left Face']",
5,"[0, 0]",0,0,5,5,5,,,,,,,1466.2114775999944,None,1466.2114775999944,1467.2114675000048,1467.1948174999998,1468.1948301999946,0,None,None,"[0, 0, 0]",,,1466.2114775999944,None,,,,,,,,,,,,,,,,,,,,,,,,,,"[0, 0, 0]",,,,,,,,,3,F,2,19,L,MCK,2021_Oct_05_1848,2020.2.10,distractmap2,59.99480444878698,"['Left Arm', 'Abdomen', 'Chest', 'Left Face']",
1,"[-0.2, 0.2]",0,0,6,6,6,,,,,,,1468.2114900000015,1468.2114900000015,1468.2114900000015,1469.2115006999957,1469.1948226999957,1470.1948400999972,1,None,None,"[0, 0, 0]",,,1468.2114900000015,1468.2114900000015,,,,,,,,,,,,,,,,,,,,,,,,,,"[0, 0, 0]",,,,,,,,,3,F,2,19,L,MCK,2021_Oct_05_1848,2020.2.10,distractmap2,59.99480444878698,"['Left Arm', 'Abdomen', 'Chest', 'Left Face']",
1,"[-0.2, 0.2]",1,0,7,7,7,,,,,,,1470.211499099998,1470.211499099998,1470.211499099998,1471.2115118999936,1471.194856400005,1472.1948586000071,0,None,None,"[0, 0, 0]",,,1470.211499099998,1470.211499099998,,,,,,,,,,,,,,,,,,,,,,,,,,"[0, 0, 0]",,,,,,,,,3,F,2,19,L,MCK,2021_Oct_05_1848,2020.2.10,distractmap2,59.99480444878698,"['Left Arm', 'Abdomen', 'Chest', 'Left Face']",
8,"[0, -0.2]",0,0,8,8,8,,,,,,,1472.211515700008,1472.211515700008,1472.211515700008,1473.2115178999957,1473.194859299998,1474.1948673000006,1,None,None,"[0, 0, 0]",,,1472.211515700008,1472.211515700008,,,,,,,,,,,,,,,,,,,,,,,,,,"[0, 0, 0]",,,,,,,,,3,F,2,19,L,MCK,2021_Oct_05_1848,2020.2.10,distractmap2,59.99480444878698,"['Left Arm', 'Abdomen', 'Chest', 'Left Face']",
7,"[-0.2, -0.2]",0,0,9,9,9,,,,,,,1474.2115431999991,1474.2115431999991,1474.2115431999991,1475.2115479000058,1475.194887000005,1476.1949056000012,1,None,None,"[0, 0, 0]",,,1474.2115431999991,1474.2115431999991,,,,,,,,,,,,,,,,,,,,,,,,,,"[0, 0, 0]",,,,,,,,,3,F,2,19,L,MCK,2021_Oct_05_1848,2020.2.10,distractmap2,59.99480444878698,"['Left Arm', 'Abdomen', 'Chest', 'Left Face']",
,,,,,,,,,,,1476.2115420000046,None,,,,,,,,,,,,,,,,,,,,,,,,,,,,,,,,,,,,,,,,,33.641975308641975,1458.173883409996,,,,,,,3,F,2,19,L,MCK,2021_Oct_05_1848,2020.2.10,distractmap2,59.99480444878698,"['Left Arm', 'Abdomen', 'Chest', 'Left Face']",
6,"[0.2, 0]",None,0,0,0,0,,,,,1493.4453741000034,None,1496.2616097999999,None,1496.2616097999999,1497.261701800002,1497.2450495999947,1498.245062899994,1,None,None,"[0, 0, 0]",,,1496.2616097999999,None,,,,,,,,,,,,,,,,,,,,,,,,,,"[0, 0, 0]",,,0.014791590001550503,5.012241489996086,,,,,3,F,2,19,L,MCK,2021_Oct_05_1848,2020.2.10,distractmap2,59.99480444878698,"['Left Arm', 'Abdomen', 'Chest', 'Left Face']",
6,"[0.2, 0]",1,0,1,1,1,,,,,,,1498.2617270000046,None,1498.2617270000046,1499.2617289000045,1499.245079100001,1500.245072699996,1,None,None,"[0, 0, 0]",,,1498.2617270000046,None,,,,,,,,,,,,,,,,,,,,,,,,,,"[0, 0, 0]",,,,,,,,,3,F,2,19,L,MCK,2021_Oct_05_1848,2020.2.10,distractmap2,59.99480444878698,"['Left Arm', 'Abdomen', 'Chest', 'Left Face']",
1,"[-0.2, 0.2]",0,0,2,2,2,,,,,,,1500.2617470999976,1500.2617470999976,1500.2617470999976,1501.2617294999945,1501.2450779000064,1502.2451045000053,0,None,None,"[0, 0, 0]",,,1500.2617470999976,1500.2617470999976,,,,,,,,,,,,,,,,,,,,,,,,,,"[0, 0, 0]",,,,,,,,,3,F,2,19,L,MCK,2021_Oct_05_1848,2020.2.10,distractmap2,59.99480444878698,"['Left Arm', 'Abdomen', 'Chest', 'Left Face']",
8,"[0, -0.2]",0,0,3,3,3,,,,,,,1502.2617517000035,1502.2617517000035,1502.2617517000035,1503.261766800002,1503.2451058000006,1504.2451013999962,1,None,None,"[0, 0, 0]",,,1502.2617517000035,1502.2617517000035,,,,,,,,,,,,,,,,,,,,,,,,,,"[0, 0, 0]",,,,,,,,,3,F,2,19,L,MCK,2021_Oct_05_1848,2020.2.10,distractmap2,59.99480444878698,"['Left Arm', 'Abdomen', 'Chest', 'Left Face']",
1,"[-0.2, 0.2]",0,0,4,4,4,,,,,,,1504.295492300007,1504.295492300007,1504.295492300007,1505.2949953000061,1505.2784404999984,None,1,None,None,"[0, 0, 0]",,,1504.295492300007,1504.295492300007,,,,,,,,,,,,,,,,,,,,,,,,,,"[0, 0, 0]",,,,,,,,,3,F,2,19,L,MCK,2021_Oct_05_1848,2020.2.10,distractmap2,59.99480444878698,"['Left Arm', 'Abdomen', 'Chest', 'Left Face']",
4,"[-0.2, 0]",0,0,5,5,5,,,,,,,1506.278456400003,None,1506.278456400003,1507.278447100005,1507.261778,1508.2617048999964,1,None,None,"[0, 0, 0]",,,1506.278456400003,None,,,,,,,,,,,,,,,,,,,,,,,,,,"[0, 0, 0]",,,,,,,,,3,F,2,19,L,MCK,2021_Oct_05_1848,2020.2.10,distractmap2,59.99480444878698,"['Left Arm', 'Abdomen', 'Chest', 'Left Face']",
5,"[0, 0]",0,0,6,6,6,,,,,,,1508.2784719000047,1508.2784719000047,1508.2784719000047,1509.278472200007,1509.2618056000065,1510.2618149000045,1,None,None,"[0, 0, 0]",,,1508.2784719000047,1508.2784719000047,,,,,,,,,,,,,,,,,,,,,,,,,,"[0, 0, 0]",,,,,,,,,3,F,2,19,L,MCK,2021_Oct_05_1848,2020.2.10,distractmap2,59.99480444878698,"['Left Arm', 'Abdomen', 'Chest', 'Left Face']",
7,"[-0.2, -0.2]",0,0,7,7,7,,,,,,,1510.2784650999965,1510.2784650999965,1510.2784650999965,1511.2784753000014,1511.261827299997,1512.2618204000028,1,None,None,"[0, 0, 0]",,,1510.2784650999965,1510.2784650999965,,,,,,,,,,,,,,,,,,,,,,,,,,"[0, 0, 0]",,,,,,,,,3,F,2,19,L,MCK,2021_Oct_05_1848,2020.2.10,distractmap2,59.99480444878698,"['Left Arm', 'Abdomen', 'Chest', 'Left Face']",
7,"[-0.2, -0.2]",1,0,8,8,8,,,,,,,1512.2784998999996,1512.2784998999996,1512.2784998999996,1513.2784914999938,1513.261837099999,1514.2618460999947,1,None,None,"[0, 0, 0]",,,1512.2784998999996,1512.2784998999996,,,,,,,,,,,,,,,,,,,,,,,,,,"[0, 0, 0]",,,,,,,,,3,F,2,19,L,MCK,2021_Oct_05_1848,2020.2.10,distractmap2,59.99480444878698,"['Left Arm', 'Abdomen', 'Chest', 'Left Face']",
7,"[-0.2, -0.2]",1,0,9,9,9,,,,,,,1514.2785079000023,1514.2785079000023,1514.2785079000023,1515.2785195000033,1515.2618483999977,1516.2618648000062,1,None,None,"[0, 0, 0]",,,1514.2785079000023,1514.2785079000023,,,,,,,,,,,,,,,,,,,,,,,,,,"[0, 0, 0]",,,,,,,,,3,F,2,19,L,MCK,2021_Oct_05_1848,2020.2.10,distractmap2,59.99480444878698,"['Left Arm', 'Abdomen', 'Chest', 'Left Face']",
,,,,,,,,,,,1516.2785198000056,None,,,,,,,,,,,,,,,,,,,,,,,,,,,,,,,,,,,,,,,,,27.839506172839506,1493.1409540099994,,,,,,,3,F,2,19,L,MCK,2021_Oct_05_1848,2020.2.10,distractmap2,59.99480444878698,"['Left Arm', 'Abdomen', 'Chest', 'Left Face']",
3,"[0.2, 0.2]",None,,,,,0,0,0,0,1529.4956786999974,None,,,,,,,,,,,,,,,,,,,,None,None,"[0, 0, 0]",1536.345352000004,None,1536.345352000004,1537.3453695000062,1537.3287026000035,1538.3287045000034,"[0, 0, 0]",1,1536.345352000004,None,,,,,,,,,,,0.014651890000095591,5.0117717899993295,,,,,3,F,2,19,L,MCK,2021_Oct_05_1848,2020.2.10,distractmap2,59.99480444878698,"['Left Arm', 'Abdomen', 'Chest', 'Left Face']",
3,"[0.2, 0.2]",None,,,,,0,1,1,1,,,,,,,,,,,,,,,,,,,,,,None,None,"[0, 0, 0]",1538.3453541000054,1540.3453788000043,1538.3453541000054,1539.3453776999959,1539.328708400004,1540.3287253000017,"[0, 0, 0]",1,1538.3453541000054,1540.3453788000043,,,,,,,,,,,,,,,,,3,F,2,19,L,MCK,2021_Oct_05_1848,2020.2.10,distractmap2,59.99480444878698,"['Left Arm', 'Abdomen', 'Chest', 'Left Face']",
5,"[0, 0]",0,,,,,0,2,2,2,,,,,,,,,,,,,,,,,,,,,,None,None,"[0, 0, 0]",1540.3620786999963,1542.3620596999972,1540.3620786999963,1541.362052299999,1541.3453927999944,1542.3453866000054,"[0, 0, 0]",1,1540.3620786999963,1542.3620596999972,,,,,,,,,,,,,,,,,3,F,2,19,L,MCK,2021_Oct_05_1848,2020.2.10,distractmap2,59.99480444878698,"['Left Arm', 'Abdomen', 'Chest', 'Left Face']",
