	SID	date	sex	session	handedness	scanner	onset	duration	repetition	rating	body_site	keys	temperature	conditionrt	mouseclick	biopac_channel	condition	rt	value
0	2480	2022_Nov_20_1120	f	1	r	Hershkop	2.774548099958338	4.994156616623513								19	Instructions		
1	2480	2022_Nov_20_1120	f	1	r	Hershkop	8.440273099928163	2.003340429975651								6	Cue		
2	2480	2022_Nov_20_1120	f	1	r	Hershkop	10.444569799932651	7.994608229841106								7	Pre-Jitter		
3	2480	2022_Nov_20_1120	f	1	r	Hershkop	18.483119199983776	15.001122090034187			Right Leg		48.0			16	Heat-Stimulation		
4	2480	2022_Nov_20_1120	f	1	r	Hershkop	33.57146649993956	7.0079932800726965								8	Mid-Jitter		
5	2480	2022_Nov_20_1120	f	1	r	Hershkop	40.59583839995321	5.009371059946716								20	PainBinary	1.3500300999730825	1.0
6	2480	2022_Nov_20_1120	f	1	r	Hershkop	45.62828720000107	5.01124835992232								21	IntensityRating	2.8333454000530764	42.46913580246914
7	2480	2022_Nov_20_1120	f	1	r	Hershkop	50.65809869999066	5.001689860015176								22	ToleranceRating	1.1169391999719664	-1.0
8	2480	2022_Nov_20_1120	f	1	r	Hershkop	55.66369949991349	7.007254029856995								9	Post-Q-Jitter		
9	2480	2022_Nov_20_1120	f	1	r	Hershkop	63.309363699983805	2.016285469988361								6	Cue		
10	2480	2022_Nov_20_1120	f	1	r	Hershkop	65.32711229997221	7.997341830050573								7	Pre-Jitter		
11	2480	2022_Nov_20_1120	f	1	r	Hershkop	73.35624439991079	15.005979790119454			Right Leg		47.5			16	Heat-Stimulation		
12	2480	2022_Nov_20_1120	f	1	r	Hershkop	88.43713199999183	7.011130679864436								8	Mid-Jitter		
13	2480	2022_Nov_20_1120	f	1	r	Hershkop	95.46328679996077	5.008890060009435								20	PainBinary	1.550027700024657	1.0
14	2480	2022_Nov_20_1120	f	1	r	Hershkop	100.49486749991775	5.012544159893878								21	IntensityRating	4.816707800026052	39.38271604938272
15	2480	2022_Nov_20_1120	f	1	r	Hershkop	105.52652469999157	4.999363559880294								22	ToleranceRating	1.3836601000512019	-1.0
16	2480	2022_Nov_20_1120	f	1	r	Hershkop	110.53194709995296	7.005268529988825								9	Post-Q-Jitter		
17	2480	2022_Nov_20_1120	f	1	r	Hershkop	118.15659059991594	2.006253539933823								6	Cue		
18	2480	2022_Nov_20_1120	f	1	r	Hershkop	120.16135820001364	5.9965950299520046								7	Pre-Jitter		
19	2480	2022_Nov_20_1120	f	1	r	Hershkop	126.21007569995709	14.999411020078696			Right Leg		47.0			16	Heat-Stimulation		
20	2480	2022_Nov_20_1120	f	1	r	Hershkop	141.2871791999787	9.012124179978855								8	Mid-Jitter		
21	2480	2022_Nov_20_1120	f	1	r	Hershkop	150.3144115000032	5.007795259938575								20	PainBinary	1.4165864998940378	1.0
22	2480	2022_Nov_20_1120	f	1	r	Hershkop	155.3459638999775	5.011502559995279								21	IntensityRating	4.1834109999472275	36.97530864197531
23	2480	2022_Nov_20_1120	f	1	r	Hershkop	160.3767517999513	5.000029160059057								22	ToleranceRating	1.6168610999593511	1.0
24	2480	2022_Nov_20_1120	f	1	r	Hershkop	165.38182379992213	9.006689229863696								9	Post-Q-Jitter		
25	2480	2022_Nov_20_1120	f	1	r	Hershkop	175.08986049995292	2.0076298898784444								6	Cue		
26	2480	2022_Nov_20_1120	f	1	r	Hershkop	177.09532469999976	3.9964874300640076								7	Pre-Jitter		
27	2480	2022_Nov_20_1120	f	1	r	Hershkop	181.12918109993916	14.995702990097925			Right Leg		47.0			16	Heat-Stimulation		
28	2480	2022_Nov_20_1120	f	1	r	Hershkop	196.21313609997742	8.994695779983886								8	Mid-Jitter		
29	2480	2022_Nov_20_1120	f	1	r	Hershkop	205.23177589999977	5.007537359953858								20	PainBinary	1.4000443000113592	1.0
30	2480	2022_Nov_20_1120	f	1	r	Hershkop	210.2644046000205	5.009040459990501								21	IntensityRating	3.3028749999357387	37.098765432098766
31	2480	2022_Nov_20_1120	f	1	r	Hershkop	215.29407830000855	4.999788359855302								22	ToleranceRating	0.9836299999151379	1.0
32	2480	2022_Nov_20_1120	f	1	r	Hershkop	220.29923699994106	9.006308429990895								9	Post-Q-Jitter		
33	2480	2022_Nov_20_1120	f	1	r	Hershkop	229.92086329997983	2.013372840010561								6	Cue		
34	2480	2022_Nov_20_1120	f	1	r	Hershkop	231.92869929992594	3.9975766298593953								7	Pre-Jitter		
35	2480	2022_Nov_20_1120	f	1	r	Hershkop	235.98138269991614	15.009080320014618			Right Leg		47.0			16	Heat-Stimulation		
36	2480	2022_Nov_20_1120	f	1	r	Hershkop	251.07294899993576	7.009486580034718								8	Mid-Jitter		
37	2480	2022_Nov_20_1120	f	1	r	Hershkop	258.0988320999313	5.007850560010411								20	PainBinary	2.1500056999502704	1.0
38	2480	2022_Nov_20_1120	f	1	r	Hershkop	263.1307400999358	5.010803859913722								21	IntensityRating	3.985867500072345	34.629629629629626
39	2480	2022_Nov_20_1120	f	1	r	Hershkop	268.1616704999469	4.998950959998183								22	ToleranceRating	1.133652099990286	1.0
40	2480	2022_Nov_20_1120	f	1	r	Hershkop	273.16596319992095	7.007031729910523								9	Post-Q-Jitter		
41	2480	2022_Nov_20_1120	f	1	r	Hershkop	280.7803207000252	2.0120792099041864								6	Cue		
42	2480	2022_Nov_20_1120	f	1	r	Hershkop	282.7964878999628	5.996393029927276								7	Pre-Jitter		
43	2480	2022_Nov_20_1120	f	1	r	Hershkop	288.85292949993163	15.000411620014347			Right Leg		47.0			16	Heat-Stimulation		
44	2480	2022_Nov_20_1120	f	1	r	Hershkop	303.93817869992927	5.01348127995152								8	Mid-Jitter		
45	2480	2022_Nov_20_1120	f	1	r	Hershkop	308.96588239993434	5.008136859862134								20	PainBinary	1.5833514000987634	1.0
46	2480	2022_Nov_20_1120	f	1	r	Hershkop	313.9980185999302	5.0106405599508435								21	IntensityRating	3.68337799992878	37.839506172839506
47	2480	2022_Nov_20_1120	f	1	r	Hershkop	319.0274063999532	5.0019640600075945								22	ToleranceRating	1.0838961999397725	1.0
48	2480	2022_Nov_20_1120	f	1	r	Hershkop	324.03305759991053	5.007383729913272								9	Post-Q-Jitter		
49	2480	2022_Nov_20_1120	f	1	r	Hershkop	329.6553244999377	2.013122239965014								6	Cue		
50	2480	2022_Nov_20_1120	f	1	r	Hershkop	331.66383490001317	7.995941029861569								7	Pre-Jitter		
51	2480	2022_Nov_20_1120	f	1	r	Hershkop	339.71543679991737	15.00964111997746			Right Leg		47.0			16	Heat-Stimulation		
52	2480	2022_Nov_20_1120	f	1	r	Hershkop	354.80848279991187	9.007174780010246								8	Mid-Jitter		
53	2480	2022_Nov_20_1120	f	1	r	Hershkop	363.8334104999667	5.007538260077126								20	PainBinary	1.0666858999757096	1.0
54	2480	2022_Nov_20_1120	f	1	r	Hershkop	368.86454699991737	5.012042259913869								21	IntensityRating	4.033400799962692	38.02469135802469
55	2480	2022_Nov_20_1120	f	1	r	Hershkop	373.89481829991564	5.001475959899835								22	ToleranceRating	1.0669815000146627	1.0
56	2480	2022_Nov_20_1120	f	1	r	Hershkop	378.90075609995984	9.006411629961804								9	Post-Q-Jitter		
57	2480	2022_Nov_20_1120	f	1	r	Hershkop	387.94085289991926	8.626640089903958								26	ComfortRating	8.600501299952157	-7.407407407407405
58	2480	2022_Nov_20_1120	f	1	r	Hershkop	396.5858409999637	2.8701389599591494								24	ValenceRating	2.850089199957438	58.64197530864198
59	2480	2022_Nov_20_1120	f	1	r	Hershkop	399.47929889999796	2.366614159895107								26	IntensityRating	2.350320600089617	61.23456790123457
60	2480	2022_Nov_20_1120	f	1	r	Hershkop	401.86513639998157	4.294965159962885								27	AvoidanceRating	4.266677499981597	29.75308641975306
61	2480	2022_Nov_20_1120	f	1	r	Hershkop	406.17789719998837	3.20287005987484								28	RelaxationRating	3.1836716000689194	50.92592592592592
62	2480	2022_Nov_20_1120	f	1	r	Hershkop	409.3979903999716	3.6627754599321634								29	AttentionRating	3.6334261000156403	63.20987654320987
63	2480	2022_Nov_20_1120	f	1	r	Hershkop	413.0783445999259	3.7188033600104973								30	BoredomRating	3.700337399961427	57.777777777777786
64	2480	2022_Nov_20_1120	f	1	r	Hershkop	416.8134332000045	2.315307659911923								31	AlertnessRating	2.286126399994828	-17.90123456790124
65	2480	2022_Nov_20_1120	f	1	r	Hershkop	419.14685959997587	5.7986199599690735								32	PosThxRating	5.783812700072303	6.666666666666671
66	2480	2022_Nov_20_1120	f	1	r	Hershkop	424.96400899998844	2.5143987599294633								33	NegThxRating	2.5011155999964103	-9.012345679012356
67	2480	2022_Nov_20_1120	f	1	r	Hershkop	427.49664129992016	3.8825075599597767								34	SelfRating	3.867160000023432	20.740740740740748
68	2480	2022_Nov_20_1120	f	1	r	Hershkop	431.39680480002426	4.115590759785846								35	OtherRating	4.100316299940459	19.012345679012356
69	2480	2022_Nov_20_1120	f	1	r	Hershkop	435.53053400001954	1.8982300598872826								32	ImageryRating	1.883708699955605	-17.28395061728395
70	2480	2022_Nov_20_1120	f	1	r	Hershkop	437.4488944999175	2.7449149598833174								37	PresentRating	2.716746599995531	28.641975308641975
