RestT1,TaskT1,square,location,corrAns,counterbalancer.thisRepN,counterbalancer.thisTrialN,counterbalancer.thisN,counterbalancer.thisIndex,RestT1Loop.thisRepN,RestT1Loop.thisTrialN,RestT1Loop.thisN,RestT1Loop.thisIndex,TaskT1Loop.thisRepN,TaskT1Loop.thisTrialN,TaskT1Loop.thisN,TaskT1Loop.thisIndex,trials_2.thisRepN,trials_2.thisTrialN,trials_2.thisN,trials_2.thisIndex,fixation_1.started,fixation_1.stopped,NbackInstructions.started,NbackInstructions.stopped,NbackStart.keys,NbackStart.rt,NbackStart.started,NbackStart.stopped,fixation_2.started,fixation_2.stopped,response_2.x,response_2.y,response_2.leftButton,grid_lines_2.started,grid_lines_2.stopped,target_square_2.started,target_square_2.stopped,fixation_3.started,fixation_3.stopped,response_2.click,response_2.corr,response_2.started,response_2.stopped,subject number,gender,session,handedness,scanner,date,expName,psychopyVersion,frameRate,
1,0,,,,0,0,0,0,0,0,0,0,,,,,,,,,79.81514249998145,None,,,,,,,,,,,,,,,,,,,,,,7,f,3,r,CIB,2021_Oct_04_1514,WASABI Nback,2020.2.10,59.985627445956155,
0,1,,,,0,1,1,1,,,,,0,0,0,0,,,,,,,378.10075179999694,None,space,55.69796540006064,378.10075179999694,None,,,,,,,,,,,,,,,,7,f,3,r,CIB,2021_Oct_04_1514,WASABI Nback,2020.2.10,59.985627445956155,
0,1,5,"[0, 0]",None,0,1,1,1,,,,,0,0,0,0,0,0,0,0,,,,,,,,,None,None,None,None,0,435.5511824002024,None,435.5511824002024,436.5511725000106,436.5178529000841,None,0,1,435.5511824002024,None,7,f,3,r,CIB,2021_Oct_04_1514,WASABI Nback,2020.2.10,59.985627445956155,
0,1,2,"[0, 0.2]",None,0,1,1,1,,,,,0,0,0,0,0,1,1,1,,,,,,,,,,,None,None,0,436.8511626999825,None,436.8511626999825,437.8511722001713,437.83450850006193,438.8345099000726,0,1,436.8511626999825,None,7,f,3,r,CIB,2021_Oct_04_1514,WASABI Nback,2020.2.10,59.985627445956155,
0,1,6,"[0.2, 0]",None,0,1,1,1,,,,,0,0,0,0,0,2,2,2,,,,,,,,,,,None,None,0,438.8511771000922,None,438.8511771000922,439.85119680012576,439.83451160020195,440.83451050007716,0,1,438.8511771000922,None,7,f,3,r,CIB,2021_Oct_04_1514,WASABI Nback,2020.2.10,59.985627445956155,
0,1,9,"[0.2, -0.2]",None,0,1,1,1,,,,,0,0,0,0,0,3,3,3,,,,,,,,,,,None,None,0,440.8512013000436,None,440.8512013000436,441.85122240008786,441.8345119000878,442.83452829997987,0,1,440.8512013000436,None,7,f,3,r,CIB,2021_Oct_04_1514,WASABI Nback,2020.2.10,59.985627445956155,
0,1,3,"[0.2, 0.2]",None,0,1,1,1,,,,,0,0,0,0,0,4,4,4,,,,,,,,,,,None,None,0,442.8512101001106,None,442.8512101001106,443.85124890017323,443.834541000193,444.8345246000681,0,1,442.8512101001106,None,7,f,3,r,CIB,2021_Oct_04_1514,WASABI Nback,2020.2.10,59.985627445956155,
0,1,9,"[0.2, -0.2]",1,0,1,1,1,,,,,0,0,0,0,0,5,5,5,,,,,,,,,,,None,None,0,444.8512401001062,None,444.8512401001062,445.8512386002112,445.83455060003325,446.83464590017684,0,1,444.8512401001062,None,7,f,3,r,CIB,2021_Oct_04_1514,WASABI Nback,2020.2.10,59.985627445956155,
0,1,7,"[-0.2, -0.2]",None,0,1,1,1,,,,,0,0,0,0,0,6,6,6,,,,,,,,,,,None,None,0,446.8512560001109,None,446.8512560001109,447.8512750000227,447.83456930005923,448.8345823001582,0,1,446.8512560001109,None,7,f,3,r,CIB,2021_Oct_04_1514,WASABI Nback,2020.2.10,59.985627445956155,
0,1,1,"[-0.2, 0.2]",None,0,1,1,1,,,,,0,0,0,0,0,7,7,7,,,,,,,,,,,None,None,0,448.8512665000744,None,448.8512665000744,449.8512634001672,449.8345910999924,450.8345855001826,0,1,448.8512665000744,None,7,f,3,r,CIB,2021_Oct_04_1514,WASABI Nback,2020.2.10,59.985627445956155,
0,1,5,"[0, 0]",None,0,1,1,1,,,,,0,0,0,0,0,8,8,8,,,,,,,,,,,None,None,0,450.8512935000472,None,450.8512935000472,451.851282000076,451.83459260012023,452.834615400061,0,0,450.8512935000472,None,7,f,3,r,CIB,2021_Oct_04_1514,WASABI Nback,2020.2.10,59.985627445956155,
0,1,7,"[-0.2, -0.2]",None,0,1,1,1,,,,,0,0,0,0,0,9,9,9,,,,,,,,,,,None,None,0,452.85129100014456,None,452.85129100014456,453.8512991000898,453.8346164000686,454.8346421001479,0,1,452.85129100014456,None,7,f,3,r,CIB,2021_Oct_04_1514,WASABI Nback,2020.2.10,59.985627445956155,
0,1,5,"[0, 0]",1,0,1,1,1,,,,,0,0,0,0,0,10,10,10,,,,,,,,,,,None,None,0,454.85129720019177,None,454.85129720019177,455.8512218000833,455.8346384000033,456.8346382000018,0,0,454.85129720019177,None,7,f,3,r,CIB,2021_Oct_04_1514,WASABI Nback,2020.2.10,59.985627445956155,
0,1,6,"[0.2, 0]",None,0,1,1,1,,,,,0,0,0,0,0,11,11,11,,,,,,,,,,,None,None,0,456.85131660010666,None,456.85131660010666,457.851325500058,457.8346470000688,458.8346667001024,0,1,456.85131660010666,None,7,f,3,r,CIB,2021_Oct_04_1514,WASABI Nback,2020.2.10,59.985627445956155,
0,1,3,"[0.2, 0.2]",None,0,1,1,1,,,,,0,0,0,0,0,12,12,12,,,,,,,,,,,None,None,0,458.8513398000505,None,458.8513398000505,459.85133760003373,459.83466290007345,460.83466210006736,0,1,458.8513398000505,None,7,f,3,r,CIB,2021_Oct_04_1514,WASABI Nback,2020.2.10,59.985627445956155,
0,1,6,"[0.2, 0]",1,0,1,1,1,,,,,0,0,0,0,0,13,13,13,,,,,,,,,,,None,None,0,460.85134490020573,None,460.85134490020573,461.85136040020734,461.83472110005096,462.83472610008903,0,1,460.85134490020573,None,7,f,3,r,CIB,2021_Oct_04_1514,WASABI Nback,2020.2.10,59.985627445956155,
0,1,8,"[0, -0.2]",None,0,1,1,1,,,,,0,0,0,0,0,14,14,14,,,,,,,,,,,None,None,0,462.8513621999882,None,462.8513621999882,463.85132830007933,463.8347313001286,464.8347516001668,0,1,462.8513621999882,None,7,f,3,r,CIB,2021_Oct_04_1514,WASABI Nback,2020.2.10,59.985627445956155,
0,1,9,"[0.2, -0.2]",None,0,1,1,1,,,,,0,0,0,0,0,15,15,15,,,,,,,,,,,None,None,0,464.8513874001801,None,464.8513874001801,465.8513921000995,465.8347513000481,466.8347542001866,0,1,464.8513874001801,None,7,f,3,r,CIB,2021_Oct_04_1514,WASABI Nback,2020.2.10,59.985627445956155,
0,1,9,"[0.2, -0.2]",None,0,1,1,1,,,,,0,0,0,0,0,16,16,16,,,,,,,,,,,None,None,0,466.85139319999143,None,466.85139319999143,467.8514021001756,467.8347691001836,468.8347618000116,0,1,466.85139319999143,None,7,f,3,r,CIB,2021_Oct_04_1514,WASABI Nback,2020.2.10,59.985627445956155,
0,1,1,"[-0.2, 0.2]",None,0,1,1,1,,,,,0,0,0,0,0,17,17,17,,,,,,,,,,,None,None,0,468.85140560008585,None,468.85140560008585,469.85141080012545,469.83476230013184,470.83477010019124,0,1,468.85140560008585,None,7,f,3,r,CIB,2021_Oct_04_1514,WASABI Nback,2020.2.10,59.985627445956155,
0,1,3,"[0.2, 0.2]",None,0,1,1,1,,,,,0,0,0,0,0,18,18,18,,,,,,,,,,,None,None,0,470.85142790013924,None,470.85142790013924,471.8514500001911,471.8347818001639,472.83478630008176,0,1,470.85142790013924,None,7,f,3,r,CIB,2021_Oct_04_1514,WASABI Nback,2020.2.10,59.985627445956155,
0,1,5,"[0, 0]",None,0,1,1,1,,,,,0,0,0,0,0,19,19,19,,,,,,,,,,,None,None,0,472.8514539001044,None,472.8514539001044,473.85145970014855,473.83480409998447,474.8348097000271,0,1,472.8514539001044,None,7,f,3,r,CIB,2021_Oct_04_1514,WASABI Nback,2020.2.10,59.985627445956155,
0,1,3,"[0.2, 0.2]",1,0,1,1,1,,,,,0,0,0,0,0,20,20,20,,,,,,,,,,,None,None,0,474.8514650000725,None,474.8514650000725,475.85146980010904,475.83480910002254,476.834827600047,0,1,474.8514650000725,None,7,f,3,r,CIB,2021_Oct_04_1514,WASABI Nback,2020.2.10,59.985627445956155,
0,1,4,"[-0.2, 0]",None,0,1,1,1,,,,,0,0,0,0,0,21,21,21,,,,,,,,,,,None,None,0,476.8514823000878,None,476.8514823000878,477.85147760016844,477.8348278000485,478.8348304000683,0,1,476.8514823000878,None,7,f,3,r,CIB,2021_Oct_04_1514,WASABI Nback,2020.2.10,59.985627445956155,
0,1,7,"[-0.2, -0.2]",None,0,1,1,1,,,,,0,0,0,0,0,22,22,22,,,,,,,,,,,None,None,0,478.85145760001615,None,478.85145760001615,479.85148920002393,479.8348499999847,480.83473200001754,0,1,478.85145760001615,None,7,f,3,r,CIB,2021_Oct_04_1514,WASABI Nback,2020.2.10,59.985627445956155,
0,1,4,"[-0.2, 0]",1,0,1,1,1,,,,,0,0,0,0,0,23,23,23,,,,,,,,,,,None,None,0,480.8515123000834,None,480.8515123000834,481.85151860001497,481.83485440001823,482.8348714001477,0,1,480.8515123000834,None,7,f,3,r,CIB,2021_Oct_04_1514,WASABI Nback,2020.2.10,59.985627445956155,
0,1,4,"[-0.2, 0]",None,0,1,1,1,,,,,0,0,0,0,0,24,24,24,,,,,,,,,,,None,None,0,482.85152130015194,None,482.85152130015194,483.8515374001581,483.83486420009285,484.83487890008837,0,1,482.85152130015194,None,7,f,3,r,CIB,2021_Oct_04_1514,WASABI Nback,2020.2.10,59.985627445956155,
0,1,5,"[0, 0]",None,0,1,1,1,,,,,0,0,0,0,0,25,25,25,,,,,,,,,,,None,None,0,484.85152470017783,None,484.85152470017783,485.8515367000364,485.834886000026,486.834878800204,0,1,484.85152470017783,None,7,f,3,r,CIB,2021_Oct_04_1514,WASABI Nback,2020.2.10,59.985627445956155,
0,1,2,"[0, 0.2]",None,0,1,1,1,,,,,0,0,0,0,0,26,26,26,,,,,,,,,,,None,None,0,486.85154430009425,None,486.85154430009425,487.85153810004704,487.8348837001249,488.8349153001327,0,1,486.85154430009425,None,7,f,3,r,CIB,2021_Oct_04_1514,WASABI Nback,2020.2.10,59.985627445956155,
0,1,6,"[0.2, 0]",None,0,1,1,1,,,,,0,0,0,0,0,27,27,27,,,,,,,,,,,None,None,0,488.85158960008994,None,488.85158960008994,489.85156390001066,489.8348946000915,490.8349041000474,0,1,488.85158960008994,None,7,f,3,r,CIB,2021_Oct_04_1514,WASABI Nback,2020.2.10,59.985627445956155,
0,1,7,"[-0.2, -0.2]",None,0,1,1,1,,,,,0,0,0,0,0,28,28,28,,,,,,,,,,,None,None,0,490.8515716001857,None,490.8515716001857,491.8515814000275,491.8349357000552,492.83494210010394,0,1,490.8515716001857,None,7,f,3,r,CIB,2021_Oct_04_1514,WASABI Nback,2020.2.10,59.985627445956155,
0,1,6,"[0.2, 0]",1,0,1,1,1,,,,,0,0,0,0,0,29,29,29,,,,,,,,,,,None,None,0,492.8515871001873,None,492.8515871001873,493.85160739999264,493.8349442000035,494.83496330003254,0,1,492.8515871001873,None,7,f,3,r,CIB,2021_Oct_04_1514,WASABI Nback,2020.2.10,59.985627445956155,
0,1,6,"[0.2, 0]",None,0,1,1,1,,,,,0,0,0,0,0,30,30,30,,,,,,,,,,,None,None,0,494.85161720006727,None,494.85161720006727,495.85161000001244,495.8349608001299,496.8349549002014,0,1,494.85161720006727,None,7,f,3,r,CIB,2021_Oct_04_1514,WASABI Nback,2020.2.10,59.985627445956155,
0,1,7,"[-0.2, -0.2]",None,0,1,1,1,,,,,0,0,0,0,0,31,31,31,,,,,,,,,,,None,None,0,496.85161830019206,None,496.85161830019206,497.85161700006574,497.834980300162,498.8349709000904,0,0,496.85161830019206,None,7,f,3,r,CIB,2021_Oct_04_1514,WASABI Nback,2020.2.10,59.985627445956155,
0,1,6,"[0.2, 0]",1,0,1,1,1,,,,,0,0,0,0,0,32,32,32,,,,,,,,,,,None,None,0,498.8516234001145,None,498.8516234001145,499.85164620005526,499.834994800156,500.8350010002032,0,0,498.8516234001145,None,7,f,3,r,CIB,2021_Oct_04_1514,WASABI Nback,2020.2.10,59.985627445956155,
0,1,2,"[0, 0.2]",None,0,1,1,1,,,,,0,0,0,0,0,33,33,33,,,,,,,,,,,None,None,0,500.85165890003555,None,500.85165890003555,501.8516624001786,501.8349937000312,502.83501480007544,0,1,500.85165890003555,None,7,f,3,r,CIB,2021_Oct_04_1514,WASABI Nback,2020.2.10,59.985627445956155,
0,1,5,"[0, 0]",None,0,1,1,1,,,,,0,0,0,0,0,34,34,34,,,,,,,,,,,None,None,0,502.85166170005687,None,502.85166170005687,503.8516738000326,503.83502700016834,504.8350188001059,0,1,502.85166170005687,None,7,f,3,r,CIB,2021_Oct_04_1514,WASABI Nback,2020.2.10,59.985627445956155,
0,1,4,"[-0.2, 0]",None,0,1,1,1,,,,,0,0,0,0,0,35,35,35,,,,,,,,,,,None,None,0,504.8517105001956,None,504.8517105001956,505.8517170001287,505.83504120004363,506.8350486001,0,1,504.8517105001956,None,7,f,3,r,CIB,2021_Oct_04_1514,WASABI Nback,2020.2.10,59.985627445956155,
0,1,4,"[-0.2, 0]",None,0,1,1,1,,,,,0,0,0,0,0,36,36,36,,,,,,,,,,,None,None,0,506.85174170020036,None,506.85174170020036,507.851738500176,507.8350639999844,508.8350565000437,0,1,506.85174170020036,None,7,f,3,r,CIB,2021_Oct_04_1514,WASABI Nback,2020.2.10,59.985627445956155,
0,1,7,"[-0.2, -0.2]",None,0,1,1,1,,,,,0,0,0,0,0,37,37,37,,,,,,,,,,,None,None,0,508.8517448999919,None,508.8517448999919,509.8517323001288,509.8350724000484,510.83506860001944,0,1,508.8517448999919,None,7,f,3,r,CIB,2021_Oct_04_1514,WASABI Nback,2020.2.10,59.985627445956155,
0,1,4,"[-0.2, 0]",1,0,1,1,1,,,,,0,0,0,0,0,38,38,38,,,,,,,,,,,None,None,0,510.85176710016094,None,510.85176710016094,511.8517333001364,511.83507220004685,512.8351003001444,0,1,510.85176710016094,None,7,f,3,r,CIB,2021_Oct_04_1514,WASABI Nback,2020.2.10,59.985627445956155,
0,1,3,"[0.2, 0.2]",None,0,1,1,1,,,,,0,0,0,0,0,39,39,39,,,,,,,,,,,None,None,0,512.8517597001046,None,512.8517597001046,513.8517605001107,513.8351001001429,514.8351082000881,0,1,512.8517597001046,None,7,f,3,r,CIB,2021_Oct_04_1514,WASABI Nback,2020.2.10,59.985627445956155,
0,1,5,"[0, 0]",None,0,1,1,1,,,,,0,0,0,0,0,40,40,40,,,,,,,,,,,None,None,0,514.8517699001823,None,514.8517699001823,515.8518005001824,515.8351102999877,516.8351271001156,0,1,514.8517699001823,None,7,f,3,r,CIB,2021_Oct_04_1514,WASABI Nback,2020.2.10,59.985627445956155,
0,1,3,"[0.2, 0.2]",1,0,1,1,1,,,,,0,0,0,0,0,41,41,41,,,,,,,,,,,None,None,0,516.8517887000926,None,516.8517887000926,517.8518109000288,517.8351193000562,518.8351701002102,0,1,516.8517887000926,None,7,f,3,r,CIB,2021_Oct_04_1514,WASABI Nback,2020.2.10,59.985627445956155,
0,1,1,"[-0.2, 0.2]",None,0,1,1,1,,,,,0,0,0,0,0,42,42,42,,,,,,,,,,,None,None,0,518.8518219001126,None,518.8518219001126,519.8518115000334,519.8351541000884,520.8351379001979,0,1,518.8518219001126,None,7,f,3,r,CIB,2021_Oct_04_1514,WASABI Nback,2020.2.10,59.985627445956155,
0,1,9,"[0.2, -0.2]",None,0,1,1,1,,,,,0,0,0,0,0,43,43,43,,,,,,,,,,,None,None,0,520.8518264000304,None,520.8518264000304,521.8518426001538,521.8351739000063,522.8351695002057,0,1,520.8518264000304,None,7,f,3,r,CIB,2021_Oct_04_1514,WASABI Nback,2020.2.10,59.985627445956155,
0,1,9,"[0.2, -0.2]",None,0,1,1,1,,,,,0,0,0,0,0,44,44,44,,,,,,,,,,,None,None,0,522.8518437000457,None,522.8518437000457,523.8518571001478,523.8350875000469,524.8351859999821,0,1,522.8518437000457,None,7,f,3,r,CIB,2021_Oct_04_1514,WASABI Nback,2020.2.10,59.985627445956155,
0,1,8,"[0, -0.2]",None,0,1,1,1,,,,,0,0,0,0,0,45,45,45,,,,,,,,,,,None,None,0,524.8518666001037,None,524.8518666001037,525.851878200192,525.8351786001585,526.8351863001008,0,1,524.8518666001037,None,7,f,3,r,CIB,2021_Oct_04_1514,WASABI Nback,2020.2.10,59.985627445956155,
0,1,6,"[0.2, 0]",None,0,1,1,1,,,,,0,0,0,0,0,46,46,46,,,,,,,,,,,None,None,0,526.8518654000945,None,526.8518654000945,527.8518968001008,527.8352216000203,528.8352142001968,0,1,526.8518654000945,None,7,f,3,r,CIB,2021_Oct_04_1514,WASABI Nback,2020.2.10,59.985627445956155,
0,1,3,"[0.2, 0.2]",None,0,1,1,1,,,,,0,0,0,0,0,47,47,47,,,,,,,,,,,None,None,0,528.8519037000369,None,528.8519037000369,529.8518926000688,529.8352111000568,530.8352347000036,0,1,528.8519037000369,None,7,f,3,r,CIB,2021_Oct_04_1514,WASABI Nback,2020.2.10,59.985627445956155,
0,1,6,"[0.2, 0]",1,0,1,1,1,,,,,0,0,0,0,0,48,48,48,,,,,,,,,,,None,None,0,530.8518996001221,None,530.8518996001221,531.851894600084,531.8352386001498,532.8352346001193,0,1,530.8518996001221,None,7,f,3,r,CIB,2021_Oct_04_1514,WASABI Nback,2020.2.10,59.985627445956155,
0,1,5,"[0, 0]",None,0,1,1,1,,,,,0,0,0,0,0,49,49,49,,,,,,,,,,,None,None,0,532.8519048001617,None,532.8519048001617,533.8519247001968,533.8352660001256,534.8352667000145,0,1,532.8519048001617,None,7,f,3,r,CIB,2021_Oct_04_1514,WASABI Nback,2020.2.10,59.985627445956155,
0,1,7,"[-0.2, -0.2]",None,0,1,1,1,,,,,0,0,0,0,0,50,50,50,,,,,,,,,,,None,None,0,534.8519864000846,None,534.8519864000846,535.8519295000006,535.835267300019,536.835288300179,0,1,534.8519864000846,None,7,f,3,r,CIB,2021_Oct_04_1514,WASABI Nback,2020.2.10,59.985627445956155,
0,1,5,"[0, 0]",1,0,1,1,1,,,,,0,0,0,0,0,51,51,51,,,,,,,,,,,None,None,0,536.8519439999945,None,536.8519439999945,537.8518615001813,537.8352908000816,538.8352940001059,0,1,536.8519439999945,None,7,f,3,r,CIB,2021_Oct_04_1514,WASABI Nback,2020.2.10,59.985627445956155,
0,1,1,"[-0.2, 0.2]",None,0,1,1,1,,,,,0,0,0,0,0,52,52,52,,,,,,,,,,,None,None,0,538.8519515001681,None,538.8519515001681,539.8519704001956,539.8353060001973,540.835289100185,0,1,538.8519515001681,None,7,f,3,r,CIB,2021_Oct_04_1514,WASABI Nback,2020.2.10,59.985627445956155,
0,1,7,"[-0.2, -0.2]",None,0,1,1,1,,,,,0,0,0,0,0,53,53,53,,,,,,,,,,,None,None,0,540.8519827001728,None,540.8519827001728,541.8520252001472,541.8352974001318,542.835315400036,0,0,540.8519827001728,None,7,f,3,r,CIB,2021_Oct_04_1514,WASABI Nback,2020.2.10,59.985627445956155,
0,1,9,"[0.2, -0.2]",None,0,1,1,1,,,,,0,0,0,0,0,54,54,54,,,,,,,,,,,None,None,0,542.8519949000329,None,542.8519949000329,543.8520012001973,543.8353269000072,544.835324899992,0,1,542.8519949000329,None,7,f,3,r,CIB,2021_Oct_04_1514,WASABI Nback,2020.2.10,59.985627445956155,
0,1,3,"[0.2, 0.2]",None,0,1,1,1,,,,,0,0,0,0,0,55,55,55,,,,,,,,,,,None,None,0,544.8519987000618,None,544.8519987000618,545.8520099001471,545.8353370002005,546.8353339000605,0,1,544.8519987000618,None,7,f,3,r,CIB,2021_Oct_04_1514,WASABI Nback,2020.2.10,59.985627445956155,
0,1,9,"[0.2, -0.2]",1,0,1,1,1,,,,,0,0,0,0,0,56,56,56,,,,,,,,,,,None,None,0,546.8520132000558,None,546.8520132000558,547.8520272001624,547.8353432000149,548.8353743001353,0,1,546.8520132000558,None,7,f,3,r,CIB,2021_Oct_04_1514,WASABI Nback,2020.2.10,59.985627445956155,
0,1,6,"[0.2, 0]",None,0,1,1,1,,,,,0,0,0,0,0,57,57,57,,,,,,,,,,,None,None,0,548.8520434000529,None,548.8520434000529,549.8520369001199,549.8353617000394,550.8353852001019,0,1,548.8520434000529,None,7,f,3,r,CIB,2021_Oct_04_1514,WASABI Nback,2020.2.10,59.985627445956155,
0,1,2,"[0, 0.2]",None,0,1,1,1,,,,,0,0,0,0,0,58,58,58,,,,,,,,,,,None,None,0,550.8520477002021,None,550.8520477002021,551.8520631000865,551.8353823001962,552.8354041001294,0,1,550.8520477002021,None,7,f,3,r,CIB,2021_Oct_04_1514,WASABI Nback,2020.2.10,59.985627445956155,
0,1,5,"[0, 0]",None,0,1,1,1,,,,,0,0,0,0,0,59,59,59,,,,,,,,,,,None,None,0,552.8520602001809,None,552.8520602001809,553.8520716000348,553.8353988002054,554.8354599000886,0,1,552.8520602001809,None,7,f,3,r,CIB,2021_Oct_04_1514,WASABI Nback,2020.2.10,59.985627445956155,
0,1,5,"[0, 0]",None,0,1,1,1,,,,,0,0,0,0,0,60,60,60,,,,,,,,,,,None,None,0,554.8520845000166,None,554.8520845000166,555.852082000114,555.8354172001127,556.8354134000838,0,1,554.8520845000166,None,7,f,3,r,CIB,2021_Oct_04_1514,WASABI Nback,2020.2.10,59.985627445956155,
0,1,2,"[0, 0.2]",None,0,1,1,1,,,,,0,0,0,0,0,61,61,61,,,,,,,,,,,None,None,0,556.8520995001309,None,556.8520995001309,557.8521110999864,557.8354270001873,558.8354520001449,0,0,556.8520995001309,None,7,f,3,r,CIB,2021_Oct_04_1514,WASABI Nback,2020.2.10,59.985627445956155,
0,1,6,"[0.2, 0]",None,0,1,1,1,,,,,0,0,0,0,0,62,62,62,,,,,,,,,,,None,None,0,558.852114800131,None,558.852114800131,559.8521159000229,559.8354556001723,560.8354537000414,0,1,558.852114800131,None,7,f,3,r,CIB,2021_Oct_04_1514,WASABI Nback,2020.2.10,59.985627445956155,
0,1,9,"[0.2, -0.2]",None,0,1,1,1,,,,,0,0,0,0,0,63,63,63,,,,,,,,,,,None,None,0,560.8521337001584,None,560.8521337001584,561.852126999991,561.8354759002104,562.8354654000141,0,1,560.8521337001584,None,7,f,3,r,CIB,2021_Oct_04_1514,WASABI Nback,2020.2.10,59.985627445956155,
0,1,3,"[0.2, 0.2]",None,0,1,1,1,,,,,0,0,0,0,0,64,64,64,,,,,,,,,,,None,None,0,562.8521384000778,None,562.8521384000778,563.8521548002027,563.8354751002043,564.8354881000705,0,1,562.8521384000778,None,7,f,3,r,CIB,2021_Oct_04_1514,WASABI Nback,2020.2.10,59.985627445956155,
0,1,9,"[0.2, -0.2]",1,0,1,1,1,,,,,0,0,0,0,0,65,65,65,,,,,,,,,,,None,None,0,564.852160600014,None,564.852160600014,565.8521621001419,565.835493599996,566.8354973001406,0,1,564.852160600014,None,7,f,3,r,CIB,2021_Oct_04_1514,WASABI Nback,2020.2.10,59.985627445956155,
0,1,7,"[-0.2, -0.2]",None,0,1,1,1,,,,,0,0,0,0,0,66,66,66,,,,,,,,,,,None,None,0,566.8521796001587,None,566.8521796001587,567.8521773000248,567.8355088999961,568.8355072999839,0,1,566.8521796001587,None,7,f,3,r,CIB,2021_Oct_04_1514,WASABI Nback,2020.2.10,59.985627445956155,
0,1,1,"[-0.2, 0.2]",None,0,1,1,1,,,,,0,0,0,0,0,67,67,67,,,,,,,,,,,None,None,0,568.8521957001649,None,568.8521957001649,569.8522111000493,569.8355308000464,570.8355213000905,0,1,568.8521957001649,None,7,f,3,r,CIB,2021_Oct_04_1514,WASABI Nback,2020.2.10,59.985627445956155,
0,1,5,"[0, 0]",None,0,1,1,1,,,,,0,0,0,0,0,68,68,68,,,,,,,,,,,None,None,0,570.8522175999824,None,570.8522175999824,571.8522094001528,571.8355394001119,572.8355497000739,0,1,570.8522175999824,None,7,f,3,r,CIB,2021_Oct_04_1514,WASABI Nback,2020.2.10,59.985627445956155,
0,1,7,"[-0.2, -0.2]",None,0,1,1,1,,,,,0,0,0,0,0,69,69,69,,,,,,,,,,,None,None,0,572.8522661000025,None,572.8522661000025,573.8522222000174,573.8355571001302,574.8355640000664,0,0,572.8522661000025,None,7,f,3,r,CIB,2021_Oct_04_1514,WASABI Nback,2020.2.10,59.985627445956155,
0,1,5,"[0, 0]",1,0,1,1,1,,,,,0,0,0,0,0,70,70,70,,,,,,,,,,,None,None,0,574.8522533001378,None,574.8522533001378,575.8522640001029,575.8355533001013,576.835589400027,0,1,574.8522533001378,None,7,f,3,r,CIB,2021_Oct_04_1514,WASABI Nback,2020.2.10,59.985627445956155,
0,1,6,"[0.2, 0]",None,0,1,1,1,,,,,0,0,0,0,0,71,71,71,,,,,,,,,,,None,None,0,576.8522537001409,None,576.8522537001409,577.852270900039,577.8355794001836,578.8355938000605,0,1,576.8522537001409,None,7,f,3,r,CIB,2021_Oct_04_1514,WASABI Nback,2020.2.10,59.985627445956155,
0,1,3,"[0.2, 0.2]",None,0,1,1,1,,,,,0,0,0,0,0,72,72,72,,,,,,,,,,,None,None,0,578.8522805999964,None,578.8522805999964,579.8522928000893,579.8355950000696,580.8355963001959,0,1,578.8522805999964,None,7,f,3,r,CIB,2021_Oct_04_1514,WASABI Nback,2020.2.10,59.985627445956155,
0,1,6,"[0.2, 0]",1,0,1,1,1,,,,,0,0,0,0,0,73,73,73,,,,,,,,,,,None,None,0,580.8522819001228,None,580.8522819001228,581.8522938999813,581.8356209001504,582.8356186000165,0,1,580.8522819001228,None,7,f,3,r,CIB,2021_Oct_04_1514,WASABI Nback,2020.2.10,59.985627445956155,
0,1,8,"[0, -0.2]",None,0,1,1,1,,,,,0,0,0,0,0,74,74,74,,,,,,,,,,,None,None,0,582.8522928000893,None,582.8522928000893,583.8522430001758,583.8356126002036,584.8356382001657,0,1,582.8522928000893,None,7,f,3,r,CIB,2021_Oct_04_1514,WASABI Nback,2020.2.10,59.985627445956155,
0,1,9,"[0.2, -0.2]",None,0,1,1,1,,,,,0,0,0,0,0,75,75,75,,,,,,,,,,,None,None,0,584.8523157001473,None,584.8523157001473,585.8523197001778,585.8356445999816,586.8356679000426,0,1,584.8523157001473,None,7,f,3,r,CIB,2021_Oct_04_1514,WASABI Nback,2020.2.10,59.985627445956155,
0,1,9,"[0.2, -0.2]",None,0,1,1,1,,,,,0,0,0,0,0,76,76,76,,,,,,,,,,,None,None,0,586.8523237002082,None,586.8523237002082,587.8523409999907,587.8356640001293,588.83566540014,0,1,586.8523237002082,None,7,f,3,r,CIB,2021_Oct_04_1514,WASABI Nback,2020.2.10,59.985627445956155,
0,1,1,"[-0.2, 0.2]",None,0,1,1,1,,,,,0,0,0,0,0,77,77,77,,,,,,,,,,,None,None,0,588.8523588001262,None,588.8523588001262,589.8523415999953,589.8356645000167,590.835715400055,0,1,588.8523588001262,None,7,f,3,r,CIB,2021_Oct_04_1514,WASABI Nback,2020.2.10,59.985627445956155,
0,1,3,"[0.2, 0.2]",None,0,1,1,1,,,,,0,0,0,0,0,78,78,78,,,,,,,,,,,None,None,0,590.8523617000319,None,590.8523617000319,591.8523658001795,591.8357220001053,592.8357363000978,0,1,590.8523617000319,None,7,f,3,r,CIB,2021_Oct_04_1514,WASABI Nback,2020.2.10,59.985627445956155,
0,1,5,"[0, 0]",None,0,1,1,1,,,,,0,0,0,0,0,79,79,79,,,,,,,,,,,None,None,0,592.8523728,None,592.8523728,593.852384700207,593.8357407001313,594.8357421001419,0,1,592.8523728,None,7,f,3,r,CIB,2021_Oct_04_1514,WASABI Nback,2020.2.10,59.985627445956155,
0,1,3,"[0.2, 0.2]",1,0,1,1,1,,,,,0,0,0,0,0,80,80,80,,,,,,,,,,,None,None,0,594.852386899991,None,594.852386899991,595.8523977000732,595.8357599000446,596.8357642001938,0,0,594.852386899991,None,7,f,3,r,CIB,2021_Oct_04_1514,WASABI Nback,2020.2.10,59.985627445956155,
0,1,4,"[-0.2, 0]",None,0,1,1,1,,,,,0,0,0,0,0,81,81,81,,,,,,,,,,,None,None,0,596.8524070000276,None,596.8524070000276,597.852410200052,597.8357452000491,598.8357604001649,0,1,596.8524070000276,None,7,f,3,r,CIB,2021_Oct_04_1514,WASABI Nback,2020.2.10,59.985627445956155,
0,1,7,"[-0.2, -0.2]",None,0,1,1,1,,,,,0,0,0,0,0,82,82,82,,,,,,,,,,,None,None,0,598.8524254001677,None,598.8524254001677,599.8524478999898,599.8357832001057,600.8357850001194,0,1,598.8524254001677,None,7,f,3,r,CIB,2021_Oct_04_1514,WASABI Nback,2020.2.10,59.985627445956155,
0,1,4,"[-0.2, 0]",1,0,1,1,1,,,,,0,0,0,0,0,83,83,83,,,,,,,,,,,None,None,0,600.8524496001191,None,600.8524496001191,601.8524515000172,601.8358017001301,602.8357419001404,0,1,600.8524496001191,None,7,f,3,r,CIB,2021_Oct_04_1514,WASABI Nback,2020.2.10,59.985627445956155,
0,1,4,"[-0.2, 0]",None,0,1,1,1,,,,,0,0,0,0,0,84,84,84,,,,,,,,,,,None,None,0,602.8524553000461,None,602.8524553000461,603.8524749001954,603.8358019001316,604.8358206001576,0,1,602.8524553000461,None,7,f,3,r,CIB,2021_Oct_04_1514,WASABI Nback,2020.2.10,59.985627445956155,
0,1,5,"[0, 0]",None,0,1,1,1,,,,,0,0,0,0,0,85,85,85,,,,,,,,,,,None,None,0,604.8524808001239,None,604.8524808001239,605.8524663001299,605.8357918001711,606.8358362000436,0,1,604.8524808001239,None,7,f,3,r,CIB,2021_Oct_04_1514,WASABI Nback,2020.2.10,59.985627445956155,
0,1,2,"[0, 0.2]",None,0,1,1,1,,,,,0,0,0,0,0,86,86,86,,,,,,,,,,,None,None,0,606.8524801000021,None,606.8524801000021,607.8525422001258,607.8358509000391,608.8357367001008,0,1,606.8524801000021,None,7,f,3,r,CIB,2021_Oct_04_1514,WASABI Nback,2020.2.10,59.985627445956155,
0,1,6,"[0.2, 0]",None,0,1,1,1,,,,,0,0,0,0,0,87,87,87,,,,,,,,,,,None,None,0,608.8525047001895,None,608.8525047001895,609.852525100112,609.8358562001958,610.8358742001001,0,1,608.8525047001895,None,7,f,3,r,CIB,2021_Oct_04_1514,WASABI Nback,2020.2.10,59.985627445956155,
0,1,7,"[-0.2, -0.2]",None,0,1,1,1,,,,,0,0,0,0,0,88,88,88,,,,,,,,,,,None,None,0,610.8525231999811,None,610.8525231999811,611.8525798001792,611.8358647001442,612.8358716000803,0,1,610.8525231999811,None,7,f,3,r,CIB,2021_Oct_04_1514,WASABI Nback,2020.2.10,59.985627445956155,
0,1,6,"[0.2, 0]",1,0,1,1,1,,,,,0,0,0,0,0,89,89,89,,,,,,,,,,,None,None,0,612.8525226002093,None,612.8525226002093,613.8525418001227,613.8358932000119,614.8358853000682,0,0,612.8525226002093,None,7,f,3,r,CIB,2021_Oct_04_1514,WASABI Nback,2020.2.10,59.985627445956155,
0,1,6,"[0.2, 0]",None,0,1,1,1,,,,,0,0,0,0,0,90,90,90,,,,,,,,,,,None,None,0,614.8525382999796,None,614.8525382999796,615.8525495000649,615.8359050001018,616.8359151000623,0,1,614.8525382999796,None,7,f,3,r,CIB,2021_Oct_04_1514,WASABI Nback,2020.2.10,59.985627445956155,
0,1,7,"[-0.2, -0.2]",None,0,1,1,1,,,,,0,0,0,0,0,91,91,91,,,,,,,,,,,None,None,0,616.85256330017,None,616.85256330017,617.8525683002081,617.8359224000014,618.835927600041,0,0,616.85256330017,None,7,f,3,r,CIB,2021_Oct_04_1514,WASABI Nback,2020.2.10,59.985627445956155,
0,1,6,"[0.2, 0]",1,0,1,1,1,,,,,0,0,0,0,0,92,92,92,,,,,,,,,,,None,None,0,618.8525658000726,None,618.8525658000726,619.8524786001071,619.8359233001247,620.8359362999909,0,1,618.8525658000726,None,7,f,3,r,CIB,2021_Oct_04_1514,WASABI Nback,2020.2.10,59.985627445956155,
0,1,2,"[0, 0.2]",None,0,1,1,1,,,,,0,0,0,0,0,93,93,93,,,,,,,,,,,None,None,0,620.8525688000955,None,620.8525688000955,621.8526107000653,621.8359400001355,622.8359511999879,0,1,620.8525688000955,None,7,f,3,r,CIB,2021_Oct_04_1514,WASABI Nback,2020.2.10,59.985627445956155,
0,1,5,"[0, 0]",None,0,1,1,1,,,,,0,0,0,0,0,94,94,94,,,,,,,,,,,None,None,0,622.852618200006,None,622.852618200006,623.852619000012,623.835966899991,624.835949400207,0,1,622.852618200006,None,7,f,3,r,CIB,2021_Oct_04_1514,WASABI Nback,2020.2.10,59.985627445956155,
0,1,4,"[-0.2, 0]",None,0,1,1,1,,,,,0,0,0,0,0,95,95,95,,,,,,,,,,,None,None,0,624.8526223001536,None,624.8526223001536,625.8526278000791,625.8359647002071,626.8359701000154,0,1,624.8526223001536,None,7,f,3,r,CIB,2021_Oct_04_1514,WASABI Nback,2020.2.10,59.985627445956155,
0,1,4,"[-0.2, 0]",None,0,1,1,1,,,,,0,0,0,0,0,96,96,96,,,,,,,,,,,None,None,0,626.8526199001353,None,626.8526199001353,627.8526262000669,627.8359906000551,628.8359949002042,0,1,626.8526199001353,None,7,f,3,r,CIB,2021_Oct_04_1514,WASABI Nback,2020.2.10,59.985627445956155,
0,1,7,"[-0.2, -0.2]",None,0,1,1,1,,,,,0,0,0,0,0,97,97,97,,,,,,,,,,,None,None,0,628.8526509001385,None,628.8526509001385,629.8526425000746,629.8359919001814,630.8359976001084,0,1,628.8526509001385,None,7,f,3,r,CIB,2021_Oct_04_1514,WASABI Nback,2020.2.10,59.985627445956155,
0,1,4,"[-0.2, 0]",1,0,1,1,1,,,,,0,0,0,0,0,98,98,98,,,,,,,,,,,None,None,0,630.8526626999956,None,630.8526626999956,631.8526759000961,631.8360123999882,632.8360233001877,0,1,630.8526626999956,None,7,f,3,r,CIB,2021_Oct_04_1514,WASABI Nback,2020.2.10,59.985627445956155,
0,1,3,"[0.2, 0.2]",None,0,1,1,1,,,,,0,0,0,0,0,99,99,99,,,,,,,,,,,None,None,0,632.8527060002089,None,632.8527060002089,633.8527012001723,633.8360323000234,634.8360468000174,0,1,632.8527060002089,None,7,f,3,r,CIB,2021_Oct_04_1514,WASABI Nback,2020.2.10,59.985627445956155,
0,1,5,"[0, 0]",None,0,1,1,1,,,,,0,0,0,0,0,100,100,100,,,,,,,,,,,None,None,0,634.8527375000995,None,634.8527375000995,635.8527361000888,635.8360347000416,636.8360596001148,0,1,634.8527375000995,None,7,f,3,r,CIB,2021_Oct_04_1514,WASABI Nback,2020.2.10,59.985627445956155,
0,1,3,"[0.2, 0.2]",1,0,1,1,1,,,,,0,0,0,0,0,101,101,101,,,,,,,,,,,None,None,0,636.8527371000964,None,636.8527371000964,637.8527650001924,637.8360508000478,638.8360855001956,0,0,636.8527371000964,None,7,f,3,r,CIB,2021_Oct_04_1514,WASABI Nback,2020.2.10,59.985627445956155,
0,1,1,"[-0.2, 0.2]",None,0,1,1,1,,,,,0,0,0,0,0,102,102,102,,,,,,,,,,,None,None,0,638.852761000162,None,638.852761000162,639.8527645000722,639.8360870000906,640.8360745001119,0,1,638.852761000162,None,7,f,3,r,CIB,2021_Oct_04_1514,WASABI Nback,2020.2.10,59.985627445956155,
0,1,9,"[0.2, -0.2]",None,0,1,1,1,,,,,0,0,0,0,0,103,103,103,,,,,,,,,,,None,None,0,640.8527605000418,None,640.8527605000418,641.8527602001559,641.8360817001667,642.836108900141,0,1,640.8527605000418,None,7,f,3,r,CIB,2021_Oct_04_1514,WASABI Nback,2020.2.10,59.985627445956155,
0,1,9,"[0.2, -0.2]",None,0,1,1,1,,,,,0,0,0,0,0,104,104,104,,,,,,,,,,,None,None,0,642.852765600197,None,642.852765600197,643.8527653000783,643.8361076000147,644.8361246001441,0,1,642.852765600197,None,7,f,3,r,CIB,2021_Oct_04_1514,WASABI Nback,2020.2.10,59.985627445956155,
0,1,8,"[0, -0.2]",None,0,1,1,1,,,,,0,0,0,0,0,105,105,105,,,,,,,,,,,None,None,0,644.8527842001058,None,644.8527842001058,645.8528108000755,645.8361332002096,646.8361364000011,0,1,644.8527842001058,None,7,f,3,r,CIB,2021_Oct_04_1514,WASABI Nback,2020.2.10,59.985627445956155,
0,1,6,"[0.2, 0]",None,0,1,1,1,,,,,0,0,0,0,0,106,106,106,,,,,,,,,,,None,None,0,646.8528158001136,None,646.8528158001136,647.8528257000726,647.8361323000863,648.8361558001488,0,1,646.8528158001136,None,7,f,3,r,CIB,2021_Oct_04_1514,WASABI Nback,2020.2.10,59.985627445956155,
0,1,3,"[0.2, 0.2]",None,0,1,1,1,,,,,0,0,0,0,0,107,107,107,,,,,,,,,,,None,None,0,648.8528317001183,None,648.8528317001183,649.8528275000863,649.8361576001626,650.8361537000164,0,1,648.8528317001183,None,7,f,3,r,CIB,2021_Oct_04_1514,WASABI Nback,2020.2.10,59.985627445956155,
0,1,6,"[0.2, 0]",1,0,1,1,1,,,,,0,0,0,0,0,108,108,108,,,,,,,,,,,None,None,0,650.8528429002035,None,650.8528429002035,651.8528588002082,651.8361798999831,652.8361703001428,0,1,650.8528429002035,None,7,f,3,r,CIB,2021_Oct_04_1514,WASABI Nback,2020.2.10,59.985627445956155,
0,1,5,"[0, 0]",None,0,1,1,1,,,,,0,0,0,0,0,109,109,109,,,,,,,,,,,None,None,0,652.8528520001564,None,652.8528520001564,653.8528550001793,653.8361763001885,654.8362008000258,0,1,652.8528520001564,None,7,f,3,r,CIB,2021_Oct_04_1514,WASABI Nback,2020.2.10,59.985627445956155,
0,1,7,"[-0.2, -0.2]",None,0,1,1,1,,,,,0,0,0,0,0,110,110,110,,,,,,,,,,,None,None,0,654.8528783000074,None,654.8528783000074,655.8528870001901,655.8362010000274,656.8362133000046,0,1,654.8528783000074,None,7,f,3,r,CIB,2021_Oct_04_1514,WASABI Nback,2020.2.10,59.985627445956155,
0,1,5,"[0, 0]",1,0,1,1,1,,,,,0,0,0,0,0,111,111,111,,,,,,,,,,,None,None,0,656.8528760001063,None,656.8528760001063,657.8529056000989,657.8362067001872,658.8361953999847,0,1,656.8528760001063,None,7,f,3,r,CIB,2021_Oct_04_1514,WASABI Nback,2020.2.10,59.985627445956155,
0,1,1,"[-0.2, 0.2]",None,0,1,1,1,,,,,0,0,0,0,0,112,112,112,,,,,,,,,,,None,None,0,658.8529107000213,None,658.8529107000213,659.8529066001065,659.8362397002056,660.8362544002011,0,1,658.8529107000213,None,7,f,3,r,CIB,2021_Oct_04_1514,WASABI Nback,2020.2.10,59.985627445956155,
0,1,7,"[-0.2, -0.2]",None,0,1,1,1,,,,,0,0,0,0,0,113,113,113,,,,,,,,,,,None,None,0,660.852925900137,None,660.852925900137,661.8529203000944,661.8362531000748,662.8362127,0,0,660.852925900137,None,7,f,3,r,CIB,2021_Oct_04_1514,WASABI Nback,2020.2.10,59.985627445956155,
0,1,9,"[0.2, -0.2]",None,0,1,1,1,,,,,0,0,0,0,0,114,114,114,,,,,,,,,,,None,None,0,662.8529429000337,None,662.8529429000337,663.8529525999911,663.8362722001038,664.8362858002074,0,1,662.8529429000337,None,7,f,3,r,CIB,2021_Oct_04_1514,WASABI Nback,2020.2.10,59.985627445956155,
0,1,3,"[0.2, 0.2]",None,0,1,1,1,,,,,0,0,0,0,0,115,115,115,,,,,,,,,,,None,None,0,664.8529378999956,None,664.8529378999956,665.8529515999835,665.8362950000446,666.8362945001572,0,1,664.8529378999956,None,7,f,3,r,CIB,2021_Oct_04_1514,WASABI Nback,2020.2.10,59.985627445956155,
0,1,9,"[0.2, -0.2]",1,0,1,1,1,,,,,0,0,0,0,0,116,116,116,,,,,,,,,,,None,None,0,666.8528460999951,None,666.8528460999951,667.852963700192,667.8362827000674,668.836289800005,0,1,666.8528460999951,None,7,f,3,r,CIB,2021_Oct_04_1514,WASABI Nback,2020.2.10,59.985627445956155,
0,1,6,"[0.2, 0]",None,0,1,1,1,,,,,0,0,0,0,0,117,117,117,,,,,,,,,,,None,None,0,668.8529729000293,None,668.8529729000293,669.8530001000036,669.8363171000965,670.836318799993,0,1,668.8529729000293,None,7,f,3,r,CIB,2021_Oct_04_1514,WASABI Nback,2020.2.10,59.985627445956155,
0,1,2,"[0, 0.2]",None,0,1,1,1,,,,,0,0,0,0,0,118,118,118,,,,,,,,,,,None,None,0,670.8529844000004,None,670.8529844000004,671.8528984000441,671.8363128001802,672.8363198000006,0,1,670.8529844000004,None,7,f,3,r,CIB,2021_Oct_04_1514,WASABI Nback,2020.2.10,59.985627445956155,
0,1,5,"[0, 0]",None,0,1,1,1,,,,,0,0,0,0,0,119,119,119,,,,,,,,,,,None,None,0,672.853006800171,None,672.853006800171,673.853008700069,673.8363256000448,674.8363491999917,0,1,672.853006800171,None,7,f,3,r,CIB,2021_Oct_04_1514,WASABI Nback,2020.2.10,59.985627445956155,
