	SID	date	sex	session	handedness	scanner	onset	duration	repetition	rating	body_site	keys	temperature	conditionrt	mouseclick	biopac_channel	condition	rt	value	skin_site
0	2743	2024_Feb_16_2323	f	3	r	MS MRS	2.799369200016372	5.0040738002280705			Chest					41	Regulation Instruction			1
1	2743	2024_Feb_16_2323	f	3	r	MS MRS	8.13374630000908	9.016197970020585			Chest					7	Pre-Trial Jitter			1
2	2743	2024_Feb_16_2323	f	3	r	MS MRS	17.18750430000364	13.008897580031771			Chest		48.5			17	Heat-Stimulation			1
3	2743	2024_Feb_16_2323	f	3	r	MS MRS	30.241484300000593	5.0011351799767			Chest					8	Post-Trial Jitter			1
4	2743	2024_Feb_16_2323	f	3	r	MS MRS	35.27389920002315	5.003098810004303			Chest					20	PainBinary	1.7037011999927927	1.0	1
5	2743	2024_Feb_16_2323	f	3	r	MS MRS	40.30897140002344	4.999742910003988			Chest					21	IntensityRating	2.6676336000091396	36.54320987654321	1
6	2743	2024_Feb_16_2323	f	3	r	MS MRS	45.341542800015304	5.001352710009087			Chest					52	AcceptBinary	2.1670525000081398	1.0	1
7	2743	2024_Feb_16_2323	f	3	r	MS MRS	50.35418039999786	5.009542340005282			Chest					9	Post-Q-Jitter			1
8	2743	2024_Feb_16_2323	f	3	r	MS MRS	55.55877960001817	9.000526310002897			Chest					7	Pre-Trial Jitter			1
9	2743	2024_Feb_16_2323	f	3	r	MS MRS	64.60339970001951	13.01148538000416			Chest		48.5			17	Heat-Stimulation			1
10	2743	2024_Feb_16_2323	f	3	r	MS MRS	77.65992060001008	6.998661980032921			Chest					8	Post-Trial Jitter			1
11	2743	2024_Feb_16_2323	f	3	r	MS MRS	84.69234270000015	5.0006062100001145			Chest					20	PainBinary	1.8171342000132427	1.0	1
12	2743	2024_Feb_16_2323	f	3	r	MS MRS	89.73728890001075	5.010847680037841			Chest					21	IntensityRating	2.6202460000058636	42.71604938271605	1
13	2743	2024_Feb_16_2323	f	3	r	MS MRS	94.76773280001362	5.016710210009478			Chest					52	AcceptBinary	1.567103200010024	1.0	1
14	2743	2024_Feb_16_2323	f	3	r	MS MRS	99.78773450001609	9.010195640003076			Chest					9	Post-Q-Jitter			1
15	2743	2024_Feb_16_2323	f	3	r	MS MRS	108.9964922000072	7.009574910043739			Chest					7	Pre-Trial Jitter			1
16	2743	2024_Feb_16_2323	f	3	r	MS MRS	116.03827800002182	13.00960361000034			Chest		48.5			17	Heat-Stimulation			1
17	2743	2024_Feb_16_2323	f	3	r	MS MRS	129.0933694000123	8.999731780029833			Chest					8	Post-Trial Jitter			1
18	2743	2024_Feb_16_2323	f	3	r	MS MRS	138.12442930001998	5.004401509999298			Chest					20	PainBinary	1.583698300004471	1.0	1
19	2743	2024_Feb_16_2323	f	3	r	MS MRS	143.15830199999618	5.003385910036741			Chest					21	IntensityRating	1.6838126999791712	46.666666666666664	1
20	2743	2024_Feb_16_2323	f	3	r	MS MRS	148.1846258000005	5.000825039984193			Chest					52	AcceptBinary	1.4504064999928232	-1.0	1
21	2743	2024_Feb_16_2323	f	3	r	MS MRS	153.20598270001938	5.008239240007242			Chest					9	Post-Q-Jitter			1
22	2743	2024_Feb_16_2323	f	3	r	MS MRS	158.3993839000177	5.004860439978074			Chest					7	Pre-Trial Jitter			1
23	2743	2024_Feb_16_2323	f	3	r	MS MRS	163.4678271000157	13.001453280012356			Chest		48.5			17	Heat-Stimulation			1
24	2743	2024_Feb_16_2323	f	3	r	MS MRS	176.52634110001964	7.001333980006166			Chest					8	Post-Trial Jitter			1
25	2743	2024_Feb_16_2323	f	3	r	MS MRS	183.5592848000233	5.0022518100449815			Chest					20	PainBinary	1.3504697000025772	1.0	1
26	2743	2024_Feb_16_2323	f	3	r	MS MRS	188.5916411000071	5.004311910015531			Chest					21	IntensityRating	2.167436899995664	48.27160493827161	1
27	2743	2024_Feb_16_2323	f	3	r	MS MRS	193.6190981999971	5.016178710036911			Chest					52	AcceptBinary	3.000246200012043	-1.0	1
28	2743	2024_Feb_16_2323	f	3	r	MS MRS	198.63890560000436	5.009970140003134			Chest					9	Post-Q-Jitter			1
29	2743	2024_Feb_16_2323	f	3	r	MS MRS	203.84450310000102	6.998958109965315			Chest					7	Pre-Trial Jitter			1
30	2743	2024_Feb_16_2323	f	3	r	MS MRS	210.8829672000138	13.005550510017201			Chest		48.5			17	Heat-Stimulation			1
31	2743	2024_Feb_16_2323	f	3	r	MS MRS	223.9463023999997	6.995748080022167			Chest					8	Post-Trial Jitter			1
32	2743	2024_Feb_16_2323	f	3	r	MS MRS	230.97689089999767	5.001384910021443			Chest					20	PainBinary	1.533800200006226	1.0	1
33	2743	2024_Feb_16_2323	f	3	r	MS MRS	236.0089496000146	5.004034509998746			Chest					21	IntensityRating	2.533849999977974	50.4320987654321	1
34	2743	2024_Feb_16_2323	f	3	r	MS MRS	241.0362139000208	5.016294110013405			Chest					52	AcceptBinary	2.2837911999959033	-1.0	1
35	2743	2024_Feb_16_2323	f	3	r	MS MRS	246.05499140001484	7.012183239974547			Chest					9	Post-Q-Jitter			1
36	2743	2024_Feb_16_2323	f	3	r	MS MRS	253.2527355000202	7.000220839981921			Chest					7	Pre-Trial Jitter			1
37	2743	2024_Feb_16_2323	f	3	r	MS MRS	260.3027670000156	13.00036101002479			Chest		48.5			17	Heat-Stimulation			1
38	2743	2024_Feb_16_2323	f	3	r	MS MRS	273.3621785000141	4.99839158001123			Chest					8	Post-Trial Jitter			1
39	2743	2024_Feb_16_2323	f	3	r	MS MRS	278.3932427999971	5.003048509999644			Chest					20	PainBinary	1.183835799980443	1.0	1
40	2743	2024_Feb_16_2323	f	3	r	MS MRS	283.42609860000084	5.004131610010518			Chest					21	IntensityRating	2.186281600006623	44.382716049382715	1
41	2743	2024_Feb_16_2323	f	3	r	MS MRS	288.4535736000107	5.015971410030033			Chest					52	AcceptBinary	0.8338817999756429	1.0	1
42	2743	2024_Feb_16_2323	f	3	r	MS MRS	293.4734290000051	9.009711839986267			Chest					9	Post-Q-Jitter			1
43	2743	2024_Feb_16_2323	f	3	r	MS MRS	302.63929610000923	9.011546869995072			Chest					7	Pre-Trial Jitter			1
44	2743	2024_Feb_16_2323	f	3	r	MS MRS	311.68475690000923	13.004188510007225			Chest		48.5			17	Heat-Stimulation			1
45	2743	2024_Feb_16_2323	f	3	r	MS MRS	324.74595929999487	8.998679279990029			Chest					8	Post-Trial Jitter			1
46	2743	2024_Feb_16_2323	f	3	r	MS MRS	333.7778602000035	5.001702609966742			Chest					20	PainBinary	1.2337858999962918	1.0	1
47	2743	2024_Feb_16_2323	f	3	r	MS MRS	338.80976980002015	5.004661910003051			Chest					21	IntensityRating	2.250432999979239	49.5679012345679	1
48	2743	2024_Feb_16_2323	f	3	r	MS MRS	343.837772400002	5.015460510010598			Chest					52	AcceptBinary	0.6671429999987595	1.0	1
49	2743	2024_Feb_16_2323	f	3	r	MS MRS	348.85763000001316	9.00920503999805			Chest					9	Post-Q-Jitter			1
50	2743	2024_Feb_16_2323	f	3	r	MS MRS	358.04782780000824	4.995601539994823			Chest					7	Pre-Trial Jitter			1
51	2743	2024_Feb_16_2323	f	3	r	MS MRS	363.0841396000178	13.006528209982207			Chest		48.5			17	Heat-Stimulation			1
52	2743	2024_Feb_16_2323	f	3	r	MS MRS	376.1459717999969	4.999717180005973			Chest					8	Post-Trial Jitter			1
53	2743	2024_Feb_16_2323	f	3	r	MS MRS	381.1781180000107	5.002232610015199			Chest					20	PainBinary	0.8673227999825031	1.0	1
54	2743	2024_Feb_16_2323	f	3	r	MS MRS	386.2103677999985	5.004507509991527			Chest					21	IntensityRating	1.8004417000047397	48.58024691358025	1
55	2743	2024_Feb_16_2323	f	3	r	MS MRS	391.2373462000105	5.000662139966153			Chest					52	AcceptBinary	1.8171767000167165	1.0	1
56	2743	2024_Feb_16_2323	f	3	r	MS MRS	396.2575008000131	5.01042223998229			Chest					9	Post-Q-Jitter			1
57	2743	2024_Feb_16_2323	f	3	r	MS MRS	402.06663980000303	9.009069829975488			Chest					7	Pre-Trial Jitter			1
58	2743	2024_Feb_16_2323	f	3	r	MS MRS	411.12480630000937	13.009584779967554			Chest		48.5			17	Heat-Stimulation			1
59	2743	2024_Feb_16_2323	f	3	r	MS MRS	424.17955850000726	9.00030358004733			Chest					8	Post-Trial Jitter			1
60	2743	2024_Feb_16_2323	f	3	r	MS MRS	433.211042800016	5.0041009100095835			Chest					20	PainBinary	1.1197905000008177	1.0	1
61	2743	2024_Feb_16_2323	f	3	r	MS MRS	438.2443841000204	5.00420741000562			Chest					21	IntensityRating	1.7837896999844816	50.0	1
62	2743	2024_Feb_16_2323	f	3	r	MS MRS	443.27217510002083	5.015439510025317			Chest					52	AcceptBinary	1.2004131999856327	-1.0	1
63	2743	2024_Feb_16_2323	f	3	r	MS MRS	448.2910804999992	5.011057539988542			Chest					9	Post-Q-Jitter			1
64	2743	2024_Feb_16_2323	f	3	r	MS MRS	453.4856192000152	5.0054645399795845			Chest					7	Pre-Trial Jitter			1
65	2743	2024_Feb_16_2323	f	3	r	MS MRS	458.53061420001904	12.998992009990616			Chest		48.5			17	Heat-Stimulation			1
66	2743	2024_Feb_16_2323	f	3	r	MS MRS	471.57883040001616	5.002649579982972			Chest					8	Post-Trial Jitter			1
67	2743	2024_Feb_16_2323	f	3	r	MS MRS	476.6118325999996	5.003409109980566			Chest					20	PainBinary	1.6671215000096709	1.0	1
68	2743	2024_Feb_16_2323	f	3	r	MS MRS	481.6449902000022	5.003959610010497			Chest					21	IntensityRating	1.9704902999801561	56.41975308641975	1
69	2743	2024_Feb_16_2323	f	3	r	MS MRS	486.6721308999986	5.01648131001275			Chest					52	AcceptBinary	0.8501628000230994	-1.0	1
70	2743	2024_Feb_16_2323	f	3	r	MS MRS	491.69216940001934	9.009896939969622			Chest					9	Post-Q-Jitter			1
71	2743	2024_Feb_16_2323	f	3	r	MS MRS	500.8796695000201	9.001774139993358			Chest					7	Pre-Trial Jitter			1
72	2743	2024_Feb_16_2323	f	3	r	MS MRS	509.92316460001166	13.015003680047812			Chest		48.5			17	Heat-Stimulation			1
73	2743	2024_Feb_16_2323	f	3	r	MS MRS	522.9801563000074	9.001251380017493			Chest					8	Post-Trial Jitter			1
74	2743	2024_Feb_16_2323	f	3	r	MS MRS	532.0140179000155	5.00038290998782			Chest					20	PainBinary	2.4837905000022147	1.0	1
75	2743	2024_Feb_16_2323	f	3	r	MS MRS	537.0453474000096	5.004482710006414			Chest					21	IntensityRating	3.1338528000051156	58.45679012345679	1
76	2743	2024_Feb_16_2323	f	3	r	MS MRS	542.0726693000179	5.016584909986705			Chest					52	AcceptBinary	1.6172399000206497	-1.0	1
77	2743	2024_Feb_16_2323	f	3	r	MS MRS	547.091872799996	9.011644239973975			Chest					9	Post-Q-Jitter			1
78	2743	2024_Feb_16_2323	f	3	r	MS MRS	556.3026989000209	5.006895010010339			Chest					7	Pre-Trial Jitter			1
79	2743	2024_Feb_16_2323	f	3	r	MS MRS	561.3637053999992	13.001721880020341			Chest		48.5			17	Heat-Stimulation			1
80	2743	2024_Feb_16_2323	f	3	r	MS MRS	574.415524800017	4.998242480010958			Chest					8	Post-Trial Jitter			1
81	2743	2024_Feb_16_2323	f	3	r	MS MRS	579.4472043999995	5.0017125100130215			Chest					20	PainBinary	1.2004398000135552	1.0	1
82	2743	2024_Feb_16_2323	f	3	r	MS MRS	584.4794385000132	5.00399901001947			Chest					21	IntensityRating	1.1504230999853462	50.0	1
83	2743	2024_Feb_16_2323	f	3	r	MS MRS	589.5061088000075	5.00073803999112			Chest					52	AcceptBinary	2.2337880000122823	-1.0	1
84	2743	2024_Feb_16_2323	f	3	r	MS MRS	594.5261422000185	5.010792239976581			Chest					9	Post-Q-Jitter			1
85	2743	2024_Feb_16_2323	f	3	r	MS MRS	599.7205413000192	9.005497539998032			Chest					7	Pre-Trial Jitter			1
86	2743	2024_Feb_16_2323	f	3	r	MS MRS	608.7689801000233	13.008837709989166			Chest		48.5			17	Heat-Stimulation			1
87	2743	2024_Feb_16_2323	f	3	r	MS MRS	621.8329299000034	6.99781968005118			Chest					8	Post-Trial Jitter			1
88	2743	2024_Feb_16_2323	f	3	r	MS MRS	628.8646669000154	5.001182010018965			Chest					20	PainBinary	1.6338385000126436	1.0	1
89	2743	2024_Feb_16_2323	f	3	r	MS MRS	633.896431000001	5.004393709998112			Chest					21	IntensityRating	1.9667990000161808	62.71604938271606	1
90	2743	2024_Feb_16_2323	f	3	r	MS MRS	638.9241904000228	5.015658810007153			Chest					52	AcceptBinary	1.2004028999945149	-1.0	1
91	2743	2024_Feb_16_2323	f	3	r	MS MRS	643.9434461000201	7.0106045399734285			Chest					9	Post-Q-Jitter			1
92	2743	2024_Feb_16_2323	f	3	r	MS MRS	651.1545668000181	7.0051999099960085			Chest					7	Pre-Trial Jitter			1
93	2743	2024_Feb_16_2323	f	3	r	MS MRS	658.2252146000101	13.014089950011112			Chest		48.5			17	Heat-Stimulation			1
94	2743	2024_Feb_16_2323	f	3	r	MS MRS	671.2822494000138	9.000310180010274			Chest					8	Post-Trial Jitter			1
95	2743	2024_Feb_16_2323	f	3	r	MS MRS	680.3154641000147	5.000701810000464			Chest					20	PainBinary	2.0670467000163626	1.0	1
96	2743	2024_Feb_16_2323	f	3	r	MS MRS	685.3464706000232	5.005426610005088			Chest					21	IntensityRating	2.850050699984422	67.22222222222221	1
97	2743	2024_Feb_16_2323	f	3	r	MS MRS	690.3735122000217	5.001444639987312			Chest					52	AcceptBinary	1.2504214000073262	-1.0	1
98	2743	2024_Feb_16_2323	f	3	r	MS MRS	695.3940626000112	7.0104796400119085			Chest					9	Post-Q-Jitter			1
99	2743	2024_Feb_16_2323	f	3	r	MS MRS	702.6112565000076	5.009558380028466			Chest					7	Pre-Trial Jitter			1
100	2743	2024_Feb_16_2323	f	3	r	MS MRS	707.6435416000022	13.011834309989354			Chest		48.5			17	Heat-Stimulation			1
101	2743	2024_Feb_16_2323	f	3	r	MS MRS	720.6982057999994	7.002739379997365			Chest					8	Post-Trial Jitter			1
102	2743	2024_Feb_16_2323	f	3	r	MS MRS	727.7314478000044	5.003059309994569			Chest					20	PainBinary	2.503704300004756	1.0	1
103	2743	2024_Feb_16_2323	f	3	r	MS MRS	732.7645229000191	5.003733010031283			Chest					21	IntensityRating	1.920191999990493	69.62962962962963	1
104	2743	2024_Feb_16_2323	f	3	r	MS MRS	737.7912250000227	5.000418840005295			Chest					52	AcceptBinary	2.287035499990452	1.0	1
105	2743	2024_Feb_16_2323	f	3	r	MS MRS	742.811768900021	7.0093861400091555			Chest					9	Post-Q-Jitter			1
106	2743	2024_Feb_16_2323	f	3	r	MS MRS	750.0005458999949	6.998685239959741			Chest					7	Pre-Trial Jitter			1
107	2743	2024_Feb_16_2323	f	3	r	MS MRS	757.0420124000229	13.015956679999363			Chest		48.5			17	Heat-Stimulation			1
108	2743	2024_Feb_16_2323	f	3	r	MS MRS	770.0993748000183	5.0014242800243665			Chest					8	Post-Trial Jitter			1
109	2743	2024_Feb_16_2323	f	3	r	MS MRS	775.1322865000111	5.002375310024945			Chest					20	PainBinary	2.319792599999346	1.0	1
110	2743	2024_Feb_16_2323	f	3	r	MS MRS	780.1651255000033	5.003743909997866			Chest					21	IntensityRating	3.1338670999975875	73.39506172839506	1
111	2743	2024_Feb_16_2323	f	3	r	MS MRS	785.1919358000159	5.000242940004682			Chest					52	AcceptBinary	1.5667309999989811	-1.0	1
112	2743	2024_Feb_16_2323	f	3	r	MS MRS	790.2119868000154	5.009959240007447			Chest					9	Post-Q-Jitter			1
113	2743	2024_Feb_16_2323	f	3	r	MS MRS	795.2614133000025	4.294739479984855			Chest					26	ComfortRating	4.267169300001115	-24.444444444444443	1
114	2743	2024_Feb_16_2323	f	3	r	MS MRS	799.5915288999968	3.76795031002257			Chest					24	ValenceRating	3.737086500012083	94.5679012345679	1
115	2743	2024_Feb_16_2323	f	3	r	MS MRS	803.3969276999997	3.29057831002865			Chest					26	IntensityRating	3.2671568999940064	95.37037037037037	1
116	2743	2024_Feb_16_2323	f	3	r	MS MRS	806.7180111000198	3.89846781003871			Chest					27	AvoidanceRating	3.866783100005705	7.7777777777777715	1
117	2743	2024_Feb_16_2323	f	3	r	MS MRS	810.6442074000079	3.212878410005942			Chest					28	RelaxationRating	3.1838710999873	40.80246913580247	1
118	2743	2024_Feb_16_2323	f	3	r	MS MRS	813.8857087000215	5.513212609977927			Chest					29	AttentionRating	5.483541399997193	17.40740740740741	1
119	2743	2024_Feb_16_2323	f	3	r	MS MRS	819.4282838000217	3.444811210007174			Chest					30	BoredomRating	3.403560699982336	18.765432098765434	1
120	2743	2024_Feb_16_2323	f	3	r	MS MRS	822.8982055000088	3.2716154100198764			Chest					31	AlertnessRating	3.2368147999804933	11.481481481481495	1
121	2743	2024_Feb_16_2323	f	3	r	MS MRS	826.1989418000157	2.7368922100286			Chest					32	PosThxRating	2.7040991999965627	-43.333333333333336	1
122	2743	2024_Feb_16_2323	f	3	r	MS MRS	828.9654293000058	2.0874098099884577			Chest					33	NegThxRating	2.0667724999948405	37.03703703703701	1
123	2743	2024_Feb_16_2323	f	3	r	MS MRS	831.0812105000077	2.7558809100009967			Chest					34	SelfRating	2.7338190999871586	0.0	1
124	2743	2024_Feb_16_2323	f	3	r	MS MRS	833.8675078000233	1.6166828099812847			Chest					35	OtherRating	1.6005786999885458	-0.24691358024692533	1
125	2743	2024_Feb_16_2323	f	3	r	MS MRS	835.5201470000029	5.828149110020604			Chest					32	ImageryRating	5.800093700003345	-62.345679012345684	1
126	2743	2024_Feb_16_2323	f	3	r	MS MRS	841.387092799996	1.7276772100303788			Chest					37	PresentRating	1.6863999999768566	78.27160493827162	1
