	SID	date	sex	session	handedness	scanner	onset	duration	repetition	rating	body_site	keys	temperature	conditionrt	mouseclick	biopac_channel	condition	rt	value	skin_site
0	2743	2024_Feb_17_0005	f	3	r	MS MRS	2.799614899995504	5.006402100611012			Chest					41	Regulation Instruction			1
1	2743	2024_Feb_17_0005	f	3	r	MS MRS	8.728280599985737	7.013254350051284			Chest					7	Pre-Trial Jitter			1
2	2743	2024_Feb_17_0005	f	3	r	MS MRS	15.7737502999953	13.005868650012417			Chest		48.5			17	Heat-Stimulation			1
3	2743	2024_Feb_17_0005	f	3	r	MS MRS	28.836009299993748	8.998283500026446			Chest					8	Post-Trial Jitter			1
4	2743	2024_Feb_17_0005	f	3	r	MS MRS	37.869826099980855	5.014024150004843			Chest					20	PainBinary	1.1001764999818988	1.0	1
5	2743	2024_Feb_17_0005	f	3	r	MS MRS	42.91830530000152	5.000489650003146			Chest					21	IntensityRating	2.5505873000074644	54.99999999999999	1
6	2743	2024_Feb_17_0005	f	3	r	MS MRS	47.95142989998567	5.001062750030542			Chest					52	AcceptBinary	0.7365431000071112	1.0	1
7	2743	2024_Feb_17_0005	f	3	r	MS MRS	52.96422359999269	5.0089405000035185			Chest					9	Post-Q-Jitter			1
8	2743	2024_Feb_17_0005	f	3	r	MS MRS	58.29532309999922	5.013566150009865			Chest					7	Pre-Trial Jitter			1
9	2743	2024_Feb_17_0005	f	3	r	MS MRS	63.34554949999438	13.013244000001578			Chest		48.5			17	Heat-Stimulation			1
10	2743	2024_Feb_17_0005	f	3	r	MS MRS	76.40368920000037	8.997206700005336			Chest					8	Post-Trial Jitter			1
11	2743	2024_Feb_17_0005	f	3	r	MS MRS	85.43464199997834	5.002172449982027			Chest					20	PainBinary	1.9533538999967277	1.0	1
12	2743	2024_Feb_17_0005	f	3	r	MS MRS	90.46829789999174	5.001619549992029			Chest					21	IntensityRating	1.883804200013401	59.75308641975309	1
13	2743	2024_Feb_17_0005	f	3	r	MS MRS	95.50844799997867	5.004723249992821			Chest					52	AcceptBinary	0.8200862999947276	1.0	1
14	2743	2024_Feb_17_0005	f	3	r	MS MRS	100.53064139999333	7.010464899998624			Chest					9	Post-Q-Jitter			1
15	2743	2024_Feb_17_0005	f	3	r	MS MRS	107.86264819998178	5.013341049983865			Chest					7	Pre-Trial Jitter			1
16	2743	2024_Feb_17_0005	f	3	r	MS MRS	112.91055639999104	13.000975050003035			Chest		48.5			17	Heat-Stimulation			1
17	2743	2024_Feb_17_0005	f	3	r	MS MRS	125.9685644999845	9.001880100055132			Chest					8	Post-Trial Jitter			1
18	2743	2024_Feb_17_0005	f	3	r	MS MRS	135.0042138999852	4.997313649975695			Chest					20	PainBinary	1.76716060002218	1.0	1
19	2743	2024_Feb_17_0005	f	3	r	MS MRS	140.03361689997837	5.005274850002024			Chest					21	IntensityRating	2.537279699987266	64.93827160493827	1
20	2743	2024_Feb_17_0005	f	3	r	MS MRS	145.0615562000021	5.016265249985736			Chest					52	AcceptBinary	0.8000095000024885	-1.0	1
21	2743	2024_Feb_17_0005	f	3	r	MS MRS	150.08089990000008	5.011036199983209			Chest					9	Post-Q-Jitter			1
22	2743	2024_Feb_17_0005	f	3	r	MS MRS	155.40074979999918	5.0048680000181776			Chest					7	Pre-Trial Jitter			1
23	2743	2024_Feb_17_0005	f	3	r	MS MRS	160.45706289997906	13.009018200013088			Chest		48.5			17	Heat-Stimulation			1
24	2743	2024_Feb_17_0005	f	3	r	MS MRS	173.5206719999842	6.998708900035126			Chest					8	Post-Trial Jitter			1
25	2743	2024_Feb_17_0005	f	3	r	MS MRS	180.5516435999889	5.003525050007738			Chest					20	PainBinary	1.2337851999909617	1.0	1
26	2743	2024_Feb_17_0005	f	3	r	MS MRS	185.5839030999923	5.005786549998447			Chest					21	IntensityRating	2.6004362999810837	63.641975308641975	1
27	2743	2024_Feb_17_0005	f	3	r	MS MRS	190.61216259998037	5.016038050001953			Chest					52	AcceptBinary	1.4670960000075866	-1.0	1
28	2743	2024_Feb_17_0005	f	3	r	MS MRS	195.63123509997968	9.011350899992976			Chest					9	Post-Q-Jitter			1
29	2743	2024_Feb_17_0005	f	3	r	MS MRS	204.9859353999782	7.00222720002057			Chest					7	Pre-Trial Jitter			1
30	2743	2024_Feb_17_0005	f	3	r	MS MRS	212.0326990999747	13.008823000011034			Chest		48.5			17	Heat-Stimulation			1
31	2743	2024_Feb_17_0005	f	3	r	MS MRS	225.08802299998933	8.998396000039065			Chest					8	Post-Trial Jitter			1
32	2743	2024_Feb_17_0005	f	3	r	MS MRS	234.11850969999796	5.004282050009351			Chest					20	PainBinary	1.450417700019898	1.0	1
33	2743	2024_Feb_17_0005	f	3	r	MS MRS	239.1521959999809	5.003694649989484			Chest					21	IntensityRating	2.7170967000129167	64.44444444444444	1
34	2743	2024_Feb_17_0005	f	3	r	MS MRS	244.1789366999874	5.00031560001662			Chest					52	AcceptBinary	2.2528349999920465	1.0	1
35	2743	2024_Feb_17_0005	f	3	r	MS MRS	249.19863179998356	5.011055100039812			Chest					9	Post-Q-Jitter			1
36	2743	2024_Feb_17_0005	f	3	r	MS MRS	254.51706019998528	5.007678400026634			Chest					7	Pre-Trial Jitter			1
37	2743	2024_Feb_17_0005	f	3	r	MS MRS	259.5495266999933	13.009504649991868			Chest		48.5			17	Heat-Stimulation			1
38	2743	2024_Feb_17_0005	f	3	r	MS MRS	272.60494929997367	6.998826099996222			Chest					8	Post-Trial Jitter			1
39	2743	2024_Feb_17_0005	f	3	r	MS MRS	279.63711289997445	5.00128314999165			Chest					20	PainBinary	0.9004339999810327	1.0	1
40	2743	2024_Feb_17_0005	f	3	r	MS MRS	284.6687563000014	5.0049154500011355			Chest					21	IntensityRating	1.7503974999999627	68.14814814814815	1
41	2743	2024_Feb_17_0005	f	3	r	MS MRS	289.697420099983	5.014339849964017			Chest					52	AcceptBinary	0.8338740000035614	-1.0	1
42	2743	2024_Feb_17_0005	f	3	r	MS MRS	294.7164407999953	5.009713000035845			Chest					9	Post-Q-Jitter			1
43	2743	2024_Feb_17_0005	f	3	r	MS MRS	300.0590275999857	7.008055249985773			Chest					7	Pre-Trial Jitter			1
44	2743	2024_Feb_17_0005	f	3	r	MS MRS	307.0914993999759	13.009923799982062			Chest		48.5			17	Heat-Stimulation			1
45	2743	2024_Feb_17_0005	f	3	r	MS MRS	320.15463229999295	5.000547500007087			Chest					8	Post-Trial Jitter			1
46	2743	2024_Feb_17_0005	f	3	r	MS MRS	325.18643259999226	5.003697950014612			Chest					20	PainBinary	1.2837772000057157	1.0	1
47	2743	2024_Feb_17_0005	f	3	r	MS MRS	330.219634899986	5.0040857499989215			Chest					21	IntensityRating	3.5004679999838118	60.74074074074074	1
48	2743	2024_Feb_17_0005	f	3	r	MS MRS	335.2466960999882	5.000082300044596			Chest					52	AcceptBinary	1.0667408000153955	1.0	1
49	2743	2024_Feb_17_0005	f	3	r	MS MRS	340.2664433999744	5.010666199988918			Chest					9	Post-Q-Jitter			1
50	2743	2024_Feb_17_0005	f	3	r	MS MRS	345.62167289998615	9.000441400014097			Chest					7	Pre-Trial Jitter			1
51	2743	2024_Feb_17_0005	f	3	r	MS MRS	354.66940759998397	13.00506660004612			Chest		48.5			17	Heat-Stimulation			1
52	2743	2024_Feb_17_0005	f	3	r	MS MRS	367.7207830999978	9.002547700016294			Chest					8	Post-Trial Jitter			1
53	2743	2024_Feb_17_0005	f	3	r	MS MRS	376.7558839999838	4.999213850009255			Chest					20	PainBinary	2.6504382000130136	1.0	1
54	2743	2024_Feb_17_0005	f	3	r	MS MRS	381.786580999993	5.0045974499953445			Chest					21	IntensityRating	3.2505222000181675	50.55555555555556	1
55	2743	2024_Feb_17_0005	f	3	r	MS MRS	386.81264599997667	5.00257139999303			Chest					52	AcceptBinary	0.883704999985639	1.0	1
56	2743	2024_Feb_17_0005	f	3	r	MS MRS	391.8333848999755	5.011218200001167			Chest					9	Post-Q-Jitter			1
57	2743	2024_Feb_17_0005	f	3	r	MS MRS	397.14919909997843	5.013107200007653			Chest					7	Pre-Trial Jitter			1
58	2743	2024_Feb_17_0005	f	3	r	MS MRS	402.1834392999881	13.011436850036262			Chest		48.5			17	Heat-Stimulation			1
59	2743	2024_Feb_17_0005	f	3	r	MS MRS	415.2385796000017	7.001375199994072			Chest					8	Post-Trial Jitter			1
60	2743	2024_Feb_17_0005	f	3	r	MS MRS	422.27132770000026	5.00266675002058			Chest					20	PainBinary	2.3005419000110123	1.0	1
61	2743	2024_Feb_17_0005	f	3	r	MS MRS	427.3035317999893	5.005058649985585			Chest					21	IntensityRating	1.733520799985854	60.98765432098765	1
62	2743	2024_Feb_17_0005	f	3	r	MS MRS	432.3326019999804	5.013678449962754			Chest					52	AcceptBinary	0.6504114999843296	-1.0	1
63	2743	2024_Feb_17_0005	f	3	r	MS MRS	437.3506830999977	9.0109686999931			Chest					9	Post-Q-Jitter			1
64	2743	2024_Feb_17_0005	f	3	r	MS MRS	446.65307349999784	7.006418050033972			Chest					7	Pre-Trial Jitter			1
65	2743	2024_Feb_17_0005	f	3	r	MS MRS	453.7078063999943	12.997140900028171			Chest		48.5			17	Heat-Stimulation			1
66	2743	2024_Feb_17_0005	f	3	r	MS MRS	466.7552587999962	7.002445000020089			Chest					8	Post-Trial Jitter			1
67	2743	2024_Feb_17_0005	f	3	r	MS MRS	473.7892769999744	5.001185250002891			Chest					20	PainBinary	1.4008379000006244	1.0	1
68	2743	2024_Feb_17_0005	f	3	r	MS MRS	478.8210803999973	5.004346850008005			Chest					21	IntensityRating	2.833771899982821	48.888888888888886	1
69	2743	2024_Feb_17_0005	f	3	r	MS MRS	483.84698389997357	5.002653900010046			Chest					52	AcceptBinary	0.6502939000201877	1.0	1
70	2743	2024_Feb_17_0005	f	3	r	MS MRS	488.86846629998763	5.009799000021303			Chest					9	Post-Q-Jitter			1
71	2743	2024_Feb_17_0005	f	3	r	MS MRS	494.2666057999886	7.013747150020208			Chest					7	Pre-Trial Jitter			1
72	2743	2024_Feb_17_0005	f	3	r	MS MRS	501.3155149999948	13.016051500017056			Chest		48.5			17	Heat-Stimulation			1
73	2743	2024_Feb_17_0005	f	3	r	MS MRS	514.3741897	6.998915800009854			Chest					8	Post-Trial Jitter			1
74	2743	2024_Feb_17_0005	f	3	r	MS MRS	521.4054350999941	5.003258749988163			Chest					20	PainBinary	1.3338764999934938	1.0	1
75	2743	2024_Feb_17_0005	f	3	r	MS MRS	526.4376645000011	5.0055750500177965			Chest					21	IntensityRating	3.11673380000866	47.8395061728395	1
76	2743	2024_Feb_17_0005	f	3	r	MS MRS	531.4665329999989	5.014583849988412			Chest					52	AcceptBinary	1.7004807999765035	1.0	1
77	2743	2024_Feb_17_0005	f	3	r	MS MRS	536.4847537000023	5.011590000009164			Chest					9	Post-Q-Jitter			1
78	2743	2024_Feb_17_0005	f	3	r	MS MRS	541.8518476999889	7.0109583500016015			Chest					7	Pre-Trial Jitter			1
79	2743	2024_Feb_17_0005	f	3	r	MS MRS	548.8818183999974	13.001109200005885			Chest		48.5			17	Heat-Stimulation			1
80	2743	2024_Feb_17_0005	f	3	r	MS MRS	561.9417556999833	8.99816890002694			Chest					8	Post-Trial Jitter			1
81	2743	2024_Feb_17_0005	f	3	r	MS MRS	570.9731489999976	5.002224950003438			Chest					20	PainBinary	1.0836807000159752	1.0	1
82	2743	2024_Feb_17_0005	f	3	r	MS MRS	576.0049730999744	5.005329250008799			Chest					21	IntensityRating	2.8339665999810677	60.0	1
83	2743	2024_Feb_17_0005	f	3	r	MS MRS	581.0330919999979	5.015867649985012			Chest					52	AcceptBinary	0.7666992000013124	-1.0	1
84	2743	2024_Feb_17_0005	f	3	r	MS MRS	586.0519743999757	9.011585299973376			Chest					9	Post-Q-Jitter			1
85	2743	2024_Feb_17_0005	f	3	r	MS MRS	595.4226452999865	5.003815250005573			Chest					7	Pre-Trial Jitter			1
86	2743	2024_Feb_17_0005	f	3	r	MS MRS	600.4668653999979	13.015490799996769			Chest		48.5			17	Heat-Stimulation			1
87	2743	2024_Feb_17_0005	f	3	r	MS MRS	613.5233042999753	5.002805599971907			Chest					8	Post-Trial Jitter			1
88	2743	2024_Feb_17_0005	f	3	r	MS MRS	618.5566067999753	5.002967849984998			Chest					20	PainBinary	1.1505016000010073	1.0	1
89	2743	2024_Feb_17_0005	f	3	r	MS MRS	623.5891480999999	5.004653349984437			Chest					21	IntensityRating	2.133471900015138	49.75308641975309	1
90	2743	2024_Feb_17_0005	f	3	r	MS MRS	628.6155788999749	5.0019210999889765			Chest					52	AcceptBinary	1.767133899993496	1.0	1
91	2743	2024_Feb_17_0005	f	3	r	MS MRS	633.6363684999815	9.010468199994648			Chest					9	Post-Q-Jitter			1
92	2743	2024_Feb_17_0005	f	3	r	MS MRS	643.0115308999957	9.010324550035875			Chest					7	Pre-Trial Jitter			1
93	2743	2024_Feb_17_0005	f	3	r	MS MRS	652.070632899995	13.008932600001572			Chest		48.5			17	Heat-Stimulation			1
94	2743	2024_Feb_17_0005	f	3	r	MS MRS	665.1253636999754	6.999790400004713			Chest					8	Post-Trial Jitter			1
95	2743	2024_Feb_17_0005	f	3	r	MS MRS	672.1593684999971	4.998603650019504			Chest					20	PainBinary	1.0671347999887075	1.0	1
96	2743	2024_Feb_17_0005	f	3	r	MS MRS	677.1910015999747	5.002082150022034			Chest					21	IntensityRating	2.000541399989743	57.654320987654316	1
97	2743	2024_Feb_17_0005	f	3	r	MS MRS	682.217471299984	5.015933450020384			Chest					52	AcceptBinary	0.8171053999976721	1.0	1
98	2743	2024_Feb_17_0005	f	3	r	MS MRS	687.2366772999812	9.010976400022628			Chest					9	Post-Q-Jitter			1
99	2743	2024_Feb_17_0005	f	3	r	MS MRS	696.6002651999879	7.000736700050766			Chest					7	Pre-Trial Jitter			1
100	2743	2024_Feb_17_0005	f	3	r	MS MRS	703.6547779999964	13.008542900031898			Chest		48.5			17	Heat-Stimulation			1
101	2743	2024_Feb_17_0005	f	3	r	MS MRS	716.7088843999954	7.000543100002687			Chest					8	Post-Trial Jitter			1
102	2743	2024_Feb_17_0005	f	3	r	MS MRS	723.7420195000013	5.001134350022767			Chest					20	PainBinary	1.0671646999835502	1.0	1
103	2743	2024_Feb_17_0005	f	3	r	MS MRS	728.7736671000021	5.00460524999653			Chest					21	IntensityRating	1.5533544000063557	58.20987654320987	1
104	2743	2024_Feb_17_0005	f	3	r	MS MRS	733.8007784999791	5.00038919999497			Chest					52	AcceptBinary	2.120121799991466	1.0	1
105	2743	2024_Feb_17_0005	f	3	r	MS MRS	738.820392900001	7.011286500026472			Chest					9	Post-Q-Jitter			1
106	2743	2024_Feb_17_0005	f	3	r	MS MRS	746.1664693999919	7.002707450039452			Chest					7	Pre-Trial Jitter			1
107	2743	2024_Feb_17_0005	f	3	r	MS MRS	753.2246946999803	13.003095600026427			Chest		48.5			17	Heat-Stimulation			1
108	2743	2024_Feb_17_0005	f	3	r	MS MRS	766.2767975000024	6.999093099992024			Chest					8	Post-Trial Jitter			1
109	2743	2024_Feb_17_0005	f	3	r	MS MRS	773.3088309000013	5.001845549995778			Chest					20	PainBinary	1.4670737000124063	1.0	1
110	2743	2024_Feb_17_0005	f	3	r	MS MRS	778.3411962999962	5.003859750024276			Chest					21	IntensityRating	3.150462099991273	52.345679012345684	1
111	2743	2024_Feb_17_0005	f	3	r	MS MRS	783.3686185999832	5.0157894500298426			Chest					52	AcceptBinary	2.8171040000161156	-1.0	1
112	2743	2024_Feb_17_0005	f	3	r	MS MRS	788.3880781999906	9.010383900022134			Chest					9	Post-Q-Jitter			1
113	2743	2024_Feb_17_0005	f	3	r	MS MRS	797.4370573999768	3.929414000012912			Chest					26	ComfortRating	3.900480999989668	-5.679012345679013	1
114	2743	2024_Feb_17_0005	f	3	r	MS MRS	801.3999174999772	3.337060849997215			Chest					24	ValenceRating	3.3168728000018746	80.0	1
115	2743	2024_Feb_17_0005	f	3	r	MS MRS	804.7722353999852	2.925819850002881			Chest					26	IntensityRating	2.9004621999920346	87.03703703703704	1
116	2743	2024_Feb_17_0005	f	3	r	MS MRS	807.7272004999977	2.69930695000221			Chest					27	AvoidanceRating	2.666763399989577	36.66666666666666	1
117	2743	2024_Feb_17_0005	f	3	r	MS MRS	810.4525525999779	2.881898449966684			Chest					28	RelaxationRating	2.8368421999912243	50.0	1
118	2743	2024_Feb_17_0005	f	3	r	MS MRS	813.3614311999991	6.280879850004567			Chest					29	AttentionRating	6.236919399991166	42.160493827160494	1
119	2743	2024_Feb_17_0005	f	3	r	MS MRS	819.6701364999753	3.5970095500233583			Chest					30	BoredomRating	3.5671435999975074	36.91358024691358	1
120	2743	2024_Feb_17_0005	f	3	r	MS MRS	823.2894277999876	3.2252045500208624			Chest					31	AlertnessRating	3.20051070000045	45.30864197530863	1
121	2743	2024_Feb_17_0005	f	3	r	MS MRS	826.5418936999922	4.236991150013637			Chest					32	PosThxRating	4.217117200023495	-80.12345679012347	1
122	2743	2024_Feb_17_0005	f	3	r	MS MRS	830.8084180000005	3.6373504499788396			Chest					33	NegThxRating	3.603494099981617	54.44444444444443	1
123	2743	2024_Feb_17_0005	f	3	r	MS MRS	834.4743783999875	3.2388422499934677			Chest					34	SelfRating	3.2171282999916	-23.333333333333343	1
124	2743	2024_Feb_17_0005	f	3	r	MS MRS	837.7413431000023	2.104966549988603			Chest					35	OtherRating	2.083779800013872	-47.40740740740741	1
125	2743	2024_Feb_17_0005	f	3	r	MS MRS	839.8784050999966	3.880902150005568			Chest					32	ImageryRating	3.8500998000090476	-34.691358024691354	1
126	2743	2024_Feb_17_0005	f	3	r	MS MRS	843.7975899000012	1.192615250009112			Chest					37	PresentRating	1.166748399991775	67.03703703703704	1
