RestT1,TaskT1,square,location,corrAns,counterbalancer.thisRepN,counterbalancer.thisTrialN,counterbalancer.thisN,counterbalancer.thisIndex,RestT1Loop.thisRepN,RestT1Loop.thisTrialN,RestT1Loop.thisN,RestT1Loop.thisIndex,TaskT1Loop.thisRepN,TaskT1Loop.thisTrialN,TaskT1Loop.thisN,TaskT1Loop.thisIndex,trials_2.thisRepN,trials_2.thisTrialN,trials_2.thisN,trials_2.thisIndex,NbackInstructions.started,NbackInstructions.stopped,NbackStart.keys,NbackStart.rt,NbackStart.started,NbackStart.stopped,fixation_2.started,fixation_2.stopped,grid_lines_2.started,grid_lines_2.stopped,target_square_2.started,target_square_2.stopped,fixation_3.started,fixation_3.stopped,response_2.click,response_2.corr,response_2.rt,response_2.started,response_2.stopped,fixation_1.started,fixation_1.stopped,subject number,gender,session,handedness,scanner,date,expName,psychopyVersion,frameRate,
0,1,,,,0,0,0,0,,,,,0,0,0,0,,,,,17.434329099953175,None,space,49.4732646998018,17.434329099953175,None,,,,,,,,,,,,,,,,4,m,1,l,KB,2021_May_28_1106,WASABI Nback,2020.2.10,59.995056397647254,
0,1,5,"[0, 0]",None,0,0,0,0,,,,,0,0,0,0,0,0,0,0,,,,,,,None,None,None,None,None,None,None,None,[],[],[],None,None,,,4,m,1,l,KB,2021_May_28_1106,WASABI Nback,2020.2.10,59.995056397647254,
0,1,2,"[0, 0.2]",None,0,0,0,0,,,,,0,0,0,0,0,1,1,1,,,,,,,,,None,None,None,None,None,None,[],[],[],None,None,,,4,m,1,l,KB,2021_May_28_1106,WASABI Nback,2020.2.10,59.995056397647254,
0,1,6,"[0.2, 0]",None,0,0,0,0,,,,,0,0,0,0,0,2,2,2,,,,,,,,,None,None,None,None,None,None,[],[],[],None,None,,,4,m,1,l,KB,2021_May_28_1106,WASABI Nback,2020.2.10,59.995056397647254,
0,1,9,"[0.2, -0.2]",None,0,0,0,0,,,,,0,0,0,0,0,3,3,3,,,,,,,,,None,None,None,None,None,None,[],[],[],None,None,,,4,m,1,l,KB,2021_May_28_1106,WASABI Nback,2020.2.10,59.995056397647254,
0,1,3,"[0.2, 0.2]",None,0,0,0,0,,,,,0,0,0,0,0,4,4,4,,,,,,,,,None,None,None,None,None,None,[],[],[],None,None,,,4,m,1,l,KB,2021_May_28_1106,WASABI Nback,2020.2.10,59.995056397647254,
0,1,9,"[0.2, -0.2]",1,0,0,0,0,,,,,0,0,0,0,0,5,5,5,,,,,,,,,None,None,None,None,None,None,[],[],[],None,None,,,4,m,1,l,KB,2021_May_28_1106,WASABI Nback,2020.2.10,59.995056397647254,
0,1,7,"[-0.2, -0.2]",None,0,0,0,0,,,,,0,0,0,0,0,6,6,6,,,,,,,,,None,None,None,None,None,None,[],[],[],None,None,,,4,m,1,l,KB,2021_May_28_1106,WASABI Nback,2020.2.10,59.995056397647254,
0,1,1,"[-0.2, 0.2]",None,0,0,0,0,,,,,0,0,0,0,0,7,7,7,,,,,,,,,None,None,None,None,None,None,[],[],[],None,None,,,4,m,1,l,KB,2021_May_28_1106,WASABI Nback,2020.2.10,59.995056397647254,
0,1,5,"[0, 0]",None,0,0,0,0,,,,,0,0,0,0,0,8,8,8,,,,,,,,,None,None,None,None,None,None,[],[],[],None,None,,,4,m,1,l,KB,2021_May_28_1106,WASABI Nback,2020.2.10,59.995056397647254,
0,1,7,"[-0.2, -0.2]",None,0,0,0,0,,,,,0,0,0,0,0,9,9,9,,,,,,,,,None,None,None,None,None,None,[],[],[],None,None,,,4,m,1,l,KB,2021_May_28_1106,WASABI Nback,2020.2.10,59.995056397647254,
0,1,5,"[0, 0]",1,0,0,0,0,,,,,0,0,0,0,0,10,10,10,,,,,,,,,None,None,None,None,None,None,[],[],[],None,None,,,4,m,1,l,KB,2021_May_28_1106,WASABI Nback,2020.2.10,59.995056397647254,
0,1,6,"[0.2, 0]",None,0,0,0,0,,,,,0,0,0,0,0,11,11,11,,,,,,,,,None,None,None,None,None,None,[],[],[],None,None,,,4,m,1,l,KB,2021_May_28_1106,WASABI Nback,2020.2.10,59.995056397647254,
0,1,3,"[0.2, 0.2]",None,0,0,0,0,,,,,0,0,0,0,0,12,12,12,,,,,,,,,None,None,None,None,None,None,[],[],[],None,None,,,4,m,1,l,KB,2021_May_28_1106,WASABI Nback,2020.2.10,59.995056397647254,
0,1,6,"[0.2, 0]",1,0,0,0,0,,,,,0,0,0,0,0,13,13,13,,,,,,,,,95.03031750000082,None,95.03031750000082,None,None,None,None,0,,95.03031750000082,None,,,4,m,1,l,KB,2021_May_28_1106,WASABI Nback,2020.2.10,59.995056397647254,
0,1,8,"[0, -0.2]",None,0,0,0,0,,,,,0,0,0,0,0,14,14,14,,,,,,,,,95.9469718998298,None,95.9469718998298,96.94698060001247,96.9303233998362,97.9303329999093,None,1,,95.9469718998298,None,,,4,m,1,l,KB,2021_May_28_1106,WASABI Nback,2020.2.10,59.995056397647254,
0,1,9,"[0.2, -0.2]",None,0,0,0,0,,,,,0,0,0,0,0,15,15,15,,,,,,,,,97.94700159993954,None,97.94700159993954,98.94699650001712,98.93024269980378,99.9303355999291,None,1,,97.94700159993954,None,,,4,m,1,l,KB,2021_May_28_1106,WASABI Nback,2020.2.10,59.995056397647254,
0,1,9,"[0.2, -0.2]",None,0,0,0,0,,,,,0,0,0,0,0,16,16,16,,,,,,,,,99.9470140999183,None,99.9470140999183,100.94702730001882,100.93034939980134,101.93035179981962,None,1,,99.9470140999183,None,,,4,m,1,l,KB,2021_May_28_1106,WASABI Nback,2020.2.10,59.995056397647254,
0,1,1,"[-0.2, 0.2]",None,0,0,0,0,,,,,0,0,0,0,0,17,17,17,,,,,,,,,101.94701069989242,None,101.94701069989242,102.94703029980883,102.93036939995363,103.93038999987766,None,1,,101.94701069989242,None,,,4,m,1,l,KB,2021_May_28_1106,WASABI Nback,2020.2.10,59.995056397647254,
0,1,3,"[0.2, 0.2]",None,0,0,0,0,,,,,0,0,0,0,0,18,18,18,,,,,,,,,103.94704589992762,None,103.94704589992762,104.94706049980596,104.93037529988214,105.93040389986709,None,1,,103.94704589992762,None,,,4,m,1,l,KB,2021_May_28_1106,WASABI Nback,2020.2.10,59.995056397647254,
0,1,5,"[0, 0]",None,0,0,0,0,,,,,0,0,0,0,0,19,19,19,,,,,,,,,105.9470619999338,None,105.9470619999338,106.9470756999217,106.93039110000245,107.9304126999341,None,1,,105.9470619999338,None,,,4,m,1,l,KB,2021_May_28_1106,WASABI Nback,2020.2.10,59.995056397647254,
0,1,3,"[0.2, 0.2]",1,0,0,0,0,,,,,0,0,0,0,0,20,20,20,,,,,,,,,107.94708329997957,None,107.94708329997957,108.94708179985173,108.93042079987936,109.93042339989915,None,0,,107.94708329997957,None,,,4,m,1,l,KB,2021_May_28_1106,WASABI Nback,2020.2.10,59.995056397647254,
0,1,4,"[-0.2, 0]",None,0,0,0,0,,,,,0,0,0,0,0,21,21,21,,,,,,,,,109.94708379986696,None,109.94708379986696,110.94709799997509,110.93043059995398,111.93045949982479,None,1,,109.94708379986696,None,,,4,m,1,l,KB,2021_May_28_1106,WASABI Nback,2020.2.10,59.995056397647254,
0,1,7,"[-0.2, -0.2]",None,0,0,0,0,,,,,0,0,0,0,0,22,22,22,,,,,,,,,111.94711079983972,None,111.94711079983972,112.94711770000868,112.93044489994645,113.93047209992073,None,1,,111.94711079983972,None,,,4,m,1,l,KB,2021_May_28_1106,WASABI Nback,2020.2.10,59.995056397647254,
0,1,4,"[-0.2, 0]",1,0,0,0,0,,,,,0,0,0,0,0,23,23,23,,,,,,,,,113.94711830001324,None,113.94711830001324,114.9471353997942,114.93047719984315,115.93047029990703,None,0,,113.94711830001324,None,,,4,m,1,l,KB,2021_May_28_1106,WASABI Nback,2020.2.10,59.995056397647254,
0,1,4,"[-0.2, 0]",None,0,0,0,0,,,,,0,0,0,0,0,24,24,24,,,,,,,,,115.94716589991003,None,115.94716589991003,116.94714639987797,116.93048390001059,117.9304886998143,None,1,,115.94716589991003,None,,,4,m,1,l,KB,2021_May_28_1106,WASABI Nback,2020.2.10,59.995056397647254,
0,1,5,"[0, 0]",None,0,0,0,0,,,,,0,0,0,0,0,25,25,25,,,,,,,,,117.94716269988567,None,117.94716269988567,118.94716269988567,118.93049349985085,119.9305104999803,None,1,,117.94716269988567,None,,,4,m,1,l,KB,2021_May_28_1106,WASABI Nback,2020.2.10,59.995056397647254,
0,1,2,"[0, 0.2]",None,0,0,0,0,,,,,0,0,0,0,0,26,26,26,,,,,,,,,119.94716709991917,None,119.94716709991917,120.94718809984624,120.93052439996973,121.9305290998891,None,1,,119.94716709991917,None,,,4,m,1,l,KB,2021_May_28_1106,WASABI Nback,2020.2.10,59.995056397647254,
0,1,6,"[0.2, 0]",None,0,0,0,0,,,,,0,0,0,0,0,27,27,27,,,,,,,,,121.94718569982797,None,121.94718569982797,122.94721259991638,122.93055099993944,123.93054669979028,None,1,,121.94718569982797,None,,,4,m,1,l,KB,2021_May_28_1106,WASABI Nback,2020.2.10,59.995056397647254,
0,1,7,"[-0.2, -0.2]",None,0,0,0,0,,,,,0,0,0,0,0,28,28,28,,,,,,,,,123.9472109999042,None,123.9472109999042,124.94721030001529,124.93058980000205,125.93055689986795,None,1,,123.9472109999042,None,,,4,m,1,l,KB,2021_May_28_1106,WASABI Nback,2020.2.10,59.995056397647254,
0,1,6,"[0.2, 0]",1,0,0,0,0,,,,,0,0,0,0,0,29,29,29,,,,,,,,,125.94723309995607,None,125.94723309995607,126.9472365998663,126.93057189998217,127.93059299979359,None,0,,125.94723309995607,None,,,4,m,1,l,KB,2021_May_28_1106,WASABI Nback,2020.2.10,59.995056397647254,
0,1,6,"[0.2, 0]",None,0,0,0,0,,,,,0,0,0,0,0,30,30,30,,,,,,,,,127.94723759987392,None,127.94723759987392,128.94723939988762,128.93059819983318,129.93060969980434,None,1,,127.94723759987392,None,,,4,m,1,l,KB,2021_May_28_1106,WASABI Nback,2020.2.10,59.995056397647254,
0,1,7,"[-0.2, -0.2]",None,0,0,0,0,,,,,0,0,0,0,0,31,31,31,,,,,,,,,129.94725540000945,None,129.94725540000945,130.94728600000963,130.93060490000062,131.93061789986677,None,1,,129.94725540000945,None,,,4,m,1,l,KB,2021_May_28_1106,WASABI Nback,2020.2.10,59.995056397647254,
0,1,6,"[0.2, 0]",1,0,0,0,0,,,,,0,0,0,0,0,32,32,32,,,,,,,,,131.9472911998164,None,131.9472911998164,132.9472828998696,132.93062240001746,133.93065989995375,None,0,,131.9472911998164,None,,,4,m,1,l,KB,2021_May_28_1106,WASABI Nback,2020.2.10,59.995056397647254,
0,1,2,"[0, 0.2]",None,0,0,0,0,,,,,0,0,0,0,0,33,33,33,,,,,,,,,133.94728339998983,None,133.94728339998983,134.94728969992138,134.93066750001162,135.93066569999792,None,1,,133.94728339998983,None,,,4,m,1,l,KB,2021_May_28_1106,WASABI Nback,2020.2.10,59.995056397647254,
0,1,5,"[0, 0]",None,0,0,0,0,,,,,0,0,0,0,0,34,34,34,,,,,,,,,135.9473048998043,None,135.9473048998043,136.94730559992604,136.93066819990054,137.93066679988988,None,1,,135.9473048998043,None,,,4,m,1,l,KB,2021_May_28_1106,WASABI Nback,2020.2.10,59.995056397647254,
0,1,4,"[-0.2, 0]",None,0,0,0,0,,,,,0,0,0,0,0,35,35,35,,,,,,,,,137.94732709997334,None,137.94732709997334,138.94733279990032,138.93067609984428,139.93067849986255,None,1,,137.94732709997334,None,,,4,m,1,l,KB,2021_May_28_1106,WASABI Nback,2020.2.10,59.995056397647254,
0,1,4,"[-0.2, 0]",None,0,0,0,0,,,,,0,0,0,0,0,36,36,36,,,,,,,,,139.94733239989728,None,139.94733239989728,140.9473366998136,140.93070279993117,141.93069169996306,None,1,,139.94733239989728,None,,,4,m,1,l,KB,2021_May_28_1106,WASABI Nback,2020.2.10,59.995056397647254,
0,1,7,"[-0.2, -0.2]",None,0,0,0,0,,,,,0,0,0,0,0,37,37,37,,,,,,,,,141.94735829997808,None,141.94735829997808,142.94736270001158,142.93068679980934,143.93070849985816,None,1,,141.94735829997808,None,,,4,m,1,l,KB,2021_May_28_1106,WASABI Nback,2020.2.10,59.995056397647254,
0,1,4,"[-0.2, 0]",1,0,0,0,0,,,,,0,0,0,0,0,38,38,38,,,,,,,,,143.94737419998273,None,143.94737419998273,144.9473829998169,144.9307181998156,145.93072879989631,None,0,,143.94737419998273,None,,,4,m,1,l,KB,2021_May_28_1106,WASABI Nback,2020.2.10,59.995056397647254,
0,1,3,"[0.2, 0.2]",None,0,0,0,0,,,,,0,0,0,0,0,39,39,39,,,,,,,,,145.9473827998154,None,145.9473827998154,146.94741219980642,146.93073579994962,147.93073579994962,None,1,,145.9473827998154,None,,,4,m,1,l,KB,2021_May_28_1106,WASABI Nback,2020.2.10,59.995056397647254,
0,1,5,"[0, 0]",None,0,0,0,0,,,,,0,0,0,0,0,40,40,40,,,,,,,,,147.9474039999768,None,147.9474039999768,148.9474101997912,148.93072649999522,149.9307665999513,None,1,,147.9474039999768,None,,,4,m,1,l,KB,2021_May_28_1106,WASABI Nback,2020.2.10,59.995056397647254,
0,1,3,"[0.2, 0.2]",1,0,0,0,0,,,,,0,0,0,0,0,41,41,41,,,,,,,,,149.9474321999587,None,149.9474321999587,150.94743339996785,150.9307766999118,151.93077859980986,None,0,,149.9474321999587,None,,,4,m,1,l,KB,2021_May_28_1106,WASABI Nback,2020.2.10,59.995056397647254,
0,1,1,"[-0.2, 0.2]",None,0,0,0,0,,,,,0,0,0,0,0,42,42,42,,,,,,,,,151.94742769980803,None,151.94742769980803,152.94743749988265,152.93079359992407,153.93078069994226,None,1,,151.94742769980803,None,,,4,m,1,l,KB,2021_May_28_1106,WASABI Nback,2020.2.10,59.995056397647254,
0,1,9,"[0.2, -0.2]",None,0,0,0,0,,,,,0,0,0,0,0,43,43,43,,,,,,,,,153.94745049998164,None,153.94745049998164,154.94745719991624,154.93079329980537,155.93084799987264,None,1,,153.94745049998164,None,,,4,m,1,l,KB,2021_May_28_1106,WASABI Nback,2020.2.10,59.995056397647254,
0,1,9,"[0.2, -0.2]",None,0,0,0,0,,,,,0,0,0,0,0,44,44,44,,,,,,,,,155.94747439981438,None,155.94747439981438,156.94747509993613,156.93082929984666,157.93082319991663,None,1,,155.94747439981438,None,,,4,m,1,l,KB,2021_May_28_1106,WASABI Nback,2020.2.10,59.995056397647254,
0,1,8,"[0, -0.2]",None,0,0,0,0,,,,,0,0,0,0,0,45,45,45,,,,,,,,,157.94749049982056,None,157.94749049982056,158.94750809995458,158.9308397998102,159.93082369980402,None,1,,157.94749049982056,None,,,4,m,1,l,KB,2021_May_28_1106,WASABI Nback,2020.2.10,59.995056397647254,
0,1,6,"[0.2, 0]",None,0,0,0,0,,,,,0,0,0,0,0,46,46,46,,,,,,,,,159.94752049981616,None,159.94752049981616,160.94753709994256,160.93085649982095,161.93075089994818,None,1,,159.94752049981616,None,,,4,m,1,l,KB,2021_May_28_1106,WASABI Nback,2020.2.10,59.995056397647254,
0,1,3,"[0.2, 0.2]",None,0,0,0,0,,,,,0,0,0,0,0,47,47,47,,,,,,,,,161.94754389999434,None,161.94754389999434,162.94755749986507,162.9308633999899,163.93087119981647,None,1,,161.94754389999434,None,,,4,m,1,l,KB,2021_May_28_1106,WASABI Nback,2020.2.10,59.995056397647254,
0,1,6,"[0.2, 0]",1,0,0,0,0,,,,,0,0,0,0,0,48,48,48,,,,,,,,,163.94756339979358,None,163.94756339979358,164.9475734999869,164.93088290002197,165.93088669981807,None,0,,163.94756339979358,None,,,4,m,1,l,KB,2021_May_28_1106,WASABI Nback,2020.2.10,59.995056397647254,
0,1,5,"[0, 0]",None,0,0,0,0,,,,,0,0,0,0,0,49,49,49,,,,,,,,,165.94754069996998,None,165.94754069996998,166.94758409983478,166.93090299982578,167.93090729997493,None,1,,165.94754069996998,None,,,4,m,1,l,KB,2021_May_28_1106,WASABI Nback,2020.2.10,59.995056397647254,
0,1,7,"[-0.2, -0.2]",None,0,0,0,0,,,,,0,0,0,0,0,50,50,50,,,,,,,,,167.94759889994748,None,167.94759889994748,168.94758569984697,168.93094029999338,169.93094839993864,None,1,,167.94759889994748,None,,,4,m,1,l,KB,2021_May_28_1106,WASABI Nback,2020.2.10,59.995056397647254,
0,1,5,"[0, 0]",1,0,0,0,0,,,,,0,0,0,0,0,51,51,51,,,,,,,,,169.94761259993538,None,169.94761259993538,170.94762669992633,170.9309070999734,171.9309523999691,None,0,,169.94761259993538,None,,,4,m,1,l,KB,2021_May_28_1106,WASABI Nback,2020.2.10,59.995056397647254,
0,1,1,"[-0.2, 0.2]",None,0,0,0,0,,,,,0,0,0,0,0,52,52,52,,,,,,,,,171.94760369998403,None,171.94760369998403,172.94763119984418,172.93097250000574,173.93100579991005,None,1,,171.94760369998403,None,,,4,m,1,l,KB,2021_May_28_1106,WASABI Nback,2020.2.10,59.995056397647254,
0,1,7,"[-0.2, -0.2]",None,0,0,0,0,,,,,0,0,0,0,0,53,53,53,,,,,,,,,173.94762269989587,None,173.94762269989587,174.94754039985128,174.93097859993577,175.93101439997554,None,1,,173.94762269989587,None,,,4,m,1,l,KB,2021_May_28_1106,WASABI Nback,2020.2.10,59.995056397647254,
0,1,9,"[0.2, -0.2]",None,0,0,0,0,,,,,0,0,0,0,0,54,54,54,,,,,,,,,175.94768099999055,None,175.94768099999055,176.94768159999512,176.93104179995134,177.93099369993433,None,1,,175.94768099999055,None,,,4,m,1,l,KB,2021_May_28_1106,WASABI Nback,2020.2.10,59.995056397647254,
0,1,3,"[0.2, 0.2]",None,0,0,0,0,,,,,0,0,0,0,0,55,55,55,,,,,,,,,177.94768609991297,None,177.94768609991297,178.94773659994826,178.93099969998002,179.93100119987503,None,1,,177.94768609991297,None,,,4,m,1,l,KB,2021_May_28_1106,WASABI Nback,2020.2.10,59.995056397647254,
0,1,9,"[0.2, -0.2]",1,0,0,0,0,,,,,0,0,0,0,0,56,56,56,,,,,,,,,179.94767839997075,None,179.94767839997075,180.94769159983844,180.93101769988425,181.9310276999604,None,0,,179.94767839997075,None,,,4,m,1,l,KB,2021_May_28_1106,WASABI Nback,2020.2.10,59.995056397647254,
0,1,6,"[0.2, 0]",None,0,0,0,0,,,,,0,0,0,0,0,57,57,57,,,,,,,,,181.947705199942,None,181.947705199942,182.94769609998912,182.93103039986454,183.93103479989804,None,1,,181.947705199942,None,,,4,m,1,l,KB,2021_May_28_1106,WASABI Nback,2020.2.10,59.995056397647254,
0,1,2,"[0, 0.2]",None,0,0,0,0,,,,,0,0,0,0,0,58,58,58,,,,,,,,,183.94770379993133,None,183.94770379993133,184.94771149987355,184.93104880000465,185.93104439997114,None,1,,183.94770379993133,None,,,4,m,1,l,KB,2021_May_28_1106,WASABI Nback,2020.2.10,59.995056397647254,
0,1,5,"[0, 0]",None,0,0,0,0,,,,,0,0,0,0,0,59,59,59,,,,,,,,,185.9476321998518,None,185.9476321998518,186.94771929993294,186.93105179979466,187.93107099994086,None,1,,185.9476321998518,None,,,4,m,1,l,KB,2021_May_28_1106,WASABI Nback,2020.2.10,59.995056397647254,
0,1,5,"[0, 0]",None,0,0,0,0,,,,,0,0,0,0,0,60,60,60,,,,,,,,,187.9477418998722,None,187.9477418998722,188.9477400998585,188.93107339995913,189.9310802000109,None,1,,187.9477418998722,None,,,4,m,1,l,KB,2021_May_28_1106,WASABI Nback,2020.2.10,59.995056397647254,
0,1,2,"[0, 0.2]",None,0,0,0,0,,,,,0,0,0,0,0,61,61,61,,,,,,,,,189.94774639979005,None,189.94774639979005,190.94776689982973,190.93109979992732,191.93110439996235,None,1,,189.94774639979005,None,,,4,m,1,l,KB,2021_May_28_1106,WASABI Nback,2020.2.10,59.995056397647254,
0,1,6,"[0.2, 0]",None,0,0,0,0,,,,,0,0,0,0,0,62,62,62,,,,,,,,,191.9477777997963,None,191.9477777997963,192.94780109985732,192.931120299967,193.93112069997005,None,1,,191.9477777997963,None,,,4,m,1,l,KB,2021_May_28_1106,WASABI Nback,2020.2.10,59.995056397647254,
0,1,9,"[0.2, -0.2]",None,0,0,0,0,,,,,0,0,0,0,0,63,63,63,,,,,,,,,193.94780909991823,None,193.94780909991823,194.947807099903,194.93112149997614,195.9311255000066,None,1,,193.94780909991823,None,,,4,m,1,l,KB,2021_May_28_1106,WASABI Nback,2020.2.10,59.995056397647254,
0,1,3,"[0.2, 0.2]",None,0,0,0,0,,,,,0,0,0,0,0,64,64,64,,,,,,,,,195.94777329987846,None,195.94777329987846,196.94781769998372,196.9311473998241,197.93114280002192,None,1,,195.94777329987846,None,,,4,m,1,l,KB,2021_May_28_1106,WASABI Nback,2020.2.10,59.995056397647254,
0,1,9,"[0.2, -0.2]",1,0,0,0,0,,,,,0,0,0,0,0,65,65,65,,,,,,,,,197.94781729998067,None,197.94781729998067,198.94782549981028,198.9311510999687,199.93107679998502,None,0,,197.94781729998067,None,,,4,m,1,l,KB,2021_May_28_1106,WASABI Nback,2020.2.10,59.995056397647254,
0,1,7,"[-0.2, -0.2]",None,0,0,0,0,,,,,0,0,0,0,0,66,66,66,,,,,,,,,199.9478511000052,None,199.9478511000052,200.94786569988355,200.93117249989882,201.93118579988368,None,1,,199.9478511000052,None,,,4,m,1,l,KB,2021_May_28_1106,WASABI Nback,2020.2.10,59.995056397647254,
0,1,1,"[-0.2, 0.2]",None,0,0,0,0,,,,,0,0,0,0,0,67,67,67,,,,,,,,,201.94784689997323,None,201.94784689997323,202.9478792999871,202.93118879990652,203.931198899867,None,1,,201.94784689997323,None,,,4,m,1,l,KB,2021_May_28_1106,WASABI Nback,2020.2.10,59.995056397647254,
0,1,5,"[0, 0]",None,0,0,0,0,,,,,0,0,0,0,0,68,68,68,,,,,,,,,203.94786509987898,None,203.94786509987898,204.94787319982424,204.93119799997658,205.93122069980018,None,1,,203.94786509987898,None,,,4,m,1,l,KB,2021_May_28_1106,WASABI Nback,2020.2.10,59.995056397647254,
0,1,7,"[-0.2, -0.2]",None,0,0,0,0,,,,,0,0,0,0,0,69,69,69,,,,,,,,,205.94789469987154,None,205.94789469987154,206.94789660000242,206.93122629984282,207.9312449998688,None,1,,205.94789469987154,None,,,4,m,1,l,KB,2021_May_28_1106,WASABI Nback,2020.2.10,59.995056397647254,
0,1,5,"[0, 0]",1,0,0,0,0,,,,,0,0,0,0,0,70,70,70,,,,,,,,,207.9478996999096,None,207.9478996999096,208.94793689996004,208.93115879991092,209.93124209996313,None,0,,207.9478996999096,None,,,4,m,1,l,KB,2021_May_28_1106,WASABI Nback,2020.2.10,59.995056397647254,
0,1,6,"[0.2, 0]",None,0,0,0,0,,,,,0,0,0,0,0,71,71,71,,,,,,,,,209.94795229984447,None,209.94795229984447,210.94795729988255,210.93125049979426,211.9312752999831,None,1,,209.94795229984447,None,,,4,m,1,l,KB,2021_May_28_1106,WASABI Nback,2020.2.10,59.995056397647254,
0,1,3,"[0.2, 0.2]",None,0,0,0,0,,,,,0,0,0,0,0,72,72,72,,,,,,,,,211.9479635998141,None,211.9479635998141,212.94796399981715,212.93126629991457,213.93128919997253,None,1,,211.9479635998141,None,,,4,m,1,l,KB,2021_May_28_1106,WASABI Nback,2020.2.10,59.995056397647254,
0,1,6,"[0.2, 0]",1,0,0,0,0,,,,,0,0,0,0,0,73,73,73,,,,,,,,,213.94798809988424,None,213.94798809988424,214.94799379981123,214.93129789992236,215.93129809992388,None,0,,213.94798809988424,None,,,4,m,1,l,KB,2021_May_28_1106,WASABI Nback,2020.2.10,59.995056397647254,
0,1,8,"[0, -0.2]",None,0,0,0,0,,,,,0,0,0,0,0,74,74,74,,,,,,,,,215.9479697998613,None,215.9479697998613,216.9479708999861,216.93139819987118,217.93130779988132,None,1,,215.9479697998613,None,,,4,m,1,l,KB,2021_May_28_1106,WASABI Nback,2020.2.10,59.995056397647254,
0,1,9,"[0.2, -0.2]",None,0,0,0,0,,,,,0,0,0,0,0,75,75,75,,,,,,,,,217.94798969989643,None,217.94798969989643,218.94798479997553,218.93132749991491,219.93132869992405,None,1,,217.94798969989643,None,,,4,m,1,l,KB,2021_May_28_1106,WASABI Nback,2020.2.10,59.995056397647254,
0,1,9,"[0.2, -0.2]",None,0,0,0,0,,,,,0,0,0,0,0,76,76,76,,,,,,,,,219.94805239979178,None,219.94805239979178,220.9480269998312,220.93133809999563,221.93134239991195,None,1,,219.94805239979178,None,,,4,m,1,l,KB,2021_May_28_1106,WASABI Nback,2020.2.10,59.995056397647254,
0,1,1,"[-0.2, 0.2]",None,0,0,0,0,,,,,0,0,0,0,0,77,77,77,,,,,,,,,221.94801940000616,None,221.94801940000616,222.94799869996496,222.93135749991052,223.93137449980713,None,1,,221.94801940000616,None,,,4,m,1,l,KB,2021_May_28_1106,WASABI Nback,2020.2.10,59.995056397647254,
0,1,3,"[0.2, 0.2]",None,0,0,0,0,,,,,0,0,0,0,0,78,78,78,,,,,,,,,223.9480506000109,None,223.9480506000109,224.94804459996521,224.9314017998986,225.93138229986653,None,1,,223.9480506000109,None,,,4,m,1,l,KB,2021_May_28_1106,WASABI Nback,2020.2.10,59.995056397647254,
0,1,5,"[0, 0]",None,0,0,0,0,,,,,0,0,0,0,0,79,79,79,,,,,,,,,225.94794699992053,None,225.94794699992053,226.94805709994398,226.93138189986348,227.93140199990012,None,1,,225.94794699992053,None,,,4,m,1,l,KB,2021_May_28_1106,WASABI Nback,2020.2.10,59.995056397647254,
0,1,3,"[0.2, 0.2]",1,0,0,0,0,,,,,0,0,0,0,0,80,80,80,,,,,,,,,227.94807129981928,None,227.94807129981928,228.9480748998467,228.93140899995342,229.93140679993667,None,0,,227.94807129981928,None,,,4,m,1,l,KB,2021_May_28_1106,WASABI Nback,2020.2.10,59.995056397647254,
0,1,4,"[-0.2, 0]",None,0,0,0,0,,,,,0,0,0,0,0,81,81,81,,,,,,,,,229.94809929979965,None,229.94809929979965,230.9480947998818,230.93142449995503,231.93143349979073,None,1,,229.94809929979965,None,,,4,m,1,l,KB,2021_May_28_1106,WASABI Nback,2020.2.10,59.995056397647254,
0,1,7,"[-0.2, -0.2]",None,0,0,0,0,,,,,0,0,0,0,0,82,82,82,,,,,,,,,231.9481267000083,None,231.9481267000083,232.9481296997983,232.93143039988354,233.9314558999613,None,1,,231.9481267000083,None,,,4,m,1,l,KB,2021_May_28_1106,WASABI Nback,2020.2.10,59.995056397647254,
0,1,4,"[-0.2, 0]",1,0,0,0,0,,,,,0,0,0,0,0,83,83,83,,,,,,,,,233.9481079999823,None,233.9481079999823,234.9481162999291,234.93146230001003,235.93146889982745,None,0,,233.9481079999823,None,,,4,m,1,l,KB,2021_May_28_1106,WASABI Nback,2020.2.10,59.995056397647254,
0,1,4,"[-0.2, 0]",None,0,0,0,0,,,,,0,0,0,0,0,84,84,84,,,,,,,,,235.94812179985456,None,235.94812179985456,236.9481485998258,236.9314666998107,237.93148469994776,None,1,,235.94812179985456,None,,,4,m,1,l,KB,2021_May_28_1106,WASABI Nback,2020.2.10,59.995056397647254,
0,1,5,"[0, 0]",None,0,0,0,0,,,,,0,0,0,0,0,85,85,85,,,,,,,,,237.94815079984255,None,237.94815079984255,238.94814659981057,238.9314811998047,239.93149859993719,None,1,,237.94815079984255,None,,,4,m,1,l,KB,2021_May_28_1106,WASABI Nback,2020.2.10,59.995056397647254,
0,1,2,"[0, 0.2]",None,0,0,0,0,,,,,0,0,0,0,0,86,86,86,,,,,,,,,239.94816949986853,None,239.94816949986853,240.94817429990508,240.93152969982475,241.93152099987492,None,1,,239.94816949986853,None,,,4,m,1,l,KB,2021_May_28_1106,WASABI Nback,2020.2.10,59.995056397647254,
0,1,6,"[0.2, 0]",None,0,0,0,0,,,,,0,0,0,0,0,87,87,87,,,,,,,,,241.94819249981083,None,241.94819249981083,242.94819899997674,242.93152450001799,243.9315432999283,None,1,,241.94819249981083,None,,,4,m,1,l,KB,2021_May_28_1106,WASABI Nback,2020.2.10,59.995056397647254,
0,1,7,"[-0.2, -0.2]",None,0,0,0,0,,,,,0,0,0,0,0,88,88,88,,,,,,,,,243.94820109987631,None,243.94820109987631,244.9481974998489,244.93154519982636,245.93156209983863,None,1,,243.94820109987631,None,,,4,m,1,l,KB,2021_May_28_1106,WASABI Nback,2020.2.10,59.995056397647254,
0,1,6,"[0.2, 0]",1,0,0,0,0,,,,,0,0,0,0,0,89,89,89,,,,,,,,,245.94822619995102,None,245.94822619995102,246.94822189980187,246.93156599998474,247.93157879984938,None,0,,245.94822619995102,None,,,4,m,1,l,KB,2021_May_28_1106,WASABI Nback,2020.2.10,59.995056397647254,
0,1,6,"[0.2, 0]",None,0,0,0,0,,,,,0,0,0,0,0,90,90,90,,,,,,,,,247.94813579996116,None,247.94813579996116,248.9482348000165,248.93159629986621,249.93159359996207,None,1,,247.94813579996116,None,,,4,m,1,l,KB,2021_May_28_1106,WASABI Nback,2020.2.10,59.995056397647254,
0,1,7,"[-0.2, -0.2]",None,0,0,0,0,,,,,0,0,0,0,0,91,91,91,,,,,,,,,249.94824709999375,None,249.94824709999375,250.94824919989333,250.93160369992256,251.93160120001994,None,1,,249.94824709999375,None,,,4,m,1,l,KB,2021_May_28_1106,WASABI Nback,2020.2.10,59.995056397647254,
0,1,6,"[0.2, 0]",1,0,0,0,0,,,,,0,0,0,0,0,92,92,92,,,,,,,,,251.94827589998022,None,251.94827589998022,252.94827249995433,252.93162049981765,253.93163319979794,None,0,,251.94827589998022,None,,,4,m,1,l,KB,2021_May_28_1106,WASABI Nback,2020.2.10,59.995056397647254,
0,1,2,"[0, 0.2]",None,0,0,0,0,,,,,0,0,0,0,0,93,93,93,,,,,,,,,253.94828199991025,None,253.94828199991025,254.94828349980526,254.93165099993348,255.9316471000202,None,1,,253.94828199991025,None,,,4,m,1,l,KB,2021_May_28_1106,WASABI Nback,2020.2.10,59.995056397647254,
0,1,5,"[0, 0]",None,0,0,0,0,,,,,0,0,0,0,0,94,94,94,,,,,,,,,255.94830069993623,None,255.94830069993623,256.94831050001085,256.931645500008,257.93168829986826,None,1,,255.94830069993623,None,,,4,m,1,l,KB,2021_May_28_1106,WASABI Nback,2020.2.10,59.995056397647254,
0,1,4,"[-0.2, 0]",None,0,0,0,0,,,,,0,0,0,0,0,95,95,95,,,,,,,,,257.948227299843,None,257.948227299843,258.94831559993327,258.93169040000066,259.9316516998224,None,1,,257.948227299843,None,,,4,m,1,l,KB,2021_May_28_1106,WASABI Nback,2020.2.10,59.995056397647254,
0,1,4,"[-0.2, 0]",None,0,0,0,0,,,,,0,0,0,0,0,96,96,96,,,,,,,,,259.94832109985873,None,259.94832109985873,260.94834459992126,260.9316697998438,261.93169889994897,None,1,,259.94832109985873,None,,,4,m,1,l,KB,2021_May_28_1106,WASABI Nback,2020.2.10,59.995056397647254,
0,1,7,"[-0.2, -0.2]",None,0,0,0,0,,,,,0,0,0,0,0,97,97,97,,,,,,,,,261.9483403998893,None,261.9483403998893,262.94835909991525,262.9316824998241,263.9317041998729,None,1,,261.9483403998893,None,,,4,m,1,l,KB,2021_May_28_1106,WASABI Nback,2020.2.10,59.995056397647254,
0,1,4,"[-0.2, 0]",1,0,0,0,0,,,,,0,0,0,0,0,98,98,98,,,,,,,,,263.9483697998803,None,263.9483697998803,264.94836939987727,264.9317101999186,265.9317021998577,None,0,,263.9483697998803,None,,,4,m,1,l,KB,2021_May_28_1106,WASABI Nback,2020.2.10,59.995056397647254,
0,1,3,"[0.2, 0.2]",None,0,0,0,0,,,,,0,0,0,0,0,99,99,99,,,,,,,,,265.9483746998012,None,265.9483746998012,266.9483793999534,266.93174469983205,267.93174809985794,None,1,,265.9483746998012,None,,,4,m,1,l,KB,2021_May_28_1106,WASABI Nback,2020.2.10,59.995056397647254,
0,1,5,"[0, 0]",None,0,0,0,0,,,,,0,0,0,0,0,100,100,100,,,,,,,,,267.9483966999687,None,267.9483966999687,268.94839789997786,268.93173619988374,269.9317611998413,None,1,,267.9483966999687,None,,,4,m,1,l,KB,2021_May_28_1106,WASABI Nback,2020.2.10,59.995056397647254,
0,1,3,"[0.2, 0.2]",1,0,0,0,0,,,,,0,0,0,0,0,101,101,101,,,,,,,,,269.9484178998973,None,269.9484178998973,270.94842579984106,270.93176639988087,271.9317916999571,None,0,,269.9484178998973,None,,,4,m,1,l,KB,2021_May_28_1106,WASABI Nback,2020.2.10,59.995056397647254,
0,1,1,"[-0.2, 0.2]",None,0,0,0,0,,,,,0,0,0,0,0,102,102,102,,,,,,,,,271.9484251998365,None,271.9484251998365,272.94845949998125,272.93179029994644,273.9318025999237,None,1,,271.9484251998365,None,,,4,m,1,l,KB,2021_May_28_1106,WASABI Nback,2020.2.10,59.995056397647254,
0,1,9,"[0.2, -0.2]",None,0,0,0,0,,,,,0,0,0,0,0,103,103,103,,,,,,,,,273.9484422998503,None,273.9484422998503,274.9484510999173,274.9317975998856,275.9317975998856,None,1,,273.9484422998503,None,,,4,m,1,l,KB,2021_May_28_1106,WASABI Nback,2020.2.10,59.995056397647254,
0,1,9,"[0.2, -0.2]",None,0,0,0,0,,,,,0,0,0,0,0,104,104,104,,,,,,,,,275.94847399997525,None,275.94847399997525,276.9484716998413,276.93183759995736,277.93182389996946,None,1,,275.94847399997525,None,,,4,m,1,l,KB,2021_May_28_1106,WASABI Nback,2020.2.10,59.995056397647254,
0,1,8,"[0, -0.2]",None,0,0,0,0,,,,,0,0,0,0,0,105,105,105,,,,,,,,,277.94847469986416,None,277.94847469986416,278.94848869997077,278.93185419985093,279.9318223998416,None,1,,277.94847469986416,None,,,4,m,1,l,KB,2021_May_28_1106,WASABI Nback,2020.2.10,59.995056397647254,
0,1,6,"[0.2, 0]",None,0,0,0,0,,,,,0,0,0,0,0,106,106,106,,,,,,,,,279.9485022998415,None,279.9485022998415,280.948525799904,280.93184429989196,281.9318661999423,None,1,,279.9485022998415,None,,,4,m,1,l,KB,2021_May_28_1106,WASABI Nback,2020.2.10,59.995056397647254,
0,1,3,"[0.2, 0.2]",None,0,0,0,0,,,,,0,0,0,0,0,107,107,107,,,,,,,,,281.9485371999908,None,281.9485371999908,282.9485245998949,282.93186299991794,283.9318645999301,None,1,,281.9485371999908,None,,,4,m,1,l,KB,2021_May_28_1106,WASABI Nback,2020.2.10,59.995056397647254,
0,1,6,"[0.2, 0]",1,0,0,0,0,,,,,0,0,0,0,0,108,108,108,,,,,,,,,283.94854459981434,None,283.94854459981434,284.94854559982195,284.93187409988604,285.9318903000094,None,0,,283.94854459981434,None,,,4,m,1,l,KB,2021_May_28_1106,WASABI Nback,2020.2.10,59.995056397647254,
0,1,5,"[0, 0]",None,0,0,0,0,,,,,0,0,0,0,0,109,109,109,,,,,,,,,285.9485775998328,None,285.9485775998328,286.94858630001545,286.93191369995475,287.9318216999527,None,1,,285.9485775998328,None,,,4,m,1,l,KB,2021_May_28_1106,WASABI Nback,2020.2.10,59.995056397647254,
0,1,7,"[-0.2, -0.2]",None,0,0,0,0,,,,,0,0,0,0,0,110,110,110,,,,,,,,,287.948587999912,None,287.948587999912,288.948592599947,288.93192269979045,289.9319225999061,None,1,,287.948587999912,None,,,4,m,1,l,KB,2021_May_28_1106,WASABI Nback,2020.2.10,59.995056397647254,
0,1,5,"[0, 0]",1,0,0,0,0,,,,,0,0,0,0,0,111,111,111,,,,,,,,,289.94860000000335,None,289.94860000000335,290.94861109997146,290.9319267999381,291.9319427998271,None,0,,289.94860000000335,None,,,4,m,1,l,KB,2021_May_28_1106,WASABI Nback,2020.2.10,59.995056397647254,
0,1,1,"[-0.2, 0.2]",None,0,0,0,0,,,,,0,0,0,0,0,112,112,112,,,,,,,,,291.94858599989675,None,291.94858599989675,292.94862739997916,292.93194729997776,293.93197789997794,None,1,,291.94858599989675,None,,,4,m,1,l,KB,2021_May_28_1106,WASABI Nback,2020.2.10,59.995056397647254,
0,1,7,"[-0.2, -0.2]",None,0,0,0,0,,,,,0,0,0,0,0,113,113,113,,,,,,,,,293.94863879983313,None,293.94863879983313,294.94863359979354,294.93197349994443,295.9319747998379,None,1,,293.94863879983313,None,,,4,m,1,l,KB,2021_May_28_1106,WASABI Nback,2020.2.10,59.995056397647254,
0,1,9,"[0.2, -0.2]",None,0,0,0,0,,,,,0,0,0,0,0,114,114,114,,,,,,,,,295.9486843999475,None,295.9486843999475,296.94867610000074,296.93199179996736,297.9319712999277,None,1,,295.9486843999475,None,,,4,m,1,l,KB,2021_May_28_1106,WASABI Nback,2020.2.10,59.995056397647254,
0,1,3,"[0.2, 0.2]",None,0,0,0,0,,,,,0,0,0,0,0,115,115,115,,,,,,,,,297.94864810002036,None,297.94864810002036,298.94868819997646,298.9319947999902,299.93201459990814,None,1,,297.94864810002036,None,,,4,m,1,l,KB,2021_May_28_1106,WASABI Nback,2020.2.10,59.995056397647254,
0,1,9,"[0.2, -0.2]",1,0,0,0,0,,,,,0,0,0,0,0,116,116,116,,,,,,,,,299.9486517999321,None,299.9486517999321,300.94868479995057,300.9320257999934,301.9320311998017,None,0,,299.9486517999321,None,,,4,m,1,l,KB,2021_May_28_1106,WASABI Nback,2020.2.10,59.995056397647254,
0,1,6,"[0.2, 0]",None,0,0,0,0,,,,,0,0,0,0,0,117,117,117,,,,,,,,,301.94870479987003,None,301.94870479987003,302.94861699989997,302.93203779985197,303.93203359982,None,1,,301.94870479987003,None,,,4,m,1,l,KB,2021_May_28_1106,WASABI Nback,2020.2.10,59.995056397647254,
0,1,2,"[0, 0.2]",None,0,0,0,0,,,,,0,0,0,0,0,118,118,118,,,,,,,,,303.94869749993086,None,303.94869749993086,304.9487320999615,304.9320519999601,305.93204559991136,None,1,,303.94869749993086,None,,,4,m,1,l,KB,2021_May_28_1106,WASABI Nback,2020.2.10,59.995056397647254,
0,1,5,"[0, 0]",None,0,0,0,0,,,,,0,0,0,0,0,119,119,119,,,,,,,,,305.9487115999218,None,305.9487115999218,306.9487157999538,306.93205649987794,307.932070299983,None,1,,305.9487115999218,None,,,4,m,1,l,KB,2021_May_28_1106,WASABI Nback,2020.2.10,59.995056397647254,
1,0,,,,0,1,1,1,0,0,0,0,,,,,,,,,,,,,,,,,,,,,,,,,,,,395.8494607999455,None,4,m,1,l,KB,2021_May_28_1106,WASABI Nback,2020.2.10,59.995056397647254,
