RestT1,TaskT1,square,location,corrAns,counterbalancer.thisRepN,counterbalancer.thisTrialN,counterbalancer.thisN,counterbalancer.thisIndex,RestT1Loop.thisRepN,RestT1Loop.thisTrialN,RestT1Loop.thisN,RestT1Loop.thisIndex,TaskT1Loop.thisRepN,TaskT1Loop.thisTrialN,TaskT1Loop.thisN,TaskT1Loop.thisIndex,trials_2.thisRepN,trials_2.thisTrialN,trials_2.thisN,trials_2.thisIndex,fixation_1.started,fixation_1.stopped,NbackInstructions.started,NbackInstructions.stopped,NbackStart.keys,NbackStart.rt,NbackStart.started,NbackStart.stopped,fixation_2.started,fixation_2.stopped,grid_lines_2.started,grid_lines_2.stopped,target_square_2.started,target_square_2.stopped,fixation_3.started,fixation_3.stopped,response_2.click,response_2.corr,response_2.started,response_2.stopped,subject number,gender,session,handedness,scanner,date,expName,psychopyVersion,frameRate,
1,0,,,,0,0,0,0,0,0,0,0,,,,,,,,,142.32035980001092,None,,,,,,,,,,,,,,,,,,,1,M,9,R,KB,2021_May_28_1300,WASABI Nback,2020.2.10,59.99768405779158,
0,1,,,,0,1,1,1,,,,,0,0,0,0,,,,,,,503.55647769989446,None,space,42.1434198000934,503.55647769989446,None,,,,,,,,,,,,,1,M,9,R,KB,2021_May_28_1300,WASABI Nback,2020.2.10,59.99768405779158,
0,1,5,"[0, 0]",None,0,1,1,1,,,,,0,0,0,0,0,0,0,0,,,,,,,,,None,None,547.8235476999544,None,547.8235476999544,None,None,None,None,1,547.8235476999544,None,1,M,9,R,KB,2021_May_28_1300,WASABI Nback,2020.2.10,59.99768405779158,
0,1,2,"[0, 0.2]",None,0,1,1,1,,,,,0,0,0,0,0,1,1,1,,,,,,,,,,,548.7402209998108,None,548.7402209998108,549.74022529996,549.7235569998156,550.723599899793,None,1,548.7402209998108,None,1,M,9,R,KB,2021_May_28_1300,WASABI Nback,2020.2.10,59.99768405779158,
0,1,6,"[0.2, 0]",None,0,1,1,1,,,,,0,0,0,0,0,2,2,2,,,,,,,,,,,550.7402404998429,None,550.7402404998429,551.7402460000012,551.7235778998584,552.7236054998357,None,1,550.7402404998429,None,1,M,9,R,KB,2021_May_28_1300,WASABI Nback,2020.2.10,59.99768405779158,
0,1,9,"[0.2, -0.2]",None,0,1,1,1,,,,,0,0,0,0,0,3,3,3,,,,,,,,,,,552.7402492999099,None,552.7402492999099,553.7402568999678,553.7235979000106,554.7236023999285,None,1,552.7402492999099,None,1,M,9,R,KB,2021_May_28_1300,WASABI Nback,2020.2.10,59.99768405779158,
0,1,3,"[0.2, 0.2]",None,0,1,1,1,,,,,0,0,0,0,0,4,4,4,,,,,,,,,,,554.7402887998614,None,554.7402887998614,555.7402637999039,555.7236085999757,556.7236084998585,None,1,554.7402887998614,None,1,M,9,R,KB,2021_May_28_1300,WASABI Nback,2020.2.10,59.99768405779158,
0,1,9,"[0.2, -0.2]",1,0,1,1,1,,,,,0,0,0,0,0,5,5,5,,,,,,,,,,,556.7402831998188,None,556.7402831998188,557.7402879998554,557.7236260999925,558.7236158999149,None,0,556.7402831998188,None,1,M,9,R,KB,2021_May_28_1300,WASABI Nback,2020.2.10,59.99768405779158,
0,1,7,"[-0.2, -0.2]",None,0,1,1,1,,,,,0,0,0,0,0,6,6,6,,,,,,,,,,,558.7403052998707,None,558.7403052998707,559.7403010998387,559.7236383999698,560.7236441997811,None,1,558.7403052998707,None,1,M,9,R,KB,2021_May_28_1300,WASABI Nback,2020.2.10,59.99768405779158,
0,1,1,"[-0.2, 0.2]",None,0,1,1,1,,,,,0,0,0,0,0,7,7,7,,,,,,,,,,,560.7403129998129,None,560.7403129998129,561.7403272998054,561.723654499976,562.7236572999973,None,1,560.7403129998129,None,1,M,9,R,KB,2021_May_28_1300,WASABI Nback,2020.2.10,59.99768405779158,
0,1,5,"[0, 0]",None,0,1,1,1,,,,,0,0,0,0,0,8,8,8,,,,,,,,,,,562.7403334998526,None,562.7403334998526,563.7403372998815,563.7236681999639,564.7236713999882,None,1,562.7403334998526,None,1,M,9,R,KB,2021_May_28_1300,WASABI Nback,2020.2.10,59.99768405779158,
0,1,7,"[-0.2, -0.2]",None,0,1,1,1,,,,,0,0,0,0,0,9,9,9,,,,,,,,,,,564.7403490999714,None,564.7403490999714,565.7403419998009,565.7236972998362,566.7236975999549,None,1,564.7403490999714,None,1,M,9,R,KB,2021_May_28_1300,WASABI Nback,2020.2.10,59.99768405779158,
0,1,5,"[0, 0]",1,0,1,1,1,,,,,0,0,0,0,0,10,10,10,,,,,,,,,,,566.7403711997904,None,566.7403711997904,567.7403776999563,567.7237193998881,568.7237108999398,None,0,566.7403711997904,None,1,M,9,R,KB,2021_May_28_1300,WASABI Nback,2020.2.10,59.99768405779158,
0,1,6,"[0.2, 0]",None,0,1,1,1,,,,,0,0,0,0,0,11,11,11,,,,,,,,,,,568.7403820999898,None,568.7403820999898,569.7403957999777,569.7237260998227,570.7237228997983,None,1,568.7403820999898,None,1,M,9,R,KB,2021_May_28_1300,WASABI Nback,2020.2.10,59.99768405779158,
0,1,3,"[0.2, 0.2]",None,0,1,1,1,,,,,0,0,0,0,0,12,12,12,,,,,,,,,,,570.7404031998012,None,570.7404031998012,571.7403977999929,571.7237278998364,572.7237348000053,None,1,570.7404031998012,None,1,M,9,R,KB,2021_May_28_1300,WASABI Nback,2020.2.10,59.99768405779158,
0,1,6,"[0.2, 0]",1,0,1,1,1,,,,,0,0,0,0,0,13,13,13,,,,,,,,,,,572.740422999952,None,572.740422999952,573.7404212998226,573.7237589999568,574.7237555999309,None,0,572.740422999952,None,1,M,9,R,KB,2021_May_28_1300,WASABI Nback,2020.2.10,59.99768405779158,
0,1,8,"[0, -0.2]",None,0,1,1,1,,,,,0,0,0,0,0,14,14,14,,,,,,,,,,,574.7404223999474,None,574.7404223999474,575.7404549999628,575.7237722999416,576.7237846998032,None,1,574.7404223999474,None,1,M,9,R,KB,2021_May_28_1300,WASABI Nback,2020.2.10,59.99768405779158,
0,1,9,"[0.2, -0.2]",None,0,1,1,1,,,,,0,0,0,0,0,15,15,15,,,,,,,,,,,576.7404563999735,None,576.7404563999735,577.7404553999659,577.7237877999432,578.723799899919,None,1,576.7404563999735,None,1,M,9,R,KB,2021_May_28_1300,WASABI Nback,2020.2.10,59.99768405779158,
0,1,9,"[0.2, -0.2]",None,0,1,1,1,,,,,0,0,0,0,0,16,16,16,,,,,,,,,,,578.7404812998138,None,578.7404812998138,579.7404785999097,579.7237874998245,580.7238111998886,None,1,578.7404812998138,None,1,M,9,R,KB,2021_May_28_1300,WASABI Nback,2020.2.10,59.99768405779158,
0,1,1,"[-0.2, 0.2]",None,0,1,1,1,,,,,0,0,0,0,0,17,17,17,,,,,,,,,,,580.7404773999006,None,580.7404773999006,581.7405045998748,581.723815899808,582.7238400999922,None,1,580.7404773999006,None,1,M,9,R,KB,2021_May_28_1300,WASABI Nback,2020.2.10,59.99768405779158,
0,1,3,"[0.2, 0.2]",None,0,1,1,1,,,,,0,0,0,0,0,18,18,18,,,,,,,,,,,582.7405069998931,None,582.7405069998931,583.7405168998521,583.7238403998781,584.7237354000099,None,1,582.7405069998931,None,1,M,9,R,KB,2021_May_28_1300,WASABI Nback,2020.2.10,59.99768405779158,
0,1,5,"[0, 0]",None,0,1,1,1,,,,,0,0,0,0,0,19,19,19,,,,,,,,,,,584.7405189999845,None,584.7405189999845,585.7405443999451,585.7238194998354,586.7238631998189,None,1,584.7405189999845,None,1,M,9,R,KB,2021_May_28_1300,WASABI Nback,2020.2.10,59.99768405779158,
0,1,3,"[0.2, 0.2]",1,0,1,1,1,,,,,0,0,0,0,0,20,20,20,,,,,,,,,,,586.740555399796,None,586.740555399796,587.7405373000074,587.723858299898,588.7238719998859,None,0,586.740555399796,None,1,M,9,R,KB,2021_May_28_1300,WASABI Nback,2020.2.10,59.99768405779158,
0,1,4,"[-0.2, 0]",None,0,1,1,1,,,,,0,0,0,0,0,21,21,21,,,,,,,,,,,588.7405897998251,None,588.7405897998251,589.7405620999634,589.7238798998296,590.7238715998828,None,1,588.7405897998251,None,1,M,9,R,KB,2021_May_28_1300,WASABI Nback,2020.2.10,59.99768405779158,
0,1,7,"[-0.2, -0.2]",None,0,1,1,1,,,,,0,0,0,0,0,22,22,22,,,,,,,,,,,590.7405708997976,None,590.7405708997976,591.7405819999985,591.7239117999561,592.7239019998815,None,1,590.7405708997976,None,1,M,9,R,KB,2021_May_28_1300,WASABI Nback,2020.2.10,59.99768405779158,
0,1,4,"[-0.2, 0]",1,0,1,1,1,,,,,0,0,0,0,0,23,23,23,,,,,,,,,,,592.7406021999195,None,592.7406021999195,593.7405936999712,593.7238570998888,594.7239404998254,None,0,592.7406021999195,None,1,M,9,R,KB,2021_May_28_1300,WASABI Nback,2020.2.10,59.99768405779158,
0,1,4,"[-0.2, 0]",None,0,1,1,1,,,,,0,0,0,0,0,24,24,24,,,,,,,,,,,594.740622199839,None,594.740622199839,595.7406287998892,595.7239346997812,596.7239401999395,None,1,594.740622199839,None,1,M,9,R,KB,2021_May_28_1300,WASABI Nback,2020.2.10,59.99768405779158,
0,1,5,"[0, 0]",None,0,1,1,1,,,,,0,0,0,0,0,25,25,25,,,,,,,,,,,596.7406177998055,None,596.7406177998055,597.7406636998057,597.7239698998164,598.7239552999381,None,1,596.7406177998055,None,1,M,9,R,KB,2021_May_28_1300,WASABI Nback,2020.2.10,59.99768405779158,
0,1,2,"[0, 0.2]",None,0,1,1,1,,,,,0,0,0,0,0,26,26,26,,,,,,,,,,,598.7406283000018,None,598.7406283000018,599.7406314997934,599.7239660997875,600.7239855998196,None,1,598.7406283000018,None,1,M,9,R,KB,2021_May_28_1300,WASABI Nback,2020.2.10,59.99768405779158,
0,1,6,"[0.2, 0]",None,0,1,1,1,,,,,0,0,0,0,0,27,27,27,,,,,,,,,,,600.7407519000117,None,600.7407519000117,601.7406601998955,601.723997599911,602.7239919998683,None,1,600.7407519000117,None,1,M,9,R,KB,2021_May_28_1300,WASABI Nback,2020.2.10,59.99768405779158,
0,1,7,"[-0.2, -0.2]",None,0,1,1,1,,,,,0,0,0,0,0,28,28,28,,,,,,,,,,,602.7405912999529,None,602.7405912999529,603.7406730998773,603.7239982997999,604.724007899873,None,1,602.7405912999529,None,1,M,9,R,KB,2021_May_28_1300,WASABI Nback,2020.2.10,59.99768405779158,
0,1,6,"[0.2, 0]",1,0,1,1,1,,,,,0,0,0,0,0,29,29,29,,,,,,,,,,,604.7406456999015,None,604.7406456999015,605.7406967999414,605.724025500007,606.723997599911,None,0,604.7406456999015,None,1,M,9,R,KB,2021_May_28_1300,WASABI Nback,2020.2.10,59.99768405779158,
0,1,6,"[0.2, 0]",None,0,1,1,1,,,,,0,0,0,0,0,30,30,30,,,,,,,,,,,606.7407331999857,None,606.7407331999857,607.7407124999445,607.7240417997818,608.7239230999257,None,1,606.7407331999857,None,1,M,9,R,KB,2021_May_28_1300,WASABI Nback,2020.2.10,59.99768405779158,
0,1,7,"[-0.2, -0.2]",None,0,1,1,1,,,,,0,0,0,0,0,31,31,31,,,,,,,,,,,608.740722599905,None,608.740722599905,609.740726799937,609.7240508999676,610.7240672998596,None,1,608.740722599905,None,1,M,9,R,KB,2021_May_28_1300,WASABI Nback,2020.2.10,59.99768405779158,
0,1,6,"[0.2, 0]",1,0,1,1,1,,,,,0,0,0,0,0,32,32,32,,,,,,,,,,,610.7407823998947,None,610.7407823998947,611.7407436999492,611.7240770999342,612.724075099919,None,0,610.7407823998947,None,1,M,9,R,KB,2021_May_28_1300,WASABI Nback,2020.2.10,59.99768405779158,
0,1,2,"[0, 0.2]",None,0,1,1,1,,,,,0,0,0,0,0,33,33,33,,,,,,,,,,,612.7407492999919,None,612.7407492999919,613.7407536997925,613.7240865998901,614.7241008998826,None,1,612.7407492999919,None,1,M,9,R,KB,2021_May_28_1300,WASABI Nback,2020.2.10,59.99768405779158,
0,1,5,"[0, 0]",None,0,1,1,1,,,,,0,0,0,0,0,34,34,34,,,,,,,,,,,614.74077259982,None,614.74077259982,615.7407878998201,615.7241163998842,616.724123199936,None,1,614.74077259982,None,1,M,9,R,KB,2021_May_28_1300,WASABI Nback,2020.2.10,59.99768405779158,
0,1,4,"[-0.2, 0]",None,0,1,1,1,,,,,0,0,0,0,0,35,35,35,,,,,,,,,,,616.7407755998429,None,616.7407755998429,617.7407985997852,617.7241162999999,618.7241243999451,None,1,616.7407755998429,None,1,M,9,R,KB,2021_May_28_1300,WASABI Nback,2020.2.10,59.99768405779158,
0,1,4,"[-0.2, 0]",None,0,1,1,1,,,,,0,0,0,0,0,36,36,36,,,,,,,,,,,618.7407964000013,None,618.7407964000013,619.7408010999206,619.7241360999178,620.724151799921,None,1,618.7407964000013,None,1,M,9,R,KB,2021_May_28_1300,WASABI Nback,2020.2.10,59.99768405779158,
0,1,7,"[-0.2, -0.2]",None,0,1,1,1,,,,,0,0,0,0,0,37,37,37,,,,,,,,,,,620.7408344999421,None,620.7408344999421,621.7408199999481,621.7241499999072,622.7241571999621,None,1,620.7408344999421,None,1,M,9,R,KB,2021_May_28_1300,WASABI Nback,2020.2.10,59.99768405779158,
0,1,4,"[-0.2, 0]",1,0,1,1,1,,,,,0,0,0,0,0,38,38,38,,,,,,,,,,,622.7408206998371,None,622.7408206998371,623.7408465999179,623.7241591999773,624.7241785998922,None,0,622.7408206998371,None,1,M,9,R,KB,2021_May_28_1300,WASABI Nback,2020.2.10,59.99768405779158,
0,1,3,"[0.2, 0.2]",None,0,1,1,1,,,,,0,0,0,0,0,39,39,39,,,,,,,,,,,624.7408468998037,None,624.7408468998037,625.7408555999864,625.7241928998847,626.724196099909,None,1,624.7408468998037,None,1,M,9,R,KB,2021_May_28_1300,WASABI Nback,2020.2.10,59.99768405779158,
0,1,5,"[0, 0]",None,0,1,1,1,,,,,0,0,0,0,0,40,40,40,,,,,,,,,,,626.7409104998223,None,626.7409104998223,627.7408724999987,627.7242111999076,628.7242219999898,None,1,626.7409104998223,None,1,M,9,R,KB,2021_May_28_1300,WASABI Nback,2020.2.10,59.99768405779158,
0,1,3,"[0.2, 0.2]",1,0,1,1,1,,,,,0,0,0,0,0,41,41,41,,,,,,,,,,,628.740885599982,None,628.740885599982,629.7408779999241,629.7242203999776,630.7242323998362,None,0,628.740885599982,None,1,M,9,R,KB,2021_May_28_1300,WASABI Nback,2020.2.10,59.99768405779158,
0,1,1,"[-0.2, 0.2]",None,0,1,1,1,,,,,0,0,0,0,0,42,42,42,,,,,,,,,,,630.7408907997888,None,630.7408907997888,631.7408936999273,631.724247999955,632.7242572999094,None,1,630.7408907997888,None,1,M,9,R,KB,2021_May_28_1300,WASABI Nback,2020.2.10,59.99768405779158,
0,1,9,"[0.2, -0.2]",None,0,1,1,1,,,,,0,0,0,0,0,43,43,43,,,,,,,,,,,632.7409158998635,None,632.7409158998635,633.7409444998484,633.7242737999186,634.7242682999931,None,1,632.7409158998635,None,1,M,9,R,KB,2021_May_28_1300,WASABI Nback,2020.2.10,59.99768405779158,
0,1,9,"[0.2, -0.2]",None,0,1,1,1,,,,,0,0,0,0,0,44,44,44,,,,,,,,,,,634.7409356997814,None,634.7409356997814,635.7409343000036,635.7242759999353,636.7242759999353,None,1,634.7409356997814,None,1,M,9,R,KB,2021_May_28_1300,WASABI Nback,2020.2.10,59.99768405779158,
0,1,8,"[0, -0.2]",None,0,1,1,1,,,,,0,0,0,0,0,45,45,45,,,,,,,,,,,636.7409504000098,None,636.7409504000098,637.74096309999,637.7242880999111,638.7242939998396,None,1,636.7409504000098,None,1,M,9,R,KB,2021_May_28_1300,WASABI Nback,2020.2.10,59.99768405779158,
0,1,6,"[0.2, 0]",None,0,1,1,1,,,,,0,0,0,0,0,46,46,46,,,,,,,,,,,638.7409669999033,None,638.7409669999033,639.7409765999764,639.7243199998047,640.7243199998047,None,1,638.7409669999033,None,1,M,9,R,KB,2021_May_28_1300,WASABI Nback,2020.2.10,59.99768405779158,
0,1,3,"[0.2, 0.2]",None,0,1,1,1,,,,,0,0,0,0,0,47,47,47,,,,,,,,,,,640.7409846999217,None,640.7409846999217,641.7409837997984,641.7243205998093,642.7243311000057,None,1,640.7409846999217,None,1,M,9,R,KB,2021_May_28_1300,WASABI Nback,2020.2.10,59.99768405779158,
0,1,6,"[0.2, 0]",1,0,1,1,1,,,,,0,0,0,0,0,48,48,48,,,,,,,,,,,642.741047399817,None,642.741047399817,643.7410007999279,643.7243377999403,644.7243416998535,None,0,642.741047399817,None,1,M,9,R,KB,2021_May_28_1300,WASABI Nback,2020.2.10,59.99768405779158,
0,1,5,"[0, 0]",None,0,1,1,1,,,,,0,0,0,0,0,49,49,49,,,,,,,,,,,644.7410141997971,None,644.7410141997971,645.7410294997972,645.7243680998217,646.7243628997821,None,1,644.7410141997971,None,1,M,9,R,KB,2021_May_28_1300,WASABI Nback,2020.2.10,59.99768405779158,
0,1,7,"[-0.2, -0.2]",None,0,1,1,1,,,,,0,0,0,0,0,50,50,50,,,,,,,,,,,646.7410219998565,None,646.7410219998565,647.7410436999053,647.7243726998568,648.7243931000121,None,1,646.7410219998565,None,1,M,9,R,KB,2021_May_28_1300,WASABI Nback,2020.2.10,59.99768405779158,
0,1,5,"[0, 0]",1,0,1,1,1,,,,,0,0,0,0,0,51,51,51,,,,,,,,,,,648.7410541998688,None,648.7410541998688,649.7410612998065,649.7243861998431,650.7243917998858,None,0,648.7410541998688,None,1,M,9,R,KB,2021_May_28_1300,WASABI Nback,2020.2.10,59.99768405779158,
0,1,1,"[-0.2, 0.2]",None,0,1,1,1,,,,,0,0,0,0,0,52,52,52,,,,,,,,,,,650.7410751997959,None,650.7410751997959,651.7410782999359,651.7244020998478,652.7244106999133,None,1,650.7410751997959,None,1,M,9,R,KB,2021_May_28_1300,WASABI Nback,2020.2.10,59.99768405779158,
0,1,7,"[-0.2, -0.2]",None,0,1,1,1,,,,,0,0,0,0,0,53,53,53,,,,,,,,,,,652.7410841998644,None,652.7410841998644,653.7410826999694,653.7244682000019,654.7244301999453,None,1,652.7410841998644,None,1,M,9,R,KB,2021_May_28_1300,WASABI Nback,2020.2.10,59.99768405779158,
0,1,9,"[0.2, -0.2]",None,0,1,1,1,,,,,0,0,0,0,0,54,54,54,,,,,,,,,,,654.7411008998752,None,654.7411008998752,655.7411024998873,655.7244417998008,656.7244619999547,None,1,654.7411008998752,None,1,M,9,R,KB,2021_May_28_1300,WASABI Nback,2020.2.10,59.99768405779158,
0,1,3,"[0.2, 0.2]",None,0,1,1,1,,,,,0,0,0,0,0,55,55,55,,,,,,,,,,,656.741134399781,None,656.741134399781,657.741118399892,657.7244527000003,658.7244677999988,None,1,656.741134399781,None,1,M,9,R,KB,2021_May_28_1300,WASABI Nback,2020.2.10,59.99768405779158,
0,1,9,"[0.2, -0.2]",1,0,1,1,1,,,,,0,0,0,0,0,56,56,56,,,,,,,,,,,658.7411245999392,None,658.7411245999392,659.7411474999972,659.724476599833,660.7244847000111,None,0,658.7411245999392,None,1,M,9,R,KB,2021_May_28_1300,WASABI Nback,2020.2.10,59.99768405779158,
0,1,6,"[0.2, 0]",None,0,1,1,1,,,,,0,0,0,0,0,57,57,57,,,,,,,,,,,660.7411978999153,None,660.7411978999153,661.7411573999561,661.7244948998559,662.7245039998088,None,1,660.7411978999153,None,1,M,9,R,KB,2021_May_28_1300,WASABI Nback,2020.2.10,59.99768405779158,
0,1,2,"[0, 0.2]",None,0,1,1,1,,,,,0,0,0,0,0,58,58,58,,,,,,,,,,,662.7411692999303,None,662.7411692999303,663.7411762999836,663.7245113998652,664.7245259999763,None,1,662.7411692999303,None,1,M,9,R,KB,2021_May_28_1300,WASABI Nback,2020.2.10,59.99768405779158,
0,1,5,"[0, 0]",None,0,1,1,1,,,,,0,0,0,0,0,59,59,59,,,,,,,,,,,664.7411889999639,None,664.7411889999639,665.7411962999031,665.7245261999778,666.7245344999246,None,1,664.7411889999639,None,1,M,9,R,KB,2021_May_28_1300,WASABI Nback,2020.2.10,59.99768405779158,
0,1,5,"[0, 0]",None,0,1,1,1,,,,,0,0,0,0,0,60,60,60,,,,,,,,,,,666.7412043998484,None,666.7412043998484,667.7412123999093,667.7245508998167,668.7245428999886,None,1,666.7412043998484,None,1,M,9,R,KB,2021_May_28_1300,WASABI Nback,2020.2.10,59.99768405779158,
0,1,2,"[0, 0.2]",None,0,1,1,1,,,,,0,0,0,0,0,61,61,61,,,,,,,,,,,668.7412250000052,None,668.7412250000052,669.7412225999869,669.7245600998867,670.7245742999949,None,1,668.7412250000052,None,1,M,9,R,KB,2021_May_28_1300,WASABI Nback,2020.2.10,59.99768405779158,
0,1,6,"[0.2, 0]",None,0,1,1,1,,,,,0,0,0,0,0,62,62,62,,,,,,,,,,,670.7412341998424,None,670.7412341998424,671.7412449999247,671.7245749998838,672.7246054999996,None,1,670.7412341998424,None,1,M,9,R,KB,2021_May_28_1300,WASABI Nback,2020.2.10,59.99768405779158,
0,1,9,"[0.2, -0.2]",None,0,1,1,1,,,,,0,0,0,0,0,63,63,63,,,,,,,,,,,672.7412482998334,None,672.7412482998334,673.741248199949,673.7246049998794,674.7246041998733,None,1,672.7412482998334,None,1,M,9,R,KB,2021_May_28_1300,WASABI Nback,2020.2.10,59.99768405779158,
0,1,3,"[0.2, 0.2]",None,0,1,1,1,,,,,0,0,0,0,0,64,64,64,,,,,,,,,,,674.7412642999552,None,674.7412642999552,675.7412769999355,675.7246177999768,676.724652200006,None,1,674.7412642999552,None,1,M,9,R,KB,2021_May_28_1300,WASABI Nback,2020.2.10,59.99768405779158,
0,1,9,"[0.2, -0.2]",1,0,1,1,1,,,,,0,0,0,0,0,65,65,65,,,,,,,,,,,676.7412845999934,None,676.7412845999934,677.7412972999737,677.724626199808,678.7246272999328,None,0,676.7412845999934,None,1,M,9,R,KB,2021_May_28_1300,WASABI Nback,2020.2.10,59.99768405779158,
0,1,7,"[-0.2, -0.2]",None,0,1,1,1,,,,,0,0,0,0,0,66,66,66,,,,,,,,,,,678.7413087999448,None,678.7413087999448,679.7413127999753,679.724655999802,680.7246677998919,None,1,678.7413087999448,None,1,M,9,R,KB,2021_May_28_1300,WASABI Nback,2020.2.10,59.99768405779158,
0,1,1,"[-0.2, 0.2]",None,0,1,1,1,,,,,0,0,0,0,0,67,67,67,,,,,,,,,,,680.7413083999418,None,680.7413083999418,681.7413297998719,681.7245995998383,682.7246649998706,None,1,680.7413083999418,None,1,M,9,R,KB,2021_May_28_1300,WASABI Nback,2020.2.10,59.99768405779158,
0,1,5,"[0, 0]",None,0,1,1,1,,,,,0,0,0,0,0,68,68,68,,,,,,,,,,,682.7413437999785,None,682.7413437999785,683.7413374998141,683.7246720998082,684.7246824998874,None,1,682.7413437999785,None,1,M,9,R,KB,2021_May_28_1300,WASABI Nback,2020.2.10,59.99768405779158,
0,1,7,"[-0.2, -0.2]",None,0,1,1,1,,,,,0,0,0,0,0,69,69,69,,,,,,,,,,,684.7413629000075,None,684.7413629000075,685.7413625000045,685.7246904999483,686.7247076998465,None,1,684.7413629000075,None,1,M,9,R,KB,2021_May_28_1300,WASABI Nback,2020.2.10,59.99768405779158,
0,1,5,"[0, 0]",1,0,1,1,1,,,,,0,0,0,0,0,70,70,70,,,,,,,,,,,686.7413590999786,None,686.7413590999786,687.7413649999071,687.7247180999257,688.7247205998283,None,0,686.7413590999786,None,1,M,9,R,KB,2021_May_28_1300,WASABI Nback,2020.2.10,59.99768405779158,
0,1,6,"[0.2, 0]",None,0,1,1,1,,,,,0,0,0,0,0,71,71,71,,,,,,,,,,,688.7413925000001,None,688.7413925000001,689.7414027999621,689.7247234999668,690.7247429999989,None,1,688.7413925000001,None,1,M,9,R,KB,2021_May_28_1300,WASABI Nback,2020.2.10,59.99768405779158,
0,1,3,"[0.2, 0.2]",None,0,1,1,1,,,,,0,0,0,0,0,72,72,72,,,,,,,,,,,690.7414078998845,None,690.7414078998845,691.7414161998313,691.7247478999197,692.7247444000095,None,1,690.7414078998845,None,1,M,9,R,KB,2021_May_28_1300,WASABI Nback,2020.2.10,59.99768405779158,
0,1,6,"[0.2, 0]",1,0,1,1,1,,,,,0,0,0,0,0,73,73,73,,,,,,,,,,,692.7414220999926,None,692.7414220999926,693.7414312998299,693.7247703999747,694.724776199786,None,0,692.7414220999926,None,1,M,9,R,KB,2021_May_28_1300,WASABI Nback,2020.2.10,59.99768405779158,
0,1,8,"[0, -0.2]",None,0,1,1,1,,,,,0,0,0,0,0,74,74,74,,,,,,,,,,,694.7414400000125,None,694.7414400000125,695.7414657999761,695.7247728998773,696.7247182999272,None,1,694.7414400000125,None,1,M,9,R,KB,2021_May_28_1300,WASABI Nback,2020.2.10,59.99768405779158,
0,1,9,"[0.2, -0.2]",None,0,1,1,1,,,,,0,0,0,0,0,75,75,75,,,,,,,,,,,696.7414718999062,None,696.7414718999062,697.7414668998681,697.7247926997952,698.7247984998394,None,1,696.7414718999062,None,1,M,9,R,KB,2021_May_28_1300,WASABI Nback,2020.2.10,59.99768405779158,
0,1,9,"[0.2, -0.2]",None,0,1,1,1,,,,,0,0,0,0,0,76,76,76,,,,,,,,,,,698.7414796999656,None,698.7414796999656,699.7415013997816,699.7248122999445,700.7248127998319,None,1,698.7414796999656,None,1,M,9,R,KB,2021_May_28_1300,WASABI Nback,2020.2.10,59.99768405779158,
0,1,1,"[-0.2, 0.2]",None,0,1,1,1,,,,,0,0,0,0,0,77,77,77,,,,,,,,,,,700.7415089998394,None,700.7415089998394,701.7415020999033,701.724831999978,702.7248481998686,None,1,700.7415089998394,None,1,M,9,R,KB,2021_May_28_1300,WASABI Nback,2020.2.10,59.99768405779158,
0,1,3,"[0.2, 0.2]",None,0,1,1,1,,,,,0,0,0,0,0,78,78,78,,,,,,,,,,,702.7415213999338,None,702.7415213999338,703.741504999809,703.7248180999886,704.724812499946,None,1,702.7415213999338,None,1,M,9,R,KB,2021_May_28_1300,WASABI Nback,2020.2.10,59.99768405779158,
0,1,5,"[0, 0]",None,0,1,1,1,,,,,0,0,0,0,0,79,79,79,,,,,,,,,,,704.7415331997909,None,704.7415331997909,705.7415296998806,705.7248639999889,706.7248672000133,None,1,704.7415331997909,None,1,M,9,R,KB,2021_May_28_1300,WASABI Nback,2020.2.10,59.99768405779158,
0,1,3,"[0.2, 0.2]",1,0,1,1,1,,,,,0,0,0,0,0,80,80,80,,,,,,,,,,,706.7415368999355,None,706.7415368999355,707.7415566998534,707.7248823000118,708.7248856998049,None,0,706.7415368999355,None,1,M,9,R,KB,2021_May_28_1300,WASABI Nback,2020.2.10,59.99768405779158,
0,1,4,"[-0.2, 0]",None,0,1,1,1,,,,,0,0,0,0,0,81,81,81,,,,,,,,,,,708.7415586998686,None,708.7415586998686,709.741582099814,709.7248922998551,710.7249075998552,None,1,708.7415586998686,None,1,M,9,R,KB,2021_May_28_1300,WASABI Nback,2020.2.10,59.99768405779158,
0,1,7,"[-0.2, -0.2]",None,0,1,1,1,,,,,0,0,0,0,0,82,82,82,,,,,,,,,,,710.741618799977,None,710.741618799977,711.7415964999236,711.7249087998644,712.7249214998446,None,1,710.741618799977,None,1,M,9,R,KB,2021_May_28_1300,WASABI Nback,2020.2.10,59.99768405779158,
0,1,4,"[-0.2, 0]",1,0,1,1,1,,,,,0,0,0,0,0,83,83,83,,,,,,,,,,,712.7415888998657,None,712.7415888998657,713.741620699875,713.7249232998583,714.7249342999421,None,0,712.7415888998657,None,1,M,9,R,KB,2021_May_28_1300,WASABI Nback,2020.2.10,59.99768405779158,
0,1,4,"[-0.2, 0]",None,0,1,1,1,,,,,0,0,0,0,0,84,84,84,,,,,,,,,,,714.7416230998933,None,714.7416230998933,715.7416422998067,715.7249485999346,716.7249427000061,None,1,714.7416230998933,None,1,M,9,R,KB,2021_May_28_1300,WASABI Nback,2020.2.10,59.99768405779158,
0,1,5,"[0, 0]",None,0,1,1,1,,,,,0,0,0,0,0,85,85,85,,,,,,,,,,,716.741620299872,None,716.741620299872,717.7416234998964,717.7249627998099,718.7249729000032,None,1,716.741620299872,None,1,M,9,R,KB,2021_May_28_1300,WASABI Nback,2020.2.10,59.99768405779158,
0,1,2,"[0, 0.2]",None,0,1,1,1,,,,,0,0,0,0,0,86,86,86,,,,,,,,,,,718.7416360999923,None,718.7416360999923,719.7416590999346,719.724983099848,720.7250072997995,None,1,718.7416360999923,None,1,M,9,R,KB,2021_May_28_1300,WASABI Nback,2020.2.10,59.99768405779158,
0,1,6,"[0.2, 0]",None,0,1,1,1,,,,,0,0,0,0,0,87,87,87,,,,,,,,,,,720.7417488999199,None,720.7417488999199,721.7416657998692,721.7250111999456,722.7250011998694,None,1,720.7417488999199,None,1,M,9,R,KB,2021_May_28_1300,WASABI Nback,2020.2.10,59.99768405779158,
0,1,7,"[-0.2, -0.2]",None,0,1,1,1,,,,,0,0,0,0,0,88,88,88,,,,,,,,,,,722.7416707999073,None,722.7416707999073,723.7416803999804,723.7250260999426,724.7250164998695,None,1,722.7416707999073,None,1,M,9,R,KB,2021_May_28_1300,WASABI Nback,2020.2.10,59.99768405779158,
0,1,6,"[0.2, 0]",1,0,1,1,1,,,,,0,0,0,0,0,89,89,89,,,,,,,,,,,724.7416921998374,None,724.7416921998374,725.7417536999565,725.7250203997828,726.725043799961,None,0,724.7416921998374,None,1,M,9,R,KB,2021_May_28_1300,WASABI Nback,2020.2.10,59.99768405779158,
0,1,6,"[0.2, 0]",None,0,1,1,1,,,,,0,0,0,0,0,90,90,90,,,,,,,,,,,726.7417124998756,None,726.7417124998756,727.7417192999274,727.7250436998438,728.7250602999702,None,1,726.7417124998756,None,1,M,9,R,KB,2021_May_28_1300,WASABI Nback,2020.2.10,59.99768405779158,
0,1,7,"[-0.2, -0.2]",None,0,1,1,1,,,,,0,0,0,0,0,91,91,91,,,,,,,,,,,728.7417303000111,None,728.7417303000111,729.7417373999488,729.7250687999185,730.7250691999216,None,1,728.7417303000111,None,1,M,9,R,KB,2021_May_28_1300,WASABI Nback,2020.2.10,59.99768405779158,
0,1,6,"[0.2, 0]",1,0,1,1,1,,,,,0,0,0,0,0,92,92,92,,,,,,,,,,,730.7417424998712,None,730.7417424998712,731.741746599786,731.7250866999384,732.7250997999217,None,0,730.7417424998712,None,1,M,9,R,KB,2021_May_28_1300,WASABI Nback,2020.2.10,59.99768405779158,
0,1,2,"[0, 0.2]",None,0,1,1,1,,,,,0,0,0,0,0,93,93,93,,,,,,,,,,,732.7417285998818,None,732.7417285998818,733.7417591998819,733.725093399873,734.7251048998442,None,1,732.7417285998818,None,1,M,9,R,KB,2021_May_28_1300,WASABI Nback,2020.2.10,59.99768405779158,
0,1,5,"[0, 0]",None,0,1,1,1,,,,,0,0,0,0,0,94,94,94,,,,,,,,,,,734.741772999987,None,734.741772999987,735.7417849998455,735.7251285999082,736.725049899891,None,1,734.741772999987,None,1,M,9,R,KB,2021_May_28_1300,WASABI Nback,2020.2.10,59.99768405779158,
0,1,4,"[-0.2, 0]",None,0,1,1,1,,,,,0,0,0,0,0,95,95,95,,,,,,,,,,,736.7417842999566,None,736.7417842999566,737.7418090999126,737.7251363999676,738.7251424998976,None,1,736.7417842999566,None,1,M,9,R,KB,2021_May_28_1300,WASABI Nback,2020.2.10,59.99768405779158,
0,1,4,"[-0.2, 0]",None,0,1,1,1,,,,,0,0,0,0,0,96,96,96,,,,,,,,,,,738.7418135998305,None,738.7418135998305,739.7416910999455,739.7251463998109,740.7251550999936,None,1,738.7418135998305,None,1,M,9,R,KB,2021_May_28_1300,WASABI Nback,2020.2.10,59.99768405779158,
0,1,7,"[-0.2, -0.2]",None,0,1,1,1,,,,,0,0,0,0,0,97,97,97,,,,,,,,,,,740.7418259999249,None,740.7418259999249,741.7418383997865,741.7251663999632,742.7251796999481,None,1,740.7418259999249,None,1,M,9,R,KB,2021_May_28_1300,WASABI Nback,2020.2.10,59.99768405779158,
0,1,4,"[-0.2, 0]",1,0,1,1,1,,,,,0,0,0,0,0,98,98,98,,,,,,,,,,,742.74183669989,None,742.74183669989,743.7418478999753,743.7251875000075,744.7251938998234,None,0,742.74183669989,None,1,M,9,R,KB,2021_May_28_1300,WASABI Nback,2020.2.10,59.99768405779158,
0,1,3,"[0.2, 0.2]",None,0,1,1,1,,,,,0,0,0,0,0,99,99,99,,,,,,,,,,,744.7418508999981,None,744.7418508999981,745.7418773998506,745.7250989999156,746.7252116999589,None,1,744.7418508999981,None,1,M,9,R,KB,2021_May_28_1300,WASABI Nback,2020.2.10,59.99768405779158,
0,1,5,"[0, 0]",None,0,1,1,1,,,,,0,0,0,0,0,100,100,100,,,,,,,,,,,746.7418836997822,None,746.7418836997822,747.7418827998918,747.7252100999467,748.7252229999285,None,1,746.7418836997822,None,1,M,9,R,KB,2021_May_28_1300,WASABI Nback,2020.2.10,59.99768405779158,
0,1,3,"[0.2, 0.2]",1,0,1,1,1,,,,,0,0,0,0,0,101,101,101,,,,,,,,,,,748.7418933999725,None,748.7418933999725,749.7419030999299,749.7252351997886,750.7252466999926,None,0,748.7418933999725,None,1,M,9,R,KB,2021_May_28_1300,WASABI Nback,2020.2.10,59.99768405779158,
0,1,1,"[-0.2, 0.2]",None,0,1,1,1,,,,,0,0,0,0,0,102,102,102,,,,,,,,,,,750.7419129998889,None,750.7419129998889,751.7419255999848,751.7252493998967,752.7252634000033,None,1,750.7419129998889,None,1,M,9,R,KB,2021_May_28_1300,WASABI Nback,2020.2.10,59.99768405779158,
0,1,9,"[0.2, -0.2]",None,0,1,1,1,,,,,0,0,0,0,0,103,103,103,,,,,,,,,,,752.7419373998418,None,752.7419373998418,753.7419367998373,753.7252742999699,754.7252735998482,None,1,752.7419373998418,None,1,M,9,R,KB,2021_May_28_1300,WASABI Nback,2020.2.10,59.99768405779158,
0,1,9,"[0.2, -0.2]",None,0,1,1,1,,,,,0,0,0,0,0,104,104,104,,,,,,,,,,,754.741947799921,None,754.741947799921,755.74196379981,755.7252887999639,756.7252855999395,None,1,754.741947799921,None,1,M,9,R,KB,2021_May_28_1300,WASABI Nback,2020.2.10,59.99768405779158,
0,1,8,"[0, -0.2]",None,0,1,1,1,,,,,0,0,0,0,0,105,105,105,,,,,,,,,,,756.7419839999638,None,756.7419839999638,757.7419592000078,757.7253038999625,758.725310599897,None,1,756.7419839999638,None,1,M,9,R,KB,2021_May_28_1300,WASABI Nback,2020.2.10,59.99768405779158,
0,1,6,"[0.2, 0]",None,0,1,1,1,,,,,0,0,0,0,0,106,106,106,,,,,,,,,,,758.7420132998377,None,758.7420132998377,759.741989800008,759.7253232998773,760.7253291998059,None,1,758.7420132998377,None,1,M,9,R,KB,2021_May_28_1300,WASABI Nback,2020.2.10,59.99768405779158,
0,1,3,"[0.2, 0.2]",None,0,1,1,1,,,,,0,0,0,0,0,107,107,107,,,,,,,,,,,760.7419939998072,None,760.7419939998072,761.7420088998042,761.7253403998911,762.7253405000083,None,1,760.7419939998072,None,1,M,9,R,KB,2021_May_28_1300,WASABI Nback,2020.2.10,59.99768405779158,
0,1,6,"[0.2, 0]",1,0,1,1,1,,,,,0,0,0,0,0,108,108,108,,,,,,,,,,,762.742018399993,None,762.742018399993,763.7420165999793,763.7253407998942,764.7253658999689,None,0,762.742018399993,None,1,M,9,R,KB,2021_May_28_1300,WASABI Nback,2020.2.10,59.99768405779158,
0,1,5,"[0, 0]",None,0,1,1,1,,,,,0,0,0,0,0,109,109,109,,,,,,,,,,,764.7420363998972,None,764.7420363998972,765.7420329998713,765.7253711998928,766.7253721999004,None,1,764.7420363998972,None,1,M,9,R,KB,2021_May_28_1300,WASABI Nback,2020.2.10,59.99768405779158,
0,1,7,"[-0.2, -0.2]",None,0,1,1,1,,,,,0,0,0,0,0,110,110,110,,,,,,,,,,,766.7420424998272,None,766.7420424998272,767.7420592999551,767.725388399791,768.7253902999219,None,1,766.7420424998272,None,1,M,9,R,KB,2021_May_28_1300,WASABI Nback,2020.2.10,59.99768405779158,
0,1,5,"[0, 0]",1,0,1,1,1,,,,,0,0,0,0,0,111,111,111,,,,,,,,,,,768.7420655998867,None,768.7420655998867,769.7420623998623,769.7253973998595,770.7254133999813,None,0,768.7420655998867,None,1,M,9,R,KB,2021_May_28_1300,WASABI Nback,2020.2.10,59.99768405779158,
0,1,1,"[-0.2, 0.2]",None,0,1,1,1,,,,,0,0,0,0,0,112,112,112,,,,,,,,,,,770.7420844999142,None,770.7420844999142,771.7420900999568,771.7254142998718,772.7254323000088,None,1,770.7420844999142,None,1,M,9,R,KB,2021_May_28_1300,WASABI Nback,2020.2.10,59.99768405779158,
0,1,7,"[-0.2, -0.2]",None,0,1,1,1,,,,,0,0,0,0,0,113,113,113,,,,,,,,,,,772.7420992997941,None,772.7420992997941,773.7421120998915,773.7254393999465,774.7254662998021,None,1,772.7420992997941,None,1,M,9,R,KB,2021_May_28_1300,WASABI Nback,2020.2.10,59.99768405779158,
0,1,9,"[0.2, -0.2]",None,0,1,1,1,,,,,0,0,0,0,0,114,114,114,,,,,,,,,,,774.7421168999281,None,774.7421168999281,775.7421195998322,775.7254596999846,776.7255043999758,None,1,774.7421168999281,None,1,M,9,R,KB,2021_May_28_1300,WASABI Nback,2020.2.10,59.99768405779158,
0,1,3,"[0.2, 0.2]",None,0,1,1,1,,,,,0,0,0,0,0,115,115,115,,,,,,,,,,,776.7421367999632,None,776.7421367999632,777.742141299881,777.7254978998099,778.7255167998374,None,1,776.7421367999632,None,1,M,9,R,KB,2021_May_28_1300,WASABI Nback,2020.2.10,59.99768405779158,
0,1,9,"[0.2, -0.2]",1,0,1,1,1,,,,,0,0,0,0,0,116,116,116,,,,,,,,,,,778.742120299954,None,778.742120299954,779.742165699834,779.7254940997809,780.7255362998694,None,0,778.742120299954,None,1,M,9,R,KB,2021_May_28_1300,WASABI Nback,2020.2.10,59.99768405779158,
0,1,6,"[0.2, 0]",None,0,1,1,1,,,,,0,0,0,0,0,117,117,117,,,,,,,,,,,780.7421597999055,None,780.7421597999055,781.7421692998614,781.7254329000134,782.7255314998329,None,1,780.7421597999055,None,1,M,9,R,KB,2021_May_28_1300,WASABI Nback,2020.2.10,59.99768405779158,
0,1,2,"[0, 0.2]",None,0,1,1,1,,,,,0,0,0,0,0,118,118,118,,,,,,,,,,,782.7421822999604,None,782.7421822999604,783.7421932998113,783.72553159995,784.7255413997918,None,1,782.7421822999604,None,1,M,9,R,KB,2021_May_28_1300,WASABI Nback,2020.2.10,59.99768405779158,
0,1,5,"[0, 0]",None,0,1,1,1,,,,,0,0,0,0,0,119,119,119,,,,,,,,,,,784.7422063997947,None,784.7422063997947,785.7422193998937,785.7255264997948,786.725561299827,None,1,784.7422063997947,None,1,M,9,R,KB,2021_May_28_1300,WASABI Nback,2020.2.10,59.99768405779158,
