RestT1,TaskT1,square,location,corrAns,counterbalancer.thisRepN,counterbalancer.thisTrialN,counterbalancer.thisN,counterbalancer.thisIndex,RestT1Loop.thisRepN,RestT1Loop.thisTrialN,RestT1Loop.thisN,RestT1Loop.thisIndex,TaskT1Loop.thisRepN,TaskT1Loop.thisTrialN,TaskT1Loop.thisN,TaskT1Loop.thisIndex,trials_2.thisRepN,trials_2.thisTrialN,trials_2.thisN,trials_2.thisIndex,fixation_1.started,fixation_1.stopped,NbackInstructions.started,NbackInstructions.stopped,NbackStart.keys,NbackStart.rt,NbackStart.started,NbackStart.stopped,fixation_2.started,fixation_2.stopped,grid_lines_2.started,grid_lines_2.stopped,target_square_2.started,target_square_2.stopped,fixation_3.started,fixation_3.stopped,response_2.click,response_2.corr,response_2.started,response_2.stopped,response_2.rt,subject number,gender,session,handedness,scanner,date,expName,psychopyVersion,frameRate,
1,0,,,,0,0,0,0,0,0,0,0,,,,,,,,,166.3966656998964,None,,,,,,,,,,,,,,,,,,,,3,f,5,l,KB,2021_May_24_1235,WASABI Nback,2020.2.10,59.99915999139439,
0,1,,,,0,1,1,1,,,,,0,0,0,0,,,,,,,632.9505178999389,None,space,38.2160176000325,632.9505178999389,None,,,,,,,,,,,,,,3,f,5,l,KB,2021_May_24_1235,WASABI Nback,2020.2.10,59.99915999139439,
0,1,5,"[0, 0]",None,0,1,1,1,,,,,0,0,0,0,0,0,0,0,,,,,,,,,672.1342348000035,None,672.2674941999139,None,672.2674941999139,673.2675259999232,673.2509103999473,None,None,1,672.2674941999139,None,,3,f,5,l,KB,2021_May_24_1235,WASABI Nback,2020.2.10,59.99915999139439,
0,1,2,"[0, 0.2]",None,0,1,1,1,,,,,0,0,0,0,0,1,1,1,,,,,,,,,,,674.2176038000034,None,674.2176038000034,675.2176084999228,675.2009227999952,676.2009499999695,None,1,674.2176038000034,None,,3,f,5,l,KB,2021_May_24_1235,WASABI Nback,2020.2.10,59.99915999139439,
0,1,6,"[0.2, 0]",None,0,1,1,1,,,,,0,0,0,0,0,2,2,2,,,,,,,,,,,676.2176064999076,None,676.2176064999076,677.2176259999396,677.2009525999893,678.2008926999988,None,1,676.2176064999076,None,,3,f,5,l,KB,2021_May_24_1235,WASABI Nback,2020.2.10,59.99915999139439,
0,1,9,"[0.2, -0.2]",None,0,1,1,1,,,,,0,0,0,0,0,3,3,3,,,,,,,,,,,678.217633799999,None,678.217633799999,679.2176325999899,679.2009493999649,680.2009869999019,None,1,678.217633799999,None,,3,f,5,l,KB,2021_May_24_1235,WASABI Nback,2020.2.10,59.99915999139439,
0,1,3,"[0.2, 0.2]",None,0,1,1,1,,,,,0,0,0,0,0,4,4,4,,,,,,,,,,,680.2176438999595,None,680.2176438999595,681.2176517999033,681.2009905999294,682.2009720999049,None,1,680.2176438999595,None,,3,f,5,l,KB,2021_May_24_1235,WASABI Nback,2020.2.10,59.99915999139439,
0,1,9,"[0.2, -0.2]",1,0,1,1,1,,,,,0,0,0,0,0,5,5,5,,,,,,,,,,,682.2176475999877,None,682.2176475999877,683.2176499000052,683.201000800007,684.2009949999629,None,0,682.2176475999877,None,,3,f,5,l,KB,2021_May_24_1235,WASABI Nback,2020.2.10,59.99915999139439,
0,1,7,"[-0.2, -0.2]",None,0,1,1,1,,,,,0,0,0,0,0,6,6,6,,,,,,,,,,,684.2176773999818,None,684.2176773999818,685.2176697999239,685.2010680999374,686.2010308000026,None,1,684.2176773999818,None,,3,f,5,l,KB,2021_May_24_1235,WASABI Nback,2020.2.10,59.99915999139439,
0,1,1,"[-0.2, 0.2]",None,0,1,1,1,,,,,0,0,0,0,0,7,7,7,,,,,,,,,,,686.2176909999689,None,686.2176909999689,687.2177871000022,687.2010339999106,688.201046800008,None,1,686.2176909999689,None,,3,f,5,l,KB,2021_May_24_1235,WASABI Nback,2020.2.10,59.99915999139439,
0,1,5,"[0, 0]",None,0,1,1,1,,,,,0,0,0,0,0,8,8,8,,,,,,,,,,,688.2176119999494,None,688.2176119999494,689.2177116998937,689.2010316998931,690.2010637999047,None,1,688.2176119999494,None,,3,f,5,l,KB,2021_May_24_1235,WASABI Nback,2020.2.10,59.99915999139439,
0,1,7,"[-0.2, -0.2]",None,0,1,1,1,,,,,0,0,0,0,0,9,9,9,,,,,,,,,,,690.217720799963,None,690.217720799963,691.2177297999151,691.2010770000052,692.2010642999085,None,1,690.217720799963,None,,3,f,5,l,KB,2021_May_24_1235,WASABI Nback,2020.2.10,59.99915999139439,
0,1,5,"[0, 0]",1,0,1,1,1,,,,,0,0,0,0,0,10,10,10,,,,,,,,,,,692.217747699935,None,692.217747699935,693.2177381999791,693.2010746999877,694.2010952999117,None,0,692.217747699935,None,,3,f,5,l,KB,2021_May_24_1235,WASABI Nback,2020.2.10,59.99915999139439,
0,1,6,"[0.2, 0]",None,0,1,1,1,,,,,0,0,0,0,0,11,11,11,,,,,,,,,,,694.2177468999289,None,694.2177468999289,695.2177631999366,695.2010972999269,696.2010991999414,None,1,694.2177468999289,None,,3,f,5,l,KB,2021_May_24_1235,WASABI Nback,2020.2.10,59.99915999139439,
0,1,3,"[0.2, 0.2]",None,0,1,1,1,,,,,0,0,0,0,0,12,12,12,,,,,,,,,,,696.2177609999198,None,696.2177609999198,697.2177662999602,697.2011205999879,698.2011268999195,None,1,696.2177609999198,None,,3,f,5,l,KB,2021_May_24_1235,WASABI Nback,2020.2.10,59.99915999139439,
0,1,6,"[0.2, 0]",1,0,1,1,1,,,,,0,0,0,0,0,13,13,13,,,,,,,,,,,698.2177741999039,None,698.2177741999039,699.2177828999702,699.2011187999742,700.2011429999257,None,0,698.2177741999039,None,,3,f,5,l,KB,2021_May_24_1235,WASABI Nback,2020.2.10,59.99915999139439,
0,1,8,"[0, -0.2]",None,0,1,1,1,,,,,0,0,0,0,0,14,14,14,,,,,,,,,,,700.217810699949,None,700.217810699949,701.2177968999604,701.2011577999219,702.2011642999714,None,1,700.217810699949,None,,3,f,5,l,KB,2021_May_24_1235,WASABI Nback,2020.2.10,59.99915999139439,
0,1,9,"[0.2, -0.2]",None,0,1,1,1,,,,,0,0,0,0,0,15,15,15,,,,,,,,,,,702.2178146999795,None,702.2178146999795,703.2177824999671,703.2011685000034,704.2011712999083,None,1,702.2178146999795,None,,3,f,5,l,KB,2021_May_24_1235,WASABI Nback,2020.2.10,59.99915999139439,
0,1,9,"[0.2, -0.2]",None,0,1,1,1,,,,,0,0,0,0,0,16,16,16,,,,,,,,,,,704.2178234999301,None,704.2178234999301,705.2178466999903,705.2011898999335,706.2012531999499,None,1,704.2178234999301,None,,3,f,5,l,KB,2021_May_24_1235,WASABI Nback,2020.2.10,59.99915999139439,
0,1,1,"[-0.2, 0.2]",None,0,1,1,1,,,,,0,0,0,0,0,17,17,17,,,,,,,,,,,706.2178494998952,None,706.2178494998952,707.2178631999996,707.2012044999283,708.2012158998987,None,1,706.2178494998952,None,,3,f,5,l,KB,2021_May_24_1235,WASABI Nback,2020.2.10,59.99915999139439,
0,1,3,"[0.2, 0.2]",None,0,1,1,1,,,,,0,0,0,0,0,18,18,18,,,,,,,,,,,708.217868299922,None,708.217868299922,709.2178727999562,709.2012077999534,710.2012173999101,None,1,708.217868299922,None,,3,f,5,l,KB,2021_May_24_1235,WASABI Nback,2020.2.10,59.99915999139439,
0,1,5,"[0, 0]",None,0,1,1,1,,,,,0,0,0,0,0,19,19,19,,,,,,,,,,,710.21787329996,None,710.21787329996,711.2178968999069,711.2012681999477,712.2012193999253,None,1,710.21787329996,None,,3,f,5,l,KB,2021_May_24_1235,WASABI Nback,2020.2.10,59.99915999139439,
0,1,3,"[0.2, 0.2]",1,0,1,1,1,,,,,0,0,0,0,0,20,20,20,,,,,,,,,,,712.2179035999579,None,712.2179035999579,713.2179013999412,713.2012371999444,714.2012508999323,None,0,712.2179035999579,None,,3,f,5,l,KB,2021_May_24_1235,WASABI Nback,2020.2.10,59.99915999139439,
0,1,4,"[-0.2, 0]",None,0,1,1,1,,,,,0,0,0,0,0,21,21,21,,,,,,,,,,,714.2179186999565,None,714.2179186999565,715.2179210999748,715.201240299968,716.2012590999948,None,1,714.2179186999565,None,,3,f,5,l,KB,2021_May_24_1235,WASABI Nback,2020.2.10,59.99915999139439,
0,1,7,"[-0.2, -0.2]",None,0,1,1,1,,,,,0,0,0,0,0,22,22,22,,,,,,,,,,,716.217922699987,None,716.217922699987,717.2179464999354,717.2012930999044,718.2012914998922,None,1,716.217922699987,None,,3,f,5,l,KB,2021_May_24_1235,WASABI Nback,2020.2.10,59.99915999139439,
0,1,4,"[-0.2, 0]",1,0,1,1,1,,,,,0,0,0,0,0,23,23,23,,,,,,,,,,,718.2179391999962,None,718.2179391999962,719.2179094000021,719.2012991999509,720.2013130999403,None,0,718.2179391999962,None,,3,f,5,l,KB,2021_May_24_1235,WASABI Nback,2020.2.10,59.99915999139439,
0,1,4,"[-0.2, 0]",None,0,1,1,1,,,,,0,0,0,0,0,24,24,24,,,,,,,,,,,720.2179691999918,None,720.2179691999918,721.2179624999408,721.2013243999099,722.2012393999612,None,1,720.2179691999918,None,,3,f,5,l,KB,2021_May_24_1235,WASABI Nback,2020.2.10,59.99915999139439,
0,1,5,"[0, 0]",None,0,1,1,1,,,,,0,0,0,0,0,25,25,25,,,,,,,,,,,722.2179931999417,None,722.2179931999417,723.2179985999828,723.2013215000043,724.2013429999352,None,1,722.2179931999417,None,,3,f,5,l,KB,2021_May_24_1235,WASABI Nback,2020.2.10,59.99915999139439,
0,1,2,"[0, 0.2]",None,0,1,1,1,,,,,0,0,0,0,0,26,26,26,,,,,,,,,,,724.2180016000057,None,724.2180016000057,725.2179942999501,725.20135019999,726.2013542999048,None,1,724.2180016000057,None,,3,f,5,l,KB,2021_May_24_1235,WASABI Nback,2020.2.10,59.99915999139439,
0,1,6,"[0.2, 0]",None,0,1,1,1,,,,,0,0,0,0,0,27,27,27,,,,,,,,,,,726.2180208999198,None,726.2180208999198,727.218027099967,727.2013657999923,728.2013611999573,None,1,726.2180208999198,None,,3,f,5,l,KB,2021_May_24_1235,WASABI Nback,2020.2.10,59.99915999139439,
0,1,7,"[-0.2, -0.2]",None,0,1,1,1,,,,,0,0,0,0,0,28,28,28,,,,,,,,,,,728.2180219999282,None,728.2180219999282,729.218041999964,729.2013755999506,730.2013882999308,None,1,728.2180219999282,None,,3,f,5,l,KB,2021_May_24_1235,WASABI Nback,2020.2.10,59.99915999139439,
0,1,6,"[0.2, 0]",1,0,1,1,1,,,,,0,0,0,0,0,29,29,29,,,,,,,,,,,730.2180372999283,None,730.2180372999283,731.2180509999162,731.2013945999788,732.2013976000017,None,0,730.2180372999283,None,,3,f,5,l,KB,2021_May_24_1235,WASABI Nback,2020.2.10,59.99915999139439,
0,1,6,"[0.2, 0]",None,0,1,1,1,,,,,0,0,0,0,0,30,30,30,,,,,,,,,,,732.2180700999452,None,732.2180700999452,733.2180621000007,733.201420599944,734.2014210999478,1,0,732.2180700999452,None,1.7964626000029966,3,f,5,l,KB,2021_May_24_1235,WASABI Nback,2020.2.10,59.99915999139439,
0,1,7,"[-0.2, -0.2]",None,0,1,1,1,,,,,0,0,0,0,0,31,31,31,,,,,,,,,,,734.2180906999856,None,734.2180906999856,735.2180883999681,735.2014265999896,736.201457099989,None,1,734.2180906999856,None,,3,f,5,l,KB,2021_May_24_1235,WASABI Nback,2020.2.10,59.99915999139439,
0,1,6,"[0.2, 0]",1,0,1,1,1,,,,,0,0,0,0,0,32,32,32,,,,,,,,,,,736.2180765999947,None,736.2180765999947,737.2181395998923,737.2014857999748,738.2014559999807,None,0,736.2180765999947,None,,3,f,5,l,KB,2021_May_24_1235,WASABI Nback,2020.2.10,59.99915999139439,
0,1,2,"[0, 0.2]",None,0,1,1,1,,,,,0,0,0,0,0,33,33,33,,,,,,,,,,,738.218120799982,None,738.218120799982,739.2180678999284,739.2014624999138,740.201473699999,None,1,738.218120799982,None,,3,f,5,l,KB,2021_May_24_1235,WASABI Nback,2020.2.10,59.99915999139439,
0,1,5,"[0, 0]",None,0,1,1,1,,,,,0,0,0,0,0,34,34,34,,,,,,,,,,,740.2181362999836,None,740.2181362999836,741.2181345999707,741.2014683999587,742.2014724999899,None,1,740.2181362999836,None,,3,f,5,l,KB,2021_May_24_1235,WASABI Nback,2020.2.10,59.99915999139439,
0,1,4,"[-0.2, 0]",None,0,1,1,1,,,,,0,0,0,0,0,35,35,35,,,,,,,,,,,742.2181482999586,None,742.2181482999586,743.218167199986,743.2014977999497,744.2015122999437,None,1,742.2181482999586,None,,3,f,5,l,KB,2021_May_24_1235,WASABI Nback,2020.2.10,59.99915999139439,
0,1,4,"[-0.2, 0]",None,0,1,1,1,,,,,0,0,0,0,0,36,36,36,,,,,,,,,,,744.2181608999381,None,744.2181608999381,745.218166799983,745.2015140999574,746.2015137999551,None,1,744.2181608999381,None,,3,f,5,l,KB,2021_May_24_1235,WASABI Nback,2020.2.10,59.99915999139439,
0,1,7,"[-0.2, -0.2]",None,0,1,1,1,,,,,0,0,0,0,0,37,37,37,,,,,,,,,,,746.2181945999619,None,746.2181945999619,747.2181886999169,747.2015330999857,748.2015413999325,None,1,746.2181945999619,None,,3,f,5,l,KB,2021_May_24_1235,WASABI Nback,2020.2.10,59.99915999139439,
0,1,4,"[-0.2, 0]",1,0,1,1,1,,,,,0,0,0,0,0,38,38,38,,,,,,,,,,,748.2182031999109,None,748.2182031999109,749.2182161998935,749.2015156999696,750.20154369995,None,0,748.2182031999109,None,,3,f,5,l,KB,2021_May_24_1235,WASABI Nback,2020.2.10,59.99915999139439,
0,1,3,"[0.2, 0.2]",None,0,1,1,1,,,,,0,0,0,0,0,39,39,39,,,,,,,,,,,750.2181613999419,None,750.2181613999419,751.2182099999627,751.2015512000071,752.2015723999357,None,1,750.2181613999419,None,,3,f,5,l,KB,2021_May_24_1235,WASABI Nback,2020.2.10,59.99915999139439,
0,1,5,"[0, 0]",None,0,1,1,1,,,,,0,0,0,0,0,40,40,40,,,,,,,,,,,752.2182238999521,None,752.2182238999521,753.2182302000001,753.2015847999137,754.201554399915,None,1,752.2182238999521,None,,3,f,5,l,KB,2021_May_24_1235,WASABI Nback,2020.2.10,59.99915999139439,
0,1,3,"[0.2, 0.2]",1,0,1,1,1,,,,,0,0,0,0,0,41,41,41,,,,,,,,,,,754.2182452999987,None,754.2182452999987,755.2182603999972,755.2015842999099,756.2016010999214,None,0,754.2182452999987,None,,3,f,5,l,KB,2021_May_24_1235,WASABI Nback,2020.2.10,59.99915999139439,
0,1,1,"[-0.2, 0.2]",None,0,1,1,1,,,,,0,0,0,0,0,42,42,42,,,,,,,,,,,756.2182626998983,None,756.2182626998983,757.2182701999554,757.2016175999306,758.2016061999602,None,1,756.2182626998983,None,,3,f,5,l,KB,2021_May_24_1235,WASABI Nback,2020.2.10,59.99915999139439,
0,1,9,"[0.2, -0.2]",None,0,1,1,1,,,,,0,0,0,0,0,43,43,43,,,,,,,,,,,758.2182934999,None,758.2182934999,759.2182879999746,759.2016274000052,760.2016259999946,None,1,758.2182934999,None,,3,f,5,l,KB,2021_May_24_1235,WASABI Nback,2020.2.10,59.99915999139439,
0,1,9,"[0.2, -0.2]",None,0,1,1,1,,,,,0,0,0,0,0,44,44,44,,,,,,,,,,,760.2182974999305,None,760.2182974999305,761.2183157999534,761.2016299999086,762.2016382999718,None,1,760.2182974999305,None,,3,f,5,l,KB,2021_May_24_1235,WASABI Nback,2020.2.10,59.99915999139439,
0,1,8,"[0, -0.2]",None,0,1,1,1,,,,,0,0,0,0,0,45,45,45,,,,,,,,,,,762.2183136999374,None,762.2183136999374,763.2183129999321,763.201668899972,764.2016700999811,None,1,762.2183136999374,None,,3,f,5,l,KB,2021_May_24_1235,WASABI Nback,2020.2.10,59.99915999139439,
0,1,6,"[0.2, 0]",None,0,1,1,1,,,,,0,0,0,0,0,46,46,46,,,,,,,,,,,764.218341199914,None,764.218341199914,765.2183441999368,765.2016587998951,766.2017332999967,None,1,764.218341199914,None,,3,f,5,l,KB,2021_May_24_1235,WASABI Nback,2020.2.10,59.99915999139439,
0,1,3,"[0.2, 0.2]",None,0,1,1,1,,,,,0,0,0,0,0,47,47,47,,,,,,,,,,,766.2183513999917,None,766.2183513999917,767.2183496999787,767.2016904999036,768.2016990999691,None,1,766.2183513999917,None,,3,f,5,l,KB,2021_May_24_1235,WASABI Nback,2020.2.10,59.99915999139439,
0,1,6,"[0.2, 0]",1,0,1,1,1,,,,,0,0,0,0,0,48,48,48,,,,,,,,,,,768.2183674999978,None,768.2183674999978,769.2183671999956,769.201717399992,770.2017175999936,None,0,768.2183674999978,None,,3,f,5,l,KB,2021_May_24_1235,WASABI Nback,2020.2.10,59.99915999139439,
0,1,5,"[0, 0]",None,0,1,1,1,,,,,0,0,0,0,0,49,49,49,,,,,,,,,,,770.2183786999667,None,770.2183786999667,771.2184157999,771.2017302999739,772.2017425999511,None,1,770.2183786999667,None,,3,f,5,l,KB,2021_May_24_1235,WASABI Nback,2020.2.10,59.99915999139439,
0,1,7,"[-0.2, -0.2]",None,0,1,1,1,,,,,0,0,0,0,0,50,50,50,,,,,,,,,,,772.2184008999029,None,772.2184008999029,773.2183855999028,773.2017393999267,774.2017419999465,None,1,772.2184008999029,None,,3,f,5,l,KB,2021_May_24_1235,WASABI Nback,2020.2.10,59.99915999139439,
0,1,5,"[0, 0]",1,0,1,1,1,,,,,0,0,0,0,0,51,51,51,,,,,,,,,,,774.2184122999897,None,774.2184122999897,775.2184383999556,775.2017513999017,776.2017674999079,None,0,774.2184122999897,None,,3,f,5,l,KB,2021_May_24_1235,WASABI Nback,2020.2.10,59.99915999139439,
0,1,1,"[-0.2, 0.2]",None,0,1,1,1,,,,,0,0,0,0,0,52,52,52,,,,,,,,,,,776.2184355999343,None,776.2184355999343,777.2184333999176,777.2017723999452,778.2017631999915,None,1,776.2184355999343,None,,3,f,5,l,KB,2021_May_24_1235,WASABI Nback,2020.2.10,59.99915999139439,
0,1,7,"[-0.2, -0.2]",None,0,1,1,1,,,,,0,0,0,0,0,53,53,53,,,,,,,,,,,778.2184594999999,None,778.2184594999999,779.2184491999215,779.2017692999216,780.2018061999697,None,1,778.2184594999999,None,,3,f,5,l,KB,2021_May_24_1235,WASABI Nback,2020.2.10,59.99915999139439,
0,1,9,"[0.2, -0.2]",None,0,1,1,1,,,,,0,0,0,0,0,54,54,54,,,,,,,,,,,780.2184592999984,None,780.2184592999984,781.2184577999869,781.2017932999879,782.2018094999949,None,1,780.2184592999984,None,,3,f,5,l,KB,2021_May_24_1235,WASABI Nback,2020.2.10,59.99915999139439,
0,1,3,"[0.2, 0.2]",None,0,1,1,1,,,,,0,0,0,0,0,55,55,55,,,,,,,,,,,782.2184769999003,None,782.2184769999003,783.2184846999589,783.2018258000026,784.2018095999956,None,1,782.2184769999003,None,,3,f,5,l,KB,2021_May_24_1235,WASABI Nback,2020.2.10,59.99915999139439,
0,1,9,"[0.2, -0.2]",1,0,1,1,1,,,,,0,0,0,0,0,56,56,56,,,,,,,,,,,784.2185097999172,None,784.2185097999172,785.2185064000078,785.2018422998954,786.2018529999768,None,0,784.2185097999172,None,,3,f,5,l,KB,2021_May_24_1235,WASABI Nback,2020.2.10,59.99915999139439,
0,1,6,"[0.2, 0]",None,0,1,1,1,,,,,0,0,0,0,0,57,57,57,,,,,,,,,,,786.2185171999736,None,786.2185171999736,787.2185056000017,787.2018359999638,788.2018673999701,None,1,786.2185171999736,None,,3,f,5,l,KB,2021_May_24_1235,WASABI Nback,2020.2.10,59.99915999139439,
0,1,2,"[0, 0.2]",None,0,1,1,1,,,,,0,0,0,0,0,58,58,58,,,,,,,,,,,788.2185396999121,None,788.2185396999121,789.2185411999235,789.2018744999077,790.2018559999997,None,1,788.2185396999121,None,,3,f,5,l,KB,2021_May_24_1235,WASABI Nback,2020.2.10,59.99915999139439,
0,1,5,"[0, 0]",None,0,1,1,1,,,,,0,0,0,0,0,59,59,59,,,,,,,,,,,790.2185428999364,None,790.2185428999364,791.2185513000004,791.2018834999762,792.2018861999968,None,1,790.2185428999364,None,,3,f,5,l,KB,2021_May_24_1235,WASABI Nback,2020.2.10,59.99915999139439,
0,1,5,"[0, 0]",None,0,1,1,1,,,,,0,0,0,0,0,60,60,60,,,,,,,,,,,792.2185656999936,None,792.2185656999936,793.2185708999168,793.2018809999572,794.2018912999192,None,1,792.2185656999936,None,,3,f,5,l,KB,2021_May_24_1235,WASABI Nback,2020.2.10,59.99915999139439,
0,1,2,"[0, 0.2]",None,0,1,1,1,,,,,0,0,0,0,0,61,61,61,,,,,,,,,,,794.2185629999731,None,794.2185629999731,795.2186107999878,795.2019109999528,796.2019773999928,None,1,794.2185629999731,None,,3,f,5,l,KB,2021_May_24_1235,WASABI Nback,2020.2.10,59.99915999139439,
0,1,6,"[0.2, 0]",None,0,1,1,1,,,,,0,0,0,0,0,62,62,62,,,,,,,,,,,796.218599399901,None,796.218599399901,797.2186135998927,797.2019387999317,798.2019420999568,None,1,796.218599399901,None,,3,f,5,l,KB,2021_May_24_1235,WASABI Nback,2020.2.10,59.99915999139439,
0,1,9,"[0.2, -0.2]",None,0,1,1,1,,,,,0,0,0,0,0,63,63,63,,,,,,,,,,,798.2186161999125,None,798.2186161999125,799.2186100999825,799.2019332000054,800.2019433999667,None,1,798.2186161999125,None,,3,f,5,l,KB,2021_May_24_1235,WASABI Nback,2020.2.10,59.99915999139439,
0,1,3,"[0.2, 0.2]",None,0,1,1,1,,,,,0,0,0,0,0,64,64,64,,,,,,,,,,,800.2186254999833,None,800.2186254999833,801.2186384999659,801.2019789000042,802.2019597999752,None,1,800.2186254999833,None,,3,f,5,l,KB,2021_May_24_1235,WASABI Nback,2020.2.10,59.99915999139439,
0,1,9,"[0.2, -0.2]",1,0,1,1,1,,,,,0,0,0,0,0,65,65,65,,,,,,,,,,,802.2186524999561,None,802.2186524999561,803.218655899982,803.2019887999631,804.2019944000058,None,0,802.2186524999561,None,,3,f,5,l,KB,2021_May_24_1235,WASABI Nback,2020.2.10,59.99915999139439,
0,1,7,"[-0.2, -0.2]",None,0,1,1,1,,,,,0,0,0,0,0,66,66,66,,,,,,,,,,,804.2186646999326,None,804.2186646999326,805.2186808999395,805.2019822999137,806.2020011999412,None,1,804.2186646999326,None,,3,f,5,l,KB,2021_May_24_1235,WASABI Nback,2020.2.10,59.99915999139439,
0,1,1,"[-0.2, 0.2]",None,0,1,1,1,,,,,0,0,0,0,0,67,67,67,,,,,,,,,,,806.2186675999546,None,806.2186675999546,807.2186894000042,807.2020049999701,808.2020056999754,None,1,806.2186675999546,None,,3,f,5,l,KB,2021_May_24_1235,WASABI Nback,2020.2.10,59.99915999139439,
0,1,5,"[0, 0]",None,0,1,1,1,,,,,0,0,0,0,0,68,68,68,,,,,,,,,,,808.2186824999517,None,808.2186824999517,809.2186996999662,809.2020419999026,810.2020259998972,None,1,808.2186824999517,None,,3,f,5,l,KB,2021_May_24_1235,WASABI Nback,2020.2.10,59.99915999139439,
0,1,7,"[-0.2, -0.2]",None,0,1,1,1,,,,,0,0,0,0,0,69,69,69,,,,,,,,,,,810.2187172999838,None,810.2187172999838,811.2187102999305,811.2020561998943,812.202060099924,None,1,810.2187172999838,None,,3,f,5,l,KB,2021_May_24_1235,WASABI Nback,2020.2.10,59.99915999139439,
0,1,5,"[0, 0]",1,0,1,1,1,,,,,0,0,0,0,0,70,70,70,,,,,,,,,,,812.2187326999847,None,812.2187326999847,813.2187392999185,813.2020877999021,814.2020852999995,None,0,812.2187326999847,None,,3,f,5,l,KB,2021_May_24_1235,WASABI Nback,2020.2.10,59.99915999139439,
0,1,6,"[0.2, 0]",None,0,1,1,1,,,,,0,0,0,0,0,71,71,71,,,,,,,,,,,814.2187427999452,None,814.2187427999452,815.2187454999657,815.2020893999143,816.2021119999699,None,1,814.2187427999452,None,,3,f,5,l,KB,2021_May_24_1235,WASABI Nback,2020.2.10,59.99915999139439,
0,1,3,"[0.2, 0.2]",None,0,1,1,1,,,,,0,0,0,0,0,72,72,72,,,,,,,,,,,816.2187890999485,None,816.2187890999485,817.2187629999826,817.2020782999462,818.2020979999797,None,1,816.2187890999485,None,,3,f,5,l,KB,2021_May_24_1235,WASABI Nback,2020.2.10,59.99915999139439,
0,1,6,"[0.2, 0]",1,0,1,1,1,,,,,0,0,0,0,0,73,73,73,,,,,,,,,,,818.2187814000063,None,818.2187814000063,819.2187949999934,819.2021182999015,820.2021088999463,None,0,818.2187814000063,None,,3,f,5,l,KB,2021_May_24_1235,WASABI Nback,2020.2.10,59.99915999139439,
0,1,8,"[0, -0.2]",None,0,1,1,1,,,,,0,0,0,0,0,74,74,74,,,,,,,,,,,820.218795599998,None,820.218795599998,821.218796000001,821.2021432999754,822.2021603999892,None,1,820.218795599998,None,,3,f,5,l,KB,2021_May_24_1235,WASABI Nback,2020.2.10,59.99915999139439,
0,1,9,"[0.2, -0.2]",None,0,1,1,1,,,,,0,0,0,0,0,75,75,75,,,,,,,,,,,822.2188068999676,None,822.2188068999676,823.2188124998938,823.2021536999382,824.2021662999177,None,1,822.2188068999676,None,,3,f,5,l,KB,2021_May_24_1235,WASABI Nback,2020.2.10,59.99915999139439,
0,1,9,"[0.2, -0.2]",None,0,1,1,1,,,,,0,0,0,0,0,76,76,76,,,,,,,,,,,824.218836999964,None,824.218836999964,825.2188353999518,825.2021744999802,826.2021902999841,None,1,824.218836999964,None,,3,f,5,l,KB,2021_May_24_1235,WASABI Nback,2020.2.10,59.99915999139439,
0,1,1,"[-0.2, 0.2]",None,0,1,1,1,,,,,0,0,0,0,0,77,77,77,,,,,,,,,,,826.218842000002,None,826.218842000002,827.218837399967,827.2022024999605,828.2021998999408,None,1,826.218842000002,None,,3,f,5,l,KB,2021_May_24_1235,WASABI Nback,2020.2.10,59.99915999139439,
0,1,3,"[0.2, 0.2]",None,0,1,1,1,,,,,0,0,0,0,0,78,78,78,,,,,,,,,,,828.2188565999968,None,828.2188565999968,829.2188630999299,829.2021911999909,830.2022186999675,None,1,828.2188565999968,None,,3,f,5,l,KB,2021_May_24_1235,WASABI Nback,2020.2.10,59.99915999139439,
0,1,5,"[0, 0]",None,0,1,1,1,,,,,0,0,0,0,0,79,79,79,,,,,,,,,,,830.2188816999551,None,830.2188816999551,831.2188625999261,831.2022217999911,832.2022240998922,None,1,830.2188816999551,None,,3,f,5,l,KB,2021_May_24_1235,WASABI Nback,2020.2.10,59.99915999139439,
0,1,3,"[0.2, 0.2]",1,0,1,1,1,,,,,0,0,0,0,0,80,80,80,,,,,,,,,,,832.2188793999376,None,832.2188793999376,833.2189034000039,833.2022373999935,834.2022529999958,None,0,832.2188793999376,None,,3,f,5,l,KB,2021_May_24_1235,WASABI Nback,2020.2.10,59.99915999139439,
0,1,4,"[-0.2, 0]",None,0,1,1,1,,,,,0,0,0,0,0,81,81,81,,,,,,,,,,,834.2189108999446,None,834.2189108999446,835.2189042998943,835.2022514999844,836.2022523999913,None,1,834.2189108999446,None,,3,f,5,l,KB,2021_May_24_1235,WASABI Nback,2020.2.10,59.99915999139439,
0,1,7,"[-0.2, -0.2]",None,0,1,1,1,,,,,0,0,0,0,0,82,82,82,,,,,,,,,,,836.2188769999193,None,836.2188769999193,837.218916999991,837.2022610999411,838.2022761999397,None,1,836.2188769999193,None,,3,f,5,l,KB,2021_May_24_1235,WASABI Nback,2020.2.10,59.99915999139439,
0,1,4,"[-0.2, 0]",1,0,1,1,1,,,,,0,0,0,0,0,83,83,83,,,,,,,,,,,838.2189341000048,None,838.2189341000048,839.2189467999851,839.2022733999183,840.202287199907,None,0,838.2189341000048,None,,3,f,5,l,KB,2021_May_24_1235,WASABI Nback,2020.2.10,59.99915999139439,
0,1,4,"[-0.2, 0]",None,0,1,1,1,,,,,0,0,0,0,0,84,84,84,,,,,,,,,,,840.2189449999714,None,840.2189449999714,841.218951699906,841.2023101999657,842.2023112999741,None,1,840.2189449999714,None,,3,f,5,l,KB,2021_May_24_1235,WASABI Nback,2020.2.10,59.99915999139439,
0,1,5,"[0, 0]",None,0,1,1,1,,,,,0,0,0,0,0,85,85,85,,,,,,,,,,,842.2189568999456,None,842.2189568999456,843.2189694999252,843.2023113999749,844.2023332999088,None,1,842.2189568999456,None,,3,f,5,l,KB,2021_May_24_1235,WASABI Nback,2020.2.10,59.99915999139439,
0,1,2,"[0, 0.2]",None,0,1,1,1,,,,,0,0,0,0,0,86,86,86,,,,,,,,,,,844.2189417999471,None,844.2189417999471,845.2189853999298,845.2023392999545,846.2023387999507,None,1,844.2189417999471,None,,3,f,5,l,KB,2021_May_24_1235,WASABI Nback,2020.2.10,59.99915999139439,
0,1,6,"[0.2, 0]",None,0,1,1,1,,,,,0,0,0,0,0,87,87,87,,,,,,,,,,,846.2189937999938,None,846.2189937999938,847.2190082999878,847.2023635999067,848.2023624998983,None,1,846.2189937999938,None,,3,f,5,l,KB,2021_May_24_1235,WASABI Nback,2020.2.10,59.99915999139439,
0,1,7,"[-0.2, -0.2]",None,0,1,1,1,,,,,0,0,0,0,0,88,88,88,,,,,,,,,,,848.2190122999018,None,848.2190122999018,849.2190243999939,849.202385499957,850.2023847999517,None,1,848.2190122999018,None,,3,f,5,l,KB,2021_May_24_1235,WASABI Nback,2020.2.10,59.99915999139439,
0,1,6,"[0.2, 0]",1,0,1,1,1,,,,,0,0,0,0,0,89,89,89,,,,,,,,,,,850.2190416998928,None,850.2190416998928,851.2190362999681,851.2023910999997,852.2023873999715,None,0,850.2190416998928,None,,3,f,5,l,KB,2021_May_24_1235,WASABI Nback,2020.2.10,59.99915999139439,
0,1,6,"[0.2, 0]",None,0,1,1,1,,,,,0,0,0,0,0,90,90,90,,,,,,,,,,,852.2190427999012,None,852.2190427999012,853.2190670999698,853.2024021999678,854.2023788999068,None,1,852.2190427999012,None,,3,f,5,l,KB,2021_May_24_1235,WASABI Nback,2020.2.10,59.99915999139439,
0,1,7,"[-0.2, -0.2]",None,0,1,1,1,,,,,0,0,0,0,0,91,91,91,,,,,,,,,,,854.2190666999668,None,854.2190666999668,855.219078599941,855.2024265999207,856.2024201999884,None,1,854.2190666999668,None,,3,f,5,l,KB,2021_May_24_1235,WASABI Nback,2020.2.10,59.99915999139439,
0,1,6,"[0.2, 0]",1,0,1,1,1,,,,,0,0,0,0,0,92,92,92,,,,,,,,,,,856.2190915999236,None,856.2190915999236,857.2191450999817,857.2024260999169,858.2024507999886,None,0,856.2190915999236,None,,3,f,5,l,KB,2021_May_24_1235,WASABI Nback,2020.2.10,59.99915999139439,
0,1,2,"[0, 0.2]",None,0,1,1,1,,,,,0,0,0,0,0,93,93,93,,,,,,,,,,,858.2191112999571,None,858.2191112999571,859.2191208999138,859.2024230998941,860.2024475999642,None,1,858.2191112999571,None,,3,f,5,l,KB,2021_May_24_1235,WASABI Nback,2020.2.10,59.99915999139439,
0,1,5,"[0, 0]",None,0,1,1,1,,,,,0,0,0,0,0,94,94,94,,,,,,,,,,,860.2191232999321,None,860.2191232999321,861.2191293999786,861.202495799982,862.2024815999903,None,1,860.2191232999321,None,,3,f,5,l,KB,2021_May_24_1235,WASABI Nback,2020.2.10,59.99915999139439,
0,1,4,"[-0.2, 0]",None,0,1,1,1,,,,,0,0,0,0,0,95,95,95,,,,,,,,,,,862.219134499901,None,862.219134499901,863.2191355999094,863.2024904999416,864.202510699979,None,1,862.219134499901,None,,3,f,5,l,KB,2021_May_24_1235,WASABI Nback,2020.2.10,59.99915999139439,
0,1,4,"[-0.2, 0]",None,0,1,1,1,,,,,0,0,0,0,0,96,96,96,,,,,,,,,,,864.2191561999498,None,864.2191561999498,865.2191552999429,865.2025484999176,866.2024913999485,None,1,864.2191561999498,None,,3,f,5,l,KB,2021_May_24_1235,WASABI Nback,2020.2.10,59.99915999139439,
0,1,7,"[-0.2, -0.2]",None,0,1,1,1,,,,,0,0,0,0,0,97,97,97,,,,,,,,,,,866.2191859999439,None,866.2191859999439,867.2191844999325,867.2025233999593,868.2025313999038,None,1,866.2191859999439,None,,3,f,5,l,KB,2021_May_24_1235,WASABI Nback,2020.2.10,59.99915999139439,
0,1,4,"[-0.2, 0]",1,0,1,1,1,,,,,0,0,0,0,0,98,98,98,,,,,,,,,,,868.2191958999028,None,868.2191958999028,869.219193500001,869.2025340999244,870.2025214999449,None,0,868.2191958999028,None,,3,f,5,l,KB,2021_May_24_1235,WASABI Nback,2020.2.10,59.99915999139439,
0,1,3,"[0.2, 0.2]",None,0,1,1,1,,,,,0,0,0,0,0,99,99,99,,,,,,,,,,,870.2192063999828,None,870.2192063999828,871.2192073999904,871.2025358999381,872.2025679999497,None,1,870.2192063999828,None,,3,f,5,l,KB,2021_May_24_1235,WASABI Nback,2020.2.10,59.99915999139439,
0,1,5,"[0, 0]",None,0,1,1,1,,,,,0,0,0,0,0,100,100,100,,,,,,,,,,,872.2192195999669,None,872.2192195999669,873.2192503999686,873.2025476999115,874.202583599952,None,1,872.2192195999669,None,,3,f,5,l,KB,2021_May_24_1235,WASABI Nback,2020.2.10,59.99915999139439,
0,1,3,"[0.2, 0.2]",1,0,1,1,1,,,,,0,0,0,0,0,101,101,101,,,,,,,,,,,874.2192287999205,None,874.2192287999205,875.2192562998971,875.2025886999909,876.202600199962,None,0,874.2192287999205,None,,3,f,5,l,KB,2021_May_24_1235,WASABI Nback,2020.2.10,59.99915999139439,
0,1,1,"[-0.2, 0.2]",None,0,1,1,1,,,,,0,0,0,0,0,102,102,102,,,,,,,,,,,876.2192646999611,None,876.2192646999611,877.2192705000052,877.2025781999109,878.2026070998982,None,1,876.2192646999611,None,,3,f,5,l,KB,2021_May_24_1235,WASABI Nback,2020.2.10,59.99915999139439,
0,1,9,"[0.2, -0.2]",None,0,1,1,1,,,,,0,0,0,0,0,103,103,103,,,,,,,,,,,878.219272099901,None,878.219272099901,879.2192739999155,879.2026094999164,880.2026351999957,None,1,878.219272099901,None,,3,f,5,l,KB,2021_May_24_1235,WASABI Nback,2020.2.10,59.99915999139439,
0,1,9,"[0.2, -0.2]",None,0,1,1,1,,,,,0,0,0,0,0,104,104,104,,,,,,,,,,,880.2192898999201,None,880.2192898999201,881.2192983999848,881.2026376998983,882.2026488999836,None,1,880.2192898999201,None,,3,f,5,l,KB,2021_May_24_1235,WASABI Nback,2020.2.10,59.99915999139439,
0,1,8,"[0, -0.2]",None,0,1,1,1,,,,,0,0,0,0,0,105,105,105,,,,,,,,,,,882.2193170998944,None,882.2193170998944,883.2193234999431,883.202628799947,884.2026620999677,None,1,882.2193170998944,None,,3,f,5,l,KB,2021_May_24_1235,WASABI Nback,2020.2.10,59.99915999139439,
0,1,6,"[0.2, 0]",None,0,1,1,1,,,,,0,0,0,0,0,106,106,106,,,,,,,,,,,884.2193324998952,None,884.2193324998952,885.2193356999196,885.202655699919,886.2026551999152,None,1,884.2193324998952,None,,3,f,5,l,KB,2021_May_24_1235,WASABI Nback,2020.2.10,59.99915999139439,
0,1,3,"[0.2, 0.2]",None,0,1,1,1,,,,,0,0,0,0,0,107,107,107,,,,,,,,,,,886.2193406999577,None,886.2193406999577,887.2193507999182,887.2026908999542,888.202687599929,None,1,886.2193406999577,None,,3,f,5,l,KB,2021_May_24_1235,WASABI Nback,2020.2.10,59.99915999139439,
0,1,6,"[0.2, 0]",1,0,1,1,1,,,,,0,0,0,0,0,108,108,108,,,,,,,,,,,888.2193463000003,None,888.2193463000003,889.2193624000065,889.2027031999314,890.2027669999516,None,0,888.2193463000003,None,,3,f,5,l,KB,2021_May_24_1235,WASABI Nback,2020.2.10,59.99915999139439,
0,1,5,"[0, 0]",None,0,1,1,1,,,,,0,0,0,0,0,109,109,109,,,,,,,,,,,890.219383199932,None,890.219383199932,891.2193808999145,891.2027256999863,892.2027347999392,None,1,890.219383199932,None,,3,f,5,l,KB,2021_May_24_1235,WASABI Nback,2020.2.10,59.99915999139439,
0,1,7,"[-0.2, -0.2]",None,0,1,1,1,,,,,0,0,0,0,0,110,110,110,,,,,,,,,,,892.2193944999017,None,892.2193944999017,893.219405699987,893.2027330999263,894.2027170999208,None,1,892.2193944999017,None,,3,f,5,l,KB,2021_May_24_1235,WASABI Nback,2020.2.10,59.99915999139439,
0,1,5,"[0, 0]",1,0,1,1,1,,,,,0,0,0,0,0,111,111,111,,,,,,,,,,,894.2194015999557,None,894.2194015999557,895.2194063999923,895.202759699896,896.2027622999158,None,0,894.2194015999557,None,,3,f,5,l,KB,2021_May_24_1235,WASABI Nback,2020.2.10,59.99915999139439,
0,1,1,"[-0.2, 0.2]",None,0,1,1,1,,,,,0,0,0,0,0,112,112,112,,,,,,,,,,,896.2194194999756,None,896.2194194999756,897.2194383000024,897.2027566999895,898.2027293998981,None,1,896.2194194999756,None,,3,f,5,l,KB,2021_May_24_1235,WASABI Nback,2020.2.10,59.99915999139439,
0,1,7,"[-0.2, -0.2]",None,0,1,1,1,,,,,0,0,0,0,0,113,113,113,,,,,,,,,,,898.2194422999164,None,898.2194422999164,899.2194849998923,899.2027938999236,900.2027809999418,None,1,898.2194422999164,None,,3,f,5,l,KB,2021_May_24_1235,WASABI Nback,2020.2.10,59.99915999139439,
0,1,9,"[0.2, -0.2]",None,0,1,1,1,,,,,0,0,0,0,0,114,114,114,,,,,,,,,,,900.2194522999926,None,900.2194522999926,901.2194777999539,901.2027775999159,902.2028066999046,None,1,900.2194522999926,None,,3,f,5,l,KB,2021_May_24_1235,WASABI Nback,2020.2.10,59.99915999139439,
0,1,3,"[0.2, 0.2]",None,0,1,1,1,,,,,0,0,0,0,0,115,115,115,,,,,,,,,,,902.2194721999113,None,902.2194721999113,903.2194896999281,903.2028139999602,904.202838899917,None,1,902.2194721999113,None,,3,f,5,l,KB,2021_May_24_1235,WASABI Nback,2020.2.10,59.99915999139439,
0,1,9,"[0.2, -0.2]",1,0,1,1,1,,,,,0,0,0,0,0,116,116,116,,,,,,,,,,,904.2195111999754,None,904.2195111999754,905.2194979999913,905.2028302999679,906.2028307999717,None,0,904.2195111999754,None,,3,f,5,l,KB,2021_May_24_1235,WASABI Nback,2020.2.10,59.99915999139439,
0,1,6,"[0.2, 0]",None,0,1,1,1,,,,,0,0,0,0,0,117,117,117,,,,,,,,,,,906.2195050999289,None,906.2195050999289,907.2195657999255,907.2028595999582,908.2028518998995,None,1,906.2195050999289,None,,3,f,5,l,KB,2021_May_24_1235,WASABI Nback,2020.2.10,59.99915999139439,
0,1,2,"[0, 0.2]",None,0,1,1,1,,,,,0,0,0,0,0,118,118,118,,,,,,,,,,,908.2195173999062,None,908.2195173999062,909.2195196999237,909.2028736999491,910.2028816998936,None,1,908.2195173999062,None,,3,f,5,l,KB,2021_May_24_1235,WASABI Nback,2020.2.10,59.99915999139439,
0,1,5,"[0, 0]",None,0,1,1,1,,,,,0,0,0,0,0,119,119,119,,,,,,,,,,,910.2195332999108,None,910.2195332999108,911.2195364999352,911.2028899999568,912.2028985999059,None,1,910.2195332999108,None,,3,f,5,l,KB,2021_May_24_1235,WASABI Nback,2020.2.10,59.99915999139439,
