RestT1,TaskT1,square,location,corrAns,counterbalancer.thisRepN,counterbalancer.thisTrialN,counterbalancer.thisN,counterbalancer.thisIndex,RestT1Loop.thisRepN,RestT1Loop.thisTrialN,RestT1Loop.thisN,RestT1Loop.thisIndex,TaskT1Loop.thisRepN,TaskT1Loop.thisTrialN,TaskT1Loop.thisN,TaskT1Loop.thisIndex,trials_2.thisRepN,trials_2.thisTrialN,trials_2.thisN,trials_2.thisIndex,fixation_1.started,fixation_1.stopped,NbackInstructions.started,NbackInstructions.stopped,NbackStart.keys,NbackStart.rt,NbackStart.started,NbackStart.stopped,fixation_2.started,fixation_2.stopped,grid_lines_2.started,grid_lines_2.stopped,target_square_2.started,target_square_2.stopped,fixation_3.started,fixation_3.stopped,response_2.click,response_2.corr,response_2.started,response_2.stopped,subject number,gender,session,handedness,scanner,date,expName,psychopyVersion,frameRate,
1,0,,,,0,0,0,0,0,0,0,0,,,,,,,,,53.218145800055936,None,,,,,,,,,,,,,,,,,,,1,m,6,r,CIB,2021_May_19_1025,WASABI Nback,2020.2.10,60.0040202860007,
0,1,,,,0,1,1,1,,,,,0,0,0,0,,,,,,,347.87060849997215,None,space,60.64147399994545,347.87060849997215,None,,,,,,,,,,,,,1,m,6,r,CIB,2021_May_19_1025,WASABI Nback,2020.2.10,60.0040202860007,
0,1,5,"[0, 0]",None,0,1,1,1,,,,,0,0,0,0,0,0,0,0,,,,,,,,,None,None,409.9709816999966,None,409.9709816999966,410.9711004999699,410.9544292000355,None,None,1,409.9709816999966,None,1,m,6,r,CIB,2021_May_19_1025,WASABI Nback,2020.2.10,60.0040202860007,
0,1,2,"[0, 0.2]",None,0,1,1,1,,,,,0,0,0,0,0,1,1,1,,,,,,,,,,,411.55442760000005,None,411.55442760000005,412.5544345000526,412.5377865000628,413.53778090002015,None,1,411.55442760000005,None,1,m,6,r,CIB,2021_May_19_1025,WASABI Nback,2020.2.10,60.0040202860007,
0,1,6,"[0.2, 0]",None,0,1,1,1,,,,,0,0,0,0,0,2,2,2,,,,,,,,,,,413.5544521000702,None,413.5544521000702,414.55445399996825,414.5377989000408,415.53780629998073,None,1,413.5544521000702,None,1,m,6,r,CIB,2021_May_19_1025,WASABI Nback,2020.2.10,60.0040202860007,
0,1,9,"[0.2, -0.2]",None,0,1,1,1,,,,,0,0,0,0,0,3,3,3,,,,,,,,,,,415.5544569999911,None,415.5544569999911,416.5544871999882,416.53768850001507,417.53781950008124,None,1,415.5544569999911,None,1,m,6,r,CIB,2021_May_19_1025,WASABI Nback,2020.2.10,60.0040202860007,
0,1,3,"[0.2, 0.2]",None,0,1,1,1,,,,,0,0,0,0,0,4,4,4,,,,,,,,,,,417.55449410004076,None,417.55449410004076,418.5545124000637,418.53782570001204,419.53782930003945,None,1,417.55449410004076,None,1,m,6,r,CIB,2021_May_19_1025,WASABI Nback,2020.2.10,60.0040202860007,
0,1,9,"[0.2, -0.2]",1,0,1,1,1,,,,,0,0,0,0,0,5,5,5,,,,,,,,,,,419.5545092000393,None,419.5545092000393,420.5545027999906,420.5378373999847,421.5378442000365,None,0,419.5545092000393,None,1,m,6,r,CIB,2021_May_19_1025,WASABI Nback,2020.2.10,60.0040202860007,
0,1,7,"[-0.2, -0.2]",None,0,1,1,1,,,,,0,0,0,0,0,6,6,6,,,,,,,,,,,421.5545103000477,None,421.5545103000477,422.55451889999676,422.5378636000678,423.53785490000155,None,1,421.5545103000477,None,1,m,6,r,CIB,2021_May_19_1025,WASABI Nback,2020.2.10,60.0040202860007,
0,1,1,"[-0.2, 0.2]",None,0,1,1,1,,,,,0,0,0,0,0,7,7,7,,,,,,,,,,,423.55452930007596,None,423.55452930007596,424.5545466999756,424.5378873000154,425.53780469996855,None,1,423.55452930007596,None,1,m,6,r,CIB,2021_May_19_1025,WASABI Nback,2020.2.10,60.0040202860007,
0,1,5,"[0, 0]",None,0,1,1,1,,,,,0,0,0,0,0,8,8,8,,,,,,,,,,,425.5545614999719,None,425.5545614999719,426.55455490003806,426.53786370006856,427.5379084000597,None,1,425.5545614999719,None,1,m,6,r,CIB,2021_May_19_1025,WASABI Nback,2020.2.10,60.0040202860007,
0,1,7,"[-0.2, -0.2]",None,0,1,1,1,,,,,0,0,0,0,0,9,9,9,,,,,,,,,,,427.5545561000472,None,427.5545561000472,428.5545747000724,428.537907000049,429.53792580007575,None,1,427.5545561000472,None,1,m,6,r,CIB,2021_May_19_1025,WASABI Nback,2020.2.10,60.0040202860007,
0,1,5,"[0, 0]",1,0,1,1,1,,,,,0,0,0,0,0,10,10,10,,,,,,,,,,,429.5545817000093,None,429.5545817000093,430.5545812000055,430.53792550007347,431.5379379000515,None,0,429.5545817000093,None,1,m,6,r,CIB,2021_May_19_1025,WASABI Nback,2020.2.10,60.0040202860007,
0,1,6,"[0.2, 0]",None,0,1,1,1,,,,,0,0,0,0,0,11,11,11,,,,,,,,,,,431.5546066999668,None,431.5546066999668,432.5546158000361,432.5379521000432,433.5379494000226,None,1,431.5546066999668,None,1,m,6,r,CIB,2021_May_19_1025,WASABI Nback,2020.2.10,60.0040202860007,
0,1,3,"[0.2, 0.2]",None,0,1,1,1,,,,,0,0,0,0,0,12,12,12,,,,,,,,,,,433.55459910002537,None,433.55459910002537,434.5546224999707,434.53795560006984,435.5379397000652,None,1,433.55459910002537,None,1,m,6,r,CIB,2021_May_19_1025,WASABI Nback,2020.2.10,60.0040202860007,
0,1,6,"[0.2, 0]",1,0,1,1,1,,,,,0,0,0,0,0,13,13,13,,,,,,,,,,,435.55463310005143,None,435.55463310005143,436.5546317000408,436.53798010002356,437.5379771000007,None,0,435.55463310005143,None,1,m,6,r,CIB,2021_May_19_1025,WASABI Nback,2020.2.10,60.0040202860007,
0,1,8,"[0, -0.2]",None,0,1,1,1,,,,,0,0,0,0,0,14,14,14,,,,,,,,,,,437.55465190007817,None,437.55465190007817,438.5546611000318,438.53798809996806,439.5380012000678,None,1,437.55465190007817,None,1,m,6,r,CIB,2021_May_19_1025,WASABI Nback,2020.2.10,60.0040202860007,
0,1,9,"[0.2, -0.2]",None,0,1,1,1,,,,,0,0,0,0,0,15,15,15,,,,,,,,,,,439.55465760000516,None,439.55465760000516,440.55467440001667,440.53798320004717,441.53800960001536,None,1,439.55465760000516,None,1,m,6,r,CIB,2021_May_19_1025,WASABI Nback,2020.2.10,60.0040202860007,
0,1,9,"[0.2, -0.2]",None,0,1,1,1,,,,,0,0,0,0,0,16,16,16,,,,,,,,,,,441.5546846999787,None,441.5546846999787,442.5546806000639,442.5380203999812,443.53802850004286,None,1,441.5546846999787,None,1,m,6,r,CIB,2021_May_19_1025,WASABI Nback,2020.2.10,60.0040202860007,
0,1,1,"[-0.2, 0.2]",None,0,1,1,1,,,,,0,0,0,0,0,17,17,17,,,,,,,,,,,443.5547040000092,None,443.5547040000092,444.5546927000396,444.5380352999782,445.53804840007797,None,1,443.5547040000092,None,1,m,6,r,CIB,2021_May_19_1025,WASABI Nback,2020.2.10,60.0040202860007,
0,1,3,"[0.2, 0.2]",None,0,1,1,1,,,,,0,0,0,0,0,18,18,18,,,,,,,,,,,445.5547054000199,None,445.5547054000199,446.5547276000725,446.53805510001257,447.5380802999716,None,1,445.5547054000199,None,1,m,6,r,CIB,2021_May_19_1025,WASABI Nback,2020.2.10,60.0040202860007,
0,1,5,"[0, 0]",None,0,1,1,1,,,,,0,0,0,0,0,19,19,19,,,,,,,,,,,447.5547216000268,None,447.5547216000268,448.5547446999699,448.5380848000059,449.5380861000158,None,1,447.5547216000268,None,1,m,6,r,CIB,2021_May_19_1025,WASABI Nback,2020.2.10,60.0040202860007,
0,1,3,"[0.2, 0.2]",1,0,1,1,1,,,,,0,0,0,0,0,20,20,20,,,,,,,,,,,449.55473370000254,None,449.55473370000254,450.55475520004984,450.53809839999303,451.53811339999083,None,0,449.55473370000254,None,1,m,6,r,CIB,2021_May_19_1025,WASABI Nback,2020.2.10,60.0040202860007,
0,1,4,"[-0.2, 0]",None,0,1,1,1,,,,,0,0,0,0,0,21,21,21,,,,,,,,,,,451.5547577000689,None,451.5547577000689,452.55477460008115,452.53812709997874,453.5381233000662,None,1,451.5547577000689,None,1,m,6,r,CIB,2021_May_19_1025,WASABI Nback,2020.2.10,60.0040202860007,
0,1,7,"[-0.2, -0.2]",None,0,1,1,1,,,,,0,0,0,0,0,22,22,22,,,,,,,,,,,453.55478960007895,None,453.55478960007895,454.55478390003555,454.5381437999895,455.53813330002595,None,1,453.55478960007895,None,1,m,6,r,CIB,2021_May_19_1025,WASABI Nback,2020.2.10,60.0040202860007,
0,1,4,"[-0.2, 0]",1,0,1,1,1,,,,,0,0,0,0,0,23,23,23,,,,,,,,,,,455.5548027000623,None,455.5548027000623,456.5547930999892,456.5381569999736,457.53816510003526,None,0,455.5548027000623,None,1,m,6,r,CIB,2021_May_19_1025,WASABI Nback,2020.2.10,60.0040202860007,
0,1,4,"[-0.2, 0]",None,0,1,1,1,,,,,0,0,0,0,0,24,24,24,,,,,,,,,,,457.55481180001516,None,457.55481180001516,458.5548296000343,458.53814730001613,459.5381676000543,None,1,457.55481180001516,None,1,m,6,r,CIB,2021_May_19_1025,WASABI Nback,2020.2.10,60.0040202860007,
0,1,5,"[0, 0]",None,0,1,1,1,,,,,0,0,0,0,0,25,25,25,,,,,,,,,,,459.5548237999901,None,459.5548237999901,460.55483440007083,460.5382172999671,461.53817940002773,None,1,459.5548237999901,None,1,m,6,r,CIB,2021_May_19_1025,WASABI Nback,2020.2.10,60.0040202860007,
0,1,2,"[0, 0.2]",None,0,1,1,1,,,,,0,0,0,0,0,26,26,26,,,,,,,,,,,461.55484490003437,None,461.55484490003437,462.55486100004055,462.53822380001657,463.5382213999983,None,1,461.55484490003437,None,1,m,6,r,CIB,2021_May_19_1025,WASABI Nback,2020.2.10,60.0040202860007,
0,1,6,"[0.2, 0]",None,0,1,1,1,,,,,0,0,0,0,0,27,27,27,,,,,,,,,,,463.5548601000337,None,463.5548601000337,464.55488189996686,464.5382118000416,465.53822820005007,None,1,463.5548601000337,None,1,m,6,r,CIB,2021_May_19_1025,WASABI Nback,2020.2.10,60.0040202860007,
0,1,7,"[-0.2, -0.2]",None,0,1,1,1,,,,,0,0,0,0,0,28,28,28,,,,,,,,,,,465.5547596999677,None,465.5547596999677,466.55489650007803,466.53825620003045,467.53823369997554,None,1,465.5547596999677,None,1,m,6,r,CIB,2021_May_19_1025,WASABI Nback,2020.2.10,60.0040202860007,
0,1,6,"[0.2, 0]",1,0,1,1,1,,,,,0,0,0,0,0,29,29,29,,,,,,,,,,,467.5549046000233,None,467.5549046000233,468.5549008999951,468.53824610006995,469.53824580006767,None,0,467.5549046000233,None,1,m,6,r,CIB,2021_May_19_1025,WASABI Nback,2020.2.10,60.0040202860007,
0,1,6,"[0.2, 0]",None,0,1,1,1,,,,,0,0,0,0,0,30,30,30,,,,,,,,,,,469.5548477000557,None,469.5548477000557,470.5549282999709,470.5382352999877,471.53827839996666,None,1,469.5548477000557,None,1,m,6,r,CIB,2021_May_19_1025,WASABI Nback,2020.2.10,60.0040202860007,
0,1,7,"[-0.2, -0.2]",None,0,1,1,1,,,,,0,0,0,0,0,31,31,31,,,,,,,,,,,471.55494070006534,None,471.55494070006534,472.554945699987,472.5382850000169,473.5382757000625,None,1,471.55494070006534,None,1,m,6,r,CIB,2021_May_19_1025,WASABI Nback,2020.2.10,60.0040202860007,
0,1,6,"[0.2, 0]",1,0,1,1,1,,,,,0,0,0,0,0,32,32,32,,,,,,,,,,,473.55495800008066,None,473.55495800008066,474.5549628000008,474.5383128999965,475.53829599998426,None,0,473.55495800008066,None,1,m,6,r,CIB,2021_May_19_1025,WASABI Nback,2020.2.10,60.0040202860007,
0,1,2,"[0, 0.2]",None,0,1,1,1,,,,,0,0,0,0,0,33,33,33,,,,,,,,,,,475.5549506000243,None,475.5549506000243,476.55497280007694,476.53829840000253,477.53831079998054,None,1,475.5549506000243,None,1,m,6,r,CIB,2021_May_19_1025,WASABI Nback,2020.2.10,60.0040202860007,
0,1,5,"[0, 0]",None,0,1,1,1,,,,,0,0,0,0,0,34,34,34,,,,,,,,,,,477.554981400026,None,477.554981400026,478.5549899999751,478.53832060005516,479.5383296000073,None,1,477.554981400026,None,1,m,6,r,CIB,2021_May_19_1025,WASABI Nback,2020.2.10,60.0040202860007,
0,1,4,"[-0.2, 0]",None,0,1,1,1,,,,,0,0,0,0,0,35,35,35,,,,,,,,,,,479.555002200068,None,479.555002200068,480.55501390004065,480.53834670002107,481.53835240006447,None,1,479.555002200068,None,1,m,6,r,CIB,2021_May_19_1025,WASABI Nback,2020.2.10,60.0040202860007,
0,1,4,"[-0.2, 0]",None,0,1,1,1,,,,,0,0,0,0,0,36,36,36,,,,,,,,,,,481.55501440004446,None,481.55501440004446,482.55502369999886,482.53835499996785,483.5383639000356,None,1,481.55501440004446,None,1,m,6,r,CIB,2021_May_19_1025,WASABI Nback,2020.2.10,60.0040202860007,
0,1,7,"[-0.2, -0.2]",None,0,1,1,1,,,,,0,0,0,0,0,37,37,37,,,,,,,,,,,483.55503479996696,None,483.55503479996696,484.5550456000492,484.5383726999862,485.538356199977,None,1,483.55503479996696,None,1,m,6,r,CIB,2021_May_19_1025,WASABI Nback,2020.2.10,60.0040202860007,
0,1,4,"[-0.2, 0]",1,0,1,1,1,,,,,0,0,0,0,0,38,38,38,,,,,,,,,,,485.5550567000173,None,485.5550567000173,486.55506100005005,486.53838869999163,487.5384076000191,None,0,485.5550567000173,None,1,m,6,r,CIB,2021_May_19_1025,WASABI Nback,2020.2.10,60.0040202860007,
0,1,3,"[0.2, 0.2]",None,0,1,1,1,,,,,0,0,0,0,0,39,39,39,,,,,,,,,,,487.5550740000326,None,487.5550740000326,488.555079300073,488.5384071000153,489.5384184999857,None,1,487.5550740000326,None,1,m,6,r,CIB,2021_May_19_1025,WASABI Nback,2020.2.10,60.0040202860007,
0,1,5,"[0, 0]",None,0,1,1,1,,,,,0,0,0,0,0,40,40,40,,,,,,,,,,,489.5550943000708,None,489.5550943000708,490.55508740001824,490.53842850006185,491.5383098999737,None,1,489.5550943000708,None,1,m,6,r,CIB,2021_May_19_1025,WASABI Nback,2020.2.10,60.0040202860007,
0,1,3,"[0.2, 0.2]",1,0,1,1,1,,,,,0,0,0,0,0,41,41,41,,,,,,,,,,,491.5551317000063,None,491.5551317000063,492.55512100004125,492.5384380000178,493.5384574000491,None,0,491.5551317000063,None,1,m,6,r,CIB,2021_May_19_1025,WASABI Nback,2020.2.10,60.0040202860007,
0,1,1,"[-0.2, 0.2]",None,0,1,1,1,,,,,0,0,0,0,0,42,42,42,,,,,,,,,,,493.55511070007924,None,493.55511070007924,494.5551309000002,494.5384581000544,495.5383963000495,None,1,493.55511070007924,None,1,m,6,r,CIB,2021_May_19_1025,WASABI Nback,2020.2.10,60.0040202860007,
0,1,9,"[0.2, -0.2]",None,0,1,1,1,,,,,0,0,0,0,0,43,43,43,,,,,,,,,,,495.55516190000344,None,495.55516190000344,496.55515670008026,496.53850999998394,497.53848850005306,None,1,495.55516190000344,None,1,m,6,r,CIB,2021_May_19_1025,WASABI Nback,2020.2.10,60.0040202860007,
0,1,9,"[0.2, -0.2]",None,0,1,1,1,,,,,0,0,0,0,0,44,44,44,,,,,,,,,,,497.5551631000126,None,497.5551631000126,498.5550387999974,498.53847380005755,499.5385098999832,None,1,497.5551631000126,None,1,m,6,r,CIB,2021_May_19_1025,WASABI Nback,2020.2.10,60.0040202860007,
0,1,8,"[0, -0.2]",None,0,1,1,1,,,,,0,0,0,0,0,45,45,45,,,,,,,,,,,499.5551615000004,None,499.5551615000004,500.5551919999998,500.5384992000181,501.5385164000327,None,1,499.5551615000004,None,1,m,6,r,CIB,2021_May_19_1025,WASABI Nback,2020.2.10,60.0040202860007,
0,1,6,"[0.2, 0]",None,0,1,1,1,,,,,0,0,0,0,0,46,46,46,,,,,,,,,,,501.555191499996,None,501.555191499996,502.55518879997544,502.5385319000343,503.5385344000533,None,1,501.555191499996,None,1,m,6,r,CIB,2021_May_19_1025,WASABI Nback,2020.2.10,60.0040202860007,
0,1,3,"[0.2, 0.2]",None,0,1,1,1,,,,,0,0,0,0,0,47,47,47,,,,,,,,,,,503.55522970005404,None,503.55522970005404,504.5552404000191,504.5385410999879,505.53856330004055,None,1,503.55522970005404,None,1,m,6,r,CIB,2021_May_19_1025,WASABI Nback,2020.2.10,60.0040202860007,
0,1,6,"[0.2, 0]",1,0,1,1,1,,,,,0,0,0,0,0,48,48,48,,,,,,,,,,,505.5552180999657,None,505.5552180999657,506.5552414000267,506.538564800052,507.5385670000687,None,0,505.5552180999657,None,1,m,6,r,CIB,2021_May_19_1025,WASABI Nback,2020.2.10,60.0040202860007,
0,1,5,"[0, 0]",None,0,1,1,1,,,,,0,0,0,0,0,49,49,49,,,,,,,,,,,507.5552441000473,None,507.5552441000473,508.55524050001986,508.538583900081,509.53857960004825,None,1,507.5552441000473,None,1,m,6,r,CIB,2021_May_19_1025,WASABI Nback,2020.2.10,60.0040202860007,
0,1,7,"[-0.2, -0.2]",None,0,1,1,1,,,,,0,0,0,0,0,50,50,50,,,,,,,,,,,509.5552580000367,None,509.5552580000367,510.5552617000649,510.5385891000042,511.5386447000783,None,1,509.5552580000367,None,1,m,6,r,CIB,2021_May_19_1025,WASABI Nback,2020.2.10,60.0040202860007,
0,1,5,"[0, 0]",1,0,1,1,1,,,,,0,0,0,0,0,51,51,51,,,,,,,,,,,511.55525660002604,None,511.55525660002604,512.5552652999759,512.5386092000408,513.5386167999823,None,0,511.55525660002604,None,1,m,6,r,CIB,2021_May_19_1025,WASABI Nback,2020.2.10,60.0040202860007,
0,1,1,"[-0.2, 0.2]",None,0,1,1,1,,,,,0,0,0,0,0,52,52,52,,,,,,,,,,,513.5552845000057,None,513.5552845000057,514.5552854000125,514.5386312999763,515.5386265000561,None,1,513.5552845000057,None,1,m,6,r,CIB,2021_May_19_1025,WASABI Nback,2020.2.10,60.0040202860007,
0,1,7,"[-0.2, -0.2]",None,0,1,1,1,,,,,0,0,0,0,0,53,53,53,,,,,,,,,,,515.5552941000788,None,515.5552941000788,516.5552994000027,516.5386397000402,517.5386595000746,None,1,515.5552941000788,None,1,m,6,r,CIB,2021_May_19_1025,WASABI Nback,2020.2.10,60.0040202860007,
0,1,9,"[0.2, -0.2]",None,0,1,1,1,,,,,0,0,0,0,0,54,54,54,,,,,,,,,,,517.5553127999883,None,517.5553127999883,518.5553152000066,518.5386565000517,519.5386679000221,None,1,517.5553127999883,None,1,m,6,r,CIB,2021_May_19_1025,WASABI Nback,2020.2.10,60.0040202860007,
0,1,3,"[0.2, 0.2]",None,0,1,1,1,,,,,0,0,0,0,0,55,55,55,,,,,,,,,,,519.5553401000798,None,519.5553401000798,520.555345700006,520.53868160001,521.5386866000481,None,1,519.5553401000798,None,1,m,6,r,CIB,2021_May_19_1025,WASABI Nback,2020.2.10,60.0040202860007,
0,1,9,"[0.2, -0.2]",1,0,1,1,1,,,,,0,0,0,0,0,56,56,56,,,,,,,,,,,521.5553417999763,None,521.5553417999763,522.555350300041,522.538687500055,523.5386801999994,None,0,521.5553417999763,None,1,m,6,r,CIB,2021_May_19_1025,WASABI Nback,2020.2.10,60.0040202860007,
0,1,6,"[0.2, 0]",None,0,1,1,1,,,,,0,0,0,0,0,57,57,57,,,,,,,,,,,523.5553727999795,None,523.5553727999795,524.5553674000548,524.5387083999813,525.5387097999919,None,1,523.5553727999795,None,1,m,6,r,CIB,2021_May_19_1025,WASABI Nback,2020.2.10,60.0040202860007,
0,1,2,"[0, 0.2]",None,0,1,1,1,,,,,0,0,0,0,0,58,58,58,,,,,,,,,,,525.5553853000747,None,525.5553853000747,526.5553897999926,526.5387212000787,527.5387594000204,None,1,525.5553853000747,None,1,m,6,r,CIB,2021_May_19_1025,WASABI Nback,2020.2.10,60.0040202860007,
0,1,5,"[0, 0]",None,0,1,1,1,,,,,0,0,0,0,0,59,59,59,,,,,,,,,,,527.5554028999759,None,527.5554028999759,528.5554220000049,528.5387556999922,529.5387644000584,None,1,527.5554028999759,None,1,m,6,r,CIB,2021_May_19_1025,WASABI Nback,2020.2.10,60.0040202860007,
0,1,5,"[0, 0]",None,0,1,1,1,,,,,0,0,0,0,0,60,60,60,,,,,,,,,,,529.5554188999813,None,529.5554188999813,530.5554240000201,530.5387764000334,531.538777400041,None,1,529.5554188999813,None,1,m,6,r,CIB,2021_May_19_1025,WASABI Nback,2020.2.10,60.0040202860007,
0,1,2,"[0, 0.2]",None,0,1,1,1,,,,,0,0,0,0,0,61,61,61,,,,,,,,,,,531.5554451000644,None,531.5554451000644,532.5554308000719,532.5387804000638,533.5387787000509,None,1,531.5554451000644,None,1,m,6,r,CIB,2021_May_19_1025,WASABI Nback,2020.2.10,60.0040202860007,
0,1,6,"[0.2, 0]",None,0,1,1,1,,,,,0,0,0,0,0,62,62,62,,,,,,,,,,,533.5554363999981,None,533.5554363999981,534.5554569000378,534.5387999999803,535.5387038000626,None,1,533.5554363999981,None,1,m,6,r,CIB,2021_May_19_1025,WASABI Nback,2020.2.10,60.0040202860007,
0,1,9,"[0.2, -0.2]",None,0,1,1,1,,,,,0,0,0,0,0,63,63,63,,,,,,,,,,,535.5554569000378,None,535.5554569000378,536.5554976999993,536.5387988999719,537.5388300999766,None,1,535.5554569000378,None,1,m,6,r,CIB,2021_May_19_1025,WASABI Nback,2020.2.10,60.0040202860007,
0,1,3,"[0.2, 0.2]",None,0,1,1,1,,,,,0,0,0,0,0,64,64,64,,,,,,,,,,,537.5555058000609,None,537.5555058000609,538.5555110999849,538.5388238000451,539.5388269000687,None,1,537.5555058000609,None,1,m,6,r,CIB,2021_May_19_1025,WASABI Nback,2020.2.10,60.0040202860007,
0,1,9,"[0.2, -0.2]",1,0,1,1,1,,,,,0,0,0,0,0,65,65,65,,,,,,,,,,,539.5555071000708,None,539.5555071000708,540.5555150000146,540.5388564000605,541.5388710000552,None,0,539.5555071000708,None,1,m,6,r,CIB,2021_May_19_1025,WASABI Nback,2020.2.10,60.0040202860007,
0,1,7,"[-0.2, -0.2]",None,0,1,1,1,,,,,0,0,0,0,0,66,66,66,,,,,,,,,,,541.5555138000054,None,541.5555138000054,542.5555251999758,542.538864400005,543.5388799000066,None,1,541.5555138000054,None,1,m,6,r,CIB,2021_May_19_1025,WASABI Nback,2020.2.10,60.0040202860007,
0,1,1,"[-0.2, 0.2]",None,0,1,1,1,,,,,0,0,0,0,0,67,67,67,,,,,,,,,,,543.5555400999729,None,543.5555400999729,544.5555496000452,544.538877199986,545.5388872000622,None,1,543.5555400999729,None,1,m,6,r,CIB,2021_May_19_1025,WASABI Nback,2020.2.10,60.0040202860007,
0,1,5,"[0, 0]",None,0,1,1,1,,,,,0,0,0,0,0,68,68,68,,,,,,,,,,,545.5555662000552,None,545.5555662000552,546.5555495000444,546.5388891000766,547.5389007000485,None,1,545.5555662000552,None,1,m,6,r,CIB,2021_May_19_1025,WASABI Nback,2020.2.10,60.0040202860007,
0,1,7,"[-0.2, -0.2]",None,0,1,1,1,,,,,0,0,0,0,0,69,69,69,,,,,,,,,,,547.5555597000057,None,547.5555597000057,548.5555721999845,548.5389093999984,549.5389264000114,None,1,547.5555597000057,None,1,m,6,r,CIB,2021_May_19_1025,WASABI Nback,2020.2.10,60.0040202860007,
0,1,5,"[0, 0]",1,0,1,1,1,,,,,0,0,0,0,0,70,70,70,,,,,,,,,,,549.5555909000104,None,549.5555909000104,550.5555896000005,550.5389416000107,551.5389277000213,None,0,549.5555909000104,None,1,m,6,r,CIB,2021_May_19_1025,WASABI Nback,2020.2.10,60.0040202860007,
0,1,6,"[0.2, 0]",None,0,1,1,1,,,,,0,0,0,0,0,71,71,71,,,,,,,,,,,551.5556004999671,None,551.5556004999671,552.5556128000608,552.5389587000245,553.5389509999659,None,1,551.5556004999671,None,1,m,6,r,CIB,2021_May_19_1025,WASABI Nback,2020.2.10,60.0040202860007,
0,1,3,"[0.2, 0.2]",None,0,1,1,1,,,,,0,0,0,0,0,72,72,72,,,,,,,,,,,553.5556092000334,None,553.5556092000334,554.5556277000578,554.5389509999659,555.5389818999683,None,1,553.5556092000334,None,1,m,6,r,CIB,2021_May_19_1025,WASABI Nback,2020.2.10,60.0040202860007,
0,1,6,"[0.2, 0]",1,0,1,1,1,,,,,0,0,0,0,0,73,73,73,,,,,,,,,,,555.5556224000175,None,555.5556224000175,556.555639600032,556.5389646000694,557.5389848999912,None,0,555.5556224000175,None,1,m,6,r,CIB,2021_May_19_1025,WASABI Nback,2020.2.10,60.0040202860007,
0,1,8,"[0, -0.2]",None,0,1,1,1,,,,,0,0,0,0,0,74,74,74,,,,,,,,,,,557.5556647999911,None,557.5556647999911,558.5556630999781,558.5390049000271,559.5390109000728,None,1,557.5556647999911,None,1,m,6,r,CIB,2021_May_19_1025,WASABI Nback,2020.2.10,60.0040202860007,
0,1,9,"[0.2, -0.2]",None,0,1,1,1,,,,,0,0,0,0,0,75,75,75,,,,,,,,,,,559.555662299972,None,559.555662299972,560.5555457000155,560.5390113000758,561.539033100009,None,1,559.555662299972,None,1,m,6,r,CIB,2021_May_19_1025,WASABI Nback,2020.2.10,60.0040202860007,
0,1,9,"[0.2, -0.2]",None,0,1,1,1,,,,,0,0,0,0,0,76,76,76,,,,,,,,,,,561.5556905000703,None,561.5556905000703,562.5556817000033,562.5390376000432,563.5390317999991,None,1,561.5556905000703,None,1,m,6,r,CIB,2021_May_19_1025,WASABI Nback,2020.2.10,60.0040202860007,
0,1,1,"[-0.2, 0.2]",None,0,1,1,1,,,,,0,0,0,0,0,77,77,77,,,,,,,,,,,563.5557020000415,None,563.5557020000415,564.5557204000652,564.5390544000547,565.5390756999841,None,1,563.5557020000415,None,1,m,6,r,CIB,2021_May_19_1025,WASABI Nback,2020.2.10,60.0040202860007,
0,1,3,"[0.2, 0.2]",None,0,1,1,1,,,,,0,0,0,0,0,78,78,78,,,,,,,,,,,565.5557128000073,None,565.5557128000073,566.5557346000569,566.5390610999893,567.5390926999971,None,1,565.5557128000073,None,1,m,6,r,CIB,2021_May_19_1025,WASABI Nback,2020.2.10,60.0040202860007,
0,1,5,"[0, 0]",None,0,1,1,1,,,,,0,0,0,0,0,79,79,79,,,,,,,,,,,567.5557409999892,None,567.5557409999892,568.5557345000561,568.539122999995,569.5391031000763,None,1,567.5557409999892,None,1,m,6,r,CIB,2021_May_19_1025,WASABI Nback,2020.2.10,60.0040202860007,
0,1,3,"[0.2, 0.2]",1,0,1,1,1,,,,,0,0,0,0,0,80,80,80,,,,,,,,,,,569.5557418999961,None,569.5557418999961,570.5557611000258,570.5390934000025,571.5391164000612,None,0,569.5557418999961,None,1,m,6,r,CIB,2021_May_19_1025,WASABI Nback,2020.2.10,60.0040202860007,
0,1,4,"[-0.2, 0]",None,0,1,1,1,,,,,0,0,0,0,0,81,81,81,,,,,,,,,,,571.5557655000594,None,571.5557655000594,572.5557726999978,572.5391128000338,573.5391467000591,None,1,571.5557655000594,None,1,m,6,r,CIB,2021_May_19_1025,WASABI Nback,2020.2.10,60.0040202860007,
0,1,7,"[-0.2, -0.2]",None,0,1,1,1,,,,,0,0,0,0,0,82,82,82,,,,,,,,,,,573.5557948000496,None,573.5557948000496,574.5557894000085,574.5390237000538,575.5391321000643,None,1,573.5557948000496,None,1,m,6,r,CIB,2021_May_19_1025,WASABI Nback,2020.2.10,60.0040202860007,
0,1,4,"[-0.2, 0]",1,0,1,1,1,,,,,0,0,0,0,0,83,83,83,,,,,,,,,,,575.5558755999664,None,575.5558755999664,576.5558110000566,576.5391569000203,577.5391661999747,None,0,575.5558755999664,None,1,m,6,r,CIB,2021_May_19_1025,WASABI Nback,2020.2.10,60.0040202860007,
0,1,4,"[-0.2, 0]",None,0,1,1,1,,,,,0,0,0,0,0,84,84,84,,,,,,,,,,,577.5558186999988,None,577.5558186999988,578.5558196000056,578.5391677999869,579.5391790000722,None,1,577.5558186999988,None,1,m,6,r,CIB,2021_May_19_1025,WASABI Nback,2020.2.10,60.0040202860007,
0,1,5,"[0, 0]",None,0,1,1,1,,,,,0,0,0,0,0,85,85,85,,,,,,,,,,,579.5558378000278,None,579.5558378000278,580.555837700027,580.5392136999872,581.5391972999787,None,1,579.5558378000278,None,1,m,6,r,CIB,2021_May_19_1025,WASABI Nback,2020.2.10,60.0040202860007,
0,1,2,"[0, 0.2]",None,0,1,1,1,,,,,0,0,0,0,0,86,86,86,,,,,,,,,,,581.5558601000812,None,581.5558601000812,582.555852200021,582.5391973999795,583.5392136999872,None,1,581.5558601000812,None,1,m,6,r,CIB,2021_May_19_1025,WASABI Nback,2020.2.10,60.0040202860007,
0,1,6,"[0.2, 0]",None,0,1,1,1,,,,,0,0,0,0,0,87,87,87,,,,,,,,,,,583.5558756999671,None,583.5558756999671,584.5558789999923,584.5392344000284,585.539252000046,None,1,583.5558756999671,None,1,m,6,r,CIB,2021_May_19_1025,WASABI Nback,2020.2.10,60.0040202860007,
0,1,7,"[-0.2, -0.2]",None,0,1,1,1,,,,,0,0,0,0,0,88,88,88,,,,,,,,,,,585.5558806000045,None,585.5558806000045,586.5558976000175,586.5392392000649,587.5392775000073,None,1,585.5558806000045,None,1,m,6,r,CIB,2021_May_19_1025,WASABI Nback,2020.2.10,60.0040202860007,
0,1,6,"[0.2, 0]",1,0,1,1,1,,,,,0,0,0,0,0,89,89,89,,,,,,,,,,,587.5558909999672,None,587.5558909999672,588.5559137000237,588.5392446999904,589.539258099976,None,0,587.5558909999672,None,1,m,6,r,CIB,2021_May_19_1025,WASABI Nback,2020.2.10,60.0040202860007,
0,1,6,"[0.2, 0]",None,0,1,1,1,,,,,0,0,0,0,0,90,90,90,,,,,,,,,,,589.5559116000077,None,589.5559116000077,590.5559425000101,590.5392428999767,591.5392742999829,None,1,589.5559116000077,None,1,m,6,r,CIB,2021_May_19_1025,WASABI Nback,2020.2.10,60.0040202860007,
0,1,7,"[-0.2, -0.2]",None,0,1,1,1,,,,,0,0,0,0,0,91,91,91,,,,,,,,,,,591.5559412000002,None,591.5559412000002,592.5559429000132,592.5392923000036,593.5392901999876,None,1,591.5559412000002,None,1,m,6,r,CIB,2021_May_19_1025,WASABI Nback,2020.2.10,60.0040202860007,
0,1,6,"[0.2, 0]",1,0,1,1,1,,,,,0,0,0,0,0,92,92,92,,,,,,,,,,,593.5559630000498,None,593.5559630000498,594.5559693999821,594.5392935000127,595.5393084000098,None,0,593.5559630000498,None,1,m,6,r,CIB,2021_May_19_1025,WASABI Nback,2020.2.10,60.0040202860007,
0,1,2,"[0, 0.2]",None,0,1,1,1,,,,,0,0,0,0,0,93,93,93,,,,,,,,,,,595.555989800021,None,595.555989800021,596.5559990999755,596.539287499967,597.5393403000198,None,1,595.555989800021,None,1,m,6,r,CIB,2021_May_19_1025,WASABI Nback,2020.2.10,60.0040202860007,
0,1,5,"[0, 0]",None,0,1,1,1,,,,,0,0,0,0,0,94,94,94,,,,,,,,,,,597.5559845999815,None,597.5559845999815,598.5559931000462,598.539343600045,599.5393406000221,None,1,597.5559845999815,None,1,m,6,r,CIB,2021_May_19_1025,WASABI Nback,2020.2.10,60.0040202860007,
0,1,4,"[-0.2, 0]",None,0,1,1,1,,,,,0,0,0,0,0,95,95,95,,,,,,,,,,,599.5559938000515,None,599.5559938000515,600.5560179000022,600.539349299972,601.5393690000055,None,1,599.5559938000515,None,1,m,6,r,CIB,2021_May_19_1025,WASABI Nback,2020.2.10,60.0040202860007,
0,1,4,"[-0.2, 0]",None,0,1,1,1,,,,,0,0,0,0,0,96,96,96,,,,,,,,,,,601.5560377000365,None,601.5560377000365,602.5560387000442,602.539360200055,603.5393788000802,None,1,601.5560377000365,None,1,m,6,r,CIB,2021_May_19_1025,WASABI Nback,2020.2.10,60.0040202860007,
0,1,7,"[-0.2, -0.2]",None,0,1,1,1,,,,,0,0,0,0,0,97,97,97,,,,,,,,,,,603.5560329,None,603.5560329,604.5560469999909,604.5393983999966,605.5393133000471,None,1,603.5560329,None,1,m,6,r,CIB,2021_May_19_1025,WASABI Nback,2020.2.10,60.0040202860007,
0,1,4,"[-0.2, 0]",1,0,1,1,1,,,,,0,0,0,0,0,98,98,98,,,,,,,,,,,605.5560668000253,None,605.5560668000253,606.5560676000314,606.5394052000483,607.5394266999792,None,0,605.5560668000253,None,1,m,6,r,CIB,2021_May_19_1025,WASABI Nback,2020.2.10,60.0040202860007,
0,1,3,"[0.2, 0.2]",None,0,1,1,1,,,,,0,0,0,0,0,99,99,99,,,,,,,,,,,607.556195900077,None,607.556195900077,608.5561241999967,608.539416900021,609.5394262999762,None,1,607.556195900077,None,1,m,6,r,CIB,2021_May_19_1025,WASABI Nback,2020.2.10,60.0040202860007,
0,1,5,"[0, 0]",None,0,1,1,1,,,,,0,0,0,0,0,100,100,100,,,,,,,,,,,609.5560918999836,None,609.5560918999836,610.5560961000156,610.5394448000006,611.5394443999976,None,1,609.5560918999836,None,1,m,6,r,CIB,2021_May_19_1025,WASABI Nback,2020.2.10,60.0040202860007,
0,1,3,"[0.2, 0.2]",1,0,1,1,1,,,,,0,0,0,0,0,101,101,101,,,,,,,,,,,611.5561185000697,None,611.5561185000697,612.5561090999981,612.5394657000434,613.5394736999879,None,0,611.5561185000697,None,1,m,6,r,CIB,2021_May_19_1025,WASABI Nback,2020.2.10,60.0040202860007,
0,1,1,"[-0.2, 0.2]",None,0,1,1,1,,,,,0,0,0,0,0,102,102,102,,,,,,,,,,,613.5561386999907,None,613.5561386999907,614.555996100069,614.5394583999878,615.5394749999978,None,1,613.5561386999907,None,1,m,6,r,CIB,2021_May_19_1025,WASABI Nback,2020.2.10,60.0040202860007,
0,1,9,"[0.2, -0.2]",None,0,1,1,1,,,,,0,0,0,0,0,103,103,103,,,,,,,,,,,615.5561408000067,None,615.5561408000067,616.5561547999969,616.5395026999759,617.5394753,None,1,615.5561408000067,None,1,m,6,r,CIB,2021_May_19_1025,WASABI Nback,2020.2.10,60.0040202860007,
0,1,9,"[0.2, -0.2]",None,0,1,1,1,,,,,0,0,0,0,0,104,104,104,,,,,,,,,,,617.5561721000122,None,617.5561721000122,618.556191700045,618.5395220000064,619.5394035000354,None,1,617.5561721000122,None,1,m,6,r,CIB,2021_May_19_1025,WASABI Nback,2020.2.10,60.0040202860007,
0,1,8,"[0, -0.2]",None,0,1,1,1,,,,,0,0,0,0,0,105,105,105,,,,,,,,,,,619.556194200064,None,619.556194200064,620.5561887000222,620.5395235000178,621.5395352999913,None,1,619.556194200064,None,1,m,6,r,CIB,2021_May_19_1025,WASABI Nback,2020.2.10,60.0040202860007,
0,1,6,"[0.2, 0]",None,0,1,1,1,,,,,0,0,0,0,0,106,106,106,,,,,,,,,,,621.556199499988,None,621.556199499988,622.55619630008,622.5395357999951,623.5395288000582,None,1,621.556199499988,None,1,m,6,r,CIB,2021_May_19_1025,WASABI Nback,2020.2.10,60.0040202860007,
0,1,3,"[0.2, 0.2]",None,0,1,1,1,,,,,0,0,0,0,0,107,107,107,,,,,,,,,,,623.5562188000185,None,623.5562188000185,624.5562375000445,624.5395667999983,625.5395636999747,None,1,623.5562188000185,None,1,m,6,r,CIB,2021_May_19_1025,WASABI Nback,2020.2.10,60.0040202860007,
0,1,6,"[0.2, 0]",1,0,1,1,1,,,,,0,0,0,0,0,108,108,108,,,,,,,,,,,625.556245499989,None,625.556245499989,626.5562780000037,626.5395703000249,627.5395811999915,None,0,625.556245499989,None,1,m,6,r,CIB,2021_May_19_1025,WASABI Nback,2020.2.10,60.0040202860007,
0,1,5,"[0, 0]",None,0,1,1,1,,,,,0,0,0,0,0,109,109,109,,,,,,,,,,,627.5562485000119,None,627.5562485000119,628.5562557000667,628.5395913000684,629.5395746000577,None,1,627.5562485000119,None,1,m,6,r,CIB,2021_May_19_1025,WASABI Nback,2020.2.10,60.0040202860007,
0,1,7,"[-0.2, -0.2]",None,0,1,1,1,,,,,0,0,0,0,0,110,110,110,,,,,,,,,,,629.5562639000127,None,629.5562639000127,630.5562637000112,630.5396168000298,631.5396160000237,None,1,629.5562639000127,None,1,m,6,r,CIB,2021_May_19_1025,WASABI Nback,2020.2.10,60.0040202860007,
0,1,5,"[0, 0]",1,0,1,1,1,,,,,0,0,0,0,0,111,111,111,,,,,,,,,,,631.5562750999816,None,631.5562750999816,632.5562806000235,632.539610399981,633.5396383000771,None,0,631.5562750999816,None,1,m,6,r,CIB,2021_May_19_1025,WASABI Nback,2020.2.10,60.0040202860007,
0,1,1,"[-0.2, 0.2]",None,0,1,1,1,,,,,0,0,0,0,0,112,112,112,,,,,,,,,,,633.5563023000723,None,633.5563023000723,634.5562993000494,634.5396433999995,635.5396302000154,None,1,633.5563023000723,None,1,m,6,r,CIB,2021_May_19_1025,WASABI Nback,2020.2.10,60.0040202860007,
0,1,7,"[-0.2, -0.2]",None,0,1,1,1,,,,,0,0,0,0,0,113,113,113,,,,,,,,,,,635.556309800013,None,635.556309800013,636.5563154000556,636.539664400043,637.5396750000073,None,1,635.556309800013,None,1,m,6,r,CIB,2021_May_19_1025,WASABI Nback,2020.2.10,60.0040202860007,
0,1,9,"[0.2, -0.2]",None,0,1,1,1,,,,,0,0,0,0,0,114,114,114,,,,,,,,,,,637.5562884999672,None,637.5562884999672,638.5563490000786,638.5396313000238,639.5396848999662,None,1,637.5562884999672,None,1,m,6,r,CIB,2021_May_19_1025,WASABI Nback,2020.2.10,60.0040202860007,
0,1,3,"[0.2, 0.2]",None,0,1,1,1,,,,,0,0,0,0,0,115,115,115,,,,,,,,,,,639.55635790003,None,639.55635790003,640.5563640000764,640.5396607000148,641.539691700018,None,1,639.55635790003,None,1,m,6,r,CIB,2021_May_19_1025,WASABI Nback,2020.2.10,60.0040202860007,
0,1,9,"[0.2, -0.2]",1,0,1,1,1,,,,,0,0,0,0,0,116,116,116,,,,,,,,,,,641.556368599995,None,641.556368599995,642.5563580000307,642.5397088000318,643.5397191999946,None,0,641.556368599995,None,1,m,6,r,CIB,2021_May_19_1025,WASABI Nback,2020.2.10,60.0040202860007,
0,1,6,"[0.2, 0]",None,0,1,1,1,,,,,0,0,0,0,0,117,117,117,,,,,,,,,,,643.5564123999793,None,643.5564123999793,644.5563740000362,644.5397454000777,645.5397501999978,None,1,643.5564123999793,None,1,m,6,r,CIB,2021_May_19_1025,WASABI Nback,2020.2.10,60.0040202860007,
0,1,2,"[0, 0.2]",None,0,1,1,1,,,,,0,0,0,0,0,118,118,118,,,,,,,,,,,645.5564080000622,None,645.5564080000622,646.5563921000576,646.5397397000343,647.5397310999688,None,1,645.5564080000622,None,1,m,6,r,CIB,2021_May_19_1025,WASABI Nback,2020.2.10,60.0040202860007,
0,1,5,"[0, 0]",None,0,1,1,1,,,,,0,0,0,0,0,119,119,119,,,,,,,,,,,647.5564131999854,None,647.5564131999854,648.5564349000342,648.5397743000649,649.5397612999659,None,1,647.5564131999854,None,1,m,6,r,CIB,2021_May_19_1025,WASABI Nback,2020.2.10,60.0040202860007,
