square,location,corrAns,TaskT1Loop.thisRepN,TaskT1Loop.thisTrialN,TaskT1Loop.thisN,TaskT1Loop.thisIndex,trials_2.thisRepN,trials_2.thisTrialN,trials_2.thisN,trials_2.thisIndex,NbackInstructions.started,NbackInstructions.stopped,NbackStart.keys,NbackStart.rt,NbackStart.started,NbackStart.stopped,fixation_2.started,fixation_2.stopped,response_2.x,response_2.y,response_2.leftButton,grid_lines_2.started,grid_lines_2.stopped,target_square_2.started,target_square_2.stopped,fixation_3.started,fixation_3.stopped,response_2.click,response_2.corr,response_2.started,response_2.stopped,response_2.rt,subject number,gender,session,handedness,scanner,date,expName,psychopyVersion,frameRate,
,,,0,0,0,0,,,,,20.48899710000842,None,space,1.9768714999954682,20.48899710000842,None,,,,,,,,,,,,,,,,,99,m,99,r,MS,2021_Jun_03_1154,WASABI Nback,2020.2.10,59.797203760904985,
5,"[0, 0]",None,0,0,0,0,0,0,0,0,,,,,,,23.336377500003437,None,None,None,0,23.59181760001229,None,23.59181760001229,24.604369000007864,24.57140270000673,None,0,0,23.59181760001229,None,,99,m,99,r,MS,2021_Jun_03_1154,WASABI Nback,2020.2.10,59.797203760904985,
2,"[0, 0.2]",None,0,0,0,0,0,1,1,1,,,,,,,,,None,None,0,25.50539979999303,None,25.50539979999303,26.505329000006896,26.488726400013547,27.489538599998923,0,0,25.50539979999303,None,,99,m,99,r,MS,2021_Jun_03_1154,WASABI Nback,2020.2.10,59.797203760904985,
6,"[0.2, 0]",None,0,0,0,0,0,2,2,2,,,,,,,,,None,None,0,27.50591120001627,None,27.50591120001627,28.506150100001832,28.489797699992778,29.489934300014284,0,0,27.50591120001627,None,,99,m,99,r,MS,2021_Jun_03_1154,WASABI Nback,2020.2.10,59.797203760904985,
9,"[0.2, -0.2]",None,0,0,0,0,0,3,3,3,,,,,,,,,None,None,0,29.50724160001846,None,29.50724160001846,30.507416800013743,30.49061150001944,None,0,0,29.50724160001846,None,,99,m,99,r,MS,2021_Jun_03_1154,WASABI Nback,2020.2.10,59.797203760904985,
3,"[0.2, 0.2]",None,0,0,0,0,0,4,4,4,,,,,,,,,None,None,0,31.491120599996066,None,31.491120599996066,32.49144610000076,32.47486050002044,33.475287800014485,0,0,31.491120599996066,None,,99,m,99,r,MS,2021_Jun_03_1154,WASABI Nback,2020.2.10,59.797203760904985,
9,"[0.2, -0.2]",1,0,0,0,0,0,5,5,5,,,,,,,,,None,None,1,33.49196200000006,None,33.49196200000006,34.49231780000264,34.47568100001081,35.4762968000141,1,1,33.49196200000006,None,1.9350320000085048,99,m,99,r,MS,2021_Jun_03_1154,WASABI Nback,2020.2.10,59.797203760904985,
7,"[-0.2, -0.2]",None,0,0,0,0,0,6,6,6,,,,,,,,,None,None,0,35.49343800000497,None,35.49343800000497,36.49374900001567,36.47731780001777,37.477272899996024,0,0,35.49343800000497,None,,99,m,99,r,MS,2021_Jun_03_1154,WASABI Nback,2020.2.10,59.797203760904985,
1,"[-0.2, 0.2]",None,0,0,0,0,0,7,7,7,,,,,,,,,None,None,0,37.49442060000729,None,37.49442060000729,38.51189260001411,38.494002499995986,None,0,0,37.49442060000729,None,,99,m,99,r,MS,2021_Jun_03_1154,WASABI Nback,2020.2.10,59.797203760904985,
5,"[0, 0]",None,0,0,0,0,0,8,8,8,,,,,,,,,None,None,0,39.494803500012495,None,39.494803500012495,40.49531399999978,40.478436600009445,41.47887160000391,0,0,39.494803500012495,None,,99,m,99,r,MS,2021_Jun_03_1154,WASABI Nback,2020.2.10,59.797203760904985,
7,"[-0.2, -0.2]",None,0,0,0,0,0,9,9,9,,,,,,,,,None,None,0,41.49577780000982,None,41.49577780000982,42.49664220001432,42.48341430001892,None,0,0,41.49577780000982,None,,99,m,99,r,MS,2021_Jun_03_1154,WASABI Nback,2020.2.10,59.797203760904985,
5,"[0, 0]",1,0,0,0,0,0,10,10,10,,,,,,,,,None,None,0,43.49673790001543,None,43.49673790001543,44.497083599999314,44.480440700019244,45.48127600000589,0,1,43.49673790001543,None,,99,m,99,r,MS,2021_Jun_03_1154,WASABI Nback,2020.2.10,59.797203760904985,
6,"[0.2, 0]",None,0,0,0,0,0,11,11,11,,,,,,,,,None,None,0,45.49761600000784,None,45.49761600000784,46.498181300004944,46.481339299993124,47.48183890001383,0,0,45.49761600000784,None,,99,m,99,r,MS,2021_Jun_03_1154,WASABI Nback,2020.2.10,59.797203760904985,
3,"[0.2, 0.2]",None,0,0,0,0,0,12,12,12,,,,,,,,,None,None,0,47.49860439999611,None,47.49860439999611,48.49896170001011,48.482284400000935,49.48273010001867,0,0,47.49860439999611,None,,99,m,99,r,MS,2021_Jun_03_1154,WASABI Nback,2020.2.10,59.797203760904985,
6,"[0.2, 0]",1,0,0,0,0,0,13,13,13,,,,,,,,,None,None,0,49.49947150002117,None,49.49947150002117,50.499941799993394,50.48321500001475,51.483716799994,0,1,49.49947150002117,None,,99,m,99,r,MS,2021_Jun_03_1154,WASABI Nback,2020.2.10,59.797203760904985,
8,"[0, -0.2]",None,0,0,0,0,0,14,14,14,,,,,,,,,None,None,1,51.50054559999262,None,51.50054559999262,52.5008111000061,52.484175299992785,53.48463399999309,1,0,51.50054559999262,None,1.968047900008969,99,m,99,r,MS,2021_Jun_03_1154,WASABI Nback,2020.2.10,59.797203760904985,
9,"[0.2, -0.2]",None,0,0,0,0,0,15,15,15,,,,,,,,,None,None,0,53.50141180001083,None,53.50141180001083,54.50175900000613,54.485069000016665,55.485513000021456,0,0,53.50141180001083,None,,99,m,99,r,MS,2021_Jun_03_1154,WASABI Nback,2020.2.10,59.797203760904985,
9,"[0.2, -0.2]",None,0,0,0,0,0,16,16,16,,,,,,,,,None,None,0,55.5022191000171,None,55.5022191000171,56.50264620000962,56.48612089999369,57.48653720002039,0,0,55.5022191000171,None,,99,m,99,r,MS,2021_Jun_03_1154,WASABI Nback,2020.2.10,59.797203760904985,
1,"[-0.2, 0.2]",None,0,0,0,0,0,17,17,17,,,,,,,,,None,None,0,57.5031469000096,None,57.5031469000096,58.503630899998825,58.48699820000911,59.48745250000502,0,0,57.5031469000096,None,,99,m,99,r,MS,2021_Jun_03_1154,WASABI Nback,2020.2.10,59.797203760904985,
3,"[0.2, 0.2]",None,0,0,0,0,0,18,18,18,,,,,,,,,None,None,0,59.50412600001437,None,59.50412600001437,60.50453380000545,60.487859000015305,61.488403199997265,0,0,59.50412600001437,None,,99,m,99,r,MS,2021_Jun_03_1154,WASABI Nback,2020.2.10,59.797203760904985,
5,"[0, 0]",None,0,0,0,0,0,19,19,19,,,,,,,,,None,None,0,61.50512170000002,None,61.50512170000002,62.50544550002087,62.488781899999594,63.489268800010905,0,0,61.50512170000002,None,,99,m,99,r,MS,2021_Jun_03_1154,WASABI Nback,2020.2.10,59.797203760904985,
3,"[0.2, 0.2]",1,0,0,0,0,0,20,20,20,,,,,,,,,None,None,0,63.506202000018675,None,63.506202000018675,64.51214200002141,64.49308159999782,None,0,1,63.506202000018675,None,,99,m,99,r,MS,2021_Jun_03_1154,WASABI Nback,2020.2.10,59.797203760904985,
4,"[-0.2, 0]",None,0,0,0,0,0,21,21,21,,,,,,,,,None,None,0,65.49047710001469,None,65.49047710001469,66.49089070002083,66.47409050000715,67.4787050000159,0,1,65.49047710001469,None,,99,m,99,r,MS,2021_Jun_03_1154,WASABI Nback,2020.2.10,59.797203760904985,
7,"[-0.2, -0.2]",None,0,0,0,0,0,22,22,22,,,,,,,,,None,None,0,67.49437390000094,None,67.49437390000094,68.5084693999961,68.4750047000125,69.47580060001928,0,1,67.49437390000094,None,,99,m,99,r,MS,2021_Jun_03_1154,WASABI Nback,2020.2.10,59.797203760904985,
4,"[-0.2, 0]",1,0,0,0,0,0,23,23,23,,,,,,,,,None,None,0,69.49227220000466,None,69.49227220000466,70.49262659999658,70.47632899999735,71.47641930001555,0,0,69.49227220000466,None,,99,m,99,r,MS,2021_Jun_03_1154,WASABI Nback,2020.2.10,59.797203760904985,
4,"[-0.2, 0]",None,0,0,0,0,0,24,24,24,,,,,,,,,None,None,0,71.49325530001079,None,71.49325530001079,72.49375960000907,72.47682350000832,73.48075879999669,0,1,71.49325530001079,None,,99,m,99,r,MS,2021_Jun_03_1154,WASABI Nback,2020.2.10,59.797203760904985,
5,"[0, 0]",None,0,0,0,0,0,25,25,25,,,,,,,,,None,None,0,73.49895460001426,None,73.49895460001426,74.51134950001142,74.47896720000426,75.4833013000025,0,1,73.49895460001426,None,,99,m,99,r,MS,2021_Jun_03_1154,WASABI Nback,2020.2.10,59.797203760904985,
2,"[0, 0.2]",None,0,0,0,0,0,26,26,26,,,,,,,,,None,None,0,75.49917860000278,None,75.49917860000278,76.51217420000467,76.47878830000991,77.48086350000813,0,1,75.49917860000278,None,,99,m,99,r,MS,2021_Jun_03_1154,WASABI Nback,2020.2.10,59.797203760904985,
6,"[0.2, 0]",None,0,0,0,0,0,27,27,27,,,,,,,,,None,None,0,77.49831200001063,None,77.49831200001063,78.5140791000158,78.48023250000551,79.48258340000757,0,1,77.49831200001063,None,,99,m,99,r,MS,2021_Jun_03_1154,WASABI Nback,2020.2.10,59.797203760904985,
7,"[-0.2, -0.2]",None,0,0,0,0,0,28,28,28,,,,,,,,,None,None,0,79.50235759999487,None,79.50235759999487,80.51481370002148,80.48444990001735,None,0,1,79.50235759999487,None,,99,m,99,r,MS,2021_Jun_03_1154,WASABI Nback,2020.2.10,59.797203760904985,
6,"[0.2, 0]",1,0,0,0,0,0,29,29,29,,,,,,,,,None,None,0,81.49894119999954,None,81.49894119999954,82.49827229999937,82.48159770001075,83.48646580000059,0,0,81.49894119999954,None,,99,m,99,r,MS,2021_Jun_03_1154,WASABI Nback,2020.2.10,59.797203760904985,
6,"[0.2, 0]",None,0,0,0,0,0,30,30,30,,,,,,,,,None,None,0,83.50169540001662,None,83.50169540001662,84.51982159999898,84.48272080000606,85.48302960000001,0,1,83.50169540001662,None,,99,m,99,r,MS,2021_Jun_03_1154,WASABI Nback,2020.2.10,59.797203760904985,
7,"[-0.2, -0.2]",None,0,0,0,0,0,31,31,31,,,,,,,,,None,None,0,85.49982850000379,None,85.49982850000379,86.50008670001989,86.48347700000159,87.48389400000451,0,1,85.49982850000379,None,,99,m,99,r,MS,2021_Jun_03_1154,WASABI Nback,2020.2.10,59.797203760904985,
6,"[0.2, 0]",1,0,0,0,0,0,32,32,32,,,,,,,,,None,None,0,87.50060780000058,None,87.50060780000058,88.50254340001266,88.4852138000133,89.48939080000855,0,0,87.50060780000058,None,,99,m,99,r,MS,2021_Jun_03_1154,WASABI Nback,2020.2.10,59.797203760904985,
2,"[0, 0.2]",None,0,0,0,0,0,33,33,33,,,,,,,,,None,None,0,89.5046563000069,None,89.5046563000069,90.51928219999536,90.48596170000383,91.48589660000289,0,1,89.5046563000069,None,,99,m,99,r,MS,2021_Jun_03_1154,WASABI Nback,2020.2.10,59.797203760904985,
5,"[0, 0]",None,0,0,0,0,0,34,34,34,,,,,,,,,None,None,0,91.50393920001807,None,91.50393920001807,92.50556059999508,92.48920010001166,None,0,1,91.50393920001807,None,,99,m,99,r,MS,2021_Jun_03_1154,WASABI Nback,2020.2.10,59.797203760904985,
4,"[-0.2, 0]",None,0,0,0,0,0,35,35,35,,,,,,,,,None,None,0,93.50346649999847,None,93.50346649999847,94.50603280001087,94.490080699994,None,0,1,93.50346649999847,None,,99,m,99,r,MS,2021_Jun_03_1154,WASABI Nback,2020.2.10,59.797203760904985,
4,"[-0.2, 0]",None,0,0,0,0,0,36,36,36,,,,,,,,,None,None,0,95.50516140001127,None,95.50516140001127,96.5068780000147,96.49079030001303,None,0,1,95.50516140001127,None,,99,m,99,r,MS,2021_Jun_03_1154,WASABI Nback,2020.2.10,59.797203760904985,
7,"[-0.2, -0.2]",None,0,0,0,0,0,37,37,37,,,,,,,,,None,None,0,97.50546750001376,None,97.50546750001376,98.50782470000559,98.49177090000012,None,0,1,97.50546750001376,None,,99,m,99,r,MS,2021_Jun_03_1154,WASABI Nback,2020.2.10,59.797203760904985,
4,"[-0.2, 0]",1,0,0,0,0,0,38,38,38,,,,,,,,,None,None,0,99.50620200001867,None,99.50620200001867,100.50685700000031,100.49002980001387,101.49056480001309,0,0,99.50620200001867,None,,99,m,99,r,MS,2021_Jun_03_1154,WASABI Nback,2020.2.10,59.797203760904985,
3,"[0.2, 0.2]",None,0,0,0,0,0,39,39,39,,,,,,,,,None,None,0,101.50725460000103,None,101.50725460000103,102.50810659999843,102.4913050000032,None,0,1,101.50725460000103,None,,99,m,99,r,MS,2021_Jun_03_1154,WASABI Nback,2020.2.10,59.797203760904985,
5,"[0, 0]",None,0,0,0,0,0,40,40,40,,,,,,,,,None,None,0,103.49147609999636,None,103.49147609999636,104.49222680000821,104.47546479999437,105.47578470001463,0,1,103.49147609999636,None,,99,m,99,r,MS,2021_Jun_03_1154,WASABI Nback,2020.2.10,59.797203760904985,
3,"[0.2, 0.2]",1,0,0,0,0,0,41,41,41,,,,,,,,,None,None,0,105.49244610001915,None,105.49244610001915,106.49293410000973,106.4763174999971,107.48171320001711,0,0,105.49244610001915,None,,99,m,99,r,MS,2021_Jun_03_1154,WASABI Nback,2020.2.10,59.797203760904985,
1,"[-0.2, 0.2]",None,0,0,0,0,0,42,42,42,,,,,,,,,None,None,0,107.49383940000553,None,107.49383940000553,108.49402129999362,108.47717709999415,109.47767409999506,0,1,107.49383940000553,None,,99,m,99,r,MS,2021_Jun_03_1154,WASABI Nback,2020.2.10,59.797203760904985,
9,"[0.2, -0.2]",None,0,0,0,0,0,43,43,43,,,,,,,,,None,None,0,109.49431559999357,None,109.49431559999357,110.49477310001384,110.47817440002109,111.47873550001532,0,1,109.49431559999357,None,,99,m,99,r,MS,2021_Jun_03_1154,WASABI Nback,2020.2.10,59.797203760904985,
9,"[0.2, -0.2]",None,0,0,0,0,0,44,44,44,,,,,,,,,None,None,0,111.49550889999955,None,111.49550889999955,112.49571970000397,112.47893670000485,113.47962950001238,0,1,111.49550889999955,None,,99,m,99,r,MS,2021_Jun_03_1154,WASABI Nback,2020.2.10,59.797203760904985,
8,"[0, -0.2]",None,0,0,0,0,0,45,45,45,,,,,,,,,None,None,0,113.49624160001986,None,113.49624160001986,114.49664719999419,114.48000430001412,115.4804711000179,0,1,113.49624160001986,None,,99,m,99,r,MS,2021_Jun_03_1154,WASABI Nback,2020.2.10,59.797203760904985,
6,"[0.2, 0]",None,0,0,0,0,0,46,46,46,,,,,,,,,None,None,0,115.49712210000143,None,115.49712210000143,116.4975884000014,116.48103190000984,117.4813378000108,0,1,115.49712210000143,None,,99,m,99,r,MS,2021_Jun_03_1154,WASABI Nback,2020.2.10,59.797203760904985,
3,"[0.2, 0.2]",None,0,0,0,0,0,47,47,47,,,,,,,,,None,None,0,117.4979827000061,None,117.4979827000061,118.49856629999704,118.48186480000732,119.48230920001515,0,1,117.4979827000061,None,,99,m,99,r,MS,2021_Jun_03_1154,WASABI Nback,2020.2.10,59.797203760904985,
6,"[0.2, 0]",1,0,0,0,0,0,48,48,48,,,,,,,,,None,None,0,119.4991011999955,None,119.4991011999955,120.49941899999976,120.48272739999811,121.48315720001119,0,0,119.4991011999955,None,,99,m,99,r,MS,2021_Jun_03_1154,WASABI Nback,2020.2.10,59.797203760904985,
5,"[0, 0]",None,0,0,0,0,0,49,49,49,,,,,,,,,None,None,0,121.49994639999932,None,121.49994639999932,122.50057430000743,122.48386890001711,123.48413779999828,0,1,121.49994639999932,None,,99,m,99,r,MS,2021_Jun_03_1154,WASABI Nback,2020.2.10,59.797203760904985,
7,"[-0.2, -0.2]",None,0,0,0,0,0,50,50,50,,,,,,,,,None,None,0,123.5008555999957,None,123.5008555999957,124.50124870002037,124.48464830001467,125.48515829999815,0,1,123.5008555999957,None,,99,m,99,r,MS,2021_Jun_03_1154,WASABI Nback,2020.2.10,59.797203760904985,
5,"[0, 0]",1,0,0,0,0,0,51,51,51,,,,,,,,,None,None,0,125.50196980001056,None,125.50196980001056,126.50225520000095,126.4856826000032,127.485992300004,0,0,125.50196980001056,None,,99,m,99,r,MS,2021_Jun_03_1154,WASABI Nback,2020.2.10,59.797203760904985,
1,"[-0.2, 0.2]",None,0,0,0,0,0,52,52,52,,,,,,,,,None,None,0,127.50275119999424,None,127.50275119999424,128.50323580001714,128.48651220000465,129.48699000000488,0,1,127.50275119999424,None,,99,m,99,r,MS,2021_Jun_03_1154,WASABI Nback,2020.2.10,59.797203760904985,
7,"[-0.2, -0.2]",None,0,0,0,0,0,53,53,53,,,,,,,,,None,None,0,129.50382730001002,None,129.50382730001002,130.5046020000009,130.4879343000066,None,0,1,129.50382730001002,None,,99,m,99,r,MS,2021_Jun_03_1154,WASABI Nback,2020.2.10,59.797203760904985,
9,"[0.2, -0.2]",None,0,0,0,0,0,54,54,54,,,,,,,,,None,None,0,131.4881102000072,None,131.4881102000072,132.4883291000151,132.4716490000137,133.47251740001957,0,1,131.4881102000072,None,,99,m,99,r,MS,2021_Jun_03_1154,WASABI Nback,2020.2.10,59.797203760904985,
3,"[0.2, 0.2]",None,0,0,0,0,0,55,55,55,,,,,,,,,None,None,0,133.48920840001665,133.48920840001665,133.48920840001665,134.48948079999536,134.47296730001108,135.4731859000167,0,1,133.48920840001665,None,,99,m,99,r,MS,2021_Jun_03_1154,WASABI Nback,2020.2.10,59.797203760904985,
9,"[0.2, -0.2]",1,0,0,0,0,0,56,56,56,,,,,,,,,None,None,0,135.4898444999999,135.4898444999999,135.4898444999999,136.4902784000151,136.47369129999424,137.47457590000704,0,0,135.4898444999999,None,,99,m,99,r,MS,2021_Jun_03_1154,WASABI Nback,2020.2.10,59.797203760904985,
6,"[0.2, 0]",None,0,0,0,0,0,57,57,57,,,,,,,,,None,None,0,137.49082669999916,None,137.49082669999916,138.49490590000642,138.47485379999853,139.47512210000423,0,1,137.49082669999916,None,,99,m,99,r,MS,2021_Jun_03_1154,WASABI Nback,2020.2.10,59.797203760904985,
2,"[0, 0.2]",None,0,0,0,0,0,58,58,58,,,,,,,,,None,None,0,139.49187319999328,None,139.49187319999328,140.49210689999745,140.47547360000317,141.47714090000954,0,1,139.49187319999328,None,,99,m,99,r,MS,2021_Jun_03_1154,WASABI Nback,2020.2.10,59.797203760904985,
5,"[0, 0]",None,0,0,0,0,0,59,59,59,,,,,,,,,None,None,0,141.49332140001934,None,141.49332140001934,142.4945781000133,142.4774991000013,143.4775661000167,0,1,141.49332140001934,None,,99,m,99,r,MS,2021_Jun_03_1154,WASABI Nback,2020.2.10,59.797203760904985,
5,"[0, 0]",None,0,0,0,0,0,60,60,60,,,,,,,,,None,None,0,143.49427759999526,None,143.49427759999526,144.49442750000162,144.47728829999687,145.47800170001574,0,1,143.49427759999526,None,,99,m,99,r,MS,2021_Jun_03_1154,WASABI Nback,2020.2.10,59.797203760904985,
2,"[0, 0.2]",None,0,0,0,0,0,61,61,61,,,,,,,,,None,None,0,145.49457999999868,None,145.49457999999868,146.49501109999255,146.4781978999963,147.47868990001734,0,1,145.49457999999868,None,,99,m,99,r,MS,2021_Jun_03_1154,WASABI Nback,2020.2.10,59.797203760904985,
6,"[0.2, 0]",None,0,0,0,0,0,62,62,62,,,,,,,,,None,None,0,147.49536590001662,None,147.49536590001662,148.4959361999936,148.47925649999524,149.47966380001162,0,1,147.49536590001662,None,,99,m,99,r,MS,2021_Jun_03_1154,WASABI Nback,2020.2.10,59.797203760904985,
9,"[0.2, -0.2]",None,0,0,0,0,0,63,63,63,,,,,,,,,None,None,0,149.49639499999466,None,149.49639499999466,150.49684400000842,150.48027260001982,151.4806632999971,0,1,149.49639499999466,None,,99,m,99,r,MS,2021_Jun_03_1154,WASABI Nback,2020.2.10,59.797203760904985,
3,"[0.2, 0.2]",None,0,0,0,0,0,64,64,64,,,,,,,,,None,None,0,151.49731870001415,None,151.49731870001415,152.49783090001438,152.48117539999657,153.48157289999654,0,1,151.49731870001415,None,,99,m,99,r,MS,2021_Jun_03_1154,WASABI Nback,2020.2.10,59.797203760904985,
9,"[0.2, -0.2]",1,0,0,0,0,0,65,65,65,,,,,,,,,None,None,0,153.4982275000075,None,153.4982275000075,154.4987783000106,154.48208879999584,155.48254470000393,0,0,153.4982275000075,None,,99,m,99,r,MS,2021_Jun_03_1154,WASABI Nback,2020.2.10,59.797203760904985,
7,"[-0.2, -0.2]",None,0,0,0,0,0,66,66,66,,,,,,,,,None,None,0,155.49919339999906,None,155.49919339999906,156.49969670001883,156.48310010001296,157.48346499999752,0,1,155.49919339999906,None,,99,m,99,r,MS,2021_Jun_03_1154,WASABI Nback,2020.2.10,59.797203760904985,
1,"[-0.2, 0.2]",None,0,0,0,0,0,67,67,67,,,,,,,,,None,None,0,157.50012260000221,None,157.50012260000221,158.50064610000118,158.48440390001633,159.48448850002023,0,1,157.50012260000221,None,,99,m,99,r,MS,2021_Jun_03_1154,WASABI Nback,2020.2.10,59.797203760904985,
5,"[0, 0]",None,0,0,0,0,0,68,68,68,,,,,,,,,None,None,0,159.50111610000022,None,159.50111610000022,160.50155590000213,160.48481029999675,161.4855177999998,0,1,159.50111610000022,None,,99,m,99,r,MS,2021_Jun_03_1154,WASABI Nback,2020.2.10,59.797203760904985,
7,"[-0.2, -0.2]",None,0,0,0,0,0,69,69,69,,,,,,,,,None,None,0,161.50212099999771,None,161.50212099999771,162.50242590002017,162.48609210000723,163.4862756000075,0,1,161.50212099999771,None,,99,m,99,r,MS,2021_Jun_03_1154,WASABI Nback,2020.2.10,59.797203760904985,
5,"[0, 0]",1,0,0,0,0,0,70,70,70,,,,,,,,,None,None,0,163.50291890001972,None,163.50291890001972,164.50341940001817,164.48672879999503,165.48734220000915,0,0,163.50291890001972,None,,99,m,99,r,MS,2021_Jun_03_1154,WASABI Nback,2020.2.10,59.797203760904985,
6,"[0.2, 0]",None,0,0,0,0,0,71,71,71,,,,,,,,,None,None,0,165.50392550000106,None,165.50392550000106,166.50440110001364,166.4877183000208,167.48813599999994,0,1,165.50392550000106,None,,99,m,99,r,MS,2021_Jun_03_1154,WASABI Nback,2020.2.10,59.797203760904985,
3,"[0.2, 0.2]",None,0,0,0,0,0,72,72,72,,,,,,,,,None,None,0,167.50483489999897,None,167.50483489999897,168.50576250001905,168.48896509999759,169.4902023000177,0,1,167.50483489999897,None,,99,m,99,r,MS,2021_Jun_03_1154,WASABI Nback,2020.2.10,59.797203760904985,
6,"[0.2, 0]",1,0,0,0,0,0,73,73,73,,,,,,,,,None,None,0,169.5058770000178,None,169.5058770000178,170.50618260001647,170.4896071999974,171.49406759999692,0,0,169.5058770000178,None,,99,m,99,r,MS,2021_Jun_03_1154,WASABI Nback,2020.2.10,59.797203760904985,
8,"[0, -0.2]",None,0,0,0,0,0,74,74,74,,,,,,,,,None,None,0,171.5101752000046,None,171.5101752000046,172.52387470001122,172.4905521000037,None,0,1,171.5101752000046,None,,99,m,99,r,MS,2021_Jun_03_1154,WASABI Nback,2020.2.10,59.797203760904985,
9,"[0.2, -0.2]",None,0,0,0,0,0,75,75,75,,,,,,,,,None,None,0,173.49145850000787,None,173.49145850000787,174.49140030000126,174.47470310001518,175.47523890002049,0,1,173.49145850000787,None,,99,m,99,r,MS,2021_Jun_03_1154,WASABI Nback,2020.2.10,59.797203760904985,
9,"[0.2, -0.2]",None,0,0,0,0,0,76,76,76,,,,,,,,,None,None,0,175.49191130002146,None,175.49191130002146,176.4923448000045,176.4757581000158,177.4761118000024,0,1,175.49191130002146,None,,99,m,99,r,MS,2021_Jun_03_1154,WASABI Nback,2020.2.10,59.797203760904985,
1,"[-0.2, 0.2]",None,0,0,0,0,0,77,77,77,,,,,,,,,None,None,0,177.49279849999584,None,177.49279849999584,178.4933254000207,178.476625100011,179.47719500001404,0,1,177.49279849999584,None,,99,m,99,r,MS,2021_Jun_03_1154,WASABI Nback,2020.2.10,59.797203760904985,
3,"[0.2, 0.2]",None,0,0,0,0,0,78,78,78,,,,,,,,,None,None,0,179.49384450001526,None,179.49384450001526,180.49430380002013,180.47783150000032,181.47800160001498,0,1,179.49384450001526,None,,99,m,99,r,MS,2021_Jun_03_1154,WASABI Nback,2020.2.10,59.797203760904985,
5,"[0, 0]",None,0,0,0,0,0,79,79,79,,,,,,,,,None,None,0,181.49466810000013,None,181.49466810000013,182.49585410000873,182.47847960001673,183.47920630002045,0,1,181.49466810000013,None,,99,m,99,r,MS,2021_Jun_03_1154,WASABI Nback,2020.2.10,59.797203760904985,
3,"[0.2, 0.2]",1,0,0,0,0,0,80,80,80,,,,,,,,,None,None,0,183.4961191000184,None,183.4961191000184,184.49774890000117,184.48159710000618,185.48259400000097,0,0,183.4961191000184,None,,99,m,99,r,MS,2021_Jun_03_1154,WASABI Nback,2020.2.10,59.797203760904985,
4,"[-0.2, 0]",None,0,0,0,0,0,81,81,81,,,,,,,,,None,None,0,185.4986624000012,None,185.4986624000012,186.51376800000435,186.48061240001698,187.48132270001224,0,1,185.4986624000012,None,,99,m,99,r,MS,2021_Jun_03_1154,WASABI Nback,2020.2.10,59.797203760904985,
7,"[-0.2, -0.2]",None,0,0,0,0,0,82,82,82,,,,,,,,,None,None,0,187.49794770000153,None,187.49794770000153,188.4992225000169,188.48252630000934,189.48570079999627,0,1,187.49794770000153,None,,99,m,99,r,MS,2021_Jun_03_1154,WASABI Nback,2020.2.10,59.797203760904985,
4,"[-0.2, 0]",1,0,0,0,0,0,83,83,83,,,,,,,,,None,None,0,189.50412580001284,None,189.50412580001284,190.51564530000906,190.48308900001575,191.4840006000013,0,0,189.50412580001284,None,,99,m,99,r,MS,2021_Jun_03_1154,WASABI Nback,2020.2.10,59.797203760904985,
4,"[-0.2, 0]",None,0,0,0,0,0,84,84,84,,,,,,,,,None,None,0,191.50034080000478,None,191.50034080000478,192.50081670001964,192.48411439999472,None,0,1,191.50034080000478,None,,99,m,99,r,MS,2021_Jun_03_1154,WASABI Nback,2020.2.10,59.797203760904985,
5,"[0, 0]",None,0,0,0,0,0,85,85,85,,,,,,,,,None,None,0,193.50131610000972,None,193.50131610000972,194.52884840001934,194.4918791000091,None,0,1,193.50131610000972,None,,99,m,99,r,MS,2021_Jun_03_1154,WASABI Nback,2020.2.10,59.797203760904985,
2,"[0, 0.2]",None,0,0,0,0,0,86,86,86,,,,,,,,,None,None,0,195.50892439999734,None,195.50892439999734,196.536954900017,196.48891830001958,197.48746299999766,0,1,195.50892439999734,None,,99,m,99,r,MS,2021_Jun_03_1154,WASABI Nback,2020.2.10,59.797203760904985,
6,"[0.2, 0]",None,0,0,0,0,0,87,87,87,,,,,,,,,None,None,0,197.5054272999987,None,197.5054272999987,198.50470230000792,198.48787380001158,199.48664010001812,0,1,197.5054272999987,None,,99,m,99,r,MS,2021_Jun_03_1154,WASABI Nback,2020.2.10,59.797203760904985,
7,"[-0.2, -0.2]",None,0,0,0,0,0,88,88,88,,,,,,,,,None,None,0,199.5033712000004,None,199.5033712000004,200.50959090000833,200.48802439999417,201.48756480001612,0,1,199.5033712000004,None,,99,m,99,r,MS,2021_Jun_03_1154,WASABI Nback,2020.2.10,59.797203760904985,
6,"[0.2, 0]",1,0,0,0,0,0,89,89,89,,,,,,,,,None,None,0,201.50418640000862,None,201.50418640000862,202.51095440000063,202.492250100011,None,0,0,201.50418640000862,None,,99,m,99,r,MS,2021_Jun_03_1154,WASABI Nback,2020.2.10,59.797203760904985,
6,"[0.2, 0]",None,0,0,0,0,0,90,90,90,,,,,,,,,None,None,0,203.50516250001965,None,203.50516250001965,204.51107989999582,204.49406319999252,None,0,1,203.50516250001965,None,,99,m,99,r,MS,2021_Jun_03_1154,WASABI Nback,2020.2.10,59.797203760904985,
7,"[-0.2, -0.2]",None,0,0,0,0,0,91,91,91,,,,,,,,,None,None,0,205.5073807000008,None,205.5073807000008,206.50649280002108,206.47313940001186,207.47396629999275,0,1,205.5073807000008,None,,99,m,99,r,MS,2021_Jun_03_1154,WASABI Nback,2020.2.10,59.797203760904985,
6,"[0.2, 0]",1,0,0,0,0,0,92,92,92,,,,,,,,,None,None,0,207.49027589999605,None,207.49027589999605,208.49073049999424,208.4740953000146,209.47444980000728,0,0,207.49027589999605,None,,99,m,99,r,MS,2021_Jun_03_1154,WASABI Nback,2020.2.10,59.797203760904985,
2,"[0, 0.2]",None,0,0,0,0,0,93,93,93,,,,,,,,,None,None,0,209.49108440001146,None,209.49108440001146,210.4921821000171,210.47503000000142,211.47549650000292,0,1,209.49108440001146,None,,99,m,99,r,MS,2021_Jun_03_1154,WASABI Nback,2020.2.10,59.797203760904985,
5,"[0, 0]",None,0,0,0,0,0,94,94,94,,,,,,,,,None,None,0,211.49210410000524,None,211.49210410000524,212.4927060000191,212.47606050001923,213.47645260000718,0,1,211.49210410000524,None,,99,m,99,r,MS,2021_Jun_03_1154,WASABI Nback,2020.2.10,59.797203760904985,
4,"[-0.2, 0]",None,0,0,0,0,0,95,95,95,,,,,,,,,None,None,0,213.49345800001174,None,213.49345800001174,214.49350430001505,214.47714659999474,215.47731580000254,0,1,213.49345800001174,None,,99,m,99,r,MS,2021_Jun_03_1154,WASABI Nback,2020.2.10,59.797203760904985,
4,"[-0.2, 0]",None,0,0,0,0,0,96,96,96,,,,,,,,,None,None,0,215.49444680000306,None,215.49444680000306,216.49444040001254,216.47778610000387,217.47823189999326,0,1,215.49444680000306,None,,99,m,99,r,MS,2021_Jun_03_1154,WASABI Nback,2020.2.10,59.797203760904985,
7,"[-0.2, -0.2]",None,0,0,0,0,0,97,97,97,,,,,,,,,None,None,0,217.49488100002054,None,217.49488100002054,218.49547170000733,218.47884739999427,219.47928550001234,0,1,217.49488100002054,None,,99,m,99,r,MS,2021_Jun_03_1154,WASABI Nback,2020.2.10,59.797203760904985,
4,"[-0.2, 0]",1,0,0,0,0,0,98,98,98,,,,,,,,,None,None,0,219.49595680000493,None,219.49595680000493,220.49640689999796,220.48015160000068,221.480146899994,0,0,219.49595680000493,None,,99,m,99,r,MS,2021_Jun_03_1154,WASABI Nback,2020.2.10,59.797203760904985,
3,"[0.2, 0.2]",None,0,0,0,0,0,99,99,99,,,,,,,,,None,None,0,221.49682630001917,None,221.49682630001917,222.49757490001502,222.48095920000924,223.48106210000697,0,1,221.49682630001917,None,,99,m,99,r,MS,2021_Jun_03_1154,WASABI Nback,2020.2.10,59.797203760904985,
5,"[0, 0]",None,0,0,0,0,0,100,100,100,,,,,,,,,None,None,0,223.4977659000142,None,223.4977659000142,224.49861750000855,224.48155520000728,225.48202670001774,0,1,223.4977659000142,None,,99,m,99,r,MS,2021_Jun_03_1154,WASABI Nback,2020.2.10,59.797203760904985,
3,"[0.2, 0.2]",1,0,0,0,0,0,101,101,101,,,,,,,,,None,None,0,225.49872540001525,None,225.49872540001525,226.4991466999927,226.48257130000275,227.4829643999983,0,0,225.49872540001525,None,,99,m,99,r,MS,2021_Jun_03_1154,WASABI Nback,2020.2.10,59.797203760904985,
1,"[-0.2, 0.2]",None,0,0,0,0,0,102,102,102,,,,,,,,,None,None,0,227.49965700000757,None,227.49965700000757,228.50009220000356,228.4834375999926,229.48395009999513,0,1,227.49965700000757,None,,99,m,99,r,MS,2021_Jun_03_1154,WASABI Nback,2020.2.10,59.797203760904985,
9,"[0.2, -0.2]",None,0,0,0,0,0,103,103,103,,,,,,,,,None,None,0,229.5005868000153,None,229.5005868000153,230.50103020001552,230.48432000001776,231.48487970000133,0,1,229.5005868000153,None,,99,m,99,r,MS,2021_Jun_03_1154,WASABI Nback,2020.2.10,59.797203760904985,
9,"[0.2, -0.2]",None,0,0,0,0,0,104,104,104,,,,,,,,,None,None,0,231.50142570000025,None,231.50142570000025,232.50203740000143,232.4852257000166,233.4857724000176,0,1,231.50142570000025,None,,99,m,99,r,MS,2021_Jun_03_1154,WASABI Nback,2020.2.10,59.797203760904985,
8,"[0, -0.2]",None,0,0,0,0,0,105,105,105,,,,,,,,,None,None,0,233.50299110001652,None,233.50299110001652,234.5033011000196,234.4866619000095,235.48672750001424,0,1,233.50299110001652,None,,99,m,99,r,MS,2021_Jun_03_1154,WASABI Nback,2020.2.10,59.797203760904985,
6,"[0.2, 0]",None,0,0,0,0,0,106,106,106,,,,,,,,,None,None,0,235.50342720001936,None,235.50342720001936,236.50384350001696,236.48720689999755,237.48758420001832,0,1,235.50342720001936,None,,99,m,99,r,MS,2021_Jun_03_1154,WASABI Nback,2020.2.10,59.797203760904985,
3,"[0.2, 0.2]",None,0,0,0,0,0,107,107,107,,,,,,,,,None,None,0,237.5043805000023,None,237.5043805000023,238.5047232999932,238.488073000015,239.48860599999898,0,1,237.5043805000023,None,,99,m,99,r,MS,2021_Jun_03_1154,WASABI Nback,2020.2.10,59.797203760904985,
6,"[0.2, 0]",1,0,0,0,0,0,108,108,108,,,,,,,,,None,None,0,239.5052854999958,None,239.5052854999958,240.50571850000415,240.4889652999991,241.48953770002117,0,0,239.5052854999958,None,,99,m,99,r,MS,2021_Jun_03_1154,WASABI Nback,2020.2.10,59.797203760904985,
5,"[0, 0]",None,0,0,0,0,0,109,109,109,,,,,,,,,None,None,0,241.50633380000363,None,241.50633380000363,242.5066841999942,242.4899679000082,243.49042879999615,0,1,241.50633380000363,None,,99,m,99,r,MS,2021_Jun_03_1154,WASABI Nback,2020.2.10,59.797203760904985,
7,"[-0.2, -0.2]",None,0,0,0,0,0,110,110,110,,,,,,,,,None,None,0,243.50723050002125,None,243.50723050002125,244.5076487000042,244.4909386000072,None,0,1,243.50723050002125,None,,99,m,99,r,MS,2021_Jun_03_1154,WASABI Nback,2020.2.10,59.797203760904985,
5,"[0, 0]",1,0,0,0,0,0,111,111,111,,,,,,,,,None,None,0,245.49132920001284,None,245.49132920001284,246.49221460000263,246.47517690001405,247.47578080001404,0,0,245.49132920001284,None,,99,m,99,r,MS,2021_Jun_03_1154,WASABI Nback,2020.2.10,59.797203760904985,
1,"[-0.2, 0.2]",None,0,0,0,0,0,112,112,112,,,,,,,,,None,None,0,247.49231689999579,None,247.49231689999579,248.4927294999943,248.47625430001062,249.47664239999722,0,1,247.49231689999579,None,,99,m,99,r,MS,2021_Jun_03_1154,WASABI Nback,2020.2.10,59.797203760904985,
7,"[-0.2, -0.2]",None,0,0,0,0,0,113,113,113,,,,,,,,,None,None,0,249.4933377999987,None,249.4933377999987,250.4937334000133,250.47706950001884,251.47746590001043,0,1,249.4933377999987,None,,99,m,99,r,MS,2021_Jun_03_1154,WASABI Nback,2020.2.10,59.797203760904985,
9,"[0.2, -0.2]",None,0,0,0,0,0,114,114,114,,,,,,,,,None,None,0,251.49423310000566,None,251.49423310000566,252.49465180002153,252.47794559999602,253.47840200000792,0,1,251.49423310000566,None,,99,m,99,r,MS,2021_Jun_03_1154,WASABI Nback,2020.2.10,59.797203760904985,
3,"[0.2, 0.2]",None,0,0,0,0,0,115,115,115,,,,,,,,,None,None,0,253.49505970001337,None,253.49505970001337,254.49563439999474,254.47895780002,255.4794377000071,0,1,253.49505970001337,None,,99,m,99,r,MS,2021_Jun_03_1154,WASABI Nback,2020.2.10,59.797203760904985,
9,"[0.2, -0.2]",1,0,0,0,0,0,116,116,116,,,,,,,,,None,None,0,255.49602819999564,None,255.49602819999564,256.49654100000043,256.4799161000119,257.4802910000144,0,0,255.49602819999564,None,,99,m,99,r,MS,2021_Jun_03_1154,WASABI Nback,2020.2.10,59.797203760904985,
6,"[0.2, 0]",None,0,0,0,0,0,117,117,117,,,,,,,,,None,None,0,257.49706590001006,None,257.49706590001006,258.49760150001384,258.48080260001007,259.4815753000148,0,1,257.49706590001006,None,,99,m,99,r,MS,2021_Jun_03_1154,WASABI Nback,2020.2.10,59.797203760904985,
2,"[0, 0.2]",None,0,0,0,0,0,118,118,118,,,,,,,,,None,None,0,259.4982730000047,None,259.4982730000047,260.4984745999973,260.4818015000201,261.48218809999526,0,1,259.4982730000047,None,,99,m,99,r,MS,2021_Jun_03_1154,WASABI Nback,2020.2.10,59.797203760904985,
5,"[0, 0]",None,0,0,0,0,0,119,119,119,,,,,,,,,None,None,0,261.49888450000435,None,261.49888450000435,262.49931220000144,262.4826619999949,263.4831662999932,0,1,261.49888450000435,None,,99,m,99,r,MS,2021_Jun_03_1154,WASABI Nback,2020.2.10,59.797203760904985,
