square,location,corrAns,TaskT1Loop.thisRepN,TaskT1Loop.thisTrialN,TaskT1Loop.thisN,TaskT1Loop.thisIndex,trials_2.thisRepN,trials_2.thisTrialN,trials_2.thisN,trials_2.thisIndex,NbackInstructions.started,NbackInstructions.stopped,NbackStart.keys,NbackStart.rt,NbackStart.started,NbackStart.stopped,fixation_2.started,fixation_2.stopped,response_2.x,response_2.y,response_2.leftButton,response_2.rt,grid_lines_2.started,grid_lines_2.stopped,target_square_2.started,target_square_2.stopped,fixation_3.started,fixation_3.stopped,response_2.click,response_2.corr,response_2.started,response_2.stopped,subject number,gender,session,handedness,scanner,date,expName,psychopyVersion,frameRate,
,,,0,0,0,0,,,,,24.162451599986525,None,space,1.3788644000014756,24.162451599986525,None,,,,,,,,,,,,,,,,,99,m,99,r,MS,2021_Jun_03_1033,WASABI Nback,2020.2.10,59.86840924507435,
5,"[0, 0]",None,0,0,0,0,0,0,0,0,,,,,,,None,None,-0.4305555555555556,-0.03333333333333333,0,1.0467979999957606,26.800783899991075,None,26.800783899991075,27.813396499986993,27.78008709999267,None,None,1,26.800783899991075,None,99,m,99,r,MS,2021_Jun_03_1033,WASABI Nback,2020.2.10,59.86840924507435,
2,"[0, 0.2]",None,0,0,0,0,0,1,1,1,,,,,,,,,-0.42083333333333334,-0.02638888888888889,0,1.7854911999893375,28.580635299993446,None,28.580635299993446,29.581195899983868,29.564564700005576,30.565113899996504,None,1,28.580635299993446,None,99,m,99,r,MS,2021_Jun_03_1033,WASABI Nback,2020.2.10,59.86840924507435,
6,"[0.2, 0]",None,0,0,0,0,0,2,2,2,,,,,,,,,-0.3277777777777778,-0.10277777777777777,0,1.602248499984853,30.581836500001373,None,30.581836500001373,31.581931099994108,31.565378700004658,32.56599659999483,None,1,30.581836500001373,None,99,m,99,r,MS,2021_Jun_03_1033,WASABI Nback,2020.2.10,59.86840924507435,
9,"[0.2, -0.2]",None,0,0,0,0,0,3,3,3,,,,,,,,,-0.32222222222222224,-0.1597222222222222,0,1.3219365999975707,32.58262490000925,None,32.58262490000925,33.582848499994725,33.56618619998335,34.566605300002266,None,1,32.58262490000925,None,99,m,99,r,MS,2021_Jun_03_1033,WASABI Nback,2020.2.10,59.86840924507435,
3,"[0.2, 0.2]",None,0,0,0,0,0,4,4,4,,,,,,,,,-0.32222222222222224,-0.1597222222222222,0,0.26762900000903755,34.58323560000281,None,34.58323560000281,35.58377939998172,35.567139699996915,None,None,1,34.58323560000281,None,99,m,99,r,MS,2021_Jun_03_1033,WASABI Nback,2020.2.10,59.86840924507435,
9,"[0.2, -0.2]",1,0,0,0,0,0,5,5,5,,,,,,,,,-0.32222222222222224,-0.1597222222222222,1,1.968667800014373,36.56749200000195,None,36.56749200000195,37.56793230000767,37.55127779999748,38.5518070999824,1,1,36.56749200000195,None,99,m,99,r,MS,2021_Jun_03_1033,WASABI Nback,2020.2.10,59.86840924507435,
7,"[-0.2, -0.2]",None,0,0,0,0,0,6,6,6,,,,,,,,,-0.32222222222222224,-0.1597222222222222,0,0.0,38.568513100006385,None,38.568513100006385,39.568986800004495,39.55230730000767,40.55268659998546,None,1,38.568513100006385,None,99,m,99,r,MS,2021_Jun_03_1033,WASABI Nback,2020.2.10,59.86840924507435,
1,"[-0.2, 0.2]",None,0,0,0,0,0,7,7,7,,,,,,,,,-0.32222222222222224,-0.1597222222222222,0,0.2339899999788031,40.56946739999694,None,40.56946739999694,41.56986200000392,41.55323279998265,42.553722899989225,None,1,40.56946739999694,None,99,m,99,r,MS,2021_Jun_03_1033,WASABI Nback,2020.2.10,59.86840924507435,
5,"[0, 0]",None,0,0,0,0,0,8,8,8,,,,,,,,,-0.32222222222222224,-0.16666666666666666,0,0.1338767999841366,42.57053470000392,None,42.57053470000392,43.570793999999296,43.55413800000679,44.554615200002445,None,1,42.57053470000392,None,99,m,99,r,MS,2021_Jun_03_1033,WASABI Nback,2020.2.10,59.86840924507435,
7,"[-0.2, -0.2]",None,0,0,0,0,0,9,9,9,,,,,,,,,-0.32222222222222224,-0.16666666666666666,1,1.9852527000184637,44.57125760000781,None,44.57125760000781,45.57173490000423,45.555082999984734,46.55560429999605,1,0,44.57125760000781,None,99,m,99,r,MS,2021_Jun_03_1033,WASABI Nback,2020.2.10,59.86840924507435,
5,"[0, 0]",1,0,0,0,0,0,10,10,10,,,,,,,,,-0.32222222222222224,-0.16666666666666666,0,0.0,46.57229749998078,None,46.57229749998078,47.57273559999885,47.555967899999814,48.556486099987524,None,0,46.57229749998078,None,99,m,99,r,MS,2021_Jun_03_1033,WASABI Nback,2020.2.10,59.86840924507435,
6,"[0.2, 0]",None,0,0,0,0,0,11,11,11,,,,,,,,,-0.32222222222222224,-0.16666666666666666,0,0.0507316000002902,48.57317289998173,None,48.57317289998173,49.57372220000252,49.55706510000164,50.55743899999652,None,1,48.57317289998173,None,99,m,99,r,MS,2021_Jun_03_1033,WASABI Nback,2020.2.10,59.86840924507435,
3,"[0.2, 0.2]",None,0,0,0,0,0,12,12,12,,,,,,,,,-0.32222222222222224,-0.16666666666666666,0,0.26735169999301434,50.57427769998321,None,50.57427769998321,51.57440029998543,51.55774119999842,52.55820239998866,None,1,50.57427769998321,None,99,m,99,r,MS,2021_Jun_03_1033,WASABI Nback,2020.2.10,59.86840924507435,
6,"[0.2, 0]",1,0,0,0,0,0,13,13,13,,,,,,,,,-0.32222222222222224,-0.16666666666666666,0,0.25383440000587143,52.57491629998549,None,52.57491629998549,53.575607400009176,53.55889559999923,54.55922080000164,None,0,52.57491629998549,None,99,m,99,r,MS,2021_Jun_03_1033,WASABI Nback,2020.2.10,59.86840924507435,
8,"[0, -0.2]",None,0,0,0,0,0,14,14,14,,,,,,,,,-0.3236111111111111,-0.17083333333333334,0,0.2541397000022698,54.57598069999949,None,54.57598069999949,55.57644269999582,55.55981659999816,56.56025909999153,None,1,54.57598069999949,None,99,m,99,r,MS,2021_Jun_03_1033,WASABI Nback,2020.2.10,59.86840924507435,
9,"[0.2, -0.2]",None,0,0,0,0,0,15,15,15,,,,,,,,,-0.325,-0.175,0,0.26797389998682775,56.577035099995555,None,56.577035099995555,57.578299699991476,57.56105719998595,58.56115389999468,None,1,56.577035099995555,None,99,m,99,r,MS,2021_Jun_03_1033,WASABI Nback,2020.2.10,59.86840924507435,
9,"[0.2, -0.2]",None,0,0,0,0,0,16,16,16,,,,,,,,,-0.3263888888888889,-0.175,0,0.20090590001200326,58.578045900008874,None,58.578045900008874,59.57842979999259,59.561699299985776,60.562215199985076,None,1,58.578045900008874,None,99,m,99,r,MS,2021_Jun_03_1033,WASABI Nback,2020.2.10,59.86840924507435,
1,"[-0.2, 0.2]",None,0,0,0,0,0,17,17,17,,,,,,,,,-0.3277777777777778,-0.1763888888888889,0,0.2676639999845065,60.57889089998207,None,60.57889089998207,61.579329900007,61.562594599992735,62.56301469999016,None,1,60.57889089998207,None,99,m,99,r,MS,2021_Jun_03_1033,WASABI Nback,2020.2.10,59.86840924507435,
3,"[0.2, 0.2]",None,0,0,0,0,0,18,18,18,,,,,,,,,-0.32916666666666666,-0.18194444444444444,0,0.25149470000178553,62.57989049999742,None,62.57989049999742,63.58024039998418,63.56374139999389,64.56394590000855,None,1,62.57989049999742,None,99,m,99,r,MS,2021_Jun_03_1033,WASABI Nback,2020.2.10,59.86840924507435,
5,"[0, 0]",None,0,0,0,0,0,19,19,19,,,,,,,,,-0.32916666666666666,-0.18194444444444444,0,0.25095190000138246,64.58071310000378,None,64.58071310000378,65.58135849999962,65.56465819998994,66.56495939998422,None,1,64.58071310000378,None,99,m,99,r,MS,2021_Jun_03_1033,WASABI Nback,2020.2.10,59.86840924507435,
3,"[0.2, 0.2]",1,0,0,0,0,0,20,20,20,,,,,,,,,-0.33055555555555555,-0.18194444444444444,0,0.20074850000673905,66.5816446999961,None,66.5816446999961,67.58223209998687,67.56531050000922,68.56586450000759,None,0,66.5816446999961,None,99,m,99,r,MS,2021_Jun_03_1033,WASABI Nback,2020.2.10,59.86840924507435,
4,"[-0.2, 0]",None,0,0,0,0,0,21,21,21,,,,,,,,,-0.33055555555555555,-0.18194444444444444,0,0.3350106999860145,68.5825751000084,None,68.5825751000084,69.58307449999847,69.56636689999141,None,None,1,68.5825751000084,None,99,m,99,r,MS,2021_Jun_03_1033,WASABI Nback,2020.2.10,59.86840924507435,
7,"[-0.2, -0.2]",None,0,0,0,0,0,22,22,22,,,,,,,,,-0.33194444444444443,-0.18611111111111112,0,0.26745779998600483,70.56680899998173,None,70.56680899998173,71.56729979999363,71.55061109998496,72.55109110000194,None,1,70.56680899998173,None,99,m,99,r,MS,2021_Jun_03_1033,WASABI Nback,2020.2.10,59.86840924507435,
4,"[-0.2, 0]",1,0,0,0,0,0,23,23,23,,,,,,,,,-0.33194444444444443,-0.18611111111111112,0,0.2344294000067748,72.56785409999429,None,72.56785409999429,73.56829669998842,73.55166249998729,74.5519701000012,None,0,72.56785409999429,None,99,m,99,r,MS,2021_Jun_03_1033,WASABI Nback,2020.2.10,59.86840924507435,
4,"[-0.2, 0]",None,0,0,0,0,0,24,24,24,,,,,,,,,-0.3347222222222222,-0.19027777777777777,0,0.13398280000546947,74.56872370000929,None,74.56872370000929,75.56917350000003,75.5525115999917,76.55284439999377,None,1,74.56872370000929,None,99,m,99,r,MS,2021_Jun_03_1033,WASABI Nback,2020.2.10,59.86840924507435,
5,"[0, 0]",None,0,0,0,0,0,25,25,25,,,,,,,,,-0.3347222222222222,-0.19166666666666668,0,0.23488110001198947,76.56949560000794,None,76.56949560000794,77.57001840000157,77.55347559999791,78.55386149999686,None,1,76.56949560000794,None,99,m,99,r,MS,2021_Jun_03_1033,WASABI Nback,2020.2.10,59.86840924507435,
2,"[0, 0.2]",None,0,0,0,0,0,26,26,26,,,,,,,,,-0.3347222222222222,-0.19166666666666668,0,0.2844004000071436,78.57084880000912,None,78.57084880000912,79.57107179999002,79.55436340000597,80.55495180000435,None,1,78.57084880000912,None,99,m,99,r,MS,2021_Jun_03_1033,WASABI Nback,2020.2.10,59.86840924507435,
6,"[0.2, 0]",None,0,0,0,0,0,27,27,27,,,,,,,,,-0.3347222222222222,-0.19166666666666668,0,0.21737860000575893,80.57157679999364,None,80.57157679999364,81.57201869998244,81.55533090000972,82.5555870999815,None,1,80.57157679999364,None,99,m,99,r,MS,2021_Jun_03_1033,WASABI Nback,2020.2.10,59.86840924507435,
7,"[-0.2, -0.2]",None,0,0,0,0,0,28,28,28,,,,,,,,,-0.3347222222222222,-0.19166666666666668,0,0.32146799998008646,82.57228980000946,None,82.57228980000946,83.57299409998814,83.55626350000966,84.55660529999295,None,1,82.57228980000946,None,99,m,99,r,MS,2021_Jun_03_1033,WASABI Nback,2020.2.10,59.86840924507435,
6,"[0.2, 0]",1,0,0,0,0,0,29,29,29,,,,,,,,,-0.3347222222222222,-0.19166666666666668,0,0.1843597000115551,84.5733934000018,None,84.5733934000018,85.57390029999078,85.5571471999865,86.55773020000197,None,0,84.5733934000018,None,99,m,99,r,MS,2021_Jun_03_1033,WASABI Nback,2020.2.10,59.86840924507435,
6,"[0.2, 0]",None,0,0,0,0,0,30,30,30,,,,,,,,,-0.3347222222222222,-0.19166666666666668,0,0.18395619999500923,86.57447329998831,None,86.57447329998831,87.57489369998802,87.5581613999966,88.55851969998912,None,1,86.57447329998831,None,99,m,99,r,MS,2021_Jun_03_1033,WASABI Nback,2020.2.10,59.86840924507435,
7,"[-0.2, -0.2]",None,0,0,0,0,0,31,31,31,,,,,,,,,-0.3347222222222222,-0.19166666666666668,0,0.1006788999948185,88.57536809999146,None,88.57536809999146,89.5757750000048,89.55913819998386,90.55955800000811,None,1,88.57536809999146,None,99,m,99,r,MS,2021_Jun_03_1033,WASABI Nback,2020.2.10,59.86840924507435,
6,"[0.2, 0]",1,0,0,0,0,0,32,32,32,,,,,,,,,-0.3347222222222222,-0.19166666666666668,0,0.26747690001502633,90.57623529998818,None,90.57623529998818,91.57665519998409,91.55989899998531,92.56062800000655,None,0,90.57623529998818,None,99,m,99,r,MS,2021_Jun_03_1033,WASABI Nback,2020.2.10,59.86840924507435,
2,"[0, 0.2]",None,0,0,0,0,0,33,33,33,,,,,,,,,-0.3347222222222222,-0.19166666666666668,0,0.2692594999971334,92.57752550000441,None,92.57752550000441,93.57773419999285,93.56102580000879,94.56140679999953,None,1,92.57752550000441,None,99,m,99,r,MS,2021_Jun_03_1033,WASABI Nback,2020.2.10,59.86840924507435,
5,"[0, 0]",None,0,0,0,0,0,34,34,34,,,,,,,,,-0.3347222222222222,-0.19166666666666668,0,0.2511495999933686,94.57812339998782,None,94.57812339998782,95.5784571999975,95.56185969998478,96.56241990000126,None,1,94.57812339998782,None,99,m,99,r,MS,2021_Jun_03_1033,WASABI Nback,2020.2.10,59.86840924507435,
4,"[-0.2, 0]",None,0,0,0,0,0,35,35,35,,,,,,,,,-0.3347222222222222,-0.19166666666666668,0,0.20119550000526942,96.57904439998674,None,96.57904439998674,97.57944989998941,97.56256910000229,98.56328040000517,None,1,96.57904439998674,None,99,m,99,r,MS,2021_Jun_03_1033,WASABI Nback,2020.2.10,59.86840924507435,
4,"[-0.2, 0]",None,0,0,0,0,0,36,36,36,,,,,,,,,-0.3347222222222222,-0.19166666666666668,0,0.2673814999870956,98.5799885999877,None,98.5799885999877,99.58039359998656,99.56366509999498,100.5642489999882,None,1,98.5799885999877,None,99,m,99,r,MS,2021_Jun_03_1033,WASABI Nback,2020.2.10,59.86840924507435,
7,"[-0.2, -0.2]",None,0,0,0,0,0,37,37,37,,,,,,,,,-0.33611111111111114,-0.2,0,0.2005230000067968,100.58094849999179,None,100.58094849999179,101.58134909998626,101.5646901,102.5652262000076,None,1,100.58094849999179,None,99,m,99,r,MS,2021_Jun_03_1033,WASABI Nback,2020.2.10,59.86840924507435,
4,"[-0.2, 0]",1,0,0,0,0,0,38,38,38,,,,,,,,,-0.33611111111111114,-0.2,1,1.9852959999989253,102.58185590000357,None,102.58185590000357,103.5824711000023,103.5656587999838,104.56601809998392,1,1,102.58185590000357,None,99,m,99,r,MS,2021_Jun_03_1033,WASABI Nback,2020.2.10,59.86840924507435,
3,"[0.2, 0.2]",None,0,0,0,0,0,39,39,39,,,,,,,,,-0.33611111111111114,-0.2,0,0.0,104.58275860000867,None,104.58275860000867,105.58322619998944,105.56656929999008,None,None,1,104.58275860000867,None,99,m,99,r,MS,2021_Jun_03_1033,WASABI Nback,2020.2.10,59.86840924507435,
5,"[0, 0]",None,0,0,0,0,0,40,40,40,,,,,,,,,-0.33611111111111114,-0.2,1,1.9681222999934107,106.5670453000057,None,106.5670453000057,107.56754240000737,107.55092789998162,108.55128869999317,1,0,106.5670453000057,None,99,m,99,r,MS,2021_Jun_03_1033,WASABI Nback,2020.2.10,59.86840924507435,
3,"[0.2, 0.2]",1,0,0,0,0,0,41,41,41,,,,,,,,,-0.33611111111111114,-0.2,0,0.0,108.56796600000234,None,108.56796600000234,109.56845920000342,109.55174359999364,110.55230589999701,None,0,108.56796600000234,None,99,m,99,r,MS,2021_Jun_03_1033,WASABI Nback,2020.2.10,59.86840924507435,
1,"[-0.2, 0.2]",None,0,0,0,0,0,42,42,42,,,,,,,,,-0.33611111111111114,-0.2,0,0.3032721999916248,110.56901199999265,None,110.56901199999265,111.5695071000082,111.55279590000282,112.55312279998907,None,1,110.56901199999265,None,99,m,99,r,MS,2021_Jun_03_1033,WASABI Nback,2020.2.10,59.86840924507435,
9,"[0.2, -0.2]",None,0,0,0,0,0,43,43,43,,,,,,,,,-0.7722222222222223,-0.20972222222222223,0,0.4177639999834355,112.56980209998437,None,112.56980209998437,113.57038610000745,113.5537164999987,114.5545645999955,None,1,112.56980209998437,None,99,m,99,r,MS,2021_Jun_03_1033,WASABI Nback,2020.2.10,59.86840924507435,
9,"[0.2, -0.2]",None,0,0,0,0,0,44,44,44,,,,,,,,,-0.7722222222222223,-0.20972222222222223,0,0.0,114.57080549999955,None,114.57080549999955,115.63138479998452,115.59247410000535,None,None,1,114.57080549999955,None,99,m,99,r,MS,2021_Jun_03_1033,WASABI Nback,2020.2.10,59.86840924507435,
8,"[0, -0.2]",None,0,0,0,0,0,45,45,45,,,,,,,,,-0.7722222222222223,-0.20972222222222223,0,0.0,116.57201599999098,None,116.57201599999098,117.57252650000737,117.55907630000729,None,None,1,116.57201599999098,None,99,m,99,r,MS,2021_Jun_03_1033,WASABI Nback,2020.2.10,59.86840924507435,
6,"[0.2, 0]",None,0,0,0,0,0,46,46,46,,,,,,,,,-0.7722222222222223,-0.20972222222222223,0,0.0,118.57331829998293,None,118.57331829998293,119.5732757000078,119.55656080000335,120.55704089999199,None,1,118.57331829998293,None,99,m,99,r,MS,2021_Jun_03_1033,WASABI Nback,2020.2.10,59.86840924507435,
3,"[0.2, 0.2]",None,0,0,0,0,0,47,47,47,,,,,,,,,-0.7722222222222223,-0.20972222222222223,0,0.0,120.57396619999781,None,120.57396619999781,121.57812249998096,121.56042480000178,None,None,1,120.57396619999781,None,99,m,99,r,MS,2021_Jun_03_1033,WASABI Nback,2020.2.10,59.86840924507435,
6,"[0.2, 0]",1,0,0,0,0,0,48,48,48,,,,,,,,,-0.7722222222222223,-0.20972222222222223,0,0.0,122.57953930000076,None,122.57953930000076,123.59320229999139,123.55908209999325,124.55959990000702,None,0,122.57953930000076,None,99,m,99,r,MS,2021_Jun_03_1033,WASABI Nback,2020.2.10,59.86840924507435,
5,"[0, 0]",None,0,0,0,0,0,49,49,49,,,,,,,,,-0.7722222222222223,-0.20972222222222223,0,0.0,124.57664469999145,None,124.57664469999145,125.57672499999171,125.56007879998651,126.56030839998857,None,1,124.57664469999145,None,99,m,99,r,MS,2021_Jun_03_1033,WASABI Nback,2020.2.10,59.86840924507435,
7,"[-0.2, -0.2]",None,0,0,0,0,0,50,50,50,,,,,,,,,-0.7722222222222223,-0.20972222222222223,0,0.0,126.57703929999843,None,126.57703929999843,127.57812249998096,127.56089779999456,128.56074980000267,None,1,126.57703929999843,None,99,m,99,r,MS,2021_Jun_03_1033,WASABI Nback,2020.2.10,59.86840924507435,
5,"[0, 0]",1,0,0,0,0,0,51,51,51,,,,,,,,,-0.7722222222222223,-0.20972222222222223,0,0.0,128.57745969999814,None,128.57745969999814,129.57917660000385,129.56178089999594,130.56157180000446,None,0,128.57745969999814,None,99,m,99,r,MS,2021_Jun_03_1033,WASABI Nback,2020.2.10,59.86840924507435,
1,"[-0.2, 0.2]",None,0,0,0,0,0,52,52,52,,,,,,,,,-0.7722222222222223,-0.20972222222222223,0,0.0,130.57820789999096,None,130.57820789999096,131.57885309998528,131.56220329998177,132.56257859998732,None,1,130.57820789999096,None,99,m,99,r,MS,2021_Jun_03_1033,WASABI Nback,2020.2.10,59.86840924507435,
7,"[-0.2, -0.2]",None,0,0,0,0,0,53,53,53,,,,,,,,,-0.7722222222222223,-0.20972222222222223,0,0.0,132.57916599998134,None,132.57916599998134,133.58780199999455,133.5671097000013,None,None,1,132.57916599998134,None,99,m,99,r,MS,2021_Jun_03_1033,WASABI Nback,2020.2.10,59.86840924507435,
9,"[0.2, -0.2]",None,0,0,0,0,0,54,54,54,,,,,,,,,-0.7722222222222223,-0.20972222222222223,0,0.0,134.58025259998976,None,134.58025259998976,135.58075100000133,135.56406420000712,136.56449699998484,None,1,134.58025259998976,None,99,m,99,r,MS,2021_Jun_03_1033,WASABI Nback,2020.2.10,59.86840924507435,
3,"[0.2, 0.2]",None,0,0,0,0,0,55,55,55,,,,,,,,,-0.7722222222222223,-0.20972222222222223,0,0.0,136.58136129999184,None,136.58136129999184,137.5816208999895,137.56489639999927,138.565843999997,None,1,136.58136129999184,None,99,m,99,r,MS,2021_Jun_03_1033,WASABI Nback,2020.2.10,59.86840924507435,
9,"[0.2, -0.2]",1,0,0,0,0,0,56,56,56,,,,,,,,,-0.7722222222222223,-0.20972222222222223,0,0.0,138.58212559999083,None,138.58212559999083,139.5826521999843,139.56596310000168,None,None,0,138.58212559999083,None,99,m,99,r,MS,2021_Jun_03_1033,WASABI Nback,2020.2.10,59.86840924507435,
6,"[0.2, 0]",None,0,0,0,0,0,57,57,57,,,,,,,,,-0.7722222222222223,-0.20972222222222223,0,0.0,140.56991220000782,None,140.56991220000782,141.58350839998457,141.55013659998076,142.55065789999207,None,1,140.56991220000782,None,99,m,99,r,MS,2021_Jun_03_1033,WASABI Nback,2020.2.10,59.86840924507435,
2,"[0, 0.2]",None,0,0,0,0,0,58,58,58,,,,,,,,,-0.7722222222222223,-0.20972222222222223,0,0.0,142.56738329998916,None,142.56738329998916,143.56779060000554,143.55116460000863,144.55189279999468,None,1,142.56738329998916,None,99,m,99,r,MS,2021_Jun_03_1033,WASABI Nback,2020.2.10,59.86840924507435,
5,"[0, 0]",None,0,0,0,0,0,59,59,59,,,,,,,,,-0.7722222222222223,-0.20972222222222223,0,0.0,144.56876379999449,None,144.56876379999449,145.57621589998598,145.55372389999684,146.55381909999414,None,1,144.56876379999449,None,99,m,99,r,MS,2021_Jun_03_1033,WASABI Nback,2020.2.10,59.86840924507435,
5,"[0, 0]",None,0,0,0,0,0,60,60,60,,,,,,,,,-0.7722222222222223,-0.20972222222222223,0,0.0,146.56983339998988,None,146.56983339998988,147.5719439999957,147.55924840000807,None,None,1,146.56983339998988,None,99,m,99,r,MS,2021_Jun_03_1033,WASABI Nback,2020.2.10,59.86840924507435,
2,"[0, 0.2]",None,0,0,0,0,0,61,61,61,,,,,,,,,-0.7722222222222223,-0.20972222222222223,0,0.0,148.5702716000087,None,148.5702716000087,149.5718164999853,149.5552470999828,150.55849090000265,None,1,148.5702716000087,None,99,m,99,r,MS,2021_Jun_03_1033,WASABI Nback,2020.2.10,59.86840924507435,
6,"[0.2, 0]",None,0,0,0,0,0,62,62,62,,,,,,,,,-0.7722222222222223,-0.20972222222222223,0,0.0,150.59272950000013,None,150.59272950000013,151.60510129999602,151.55616670000018,152.55612490000203,None,1,150.59272950000013,None,99,m,99,r,MS,2021_Jun_03_1033,WASABI Nback,2020.2.10,59.86840924507435,
9,"[0.2, -0.2]",None,0,0,0,0,0,63,63,63,,,,,,,,,-0.7722222222222223,-0.20972222222222223,0,0.0,152.5738030000066,None,152.5738030000066,153.5731154999812,153.5563567999925,154.55644210000173,None,1,152.5738030000066,None,99,m,99,r,MS,2021_Jun_03_1033,WASABI Nback,2020.2.10,59.86840924507435,
3,"[0.2, 0.2]",None,0,0,0,0,0,64,64,64,,,,,,,,,-0.7722222222222223,-0.20972222222222223,0,0.0,154.57292089998373,None,154.57292089998373,155.57349619999877,155.55671109998366,156.5573955999862,None,1,154.57292089998373,None,99,m,99,r,MS,2021_Jun_03_1033,WASABI Nback,2020.2.10,59.86840924507435,
9,"[0.2, -0.2]",1,0,0,0,0,0,65,65,65,,,,,,,,,-0.7722222222222223,-0.20972222222222223,0,0.0,156.57436289999168,None,156.57436289999168,157.57539990000078,157.55834319998394,158.5595817999856,None,0,156.57436289999168,None,99,m,99,r,MS,2021_Jun_03_1033,WASABI Nback,2020.2.10,59.86840924507435,
7,"[-0.2, -0.2]",None,0,0,0,0,0,66,66,66,,,,,,,,,-0.7722222222222223,-0.20972222222222223,0,0.0,158.5764283000026,None,158.5764283000026,159.57601699998486,159.55932480000774,160.5609962999879,None,1,158.5764283000026,None,99,m,99,r,MS,2021_Jun_03_1033,WASABI Nback,2020.2.10,59.86840924507435,
1,"[-0.2, 0.2]",None,0,0,0,0,0,67,67,67,,,,,,,,,-0.7722222222222223,-0.20972222222222223,0,0.0,160.59397929999977,None,160.59397929999977,161.61182990000816,161.56558249998488,None,None,1,160.59397929999977,None,99,m,99,r,MS,2021_Jun_03_1033,WASABI Nback,2020.2.10,59.86840924507435,
5,"[0, 0]",None,0,0,0,0,0,68,68,68,,,,,,,,,-0.7722222222222223,-0.20972222222222223,0,0.0,162.5959276999929,None,162.5959276999929,163.59830809998675,163.56131379998988,None,None,1,162.5959276999929,None,99,m,99,r,MS,2021_Jun_03_1033,WASABI Nback,2020.2.10,59.86840924507435,
7,"[-0.2, -0.2]",None,0,0,0,0,0,69,69,69,,,,,,,,,-0.7722222222222223,-0.20972222222222223,0,0.0,164.57962750000297,None,164.57962750000297,165.57897410000442,165.54737519999617,166.5623998999945,None,1,164.57962750000297,None,99,m,99,r,MS,2021_Jun_03_1033,WASABI Nback,2020.2.10,59.86840924507435,
5,"[0, 0]",1,0,0,0,0,0,70,70,70,,,,,,,,,-0.7722222222222223,-0.20972222222222223,0,0.0,166.57922220000182,None,166.57922220000182,167.5805779999937,167.56323070000508,168.56408429998555,None,0,166.57922220000182,None,99,m,99,r,MS,2021_Jun_03_1033,WASABI Nback,2020.2.10,59.86840924507435,
6,"[0.2, 0]",None,0,0,0,0,0,71,71,71,,,,,,,,,-0.7722222222222223,-0.20972222222222223,0,0.0,168.58613330000662,None,168.58613330000662,169.59705919999396,169.5641190999886,170.56418759998633,None,1,168.58613330000662,None,99,m,99,r,MS,2021_Jun_03_1033,WASABI Nback,2020.2.10,59.86840924507435,
3,"[0.2, 0.2]",None,0,0,0,0,0,72,72,72,,,,,,,,,-0.7722222222222223,-0.20972222222222223,0,0.0,170.58148649998475,None,170.58148649998475,171.58132100000512,171.56419380000443,172.56513579998864,None,1,170.58148649998475,None,99,m,99,r,MS,2021_Jun_03_1033,WASABI Nback,2020.2.10,59.86840924507435,
6,"[0.2, 0]",1,0,0,0,0,0,73,73,73,,,,,,,,,-0.7722222222222223,-0.20972222222222223,0,0.0,172.58175039998605,None,172.58175039998605,173.58193029998802,173.56585039998754,174.56556550000096,None,0,172.58175039998605,None,99,m,99,r,MS,2021_Jun_03_1033,WASABI Nback,2020.2.10,59.86840924507435,
8,"[0, -0.2]",None,0,0,0,0,0,74,74,74,,,,,,,,,-0.7722222222222223,-0.20972222222222223,0,0.0,174.58235429998604,None,174.58235429998604,175.58277619999717,175.56618239998352,None,None,1,174.58235429998604,None,99,m,99,r,MS,2021_Jun_03_1033,WASABI Nback,2020.2.10,59.86840924507435,
9,"[0.2, -0.2]",None,0,0,0,0,0,75,75,75,,,,,,,,,-0.7722222222222223,-0.20972222222222223,0,0.0,176.56902259998606,None,176.56902259998606,177.5671927999938,177.55395770000177,None,None,1,176.56902259998606,None,99,m,99,r,MS,2021_Jun_03_1033,WASABI Nback,2020.2.10,59.86840924507435,
9,"[0.2, -0.2]",None,0,0,0,0,0,76,76,76,,,,,,,,,-0.7722222222222223,-0.20972222222222223,0,0.0,178.57147819999955,None,178.57147819999955,179.58546599998954,179.5517594999983,180.5533521999896,None,1,178.57147819999955,None,99,m,99,r,MS,2021_Jun_03_1033,WASABI Nback,2020.2.10,59.86840924507435,
1,"[-0.2, 0.2]",None,0,0,0,0,0,77,77,77,,,,,,,,,-0.7722222222222223,-0.20972222222222223,0,0.0,180.56938939998508,None,180.56938939998508,181.56977840000764,181.5536926999921,182.55364420000114,None,1,180.56938939998508,None,99,m,99,r,MS,2021_Jun_03_1033,WASABI Nback,2020.2.10,59.86840924507435,
3,"[0.2, 0.2]",None,0,0,0,0,0,78,78,78,,,,,,,,,-0.7722222222222223,-0.20972222222222223,0,0.0,182.57229310000548,None,182.57229310000548,183.58773549998295,183.55394039998646,184.55459270000574,None,1,182.57229310000548,None,99,m,99,r,MS,2021_Jun_03_1033,WASABI Nback,2020.2.10,59.86840924507435,
5,"[0, 0]",None,0,0,0,0,0,79,79,79,,,,,,,,,-0.7722222222222223,-0.20972222222222223,0,0.0,184.57165900000837,None,184.57165900000837,185.5756412000046,185.55895559999044,None,None,1,184.57165900000837,None,99,m,99,r,MS,2021_Jun_03_1033,WASABI Nback,2020.2.10,59.86840924507435,
3,"[0.2, 0.2]",1,0,0,0,0,0,80,80,80,,,,,,,,,-0.7722222222222223,-0.20972222222222223,0,0.0,186.57407109998167,None,186.57407109998167,187.58838649999234,187.55538119998528,188.55739030000404,None,0,186.57407109998167,None,99,m,99,r,MS,2021_Jun_03_1033,WASABI Nback,2020.2.10,59.86840924507435,
4,"[-0.2, 0]",None,0,0,0,0,0,81,81,81,,,,,,,,,-0.7722222222222223,-0.20972222222222223,0,0.0,188.57399400000577,None,188.57399400000577,189.5737928999879,189.55682549998164,190.55680109999957,None,1,188.57399400000577,None,99,m,99,r,MS,2021_Jun_03_1033,WASABI Nback,2020.2.10,59.86840924507435,
7,"[-0.2, -0.2]",None,0,0,0,0,0,82,82,82,,,,,,,,,-0.7722222222222223,-0.20972222222222223,0,0.0,190.5745939000044,None,190.5745939000044,191.57411560000037,191.55702790000942,192.55747860000702,None,1,190.5745939000044,None,99,m,99,r,MS,2021_Jun_03_1033,WASABI Nback,2020.2.10,59.86840924507435,
4,"[-0.2, 0]",1,0,0,0,0,0,83,83,83,,,,,,,,,-0.7722222222222223,-0.20972222222222223,0,0.0,192.57410559998243,None,192.57410559998243,193.5755954000051,193.55824019998545,194.55843420000747,None,0,192.57410559998243,None,99,m,99,r,MS,2021_Jun_03_1033,WASABI Nback,2020.2.10,59.86840924507435,
4,"[-0.2, 0]",None,0,0,0,0,0,84,84,84,,,,,,,,,-0.7722222222222223,-0.20972222222222223,0,0.0,194.57596839999314,None,194.57596839999314,195.5762981000007,195.55983310000738,196.56024849999812,None,1,194.57596839999314,None,99,m,99,r,MS,2021_Jun_03_1033,WASABI Nback,2020.2.10,59.86840924507435,
5,"[0, 0]",None,0,0,0,0,0,85,85,85,,,,,,,,,-0.7722222222222223,-0.20972222222222223,0,0.0,196.57583799998974,None,196.57583799998974,197.5773460000055,197.5600751999882,198.56032089999644,None,1,196.57583799998974,None,99,m,99,r,MS,2021_Jun_03_1033,WASABI Nback,2020.2.10,59.86840924507435,
2,"[0, 0.2]",None,0,0,0,0,0,86,86,86,,,,,,,,,-0.7722222222222223,-0.20972222222222223,0,0.0,198.57775179998134,None,198.57775179998134,199.57850099998177,199.56084920000285,200.562268699985,None,1,198.57775179998134,None,99,m,99,r,MS,2021_Jun_03_1033,WASABI Nback,2020.2.10,59.86840924507435,
6,"[0.2, 0]",None,0,0,0,0,0,87,87,87,,,,,,,,,-0.7722222222222223,-0.20972222222222223,0,0.0,200.5787272999878,None,200.5787272999878,201.5784907999914,201.56267069999012,202.56298359998618,None,1,200.5787272999878,None,99,m,99,r,MS,2021_Jun_03_1033,WASABI Nback,2020.2.10,59.86840924507435,
7,"[-0.2, -0.2]",None,0,0,0,0,0,88,88,88,,,,,,,,,-0.7722222222222223,-0.20972222222222223,0,0.0,202.57882110000355,None,202.57882110000355,203.57972899999004,203.56272809999064,204.56411839998327,None,1,202.57882110000355,None,99,m,99,r,MS,2021_Jun_03_1033,WASABI Nback,2020.2.10,59.86840924507435,
6,"[0.2, 0]",1,0,0,0,0,0,89,89,89,,,,,,,,,-0.7722222222222223,-0.20972222222222223,0,0.0,204.57974889999605,None,204.57974889999605,205.58119679999072,205.56428309998591,206.5642888000002,None,0,204.57974889999605,None,99,m,99,r,MS,2021_Jun_03_1033,WASABI Nback,2020.2.10,59.86840924507435,
6,"[0.2, 0]",None,0,0,0,0,0,90,90,90,,,,,,,,,-0.7722222222222223,-0.20972222222222223,0,0.0,206.58147479998297,None,206.58147479998297,207.58110730000772,207.56453599999077,208.56596579999314,None,1,206.58147479998297,None,99,m,99,r,MS,2021_Jun_03_1033,WASABI Nback,2020.2.10,59.86840924507435,
7,"[-0.2, -0.2]",None,0,0,0,0,0,91,91,91,,,,,,,,,-0.7722222222222223,-0.20972222222222223,0,0.0,208.58175819998723,None,208.58175819998723,209.58321019998402,209.56625010000425,210.56684809998842,None,1,208.58175819998723,None,99,m,99,r,MS,2021_Jun_03_1033,WASABI Nback,2020.2.10,59.86840924507435,
6,"[0.2, 0]",1,0,0,0,0,0,92,92,92,,,,,,,,,-0.7722222222222223,-0.20972222222222223,0,0.0,210.58331670000916,None,210.58331670000916,211.5829439999943,211.56800919998204,None,None,0,210.58331670000916,None,99,m,99,r,MS,2021_Jun_03_1033,WASABI Nback,2020.2.10,59.86840924507435,
2,"[0, 0.2]",None,0,0,0,0,0,93,93,93,,,,,,,,,-0.7722222222222223,-0.20972222222222223,0,0.0,212.56754739998723,None,212.56754739998723,213.56790679998812,213.55193789998884,214.55215579998912,None,1,212.56754739998723,None,99,m,99,r,MS,2021_Jun_03_1033,WASABI Nback,2020.2.10,59.86840924507435,
5,"[0, 0]",None,0,0,0,0,0,94,94,94,,,,,,,,,-0.7722222222222223,-0.20972222222222223,0,0.0,214.56944389999262,None,214.56944389999262,215.568918200006,215.55221140000504,216.55376949999481,None,1,214.56944389999262,None,99,m,99,r,MS,2021_Jun_03_1033,WASABI Nback,2020.2.10,59.86840924507435,
4,"[-0.2, 0]",None,0,0,0,0,0,95,95,95,,,,,,,,,-0.7722222222222223,-0.20972222222222223,0,0.0,216.56890670000575,None,216.56890670000575,217.5699975999887,217.55357540000114,218.55309080000734,None,1,216.56890670000575,None,99,m,99,r,MS,2021_Jun_03_1033,WASABI Nback,2020.2.10,59.86840924507435,
4,"[-0.2, 0]",None,0,0,0,0,0,96,96,96,,,,,,,,,-0.7722222222222223,-0.20972222222222223,0,0.0,218.57051940000383,None,218.57051940000383,219.57097939998494,219.55340539998724,220.5561893999984,None,1,218.57051940000383,None,99,m,99,r,MS,2021_Jun_03_1033,WASABI Nback,2020.2.10,59.86840924507435,
7,"[-0.2, -0.2]",None,0,0,0,0,0,97,97,97,,,,,,,,,-0.7722222222222223,-0.20972222222222223,0,0.0,220.57202200000756,None,220.57202200000756,221.57248159998562,221.55547110000043,222.5558844000043,None,1,220.57202200000756,None,99,m,99,r,MS,2021_Jun_03_1033,WASABI Nback,2020.2.10,59.86840924507435,
4,"[-0.2, 0]",1,0,0,0,0,0,98,98,98,,,,,,,,,-0.7722222222222223,-0.20972222222222223,0,0.0,222.57295480000903,None,222.57295480000903,223.5728575999965,223.55613230000017,224.55730799998855,None,0,222.57295480000903,None,99,m,99,r,MS,2021_Jun_03_1033,WASABI Nback,2020.2.10,59.86840924507435,
3,"[0.2, 0.2]",None,0,0,0,0,0,99,99,99,,,,,,,,,-0.7722222222222223,-0.20972222222222223,0,0.0,224.5725770999852,None,224.5725770999852,225.57364449999295,225.55749040000956,226.55762400000822,None,1,224.5725770999852,None,99,m,99,r,MS,2021_Jun_03_1033,WASABI Nback,2020.2.10,59.86840924507435,
5,"[0, 0]",None,0,0,0,0,0,100,100,100,,,,,,,,,-0.7722222222222223,-0.20972222222222223,0,0.0,226.57469539999147,None,226.57469539999147,227.57463829999324,227.55730570000014,228.55930429999717,None,1,226.57469539999147,None,99,m,99,r,MS,2021_Jun_03_1033,WASABI Nback,2020.2.10,59.86840924507435,
3,"[0.2, 0.2]",1,0,0,0,0,0,101,101,101,,,,,,,,,-0.7722222222222223,-0.20972222222222223,0,0.0,228.5742895999865,None,228.5742895999865,229.5747752999887,229.5590881999815,230.55931409998448,None,0,228.5742895999865,None,99,m,99,r,MS,2021_Jun_03_1033,WASABI Nback,2020.2.10,59.86840924507435,
1,"[-0.2, 0.2]",None,0,0,0,0,0,102,102,102,,,,,,,,,-0.7722222222222223,-0.20972222222222223,0,0.0,230.57628760000807,None,230.57628760000807,231.57665470000939,231.5600618000026,232.55949159999727,None,1,230.57628760000807,None,99,m,99,r,MS,2021_Jun_03_1033,WASABI Nback,2020.2.10,59.86840924507435,
9,"[0.2, -0.2]",None,0,0,0,0,0,103,103,103,,,,,,,,,-0.7722222222222223,-0.20972222222222223,0,0.0,232.57703879999463,None,232.57703879999463,233.57657699999982,233.56079119999777,234.56166139998822,None,1,232.57703879999463,None,99,m,99,r,MS,2021_Jun_03_1033,WASABI Nback,2020.2.10,59.86840924507435,
9,"[0.2, -0.2]",None,0,0,0,0,0,104,104,104,,,,,,,,,-0.7722222222222223,-0.20972222222222223,0,0.0,234.57815459999256,None,234.57815459999256,235.57861979998415,235.56145690000267,236.56173180000042,None,1,234.57815459999256,None,99,m,99,r,MS,2021_Jun_03_1033,WASABI Nback,2020.2.10,59.86840924507435,
8,"[0, -0.2]",None,0,0,0,0,0,105,105,105,,,,,,,,,-0.7722222222222223,-0.20972222222222223,0,0.0,236.57884119998198,None,236.57884119998198,237.5790316000057,237.56269319998682,238.5630440999812,None,1,236.57884119998198,None,99,m,99,r,MS,2021_Jun_03_1033,WASABI Nback,2020.2.10,59.86840924507435,
6,"[0.2, 0]",None,0,0,0,0,0,106,106,106,,,,,,,,,-0.7722222222222223,-0.20972222222222223,0,0.0,238.58102109999163,None,238.58102109999163,239.59621170000173,239.56277289998252,240.56431129999692,None,1,238.58102109999163,None,99,m,99,r,MS,2021_Jun_03_1033,WASABI Nback,2020.2.10,59.86840924507435,
3,"[0.2, 0.2]",None,0,0,0,0,0,107,107,107,,,,,,,,,-0.7722222222222223,-0.20972222222222223,0,0.0,240.5815508000087,None,240.5815508000087,241.59802979999222,241.56387630000245,242.56450320000295,None,1,240.5815508000087,None,99,m,99,r,MS,2021_Jun_03_1033,WASABI Nback,2020.2.10,59.86840924507435,
6,"[0.2, 0]",1,0,0,0,0,0,108,108,108,,,,,,,,,-0.7722222222222223,-0.20972222222222223,0,0.0,242.5812495999853,None,242.5812495999853,243.58133620000444,243.5655689999985,244.56566779999412,None,0,242.5812495999853,None,99,m,99,r,MS,2021_Jun_03_1033,WASABI Nback,2020.2.10,59.86840924507435,
5,"[0, 0]",None,0,0,0,0,0,109,109,109,,,,,,,,,-0.7722222222222223,-0.20972222222222223,0,0.0,244.58277049998287,None,244.58277049998287,245.5832048000011,245.56669609999517,246.5676959999837,None,1,244.58277049998287,None,99,m,99,r,MS,2021_Jun_03_1033,WASABI Nback,2020.2.10,59.86840924507435,
7,"[-0.2, -0.2]",None,0,0,0,0,0,110,110,110,,,,,,,,,-0.7722222222222223,-0.20972222222222223,0,0.0,246.58282360000885,None,246.58282360000885,247.58418509998592,247.5668977999885,None,None,1,246.58282360000885,None,99,m,99,r,MS,2021_Jun_03_1033,WASABI Nback,2020.2.10,59.86840924507435,
5,"[0, 0]",1,0,0,0,0,0,111,111,111,,,,,,,,,-0.7722222222222223,-0.20972222222222223,0,0.0,248.5722007000004,None,248.5722007000004,249.58553509999183,249.55179629998747,250.55211479999707,None,0,248.5722007000004,None,99,m,99,r,MS,2021_Jun_03_1033,WASABI Nback,2020.2.10,59.86840924507435,
1,"[-0.2, 0.2]",None,0,0,0,0,0,112,112,112,,,,,,,,,-0.7722222222222223,-0.20972222222222223,0,0.0,250.56801439999253,None,250.56801439999253,251.56829609998385,251.55170079998788,252.55229389999295,None,1,250.56801439999253,None,99,m,99,r,MS,2021_Jun_03_1033,WASABI Nback,2020.2.10,59.86840924507435,
7,"[-0.2, -0.2]",None,0,0,0,0,0,113,113,113,,,,,,,,,-0.7722222222222223,-0.20972222222222223,0,0.0,252.56887250000727,None,252.56887250000727,253.5693484999938,253.5526401999814,254.55322729999898,None,1,252.56887250000727,None,99,m,99,r,MS,2021_Jun_03_1033,WASABI Nback,2020.2.10,59.86840924507435,
9,"[0.2, -0.2]",None,0,0,0,0,0,114,114,114,,,,,,,,,-0.7722222222222223,-0.20972222222222223,0,0.0,254.56979779998073,None,254.56979779998073,255.57485459998134,255.558237499994,None,None,1,254.56979779998073,None,99,m,99,r,MS,2021_Jun_03_1033,WASABI Nback,2020.2.10,59.86840924507435,
3,"[0.2, 0.2]",None,0,0,0,0,0,115,115,115,,,,,,,,,-0.7722222222222223,-0.20972222222222223,0,0.0,256.5709832999855,None,256.5709832999855,257.57199130000663,257.5580157999939,258.55909860000247,None,1,256.5709832999855,None,99,m,99,r,MS,2021_Jun_03_1033,WASABI Nback,2020.2.10,59.86840924507435,
9,"[0.2, -0.2]",1,0,0,0,0,0,116,116,116,,,,,,,,,-0.7722222222222223,-0.20972222222222223,0,0.0,258.57237549999263,None,258.57237549999263,259.5751588999992,259.558770899981,260.55885030000354,None,0,258.57237549999263,None,99,m,99,r,MS,2021_Jun_03_1033,WASABI Nback,2020.2.10,59.86840924507435,
6,"[0.2, 0]",None,0,0,0,0,0,117,117,117,,,,,,,,,-0.7722222222222223,-0.20972222222222223,0,0.0,260.57457460000296,None,260.57457460000296,261.57541079999646,261.56001809999,262.55990170000587,None,1,260.57457460000296,None,99,m,99,r,MS,2021_Jun_03_1033,WASABI Nback,2020.2.10,59.86840924507435,
2,"[0, 0.2]",None,0,0,0,0,0,118,118,118,,,,,,,,,-0.7722222222222223,-0.20972222222222223,0,0.0,262.5749240999867,None,262.5749240999867,263.57515960000455,263.5602586999885,264.56081369999447,None,1,262.5749240999867,None,99,m,99,r,MS,2021_Jun_03_1033,WASABI Nback,2020.2.10,59.86840924507435,
5,"[0, 0]",None,0,0,0,0,0,119,119,119,,,,,,,,,-0.7722222222222223,-0.20972222222222223,0,0.0,264.57573969999794,None,264.57573969999794,265.5763091999979,265.56200420000823,None,None,1,264.57573969999794,None,99,m,99,r,MS,2021_Jun_03_1033,WASABI Nback,2020.2.10,59.86840924507435,
