square,location,corrAns,TaskT1Loop.thisRepN,TaskT1Loop.thisTrialN,TaskT1Loop.thisN,TaskT1Loop.thisIndex,trials_2.thisRepN,trials_2.thisTrialN,trials_2.thisN,trials_2.thisIndex,NbackInstructions.started,NbackInstructions.stopped,NbackStart.keys,NbackStart.rt,NbackStart.started,NbackStart.stopped,fixation_2.started,fixation_2.stopped,response_2.x,response_2.y,response_2.leftButton,response_2.rt,grid_lines_2.started,grid_lines_2.stopped,target_square_2.started,target_square_2.stopped,fixation_3.started,fixation_3.stopped,response_2.click,response_2.corr,response_2.started,response_2.stopped,subject number,gender,session,handedness,scanner,date,expName,psychopyVersion,frameRate,
,,,0,0,0,0,,,,,10.351256200025091,None,space,2.467053100001067,10.351256200025091,None,,,,,,,,,,,,,,,,,99,m,99,r,MS,2021_Jun_03_1039,WASABI Nback,2020.2.10,60.112988379542514,
5,"[0, 0]",None,0,0,0,0,0,0,0,0,,,,,,,None,None,0.45,0.12777777777777777,0,0.0,14.140703800017945,None,14.140703800017945,15.153533100005006,15.104615200019907,None,None,1,14.140703800017945,None,99,m,99,r,MS,2021_Jun_03_1039,WASABI Nback,2020.2.10,60.112988379542514,
2,"[0, 0.2]",None,0,0,0,0,0,1,1,1,,,,,,,,,0.6347222222222222,-0.23194444444444445,0,0.4191667000122834,15.853791200002888,None,15.853791200002888,16.85450490002404,16.83892960002413,17.839638200006448,None,1,15.853791200002888,None,99,m,99,r,MS,2021_Jun_03_1039,WASABI Nback,2020.2.10,60.112988379542514,
6,"[0.2, 0]",None,0,0,0,0,0,2,2,2,,,,,,,,,0.5097222222222222,-0.24722222222222223,0,0.26754909998271614,17.8549350000103,None,17.8549350000103,18.855166900000768,18.839885699999286,None,None,1,17.8549350000103,None,99,m,99,r,MS,2021_Jun_03_1039,WASABI Nback,2020.2.10,60.112988379542514,
9,"[0.2, -0.2]",None,0,0,0,0,0,3,3,3,,,,,,,,,0.49583333333333335,-0.2791666666666667,0,0.1668937999929767,19.8392624000262,None,19.8392624000262,20.839309000002686,20.82437410001876,21.825341300020227,None,1,19.8392624000262,None,99,m,99,r,MS,2021_Jun_03_1039,WASABI Nback,2020.2.10,60.112988379542514,
3,"[0.2, 0.2]",None,0,0,0,0,0,4,4,4,,,,,,,,,0.4847222222222222,-0.2902777777777778,0,0.25443460000678897,21.840450800023973,None,21.840450800023973,22.840045600023586,22.824923200008925,23.826751600019634,None,1,21.840450800023973,None,99,m,99,r,MS,2021_Jun_03_1039,WASABI Nback,2020.2.10,60.112988379542514,
9,"[0.2, -0.2]",1,0,0,0,0,0,5,5,5,,,,,,,,,0.4722222222222222,-0.30694444444444446,0,0.2558359999966342,23.840799400000833,None,23.840799400000833,24.841200400027446,24.82698400001391,None,None,0,23.840799400000833,None,99,m,99,r,MS,2021_Jun_03_1039,WASABI Nback,2020.2.10,60.112988379542514,
7,"[-0.2, -0.2]",None,0,0,0,0,0,6,6,6,,,,,,,,,0.32083333333333336,-0.32222222222222224,0,0.2192491999885533,25.841987500025425,None,25.841987500025425,26.84215630000108,26.82674090002547,27.827579700009665,None,1,25.841987500025425,None,99,m,99,r,MS,2021_Jun_03_1039,WASABI Nback,2020.2.10,60.112988379542514,
1,"[-0.2, 0.2]",None,0,0,0,0,0,7,7,7,,,,,,,,,0.2972222222222222,-0.32916666666666666,0,0.08647469998686574,27.84252460001153,None,27.84252460001153,28.843068300018786,28.827744900016114,29.826963200001046,None,1,27.84252460001153,None,99,m,99,r,MS,2021_Jun_03_1039,WASABI Nback,2020.2.10,60.112988379542514,
5,"[0, 0]",None,0,0,0,0,0,8,8,8,,,,,,,,,0.29444444444444445,-0.33055555555555555,0,0.1996289000089746,29.844949300022563,None,29.844949300022563,30.844121000001905,30.828948700014735,31.830312500009313,None,1,29.844949300022563,None,99,m,99,r,MS,2021_Jun_03_1039,WASABI Nback,2020.2.10,60.112988379542514,
7,"[-0.2, -0.2]",None,0,0,0,0,0,9,9,9,,,,,,,,,0.29444444444444445,-0.33055555555555555,0,0.0,31.860851000004914,None,31.860851000004914,32.862876800005324,32.829591400019126,33.82991810000385,None,1,31.860851000004914,None,99,m,99,r,MS,2021_Jun_03_1039,WASABI Nback,2020.2.10,60.112988379542514,
5,"[0, 0]",1,0,0,0,0,0,10,10,10,,,,,,,,,0.28888888888888886,-0.3333333333333333,0,0.11866990002454259,33.84545670001535,None,33.84545670001535,34.84582970000338,34.831553500000155,None,None,0,33.84545670001535,None,99,m,99,r,MS,2021_Jun_03_1039,WASABI Nback,2020.2.10,60.112988379542514,
6,"[0.2, 0]",None,0,0,0,0,0,11,11,11,,,,,,,,,0.2833333333333333,-0.33611111111111114,0,0.2711139000020921,35.84631530000479,None,35.84631530000479,36.847035400016466,36.831566100008786,37.832183400023496,None,1,35.84631530000479,None,99,m,99,r,MS,2021_Jun_03_1039,WASABI Nback,2020.2.10,60.112988379542514,
3,"[0.2, 0.2]",None,0,0,0,0,0,12,12,12,,,,,,,,,0.275,-0.3375,0,0.21918029998778366,37.84724360000109,None,37.84724360000109,38.847726100008,38.83263140000054,None,None,1,37.84724360000109,None,99,m,99,r,MS,2021_Jun_03_1039,WASABI Nback,2020.2.10,60.112988379542514,
6,"[0.2, 0]",1,0,0,0,0,0,13,13,13,,,,,,,,,0.26944444444444443,-0.3388888888888889,0,0.3877605999878142,39.84848420001799,None,39.84848420001799,40.849008400022285,40.834298300003866,None,None,0,39.84848420001799,None,99,m,99,r,MS,2021_Jun_03_1039,WASABI Nback,2020.2.10,60.112988379542514,
8,"[0, -0.2]",None,0,0,0,0,0,14,14,14,,,,,,,,,0.2652777777777778,-0.3402777777777778,0,0.28558200001134537,41.849339900014456,None,41.849339900014456,42.849963100015884,42.83471500000451,None,None,1,41.849339900014456,None,99,m,99,r,MS,2021_Jun_03_1039,WASABI Nback,2020.2.10,60.112988379542514,
9,"[0.2, -0.2]",None,0,0,0,0,0,15,15,15,,,,,,,,,0.2625,-0.3402777777777778,0,0.30071479998878203,43.85043260001112,None,43.85043260001112,44.85078420001082,44.83534720001626,45.836908199999016,None,1,43.85043260001112,None,99,m,99,r,MS,2021_Jun_03_1039,WASABI Nback,2020.2.10,60.112988379542514,
9,"[0.2, -0.2]",None,0,0,0,0,0,16,16,16,,,,,,,,,0.2625,-0.3402777777777778,0,0.11999400000786409,45.850753300008364,None,45.850753300008364,46.851392300013686,46.83711890000268,None,None,1,45.850753300008364,None,99,m,99,r,MS,2021_Jun_03_1039,WASABI Nback,2020.2.10,60.112988379542514,
1,"[-0.2, 0.2]",None,0,0,0,0,0,17,17,17,,,,,,,,,0.2513888888888889,-0.3111111111111111,0,0.30078900000080466,47.852090600004885,None,47.852090600004885,48.852431400009664,48.838070400001016,None,None,1,47.852090600004885,None,99,m,99,r,MS,2021_Jun_03_1039,WASABI Nback,2020.2.10,60.112988379542514,
3,"[0.2, 0.2]",None,0,0,0,0,0,18,18,18,,,,,,,,,0.2513888888888889,-0.3111111111111111,0,0.5680836999963503,49.85305020000669,None,49.85305020000669,50.85502780001843,50.83670400001574,51.8385020000278,None,1,49.85305020000669,None,99,m,99,r,MS,2021_Jun_03_1039,WASABI Nback,2020.2.10,60.112988379542514,
5,"[0, 0]",None,0,0,0,0,0,19,19,19,,,,,,,,,0.25277777777777777,-0.3111111111111111,0,0.8215084999974351,51.85405210001045,None,51.85405210001045,52.85427290000371,52.83891730001778,53.83983010001248,None,1,51.85405210001045,None,99,m,99,r,MS,2021_Jun_03_1039,WASABI Nback,2020.2.10,60.112988379542514,
3,"[0.2, 0.2]",1,0,0,0,0,0,20,20,20,,,,,,,,,0.24722222222222223,-0.32083333333333336,0,0.31944739999016747,53.854845400026534,None,53.854845400026534,54.85538920000545,54.839953600021545,None,None,0,53.854845400026534,None,99,m,99,r,MS,2021_Jun_03_1039,WASABI Nback,2020.2.10,60.112988379542514,
4,"[-0.2, 0]",None,0,0,0,0,0,21,21,21,,,,,,,,,0.24722222222222223,-0.32083333333333336,0,0.33405730000231415,55.84040510002524,None,55.84040510002524,56.840894700028,56.823136999999406,57.823380000016186,None,1,55.84040510002524,None,99,m,99,r,MS,2021_Jun_03_1039,WASABI Nback,2020.2.10,60.112988379542514,
7,"[-0.2, -0.2]",None,0,0,0,0,0,22,22,22,,,,,,,,,0.24305555555555555,-0.3277777777777778,0,0.0,57.841292200027965,None,57.841292200027965,58.84185080000316,58.82390040002065,59.82446720000007,None,1,57.841292200027965,None,99,m,99,r,MS,2021_Jun_03_1039,WASABI Nback,2020.2.10,60.112988379542514,
4,"[-0.2, 0]",1,0,0,0,0,0,23,23,23,,,,,,,,,0.24305555555555555,-0.3277777777777778,0,0.0,59.842173000011826,None,59.842173000011826,60.842709400021704,60.824914400000125,61.82545280002523,None,0,59.842173000011826,None,99,m,99,r,MS,2021_Jun_03_1039,WASABI Nback,2020.2.10,60.112988379542514,
4,"[-0.2, 0]",None,0,0,0,0,0,24,24,24,,,,,,,,,0.24722222222222223,-0.33194444444444443,0,1.5169970999995712,61.843244700023206,None,61.843244700023206,62.843617800012,62.82618350000121,63.82643110002391,None,1,61.843244700023206,None,99,m,99,r,MS,2021_Jun_03_1039,WASABI Nback,2020.2.10,60.112988379542514,
5,"[0, 0]",None,0,0,0,0,0,25,25,25,,,,,,,,,0.24722222222222223,-0.33194444444444443,0,0.0,63.84412330001942,None,63.84412330001942,64.84466970001813,64.82677410001634,65.82738740000059,None,1,63.84412330001942,None,99,m,99,r,MS,2021_Jun_03_1039,WASABI Nback,2020.2.10,60.112988379542514,
2,"[0, 0.2]",None,0,0,0,0,0,26,26,26,,,,,,,,,0.24722222222222223,-0.33194444444444443,0,1.4333401000185404,65.84613060002448,None,65.84613060002448,66.86095600001863,66.82761000000755,67.82788789999904,None,1,65.84613060002448,None,99,m,99,r,MS,2021_Jun_03_1039,WASABI Nback,2020.2.10,60.112988379542514,
6,"[0.2, 0]",None,0,0,0,0,0,27,27,27,,,,,,,,,0.24166666666666667,-0.3375,0,0.0,67.84609720000299,None,67.84609720000299,68.84757910002372,68.82864550000522,69.82907190002152,None,1,67.84609720000299,None,99,m,99,r,MS,2021_Jun_03_1039,WASABI Nback,2020.2.10,60.112988379542514,
7,"[-0.2, -0.2]",None,0,0,0,0,0,28,28,28,,,,,,,,,0.2388888888888889,-0.34305555555555556,0,0.6354250000149477,69.84695230002399,None,69.84695230002399,70.84785370001919,70.82968260001508,71.83278850000352,None,1,69.84695230002399,None,99,m,99,r,MS,2021_Jun_03_1039,WASABI Nback,2020.2.10,60.112988379542514,
6,"[0.2, 0]",1,0,0,0,0,0,29,29,29,,,,,,,,,0.2388888888888889,-0.34305555555555556,0,1.3370365999871865,71.8460586000001,None,71.8460586000001,72.8488979000249,72.8305009000178,73.83102800001507,None,0,71.8460586000001,None,99,m,99,r,MS,2021_Jun_03_1039,WASABI Nback,2020.2.10,60.112988379542514,
6,"[0.2, 0]",None,0,0,0,0,0,30,30,30,,,,,,,,,0.2388888888888889,-0.34305555555555556,0,1.7345691999944393,73.84917830000632,None,73.84917830000632,74.84963840001728,74.83138670001063,75.8319425000227,None,1,73.84917830000632,None,99,m,99,r,MS,2021_Jun_03_1039,WASABI Nback,2020.2.10,60.112988379542514,
7,"[-0.2, -0.2]",None,0,0,0,0,0,31,31,31,,,,,,,,,0.225,-0.35,1,1.9066785000031814,75.84972910000943,None,75.84972910000943,76.85041740001179,76.83226380002452,77.83292320001055,1,0,75.84972910000943,None,99,m,99,r,MS,2021_Jun_03_1039,WASABI Nback,2020.2.10,60.112988379542514,
6,"[0.2, 0]",1,0,0,0,0,0,32,32,32,,,,,,,,,0.2152777777777778,-0.35694444444444445,0,0.0,77.8516088000033,None,77.8516088000033,78.86656720002065,78.8333725000266,79.83357500002603,None,0,77.8516088000033,None,99,m,99,r,MS,2021_Jun_03_1039,WASABI Nback,2020.2.10,60.112988379542514,
2,"[0, 0.2]",None,0,0,0,0,0,33,33,33,,,,,,,,,0.2152777777777778,-0.35694444444444445,0,0.0499180999759119,79.85152390002622,None,79.85152390002622,80.85260640000342,80.83444980002241,81.83449550002115,None,1,79.85152390002622,None,99,m,99,r,MS,2021_Jun_03_1039,WASABI Nback,2020.2.10,60.112988379542514,
5,"[0, 0]",None,0,0,0,0,0,34,34,34,,,,,,,,,0.2152777777777778,-0.35694444444444445,0,0.2531877000001259,81.85242680000374,None,81.85242680000374,82.85310030000983,82.83519000001252,83.83578300001682,None,1,81.85242680000374,None,99,m,99,r,MS,2021_Jun_03_1039,WASABI Nback,2020.2.10,60.112988379542514,
4,"[-0.2, 0]",None,0,0,0,0,0,35,35,35,,,,,,,,,0.20972222222222223,-0.3638888888888889,0,0.21631849999539554,83.85340120000183,None,83.85340120000183,84.85383110001567,84.83611830000882,85.83646950000548,None,1,83.85340120000183,None,99,m,99,r,MS,2021_Jun_03_1039,WASABI Nback,2020.2.10,60.112988379542514,
4,"[-0.2, 0]",None,0,0,0,0,0,36,36,36,,,,,,,,,0.20833333333333334,-0.3638888888888889,0,0.26777489998494275,85.85451170001761,None,85.85451170001761,86.85481990000699,86.8369261000189,87.83722610000405,None,1,85.85451170001761,None,99,m,99,r,MS,2021_Jun_03_1039,WASABI Nback,2020.2.10,60.112988379542514,
7,"[-0.2, -0.2]",None,0,0,0,0,0,37,37,37,,,,,,,,,0.20416666666666666,-0.36527777777777776,0,0.23408589998143725,87.85537970002042,None,87.85537970002042,88.85581350000575,88.83811110001989,None,None,1,87.85537970002042,None,99,m,99,r,MS,2021_Jun_03_1039,WASABI Nback,2020.2.10,60.112988379542514,
4,"[-0.2, 0]",1,0,0,0,0,0,38,38,38,,,,,,,,,0.19722222222222222,-0.38055555555555554,0,0.21883889997843653,89.83849240001291,None,89.83849240001291,90.83908230002271,90.82340030002524,91.82386580001912,None,0,89.83849240001291,None,99,m,99,r,MS,2021_Jun_03_1039,WASABI Nback,2020.2.10,60.112988379542514,
3,"[0.2, 0.2]",None,0,0,0,0,0,39,39,39,,,,,,,,,0.1,-0.44027777777777777,0,0.43414229998597875,91.83933980000438,None,91.83933980000438,92.83885780000128,92.82250420001219,93.82381330002681,None,1,91.83933980000438,None,99,m,99,r,MS,2021_Jun_03_1039,WASABI Nback,2020.2.10,60.112988379542514,
5,"[0, 0]",None,0,0,0,0,0,40,40,40,,,,,,,,,0.07361111111111111,-0.4486111111111111,0,0.46746740001253784,93.84157810002216,None,93.84157810002216,94.84205610002391,94.82405970001128,95.82471780001651,None,1,93.84157810002216,None,99,m,99,r,MS,2021_Jun_03_1039,WASABI Nback,2020.2.10,60.112988379542514,
3,"[0.2, 0.2]",1,0,0,0,0,0,41,41,41,,,,,,,,,0.06944444444444445,-0.4486111111111111,0,0.30123189999721944,95.84242960001575,None,95.84242960001575,96.84316790002049,96.8250578000152,97.8252860000066,None,0,95.84242960001575,None,99,m,99,r,MS,2021_Jun_03_1039,WASABI Nback,2020.2.10,60.112988379542514,
1,"[-0.2, 0.2]",None,0,0,0,0,0,42,42,42,,,,,,,,,0.06944444444444445,-0.4486111111111111,0,0.23722839998663403,97.84337850002339,None,97.84337850002339,98.84378840000136,98.82601410002098,99.82644050000818,None,1,97.84337850002339,None,99,m,99,r,MS,2021_Jun_03_1039,WASABI Nback,2020.2.10,60.112988379542514,
9,"[0.2, -0.2]",None,0,0,0,0,0,43,43,43,,,,,,,,,0.0625,-0.4486111111111111,0,0.26791429999866523,99.84427739999956,None,99.84427739999956,100.84479040000588,100.82682070002193,101.82731860000058,None,1,99.84427739999956,None,99,m,99,r,MS,2021_Jun_03_1039,WASABI Nback,2020.2.10,60.112988379542514,
9,"[0.2, -0.2]",None,0,0,0,0,0,44,44,44,,,,,,,,,0.059722222222222225,-0.45,0,0.4039879000047222,101.84521420000237,None,101.84521420000237,102.84565310002654,102.82794230000582,103.8283162000007,None,1,101.84521420000237,None,99,m,99,r,MS,2021_Jun_03_1039,WASABI Nback,2020.2.10,60.112988379542514,
8,"[0, -0.2]",None,0,0,0,0,0,45,45,45,,,,,,,,,0.05555555555555555,-0.4513888888888889,0,0.2675804999889806,103.84631700001773,None,103.84631700001773,104.84710199999972,104.82884160001413,105.82923370000208,None,1,103.84631700001773,None,99,m,99,r,MS,2021_Jun_03_1039,WASABI Nback,2020.2.10,60.112988379542514,
6,"[0.2, 0]",None,0,0,0,0,0,46,46,46,,,,,,,,,0.05416666666666667,-0.4513888888888889,0,0.43450899998424575,105.84780700001284,None,105.84780700001284,106.86313130002236,106.82979130002786,107.83013110002503,None,1,105.84780700001284,None,99,m,99,r,MS,2021_Jun_03_1039,WASABI Nback,2020.2.10,60.112988379542514,
3,"[0.2, 0.2]",None,0,0,0,0,0,47,47,47,,,,,,,,,0.05,-0.45416666666666666,0,0.41492470001685433,107.84944050002377,None,107.84944050002377,108.86451500002295,108.83064620001824,109.83102979999967,None,1,107.84944050002377,None,99,m,99,r,MS,2021_Jun_03_1039,WASABI Nback,2020.2.10,60.112988379542514,
6,"[0.2, 0]",1,0,0,0,0,0,48,48,48,,,,,,,,,0.05,-0.45416666666666666,0,0.4350084000034258,109.84945140001946,None,109.84945140001946,110.86506480001844,110.83144880001782,111.8322509000136,None,0,109.84945140001946,None,99,m,99,r,MS,2021_Jun_03_1039,WASABI Nback,2020.2.10,60.112988379542514,
5,"[0, 0]",None,0,0,0,0,0,49,49,49,,,,,,,,,0.04722222222222222,-0.45694444444444443,0,0.40455499998643063,111.85092850000365,None,111.85092850000365,112.86600760000874,112.83233880001353,113.8330941000022,None,1,111.85092850000365,None,99,m,99,r,MS,2021_Jun_03_1039,WASABI Nback,2020.2.10,60.112988379542514,
7,"[-0.2, -0.2]",None,0,0,0,0,0,50,50,50,,,,,,,,,0.04583333333333333,-0.45694444444444443,0,0.365856199990958,113.85113020002609,None,113.85113020002609,114.85144150000997,114.83385920000728,115.83363630002714,None,1,113.85113020002609,None,99,m,99,r,MS,2021_Jun_03_1039,WASABI Nback,2020.2.10,60.112988379542514,
5,"[0, 0]",1,0,0,0,0,0,51,51,51,,,,,,,,,0.044444444444444446,-0.4597222222222222,0,0.51647299999604,115.85178200001246,None,115.85178200001246,116.85312060001888,116.83441020001192,117.83480960002635,None,0,115.85178200001246,None,99,m,99,r,MS,2021_Jun_03_1039,WASABI Nback,2020.2.10,60.112988379542514,
1,"[-0.2, 0.2]",None,0,0,0,0,0,52,52,52,,,,,,,,,0.04027777777777778,-0.4625,0,0.3038710999826435,117.85263660000055,None,117.85263660000055,118.85313800000586,118.83527020001202,119.83615870002541,None,1,117.85263660000055,None,99,m,99,r,MS,2021_Jun_03_1039,WASABI Nback,2020.2.10,60.112988379542514,
7,"[-0.2, -0.2]",None,0,0,0,0,0,53,53,53,,,,,,,,,0.0375,-0.4652777777777778,0,0.3162470000097528,119.85359750001226,None,119.85359750001226,120.85419330000877,120.83641430002172,121.83663240002352,None,1,119.85359750001226,None,99,m,99,r,MS,2021_Jun_03_1039,WASABI Nback,2020.2.10,60.112988379542514,
9,"[0.2, -0.2]",None,0,0,0,0,0,54,54,54,,,,,,,,,0.0375,-0.4652777777777778,0,0.4009244999906514,121.85459230002016,None,121.85459230002016,122.855006400001,122.83711750002112,123.83768799999962,None,1,121.85459230002016,None,99,m,99,r,MS,2021_Jun_03_1039,WASABI Nback,2020.2.10,60.112988379542514,
3,"[0.2, 0.2]",None,0,0,0,0,0,55,55,55,,,,,,,,,0.034722222222222224,-0.4666666666666667,0,0.6154979000275489,123.85552900002222,None,123.85552900002222,124.85589180001989,124.83829370001331,None,None,1,123.85552900002222,None,99,m,99,r,MS,2021_Jun_03_1039,WASABI Nback,2020.2.10,60.112988379542514,
9,"[0.2, -0.2]",1,0,0,0,0,0,56,56,56,,,,,,,,,0.03333333333333333,-0.46805555555555556,0,0.45206909999251366,125.8385038000124,None,125.8385038000124,126.83910730000935,126.82354920002399,127.82402450000518,None,0,125.8385038000124,None,99,m,99,r,MS,2021_Jun_03_1039,WASABI Nback,2020.2.10,60.112988379542514,
6,"[0.2, 0]",None,0,0,0,0,0,57,57,57,,,,,,,,,0.029166666666666667,-0.4791666666666667,0,0.2677855000074487,127.83941179999965,None,127.83941179999965,128.8399770000251,128.82458110002335,129.82499300001655,None,1,127.83941179999965,None,99,m,99,r,MS,2021_Jun_03_1039,WASABI Nback,2020.2.10,60.112988379542514,
2,"[0, 0.2]",None,0,0,0,0,0,58,58,58,,,,,,,,,0.029166666666666667,-0.4791666666666667,0,0.18590000001131557,129.84050440002466,None,129.84050440002466,130.84071090002544,130.8254643000255,131.82592310002656,None,1,129.84050440002466,None,99,m,99,r,MS,2021_Jun_03_1039,WASABI Nback,2020.2.10,60.112988379542514,
5,"[0, 0]",None,0,0,0,0,0,59,59,59,,,,,,,,,0.029166666666666667,-0.49027777777777776,0,0.2516124999965541,131.8417935000034,None,131.8417935000034,132.84198280001874,132.82644830000936,133.82728350002435,None,1,131.8417935000034,None,99,m,99,r,MS,2021_Jun_03_1039,WASABI Nback,2020.2.10,60.112988379542514,
5,"[0, 0]",None,0,0,0,0,0,60,60,60,,,,,,,,,0.029166666666666667,-0.49027777777777776,0,0.134067100007087,133.84237740002573,None,133.84237740002573,134.84299680002732,134.82737640000414,135.82802080002148,None,1,133.84237740002573,None,99,m,99,r,MS,2021_Jun_03_1039,WASABI Nback,2020.2.10,60.112988379542514,
2,"[0, 0.2]",None,0,0,0,0,0,61,61,61,,,,,,,,,0.029166666666666667,-0.4888888888888889,0,0.2185804999899119,135.84326630001306,None,135.84326630001306,136.8435970999999,136.82829970002058,137.82873259999906,None,1,135.84326630001306,None,99,m,99,r,MS,2021_Jun_03_1039,WASABI Nback,2020.2.10,60.112988379542514,
6,"[0.2, 0]",None,0,0,0,0,0,62,62,62,,,,,,,,,0.029166666666666667,-0.4888888888888889,0,0.06758650002302602,137.8442028000136,None,137.8442028000136,138.8448638000118,138.8296745000116,None,None,1,137.8442028000136,None,99,m,99,r,MS,2021_Jun_03_1039,WASABI Nback,2020.2.10,60.112988379542514,
9,"[0.2, -0.2]",None,0,0,0,0,0,63,63,63,,,,,,,,,0.02638888888888889,-0.4888888888888889,0,0.2229939000098966,139.84530559999985,None,139.84530559999985,140.84591830000863,140.83104040002218,None,None,1,139.84530559999985,None,99,m,99,r,MS,2021_Jun_03_1039,WASABI Nback,2020.2.10,60.112988379542514,
3,"[0.2, 0.2]",None,0,0,0,0,0,64,64,64,,,,,,,,,0.02638888888888889,-0.4888888888888889,0,0.2864920999854803,141.84588860001531,None,141.84588860001531,142.8466071000148,142.83139520001714,143.83289290001267,None,1,141.84588860001531,None,99,m,99,r,MS,2021_Jun_03_1039,WASABI Nback,2020.2.10,60.112988379542514,
9,"[0.2, -0.2]",1,0,0,0,0,0,65,65,65,,,,,,,,,0.02638888888888889,-0.4888888888888889,0,0.6342463999753818,143.84713980002562,None,143.84713980002562,144.84761240001535,144.83296360002714,145.8313327000069,None,0,143.84713980002562,None,99,m,99,r,MS,2021_Jun_03_1039,WASABI Nback,2020.2.10,60.112988379542514,
7,"[-0.2, -0.2]",None,0,0,0,0,0,66,66,66,,,,,,,,,0.02638888888888889,-0.4888888888888889,0,0.2987816999957431,145.85018440001295,None,145.85018440001295,146.84868900000583,146.83303750000778,147.8334550000145,None,1,145.85018440001295,None,99,m,99,r,MS,2021_Jun_03_1039,WASABI Nback,2020.2.10,60.112988379542514,
1,"[-0.2, 0.2]",None,0,0,0,0,0,67,67,67,,,,,,,,,0.025,-0.4888888888888889,0,0.3714260999986436,147.84907470000326,None,147.84907470000326,148.84957300001406,148.83416399999987,149.8343647000147,None,1,147.84907470000326,None,99,m,99,r,MS,2021_Jun_03_1039,WASABI Nback,2020.2.10,60.112988379542514,
5,"[0, 0]",None,0,0,0,0,0,68,68,68,,,,,,,,,0.025,-0.4888888888888889,0,0.25263030000496656,149.84968980000122,None,149.84968980000122,150.85020400001667,150.83472500002244,151.83542800002033,None,1,149.84968980000122,None,99,m,99,r,MS,2021_Jun_03_1039,WASABI Nback,2020.2.10,60.112988379542514,
7,"[-0.2, -0.2]",None,0,0,0,0,0,69,69,69,,,,,,,,,0.022222222222222223,-0.49027777777777776,0,0.23431870000786148,151.85082910000347,None,151.85082910000347,152.85104110001703,152.83674590001465,None,None,1,151.85082910000347,None,99,m,99,r,MS,2021_Jun_03_1039,WASABI Nback,2020.2.10,60.112988379542514,
5,"[0, 0]",1,0,0,0,0,0,70,70,70,,,,,,,,,0.022222222222222223,-0.49166666666666664,0,0.21880060000694357,153.85156700000516,None,153.85156700000516,154.85244470002363,154.8367075000133,155.8371359000157,None,0,153.85156700000516,None,99,m,99,r,MS,2021_Jun_03_1039,WASABI Nback,2020.2.10,60.112988379542514,
6,"[0.2, 0]",None,0,0,0,0,0,71,71,71,,,,,,,,,0.022222222222222223,-0.49166666666666664,0,0.21736179999425076,155.85226580000017,None,155.85226580000017,156.85308550001355,156.83772500001942,157.83808810001938,None,1,155.85226580000017,None,99,m,99,r,MS,2021_Jun_03_1039,WASABI Nback,2020.2.10,60.112988379542514,
3,"[0.2, 0.2]",None,0,0,0,0,0,72,72,72,,,,,,,,,0.019444444444444445,-0.49722222222222223,0,0.33403379999799654,157.85377810001955,None,157.85377810001955,158.85407970001688,158.83854720002273,159.8400329000142,None,1,157.85377810001955,None,99,m,99,r,MS,2021_Jun_03_1039,WASABI Nback,2020.2.10,60.112988379542514,
6,"[0.2, 0]",1,0,0,0,0,0,73,73,73,,,,,,,,,0.019444444444444445,-0.49722222222222223,0,0.15249810001114383,159.8546155000222,None,159.8546155000222,160.85486260001198,160.83949740001117,161.8400986000197,None,0,159.8546155000222,None,99,m,99,r,MS,2021_Jun_03_1039,WASABI Nback,2020.2.10,60.112988379542514,
8,"[0, -0.2]",None,0,0,0,0,0,74,74,74,,,,,,,,,0.019444444444444445,-0.49722222222222223,0,0.10358900000574067,161.85516750000534,None,161.85516750000534,162.85592370000086,162.84034340002108,None,None,1,161.85516750000534,None,99,m,99,r,MS,2021_Jun_03_1039,WASABI Nback,2020.2.10,60.112988379542514,
9,"[0.2, -0.2]",None,0,0,0,0,0,75,75,75,,,,,,,,,0.018055555555555554,-0.4986111111111111,0,0.01864739999291487,163.84102750002057,None,163.84102750002057,164.84132410000893,164.82367430001614,165.82394180001575,None,1,163.84102750002057,None,99,m,99,r,MS,2021_Jun_03_1039,WASABI Nback,2020.2.10,60.112988379542514,
9,"[0.2, -0.2]",None,0,0,0,0,0,76,76,76,,,,,,,,,0.018055555555555554,-0.4986111111111111,0,0.08289760001935065,165.84189640000113,None,165.84189640000113,166.84145140001783,166.82590700002038,167.82483310002135,None,1,165.84189640000113,None,99,m,99,r,MS,2021_Jun_03_1039,WASABI Nback,2020.2.10,60.112988379542514,
1,"[-0.2, 0.2]",None,0,0,0,0,0,77,77,77,,,,,,,,,0.016666666666666666,-0.5027777777777778,0,0.01653629998327233,167.8426873999997,None,167.8426873999997,168.84328450000612,168.82546380002168,169.82597130001523,None,1,167.8426873999997,None,99,m,99,r,MS,2021_Jun_03_1039,WASABI Nback,2020.2.10,60.112988379542514,
3,"[0.2, 0.2]",None,0,0,0,0,0,78,78,78,,,,,,,,,0.016666666666666666,-0.5027777777777778,0,0.0,169.84390669999993,None,169.84390669999993,170.8442369000113,170.8263657000207,171.8497522000107,None,1,169.84390669999993,None,99,m,99,r,MS,2021_Jun_03_1039,WASABI Nback,2020.2.10,60.112988379542514,
5,"[0, 0]",None,0,0,0,0,0,79,79,79,,,,,,,,,0.016666666666666666,-0.5027777777777778,0,0.0,171.8955574000138,None,171.8955574000138,172.89376470001298,172.8790232000174,None,None,1,171.8955574000138,None,99,m,99,r,MS,2021_Jun_03_1039,WASABI Nback,2020.2.10,60.112988379542514,
3,"[0.2, 0.2]",1,0,0,0,0,0,80,80,80,,,,,,,,,-0.14166666666666666,-0.18194444444444444,0,0.0,173.844780000014,None,173.844780000014,174.847480299999,174.82902480001212,175.828726000007,None,0,173.844780000014,None,99,m,99,r,MS,2021_Jun_03_1039,WASABI Nback,2020.2.10,60.112988379542514,
4,"[-0.2, 0]",None,0,0,0,0,0,81,81,81,,,,,,,,,-0.14444444444444443,-0.18194444444444444,0,0.01602340000681579,175.84699480002746,None,175.84699480002746,176.84708610002417,176.82924650001223,177.82999810000183,None,1,175.84699480002746,None,99,m,99,r,MS,2021_Jun_03_1039,WASABI Nback,2020.2.10,60.112988379542514,
7,"[-0.2, -0.2]",None,0,0,0,0,0,82,82,82,,,,,,,,,-0.1486111111111111,-0.18194444444444444,0,0.049765000003390014,177.84774080000352,None,177.84774080000352,178.84800600001472,178.83011560002342,179.83034870002302,None,1,177.84774080000352,None,99,m,99,r,MS,2021_Jun_03_1039,WASABI Nback,2020.2.10,60.112988379542514,
4,"[-0.2, 0]",1,0,0,0,0,0,83,83,83,,,,,,,,,-0.1527777777777778,-0.18194444444444444,0,0.2163558999891393,179.84845320001477,None,179.84845320001477,180.84930320002604,180.83103560001473,181.83150910001132,None,0,179.84845320001477,None,99,m,99,r,MS,2021_Jun_03_1039,WASABI Nback,2020.2.10,60.112988379542514,
4,"[-0.2, 0]",None,0,0,0,0,0,84,84,84,,,,,,,,,-0.1638888888888889,-0.18472222222222223,0,0.08315150000271387,181.84983700001612,None,181.84983700001612,182.85036890002084,182.83205590001307,183.83223680002266,None,1,181.84983700001612,None,99,m,99,r,MS,2021_Jun_03_1039,WASABI Nback,2020.2.10,60.112988379542514,
5,"[0, 0]",None,0,0,0,0,0,85,85,85,,,,,,,,,-0.1638888888888889,-0.18472222222222223,0,0.20149400000809692,183.8503219000122,None,183.8503219000122,184.85118330002297,184.8329927000159,185.83372920000693,None,1,183.8503219000122,None,99,m,99,r,MS,2021_Jun_03_1039,WASABI Nback,2020.2.10,60.112988379542514,
2,"[0, 0.2]",None,0,0,0,0,0,86,86,86,,,,,,,,,-0.16805555555555557,-0.18472222222222223,1,1.9831045000173617,185.8519981999998,None,185.8519981999998,186.866878300003,186.834042100003,187.83403570001246,1,0,185.8519981999998,None,99,m,99,r,MS,2021_Jun_03_1039,WASABI Nback,2020.2.10,60.112988379542514,
6,"[0.2, 0]",None,0,0,0,0,0,87,87,87,,,,,,,,,-0.16805555555555557,-0.18472222222222223,1,1.9668551000067964,187.85219270002563,None,187.85219270002563,188.85140230000252,188.836982000008,None,1,0,187.85219270002563,None,99,m,99,r,MS,2021_Jun_03_1039,WASABI Nback,2020.2.10,60.112988379542514,
7,"[-0.2, -0.2]",None,0,0,0,0,0,88,88,88,,,,,,,,,-0.175,-0.18472222222222223,0,0.0,189.85164770000847,None,189.85164770000847,190.85228440002538,190.838029800012,None,None,1,189.85164770000847,None,99,m,99,r,MS,2021_Jun_03_1039,WASABI Nback,2020.2.10,60.112988379542514,
6,"[0.2, 0]",1,0,0,0,0,0,89,89,89,,,,,,,,,-0.175,-0.18472222222222223,1,1.9394083000079263,191.85296770001878,None,191.85296770001878,192.85332510000444,192.83801910001785,193.83829030001652,1,1,191.85296770001878,None,99,m,99,r,MS,2021_Jun_03_1039,WASABI Nback,2020.2.10,60.112988379542514,
6,"[0.2, 0]",None,0,0,0,0,0,90,90,90,,,,,,,,,-0.18611111111111112,-0.19166666666666668,0,0.0,193.8537314000132,None,193.8537314000132,194.85419110002113,194.83882380000432,195.8392784000025,None,1,193.8537314000132,None,99,m,99,r,MS,2021_Jun_03_1039,WASABI Nback,2020.2.10,60.112988379542514,
7,"[-0.2, -0.2]",None,0,0,0,0,0,91,91,91,,,,,,,,,-0.18611111111111112,-0.19166666666666668,0,0.2547764999908395,195.8548411000229,None,195.8548411000229,196.85506660002284,196.83971060000476,None,None,1,195.8548411000229,None,99,m,99,r,MS,2021_Jun_03_1039,WASABI Nback,2020.2.10,60.112988379542514,
6,"[0.2, 0]",1,0,0,0,0,0,92,92,92,,,,,,,,,-0.18611111111111112,-0.19166666666666668,1,1.9686389999988023,197.84023010000237,None,197.84023010000237,198.84066090002307,198.8228625000047,199.82328690000577,1,1,197.84023010000237,None,99,m,99,r,MS,2021_Jun_03_1039,WASABI Nback,2020.2.10,60.112988379542514,
2,"[0, 0.2]",None,0,0,0,0,0,93,93,93,,,,,,,,,-0.18611111111111112,-0.19166666666666668,1,1.9347492000088096,199.841141300014,None,199.841141300014,200.84160110002267,200.82369680001284,201.82432050001808,1,0,199.841141300014,None,99,m,99,r,MS,2021_Jun_03_1039,WASABI Nback,2020.2.10,60.112988379542514,
5,"[0, 0]",None,0,0,0,0,0,94,94,94,,,,,,,,,-0.18611111111111112,-0.19166666666666668,0,0.0,201.8420887000102,None,201.8420887000102,202.84256980000646,202.8243737000157,203.82516900001792,None,1,201.8420887000102,None,99,m,99,r,MS,2021_Jun_03_1039,WASABI Nback,2020.2.10,60.112988379542514,
4,"[-0.2, 0]",None,0,0,0,0,0,95,95,95,,,,,,,,,-0.19305555555555556,-0.19305555555555556,0,0.3715991000062786,203.84301000001142,None,203.84301000001142,204.84345590000157,204.82534530002158,205.82615100001567,None,1,203.84301000001142,None,99,m,99,r,MS,2021_Jun_03_1039,WASABI Nback,2020.2.10,60.112988379542514,
4,"[-0.2, 0]",None,0,0,0,0,0,96,96,96,,,,,,,,,-0.19583333333333333,-0.19583333333333333,0,0.516165999986697,205.84486420001485,None,205.84486420001485,206.86005060002208,206.8266166000103,207.82698020001408,None,1,205.84486420001485,None,99,m,99,r,MS,2021_Jun_03_1039,WASABI Nback,2020.2.10,60.112988379542514,
7,"[-0.2, -0.2]",None,0,0,0,0,0,97,97,97,,,,,,,,,-0.19722222222222222,-0.19583333333333333,0,0.3157325999927707,207.84544350000215,None,207.84544350000215,208.84738670001389,208.82981030002702,209.8279778000142,None,1,207.84544350000215,None,99,m,99,r,MS,2021_Jun_03_1039,WASABI Nback,2020.2.10,60.112988379542514,
4,"[-0.2, 0]",1,0,0,0,0,0,98,98,98,,,,,,,,,-0.19722222222222222,-0.19583333333333333,0,0.6499688999901991,209.84636100000353,None,209.84636100000353,210.86184210001375,210.8285223999992,211.82926810000208,None,0,209.84636100000353,None,99,m,99,r,MS,2021_Jun_03_1039,WASABI Nback,2020.2.10,60.112988379542514,
3,"[0.2, 0.2]",None,0,0,0,0,0,99,99,99,,,,,,,,,-0.20555555555555555,-0.1986111111111111,0,0.0,211.84703360000276,None,211.84703360000276,212.8473023000115,212.8295767000236,213.8298789000255,None,1,211.84703360000276,None,99,m,99,r,MS,2021_Jun_03_1039,WASABI Nback,2020.2.10,60.112988379542514,
5,"[0, 0]",None,0,0,0,0,0,100,100,100,,,,,,,,,-0.7444444444444445,-0.20416666666666666,0,0.4011840999883134,213.84778680000454,None,213.84778680000454,214.84821520000696,214.83042520002346,215.83175710000796,None,1,213.84778680000454,None,99,m,99,r,MS,2021_Jun_03_1039,WASABI Nback,2020.2.10,60.112988379542514,
3,"[0.2, 0.2]",1,0,0,0,0,0,101,101,101,,,,,,,,,-0.7444444444444445,-0.20416666666666666,0,0.0,215.84965430002194,None,215.84965430002194,216.86912600000505,216.8308864000137,217.83177010001964,None,0,215.84965430002194,None,99,m,99,r,MS,2021_Jun_03_1039,WASABI Nback,2020.2.10,60.112988379542514,
1,"[-0.2, 0.2]",None,0,0,0,0,0,102,102,102,,,,,,,,,-0.7444444444444445,-0.20416666666666666,0,0.0,217.8496283000277,None,217.8496283000277,218.85005780000938,218.8320742000069,219.83345080001163,None,1,217.8496283000277,None,99,m,99,r,MS,2021_Jun_03_1039,WASABI Nback,2020.2.10,60.112988379542514,
9,"[0.2, -0.2]",None,0,0,0,0,0,103,103,103,,,,,,,,,-0.7444444444444445,-0.20416666666666666,0,0.0,219.84904340002686,None,219.84904340002686,220.84941030002665,220.83408330002567,None,None,1,219.84904340002686,None,99,m,99,r,MS,2021_Jun_03_1039,WASABI Nback,2020.2.10,60.112988379542514,
9,"[0.2, -0.2]",None,0,0,0,0,0,104,104,104,,,,,,,,,-0.7444444444444445,-0.20416666666666666,0,0.0,221.85012610000558,None,221.85012610000558,222.85034890001407,222.83432160000666,223.83492760002264,None,1,221.85012610000558,None,99,m,99,r,MS,2021_Jun_03_1039,WASABI Nback,2020.2.10,60.112988379542514,
8,"[0, -0.2]",None,0,0,0,0,0,105,105,105,,,,,,,,,-0.7444444444444445,-0.20416666666666666,0,0.0,223.8518088000128,None,223.8518088000128,224.8509020000056,224.83535440001287,225.83578470000066,None,1,223.8518088000128,None,99,m,99,r,MS,2021_Jun_03_1039,WASABI Nback,2020.2.10,60.112988379542514,
6,"[0.2, 0]",None,0,0,0,0,0,106,106,106,,,,,,,,,-0.7444444444444445,-0.20416666666666666,0,0.0,225.85141680002562,None,225.85141680002562,226.8522321000055,226.83637930001714,227.8375124000013,None,1,225.85141680002562,None,99,m,99,r,MS,2021_Jun_03_1039,WASABI Nback,2020.2.10,60.112988379542514,
3,"[0.2, 0.2]",None,0,0,0,0,0,107,107,107,,,,,,,,,-0.7444444444444445,-0.20416666666666666,0,0.0,227.85258230002364,None,227.85258230002364,228.85806190001313,228.840167700022,None,None,1,227.85258230002364,None,99,m,99,r,MS,2021_Jun_03_1039,WASABI Nback,2020.2.10,60.112988379542514,
6,"[0.2, 0]",1,0,0,0,0,0,108,108,108,,,,,,,,,-0.7444444444444445,-0.20416666666666666,0,0.0,229.85324570001103,None,229.85324570001103,230.8537146000017,230.83800180000253,231.839257500018,None,0,229.85324570001103,None,99,m,99,r,MS,2021_Jun_03_1039,WASABI Nback,2020.2.10,60.112988379542514,
5,"[0, 0]",None,0,0,0,0,0,109,109,109,,,,,,,,,-0.7444444444444445,-0.20416666666666666,0,0.0,231.85481760001858,None,231.85481760001858,232.85464180001873,232.83918680000352,233.8394474000088,None,1,231.85481760001858,None,99,m,99,r,MS,2021_Jun_03_1039,WASABI Nback,2020.2.10,60.112988379542514,
7,"[-0.2, -0.2]",None,0,0,0,0,0,110,110,110,,,,,,,,,-0.7444444444444445,-0.20416666666666666,0,0.0,233.85535150000942,None,233.85535150000942,234.85564540000632,234.83991550002247,None,None,1,233.85535150000942,None,99,m,99,r,MS,2021_Jun_03_1039,WASABI Nback,2020.2.10,60.112988379542514,
5,"[0, 0]",1,0,0,0,0,0,111,111,111,,,,,,,,,-0.7444444444444445,-0.20416666666666666,0,0.0,235.84035260000383,None,235.84035260000383,236.8408836000017,236.8233761000156,237.8274518000253,None,0,235.84035260000383,None,99,m,99,r,MS,2021_Jun_03_1039,WASABI Nback,2020.2.10,60.112988379542514,
1,"[-0.2, 0.2]",None,0,0,0,0,0,112,112,112,,,,,,,,,-0.7444444444444445,-0.20416666666666666,0,0.0,237.84574050002266,None,237.84574050002266,238.85762230001274,238.82429410002078,239.82476580000366,None,1,237.84574050002266,None,99,m,99,r,MS,2021_Jun_03_1039,WASABI Nback,2020.2.10,60.112988379542514,
7,"[-0.2, -0.2]",None,0,0,0,0,0,113,113,113,,,,,,,,,-0.7444444444444445,-0.20416666666666666,0,0.0,239.8424698000017,None,239.8424698000017,240.84487610001815,240.83032540002023,None,None,1,239.8424698000017,None,99,m,99,r,MS,2021_Jun_03_1039,WASABI Nback,2020.2.10,60.112988379542514,
9,"[0.2, -0.2]",None,0,0,0,0,0,114,114,114,,,,,,,,,-0.7444444444444445,-0.20416666666666666,0,0.0,241.84221040000557,None,241.84221040000557,242.84253990001162,242.8259499000269,243.8263967000239,None,1,241.84221040000557,None,99,m,99,r,MS,2021_Jun_03_1039,WASABI Nback,2020.2.10,60.112988379542514,
3,"[0.2, 0.2]",None,0,0,0,0,0,115,115,115,,,,,,,,,-0.7444444444444445,-0.20416666666666666,0,0.0,243.84302720002597,None,243.84302720002597,244.84362050000345,244.8269214000029,245.82738820000668,None,1,243.84302720002597,None,99,m,99,r,MS,2021_Jun_03_1039,WASABI Nback,2020.2.10,60.112988379542514,
9,"[0.2, -0.2]",1,0,0,0,0,0,116,116,116,,,,,,,,,-0.7444444444444445,-0.20416666666666666,0,0.0,245.8441435000277,None,245.8441435000277,246.84449650000897,246.82780270001967,247.82828480002354,None,0,245.8441435000277,None,99,m,99,r,MS,2021_Jun_03_1039,WASABI Nback,2020.2.10,60.112988379542514,
6,"[0.2, 0]",None,0,0,0,0,0,117,117,117,,,,,,,,,-0.7444444444444445,-0.20416666666666666,0,0.0,247.8450069000246,None,247.8450069000246,248.84538330000942,248.82872980000684,249.82920940002077,None,1,247.8450069000246,None,99,m,99,r,MS,2021_Jun_03_1039,WASABI Nback,2020.2.10,60.112988379542514,
2,"[0, 0.2]",None,0,0,0,0,0,118,118,118,,,,,,,,,-0.7444444444444445,-0.20416666666666666,0,0.0,249.84604780000518,None,249.84604780000518,250.8463091000158,250.82964830001583,251.83014790000743,None,1,249.84604780000518,None,99,m,99,r,MS,2021_Jun_03_1039,WASABI Nback,2020.2.10,60.112988379542514,
5,"[0, 0]",None,0,0,0,0,0,119,119,119,,,,,,,,,-0.7444444444444445,-0.20416666666666666,0,0.0,251.84686910000164,None,251.84686910000164,252.84748690002016,252.8308116000262,253.83108370000264,None,1,251.84686910000164,None,99,m,99,r,MS,2021_Jun_03_1039,WASABI Nback,2020.2.10,60.112988379542514,
