RestT1,TaskT1,square,location,corrAns,counterbalancer.thisRepN,counterbalancer.thisTrialN,counterbalancer.thisN,counterbalancer.thisIndex,RestT1Loop.thisRepN,RestT1Loop.thisTrialN,RestT1Loop.thisN,RestT1Loop.thisIndex,TaskT1Loop.thisRepN,TaskT1Loop.thisTrialN,TaskT1Loop.thisN,TaskT1Loop.thisIndex,trials_2.thisRepN,trials_2.thisTrialN,trials_2.thisN,trials_2.thisIndex,fixation_1.started,fixation_1.stopped,NbackInstructions.started,NbackInstructions.stopped,NbackStart.keys,NbackStart.rt,NbackStart.started,NbackStart.stopped,fixation_2.started,fixation_2.stopped,grid_lines_2.started,grid_lines_2.stopped,target_square_2.started,target_square_2.stopped,fixation_3.started,fixation_3.stopped,response_2.x,response_2.y,response_2.click,response_2.corr,response_2.started,response_2.stopped,response_2.rt,subject number,gender,session,handedness,scanner,date,expName,psychopyVersion,frameRate,
1,0,,,,0,0,0,0,0,0,0,0,,,,,,,,,13.51646700000856,None,,,,,,,,,,,,,,,,,,,,,,99,m,99,r,MS,2021_Jun_03_1005,WASABI Nback,2020.2.10,59.997756073821215,
0,1,,,,0,1,1,1,,,,,0,0,0,0,,,,,,,301.81827750001685,None,space,0.8961466000182554,301.81827750001685,None,,,,,,,,,,,,,,,,99,m,99,r,MS,2021_Jun_03_1005,WASABI Nback,2020.2.10,59.997756073821215,
0,1,5,"[0, 0]",None,0,1,1,1,,,,,0,0,0,0,0,0,0,0,,,,,,,,,303.43494000000646,None,303.8564699999988,None,303.8564699999988,304.86958650001907,304.81937599999947,None,0.025,-0.015277777777777777,None,1,303.8564699999988,None,,99,m,99,r,MS,2021_Jun_03_1005,WASABI Nback,2020.2.10,59.997756073821215,
0,1,2,"[0, 0.2]",None,0,1,1,1,,,,,0,0,0,0,0,1,1,1,,,,,,,,,,,305.75313490000553,None,305.75313490000553,306.75372090001474,306.73710440000286,307.7374359999958,0.02361111111111111,-0.0125,None,1,305.75313490000553,None,,99,m,99,r,MS,2021_Jun_03_1005,WASABI Nback,2020.2.10,59.997756073821215,
0,1,6,"[0.2, 0]",None,0,1,1,1,,,,,0,0,0,0,0,2,2,2,,,,,,,,,,,307.7541940000083,None,307.7541940000083,308.75472650001757,308.7381038000167,None,0.022222222222222223,-0.008333333333333333,1,0,307.7541940000083,None,1.935683199990308,99,m,99,r,MS,2021_Jun_03_1005,WASABI Nback,2020.2.10,59.997756073821215,
0,1,9,"[0.2, -0.2]",None,0,1,1,1,,,,,0,0,0,0,0,3,3,3,,,,,,,,,,,309.73846300001605,None,309.73846300001605,310.738815299992,310.72272489999887,311.72288430001936,0.022222222222222223,-0.008333333333333333,None,1,309.73846300001605,None,,99,m,99,r,MS,2021_Jun_03_1005,WASABI Nback,2020.2.10,59.997756073821215,
0,1,3,"[0.2, 0.2]",None,0,1,1,1,,,,,0,0,0,0,0,4,4,4,,,,,,,,,,,311.739467700012,None,311.739467700012,312.7399842000159,312.72313709999435,313.7236441000132,0.002777777777777778,-0.004166666666666667,None,1,311.739467700012,None,,99,m,99,r,MS,2021_Jun_03_1005,WASABI Nback,2020.2.10,59.997756073821215,
0,1,9,"[0.2, -0.2]",1,0,1,1,1,,,,,0,0,0,0,0,5,5,5,,,,,,,,,,,313.7398838000081,None,313.7398838000081,314.7407382999954,314.72414589999244,315.7251191000105,0.001388888888888889,-0.004166666666666667,None,0,313.7398838000081,None,,99,m,99,r,MS,2021_Jun_03_1005,WASABI Nback,2020.2.10,59.997756073821215,
0,1,7,"[-0.2, -0.2]",None,0,1,1,1,,,,,0,0,0,0,0,6,6,6,,,,,,,,,,,315.7407896000077,None,315.7407896000077,316.7418203999987,316.72519339999417,317.72548110000207,0.001388888888888889,-0.004166666666666667,None,1,315.7407896000077,None,,99,m,99,r,MS,2021_Jun_03_1005,WASABI Nback,2020.2.10,59.997756073821215,
0,1,1,"[-0.2, 0.2]",None,0,1,1,1,,,,,0,0,0,0,0,7,7,7,,,,,,,,,,,317.7423176000011,None,317.7423176000011,318.7427791999944,318.7269037000078,319.7264895999979,0.001388888888888889,-0.004166666666666667,None,1,317.7423176000011,None,,99,m,99,r,MS,2021_Jun_03_1005,WASABI Nback,2020.2.10,59.997756073821215,
0,1,5,"[0, 0]",None,0,1,1,1,,,,,0,0,0,0,0,8,8,8,,,,,,,,,,,319.7429514999967,None,319.7429514999967,320.74365770001896,320.7269038000086,321.7275650000083,0.001388888888888889,-0.004166666666666667,None,1,319.7429514999967,None,,99,m,99,r,MS,2021_Jun_03_1005,WASABI Nback,2020.2.10,59.997756073821215,
0,1,7,"[-0.2, -0.2]",None,0,1,1,1,,,,,0,0,0,0,0,9,9,9,,,,,,,,,,,321.7442337000102,None,321.7442337000102,322.7448093999992,322.72787309999694,323.7283990000142,0.001388888888888889,-0.004166666666666667,None,1,321.7442337000102,None,,99,m,99,r,MS,2021_Jun_03_1005,WASABI Nback,2020.2.10,59.997756073821215,
0,1,5,"[0, 0]",1,0,1,1,1,,,,,0,0,0,0,0,10,10,10,,,,,,,,,,,323.7450952999934,None,323.7450952999934,324.74501959999907,324.7288253000006,325.7291365000128,0.001388888888888889,-0.004166666666666667,None,0,323.7450952999934,None,,99,m,99,r,MS,2021_Jun_03_1005,WASABI Nback,2020.2.10,59.997756073821215,
0,1,6,"[0.2, 0]",None,0,1,1,1,,,,,0,0,0,0,0,11,11,11,,,,,,,,,,,325.746035499993,None,325.746035499993,326.7465458000079,326.72967359999893,327.7303560000146,0.001388888888888889,-0.004166666666666667,None,1,325.746035499993,None,,99,m,99,r,MS,2021_Jun_03_1005,WASABI Nback,2020.2.10,59.997756073821215,
0,1,3,"[0.2, 0.2]",None,0,1,1,1,,,,,0,0,0,0,0,12,12,12,,,,,,,,,,,327.746956899995,None,327.746956899995,328.74738440001966,328.7305645000015,329.7312206000206,0.001388888888888889,-0.004166666666666667,None,1,327.746956899995,None,,99,m,99,r,MS,2021_Jun_03_1005,WASABI Nback,2020.2.10,59.997756073821215,
0,1,6,"[0.2, 0]",1,0,1,1,1,,,,,0,0,0,0,0,13,13,13,,,,,,,,,,,329.74773030000506,None,329.74773030000506,330.74793189999764,330.73158839999815,331.73196609999286,0.001388888888888889,-0.004166666666666667,None,0,329.74773030000506,None,,99,m,99,r,MS,2021_Jun_03_1005,WASABI Nback,2020.2.10,59.997756073821215,
0,1,8,"[0, -0.2]",None,0,1,1,1,,,,,0,0,0,0,0,14,14,14,,,,,,,,,,,331.74889049999183,None,331.74889049999183,332.7492059000069,332.73274390000734,333.73314100000425,0.001388888888888889,-0.004166666666666667,None,1,331.74889049999183,None,,99,m,99,r,MS,2021_Jun_03_1005,WASABI Nback,2020.2.10,59.997756073821215,
0,1,9,"[0.2, -0.2]",None,0,1,1,1,,,,,0,0,0,0,0,15,15,15,,,,,,,,,,,333.7499555000104,None,333.7499555000104,334.7501930000144,334.7332244999998,335.73398600000655,0.001388888888888889,-0.004166666666666667,None,1,333.7499555000104,None,,99,m,99,r,MS,2021_Jun_03_1005,WASABI Nback,2020.2.10,59.997756073821215,
0,1,9,"[0.2, -0.2]",None,0,1,1,1,,,,,0,0,0,0,0,16,16,16,,,,,,,,,,,335.75060759999906,None,335.75060759999906,336.75118200000725,336.7346084000019,337.73463180000545,0.001388888888888889,-0.004166666666666667,None,1,335.75060759999906,None,,99,m,99,r,MS,2021_Jun_03_1005,WASABI Nback,2020.2.10,59.997756073821215,
0,1,1,"[-0.2, 0.2]",None,0,1,1,1,,,,,0,0,0,0,0,17,17,17,,,,,,,,,,,337.7515545000206,None,337.7515545000206,338.7522317999974,338.73527070001,339.7362344000139,0.001388888888888889,-0.004166666666666667,None,1,337.7515545000206,None,,99,m,99,r,MS,2021_Jun_03_1005,WASABI Nback,2020.2.10,59.997756073821215,
0,1,3,"[0.2, 0.2]",None,0,1,1,1,,,,,0,0,0,0,0,18,18,18,,,,,,,,,,,339.7525709000183,None,339.7525709000183,340.7529303000192,340.73604109999724,341.73682809999445,0.001388888888888889,-0.004166666666666667,None,1,339.7525709000183,None,,99,m,99,r,MS,2021_Jun_03_1005,WASABI Nback,2020.2.10,59.997756073821215,
0,1,5,"[0, 0]",None,0,1,1,1,,,,,0,0,0,0,0,19,19,19,,,,,,,,,,,341.75305140001,None,341.75305140001,342.75381530000595,342.73716079999576,343.7377092000097,0.001388888888888889,-0.004166666666666667,None,1,341.75305140001,None,,99,m,99,r,MS,2021_Jun_03_1005,WASABI Nback,2020.2.10,59.997756073821215,
0,1,3,"[0.2, 0.2]",1,0,1,1,1,,,,,0,0,0,0,0,20,20,20,,,,,,,,,,,343.754691500013,None,343.754691500013,344.75497440001345,344.7383759999939,345.73854660001234,0.001388888888888889,-0.004166666666666667,None,0,343.754691500013,None,,99,m,99,r,MS,2021_Jun_03_1005,WASABI Nback,2020.2.10,59.997756073821215,
0,1,4,"[-0.2, 0]",None,0,1,1,1,,,,,0,0,0,0,0,21,21,21,,,,,,,,,,,345.75537210001494,None,345.75537210001494,346.75607430000673,346.7391659000132,None,0.001388888888888889,-0.004166666666666667,None,1,345.75537210001494,None,,99,m,99,r,MS,2021_Jun_03_1005,WASABI Nback,2020.2.10,59.997756073821215,
0,1,7,"[-0.2, -0.2]",None,0,1,1,1,,,,,0,0,0,0,0,22,22,22,,,,,,,,,,,347.739676600002,None,347.739676600002,348.74002650001785,348.7235123999999,349.7239750000008,0.001388888888888889,-0.004166666666666667,None,1,347.739676600002,None,,99,m,99,r,MS,2021_Jun_03_1005,WASABI Nback,2020.2.10,59.997756073821215,
0,1,4,"[-0.2, 0]",1,0,1,1,1,,,,,0,0,0,0,0,23,23,23,,,,,,,,,,,349.7406056000036,None,349.7406056000036,350.741050200013,350.7242300999933,351.7247835000162,0.001388888888888889,-0.004166666666666667,None,0,349.7406056000036,None,,99,m,99,r,MS,2021_Jun_03_1005,WASABI Nback,2020.2.10,59.997756073821215,
0,1,4,"[-0.2, 0]",None,0,1,1,1,,,,,0,0,0,0,0,24,24,24,,,,,,,,,,,351.74135200001183,None,351.74135200001183,352.74191929999506,352.72536959999707,353.7257946000027,0.001388888888888889,-0.004166666666666667,None,1,351.74135200001183,None,,99,m,99,r,MS,2021_Jun_03_1005,WASABI Nback,2020.2.10,59.997756073821215,
0,1,5,"[0, 0]",None,0,1,1,1,,,,,0,0,0,0,0,25,25,25,,,,,,,,,,,353.7424819000007,None,353.7424819000007,354.7427983999951,354.72635100001935,355.7274628000159,0.001388888888888889,-0.004166666666666667,None,1,353.7424819000007,None,,99,m,99,r,MS,2021_Jun_03_1005,WASABI Nback,2020.2.10,59.997756073821215,
0,1,2,"[0, 0.2]",None,0,1,1,1,,,,,0,0,0,0,0,26,26,26,,,,,,,,,,,355.74340860001394,None,355.74340860001394,356.7439086000086,356.727000200015,357.72749710001517,0.001388888888888889,-0.004166666666666667,None,1,355.74340860001394,None,,99,m,99,r,MS,2021_Jun_03_1005,WASABI Nback,2020.2.10,59.997756073821215,
0,1,6,"[0.2, 0]",None,0,1,1,1,,,,,0,0,0,0,0,27,27,27,,,,,,,,,,,357.744457599998,None,357.744457599998,358.7451832999941,358.72811500000535,359.72877630000585,0.001388888888888889,-0.004166666666666667,None,1,357.744457599998,None,,99,m,99,r,MS,2021_Jun_03_1005,WASABI Nback,2020.2.10,59.997756073821215,
0,1,7,"[-0.2, -0.2]",None,0,1,1,1,,,,,0,0,0,0,0,28,28,28,,,,,,,,,,,359.74550059999456,None,359.74550059999456,360.74563640000997,360.72921510000015,361.7290369000111,0.001388888888888889,-0.004166666666666667,None,1,359.74550059999456,None,,99,m,99,r,MS,2021_Jun_03_1005,WASABI Nback,2020.2.10,59.997756073821215,
0,1,6,"[0.2, 0]",1,0,1,1,1,,,,,0,0,0,0,0,29,29,29,,,,,,,,,,,361.7462378999917,None,361.7462378999917,362.7468511000043,362.73016669999924,363.73060680000344,0.001388888888888889,-0.004166666666666667,None,0,361.7462378999917,None,,99,m,99,r,MS,2021_Jun_03_1005,WASABI Nback,2020.2.10,59.997756073821215,
0,1,6,"[0.2, 0]",None,0,1,1,1,,,,,0,0,0,0,0,30,30,30,,,,,,,,,,,363.746753000014,None,363.746753000014,364.7484603000048,364.73082510000677,365.73162800000864,0.001388888888888889,-0.004166666666666667,1,0,363.746753000014,None,1.9514510000008158,99,m,99,r,MS,2021_Jun_03_1005,WASABI Nback,2020.2.10,59.997756073821215,
0,1,7,"[-0.2, -0.2]",None,0,1,1,1,,,,,0,0,0,0,0,31,31,31,,,,,,,,,,,365.7477286999929,None,365.7477286999929,366.7487183000194,366.7319236000185,367.73292060001404,0.001388888888888889,-0.004166666666666667,None,1,365.7477286999929,None,,99,m,99,r,MS,2021_Jun_03_1005,WASABI Nback,2020.2.10,59.997756073821215,
0,1,6,"[0.2, 0]",1,0,1,1,1,,,,,0,0,0,0,0,32,32,32,,,,,,,,,,,367.7497728000162,None,367.7497728000162,368.74931430001743,368.73269629999413,369.7332540000207,0.001388888888888889,-0.004166666666666667,None,0,367.7497728000162,None,,99,m,99,r,MS,2021_Jun_03_1005,WASABI Nback,2020.2.10,59.997756073821215,
0,1,2,"[0, 0.2]",None,0,1,1,1,,,,,0,0,0,0,0,33,33,33,,,,,,,,,,,369.74957320000976,None,369.74957320000976,370.7502858999942,370.7336828999978,371.73414690000936,0.001388888888888889,-0.004166666666666667,None,1,369.74957320000976,None,,99,m,99,r,MS,2021_Jun_03_1005,WASABI Nback,2020.2.10,59.997756073821215,
0,1,5,"[0, 0]",None,0,1,1,1,,,,,0,0,0,0,0,34,34,34,,,,,,,,,,,371.7509743999981,None,371.7509743999981,372.7513459000038,372.734669700003,373.7353171000141,0.001388888888888889,-0.004166666666666667,None,1,371.7509743999981,None,,99,m,99,r,MS,2021_Jun_03_1005,WASABI Nback,2020.2.10,59.997756073821215,
0,1,4,"[-0.2, 0]",None,0,1,1,1,,,,,0,0,0,0,0,35,35,35,,,,,,,,,,,373.75169840001035,None,373.75169840001035,374.75220350001473,374.73551200001384,375.73634790000506,0.001388888888888889,-0.004166666666666667,None,1,373.75169840001035,None,,99,m,99,r,MS,2021_Jun_03_1005,WASABI Nback,2020.2.10,59.997756073821215,
0,1,4,"[-0.2, 0]",None,0,1,1,1,,,,,0,0,0,0,0,36,36,36,,,,,,,,,,,375.7527425000153,None,375.7527425000153,376.753332399996,376.7367085000151,377.7371480000147,0.001388888888888889,-0.004166666666666667,None,1,375.7527425000153,None,,99,m,99,r,MS,2021_Jun_03_1005,WASABI Nback,2020.2.10,59.997756073821215,
0,1,7,"[-0.2, -0.2]",None,0,1,1,1,,,,,0,0,0,0,0,37,37,37,,,,,,,,,,,377.7538475000183,None,377.7538475000183,378.75408099999186,378.73707440000726,379.7379263000039,0.001388888888888889,-0.004166666666666667,None,1,377.7538475000183,None,,99,m,99,r,MS,2021_Jun_03_1005,WASABI Nback,2020.2.10,59.997756073821215,
0,1,4,"[-0.2, 0]",1,0,1,1,1,,,,,0,0,0,0,0,38,38,38,,,,,,,,,,,379.7547945000115,None,379.7547945000115,380.7554350999999,380.7384169000143,None,0.001388888888888889,-0.004166666666666667,None,0,379.7547945000115,None,,99,m,99,r,MS,2021_Jun_03_1005,WASABI Nback,2020.2.10,59.997756073821215,
0,1,3,"[0.2, 0.2]",None,0,1,1,1,,,,,0,0,0,0,0,39,39,39,,,,,,,,,,,381.73841130000073,None,381.73841130000073,382.7392641000042,382.7227840000123,383.7236073999957,0.001388888888888889,-0.004166666666666667,None,1,381.73841130000073,None,,99,m,99,r,MS,2021_Jun_03_1005,WASABI Nback,2020.2.10,59.997756073821215,
0,1,5,"[0, 0]",None,0,1,1,1,,,,,0,0,0,0,0,40,40,40,,,,,,,,,,,383.7398589999939,None,383.7398589999939,384.74020580001525,384.7237770000065,385.72387370001525,0.001388888888888889,-0.004166666666666667,None,1,383.7398589999939,None,,99,m,99,r,MS,2021_Jun_03_1005,WASABI Nback,2020.2.10,59.997756073821215,
0,1,3,"[0.2, 0.2]",1,0,1,1,1,,,,,0,0,0,0,0,41,41,41,,,,,,,,,,,385.7406714000099,None,385.7406714000099,386.74115740001434,386.72419530001935,387.7251452000055,0.001388888888888889,-0.004166666666666667,None,0,385.7406714000099,None,,99,m,99,r,MS,2021_Jun_03_1005,WASABI Nback,2020.2.10,59.997756073821215,
0,1,1,"[-0.2, 0.2]",None,0,1,1,1,,,,,0,0,0,0,0,42,42,42,,,,,,,,,,,387.74133489999804,None,387.74133489999804,388.742075200018,388.7255323000136,389.7260644000198,0.001388888888888889,-0.004166666666666667,None,1,387.74133489999804,None,,99,m,99,r,MS,2021_Jun_03_1005,WASABI Nback,2020.2.10,59.997756073821215,
0,1,9,"[0.2, -0.2]",None,0,1,1,1,,,,,0,0,0,0,0,43,43,43,,,,,,,,,,,389.7427270000044,None,389.7427270000044,390.74326570000267,390.72658930000034,391.72684780001873,0.001388888888888889,-0.004166666666666667,None,1,389.7427270000044,None,,99,m,99,r,MS,2021_Jun_03_1005,WASABI Nback,2020.2.10,59.997756073821215,
0,1,9,"[0.2, -0.2]",None,0,1,1,1,,,,,0,0,0,0,0,44,44,44,,,,,,,,,,,391.7437287000066,None,391.7437287000066,392.7440513000183,392.7273446000181,393.7278869000147,-0.002777777777777778,-0.004166666666666667,None,1,391.7437287000066,None,,99,m,99,r,MS,2021_Jun_03_1005,WASABI Nback,2020.2.10,59.997756073821215,
0,1,8,"[0, -0.2]",None,0,1,1,1,,,,,0,0,0,0,0,45,45,45,,,,,,,,,,,393.7447575000115,None,393.7447575000115,394.7450743000081,394.72834400000283,395.7282983000041,-0.002777777777777778,-0.004166666666666667,None,1,393.7447575000115,None,,99,m,99,r,MS,2021_Jun_03_1005,WASABI Nback,2020.2.10,59.997756073821215,
0,1,6,"[0.2, 0]",None,0,1,1,1,,,,,0,0,0,0,0,46,46,46,,,,,,,,,,,395.74560520000523,None,395.74560520000523,396.745499200013,396.72932320000837,397.7293298000004,-0.002777777777777778,-0.004166666666666667,None,1,395.74560520000523,None,,99,m,99,r,MS,2021_Jun_03_1005,WASABI Nback,2020.2.10,59.997756073821215,
0,1,3,"[0.2, 0.2]",None,0,1,1,1,,,,,0,0,0,0,0,47,47,47,,,,,,,,,,,397.7463274000038,None,397.7463274000038,398.7466679000063,398.73026420001406,399.7306246999942,-0.002777777777777778,-0.004166666666666667,None,1,397.7463274000038,None,,99,m,99,r,MS,2021_Jun_03_1005,WASABI Nback,2020.2.10,59.997756073821215,
0,1,6,"[0.2, 0]",1,0,1,1,1,,,,,0,0,0,0,0,48,48,48,,,,,,,,,,,399.74717770001735,None,399.74717770001735,400.74866460001795,400.7310974000138,401.73164480002015,-0.002777777777777778,-0.004166666666666667,None,0,399.74717770001735,None,,99,m,99,r,MS,2021_Jun_03_1005,WASABI Nback,2020.2.10,59.997756073821215,
0,1,5,"[0, 0]",None,0,1,1,1,,,,,0,0,0,0,0,49,49,49,,,,,,,,,,,401.7484323999961,None,401.7484323999961,402.74878799999715,402.7320449000108,403.7319858999981,-0.002777777777777778,-0.004166666666666667,None,1,401.7484323999961,None,,99,m,99,r,MS,2021_Jun_03_1005,WASABI Nback,2020.2.10,59.997756073821215,
0,1,7,"[-0.2, -0.2]",None,0,1,1,1,,,,,0,0,0,0,0,50,50,50,,,,,,,,,,,403.74906510001165,None,403.74906510001165,404.7497433999961,404.7328213000146,405.73352239999804,-0.002777777777777778,-0.004166666666666667,None,1,403.74906510001165,None,,99,m,99,r,MS,2021_Jun_03_1005,WASABI Nback,2020.2.10,59.997756073821215,
0,1,5,"[0, 0]",1,0,1,1,1,,,,,0,0,0,0,0,51,51,51,,,,,,,,,,,405.7499766999972,None,405.7499766999972,406.75058019999415,406.7337475999957,407.7347191000008,-0.002777777777777778,-0.004166666666666667,None,0,405.7499766999972,None,,99,m,99,r,MS,2021_Jun_03_1005,WASABI Nback,2020.2.10,59.997756073821215,
0,1,1,"[-0.2, 0.2]",None,0,1,1,1,,,,,0,0,0,0,0,52,52,52,,,,,,,,,,,407.75116730001173,None,407.75116730001173,408.75126630000887,408.735156300012,409.73502920000465,-0.002777777777777778,-0.004166666666666667,None,1,407.75116730001173,None,,99,m,99,r,MS,2021_Jun_03_1005,WASABI Nback,2020.2.10,59.997756073821215,
0,1,7,"[-0.2, -0.2]",None,0,1,1,1,,,,,0,0,0,0,0,53,53,53,,,,,,,,,,,409.7519508000114,None,409.7519508000114,410.75203110001166,410.7359149999975,411.73638149999897,-0.002777777777777778,-0.004166666666666667,None,1,409.7519508000114,None,,99,m,99,r,MS,2021_Jun_03_1005,WASABI Nback,2020.2.10,59.997756073821215,
0,1,9,"[0.2, -0.2]",None,0,1,1,1,,,,,0,0,0,0,0,54,54,54,,,,,,,,,,,411.753070900013,None,411.753070900013,412.75395189999836,412.73677280000993,413.73733649999485,-0.002777777777777778,-0.004166666666666667,None,1,411.753070900013,None,,99,m,99,r,MS,2021_Jun_03_1005,WASABI Nback,2020.2.10,59.997756073821215,
0,1,3,"[0.2, 0.2]",None,0,1,1,1,,,,,0,0,0,0,0,55,55,55,,,,,,,,,,,413.7539663000207,None,413.7539663000207,414.7542836999928,414.73729310001363,415.7382971000043,-0.002777777777777778,-0.004166666666666667,None,1,413.7539663000207,None,,99,m,99,r,MS,2021_Jun_03_1005,WASABI Nback,2020.2.10,59.997756073821215,
0,1,9,"[0.2, -0.2]",1,0,1,1,1,,,,,0,0,0,0,0,56,56,56,,,,,,,,,,,415.755078599992,None,415.755078599992,416.7553711000073,416.7384577000048,None,-0.002777777777777778,-0.004166666666666667,None,0,415.755078599992,None,,99,m,99,r,MS,2021_Jun_03_1005,WASABI Nback,2020.2.10,59.997756073821215,
0,1,6,"[0.2, 0]",None,0,1,1,1,,,,,0,0,0,0,0,57,57,57,,,,,,,,,,,417.7390052000119,None,417.7390052000119,418.73991140001453,418.7228136000049,419.7232167000184,-0.002777777777777778,-0.004166666666666667,None,1,417.7390052000119,None,,99,m,99,r,MS,2021_Jun_03_1005,WASABI Nback,2020.2.10,59.997756073821215,
0,1,2,"[0, 0.2]",None,0,1,1,1,,,,,0,0,0,0,0,58,58,58,,,,,,,,,,,419.7400809999963,None,419.7400809999963,420.74021560000256,420.72372830001405,421.72457330001635,-0.002777777777777778,-0.004166666666666667,None,1,419.7400809999963,None,,99,m,99,r,MS,2021_Jun_03_1005,WASABI Nback,2020.2.10,59.997756073821215,
0,1,5,"[0, 0]",None,0,1,1,1,,,,,0,0,0,0,0,59,59,59,,,,,,,,,,,421.74100239999825,None,421.74100239999825,422.7414837999968,422.72445370000787,423.72528169999714,-0.002777777777777778,-0.004166666666666667,None,1,421.74100239999825,None,,99,m,99,r,MS,2021_Jun_03_1005,WASABI Nback,2020.2.10,59.997756073821215,
0,1,5,"[0, 0]",None,0,1,1,1,,,,,0,0,0,0,0,60,60,60,,,,,,,,,,,423.7420313000039,None,423.7420313000039,424.7423916000116,424.7256636999955,425.7263019999955,-0.002777777777777778,-0.004166666666666667,None,1,423.7420313000039,None,,99,m,99,r,MS,2021_Jun_03_1005,WASABI Nback,2020.2.10,59.997756073821215,
0,1,2,"[0, 0.2]",None,0,1,1,1,,,,,0,0,0,0,0,61,61,61,,,,,,,,,,,425.74275500001386,None,425.74275500001386,426.74370170000475,426.7266046000004,427.7271754000103,-0.05277777777777778,-0.025,None,1,425.74275500001386,None,,99,m,99,r,MS,2021_Jun_03_1005,WASABI Nback,2020.2.10,59.997756073821215,
0,1,6,"[0.2, 0]",None,0,1,1,1,,,,,0,0,0,0,0,62,62,62,,,,,,,,,,,427.7436571000144,None,427.7436571000144,428.7449634000077,428.7275387000118,429.7281634999963,-0.05277777777777778,-0.025,None,1,427.7436571000144,None,,99,m,99,r,MS,2021_Jun_03_1005,WASABI Nback,2020.2.10,59.997756073821215,
0,1,9,"[0.2, -0.2]",None,0,1,1,1,,,,,0,0,0,0,0,63,63,63,,,,,,,,,,,429.7446947999997,None,429.7446947999997,430.7451543000061,430.7283953000151,431.7289061000047,-0.05277777777777778,-0.025,None,1,429.7446947999997,None,,99,m,99,r,MS,2021_Jun_03_1005,WASABI Nback,2020.2.10,59.997756073821215,
0,1,3,"[0.2, 0.2]",None,0,1,1,1,,,,,0,0,0,0,0,64,64,64,,,,,,,,,,,431.7457524999918,None,431.7457524999918,432.7456225999922,432.7294901999994,433.7298827000195,-0.05277777777777778,-0.025,1,0,431.7457524999918,None,1.8892527999996673,99,m,99,r,MS,2021_Jun_03_1005,WASABI Nback,2020.2.10,59.997756073821215,
0,1,9,"[0.2, -0.2]",1,0,1,1,1,,,,,0,0,0,0,0,65,65,65,,,,,,,,,,,433.7465817000193,None,433.7465817000193,434.74704620000557,434.73011490001227,435.73179869999876,-0.05277777777777778,-0.025,None,0,433.7465817000193,None,,99,m,99,r,MS,2021_Jun_03_1005,WASABI Nback,2020.2.10,59.997756073821215,
0,1,7,"[-0.2, -0.2]",None,0,1,1,1,,,,,0,0,0,0,0,66,66,66,,,,,,,,,,,435.74747780000325,None,435.74747780000325,436.74811509999563,436.7315451000177,437.7317010000115,-0.05277777777777778,-0.025,None,1,435.74747780000325,None,,99,m,99,r,MS,2021_Jun_03_1005,WASABI Nback,2020.2.10,59.997756073821215,
0,1,1,"[-0.2, 0.2]",None,0,1,1,1,,,,,0,0,0,0,0,67,67,67,,,,,,,,,,,437.7486292000103,None,437.7486292000103,438.74858489999315,438.7322847000032,439.7328710000147,-0.05277777777777778,-0.025,None,1,437.7486292000103,None,,99,m,99,r,MS,2021_Jun_03_1005,WASABI Nback,2020.2.10,59.997756073821215,
0,1,5,"[0, 0]",None,0,1,1,1,,,,,0,0,0,0,0,68,68,68,,,,,,,,,,,439.7493962000008,None,439.7493962000008,440.74981460001436,440.73315549999825,441.7336185000022,-0.05555555555555555,-0.03194444444444444,None,1,439.7493962000008,None,,99,m,99,r,MS,2021_Jun_03_1005,WASABI Nback,2020.2.10,59.997756073821215,
0,1,7,"[-0.2, -0.2]",None,0,1,1,1,,,,,0,0,0,0,0,69,69,69,,,,,,,,,,,441.7504556000058,None,441.7504556000058,442.75085370001034,442.7340027000173,443.7346197000006,-0.05694444444444444,-0.03333333333333333,None,1,441.7504556000058,None,,99,m,99,r,MS,2021_Jun_03_1005,WASABI Nback,2020.2.10,59.997756073821215,
0,1,5,"[0, 0]",1,0,1,1,1,,,,,0,0,0,0,0,70,70,70,,,,,,,,,,,443.751010100008,None,443.751010100008,444.75170150000486,444.73497180000413,445.73555340000894,-0.058333333333333334,-0.03333333333333333,None,0,443.751010100008,None,,99,m,99,r,MS,2021_Jun_03_1005,WASABI Nback,2020.2.10,59.997756073821215,
0,1,6,"[0.2, 0]",None,0,1,1,1,,,,,0,0,0,0,0,71,71,71,,,,,,,,,,,445.7520680000016,None,445.7520680000016,446.75256379999337,446.7361879000091,447.7366275000095,-0.058333333333333334,-0.03333333333333333,None,1,445.7520680000016,None,,99,m,99,r,MS,2021_Jun_03_1005,WASABI Nback,2020.2.10,59.997756073821215,
0,1,3,"[0.2, 0.2]",None,0,1,1,1,,,,,0,0,0,0,0,72,72,72,,,,,,,,,,,447.7538380000042,None,447.7538380000042,448.75370920001296,448.73696370000835,449.7374489000067,-0.058333333333333334,-0.03333333333333333,None,1,447.7538380000042,None,,99,m,99,r,MS,2021_Jun_03_1005,WASABI Nback,2020.2.10,59.997756073821215,
0,1,6,"[0.2, 0]",1,0,1,1,1,,,,,0,0,0,0,0,73,73,73,,,,,,,,,,,449.75417030000244,None,449.75417030000244,450.7547002999927,450.73801960001583,451.73829589999514,-0.05694444444444444,-0.034722222222222224,None,0,449.75417030000244,None,,99,m,99,r,MS,2021_Jun_03_1005,WASABI Nback,2020.2.10,59.997756073821215,
0,1,8,"[0, -0.2]",None,0,1,1,1,,,,,0,0,0,0,0,74,74,74,,,,,,,,,,,451.75503749999916,None,451.75503749999916,452.7549832999939,452.738789199997,None,-0.05694444444444444,-0.034722222222222224,None,1,451.75503749999916,None,,99,m,99,r,MS,2021_Jun_03_1005,WASABI Nback,2020.2.10,59.997756073821215,
0,1,9,"[0.2, -0.2]",None,0,1,1,1,,,,,0,0,0,0,0,75,75,75,,,,,,,,,,,453.7392197000154,None,453.7392197000154,454.7398393000185,454.72291949999635,455.72378620001837,-0.05694444444444444,-0.034722222222222224,1,0,453.7392197000154,None,1.9225039000157267,99,m,99,r,MS,2021_Jun_03_1005,WASABI Nback,2020.2.10,59.997756073821215,
0,1,9,"[0.2, -0.2]",None,0,1,1,1,,,,,0,0,0,0,0,76,76,76,,,,,,,,,,,455.7402810000058,None,455.7402810000058,456.7403700000141,456.7240808000206,457.72476710000774,-0.05694444444444444,-0.034722222222222224,None,1,455.7402810000058,None,,99,m,99,r,MS,2021_Jun_03_1005,WASABI Nback,2020.2.10,59.997756073821215,
0,1,1,"[-0.2, 0.2]",None,0,1,1,1,,,,,0,0,0,0,0,77,77,77,,,,,,,,,,,457.74189940001816,None,457.74189940001816,458.74247739999555,458.7250241000147,459.7254976000113,-0.05694444444444444,-0.03611111111111111,None,1,457.74189940001816,None,,99,m,99,r,MS,2021_Jun_03_1005,WASABI Nback,2020.2.10,59.997756073821215,
0,1,3,"[0.2, 0.2]",None,0,1,1,1,,,,,0,0,0,0,0,78,78,78,,,,,,,,,,,459.742467700009,None,459.742467700009,460.74257470000884,460.72583760001,461.7263865999994,-0.05694444444444444,-0.03611111111111111,None,1,459.742467700009,None,,99,m,99,r,MS,2021_Jun_03_1005,WASABI Nback,2020.2.10,59.997756073821215,
0,1,5,"[0, 0]",None,0,1,1,1,,,,,0,0,0,0,0,79,79,79,,,,,,,,,,,461.7428915000055,None,461.7428915000055,462.7436077000166,462.72681950000697,463.726978199993,-0.05694444444444444,-0.03611111111111111,None,1,461.7428915000055,None,,99,m,99,r,MS,2021_Jun_03_1005,WASABI Nback,2020.2.10,59.997756073821215,
0,1,3,"[0.2, 0.2]",1,0,1,1,1,,,,,0,0,0,0,0,80,80,80,,,,,,,,,,,463.743968099996,None,463.743968099996,464.7443517000065,464.7273724999977,465.7280854000128,-0.05694444444444444,-0.03611111111111111,None,0,463.743968099996,None,,99,m,99,r,MS,2021_Jun_03_1005,WASABI Nback,2020.2.10,59.997756073821215,
0,1,4,"[-0.2, 0]",None,0,1,1,1,,,,,0,0,0,0,0,81,81,81,,,,,,,,,,,465.7453492000059,None,465.7453492000059,466.7454735999927,466.7287197000114,467.7292607999989,-0.05694444444444444,-0.03611111111111111,None,1,465.7453492000059,None,,99,m,99,r,MS,2021_Jun_03_1005,WASABI Nback,2020.2.10,59.997756073821215,
0,1,7,"[-0.2, -0.2]",None,0,1,1,1,,,,,0,0,0,0,0,82,82,82,,,,,,,,,,,467.74577150002006,None,467.74577150002006,468.7463914999971,468.72954600001685,469.7301182000083,-0.05694444444444444,-0.03611111111111111,None,1,467.74577150002006,None,,99,m,99,r,MS,2021_Jun_03_1005,WASABI Nback,2020.2.10,59.997756073821215,
0,1,4,"[-0.2, 0]",1,0,1,1,1,,,,,0,0,0,0,0,83,83,83,,,,,,,,,,,469.7467864000064,None,469.7467864000064,470.74721130001126,470.7307722000114,471.7309004999988,-0.05694444444444444,-0.03611111111111111,None,0,469.7467864000064,None,,99,m,99,r,MS,2021_Jun_03_1005,WASABI Nback,2020.2.10,59.997756073821215,
0,1,4,"[-0.2, 0]",None,0,1,1,1,,,,,0,0,0,0,0,84,84,84,,,,,,,,,,,471.74787469999865,None,471.74787469999865,472.7482408999931,472.7314682000142,473.73207319999347,-0.05694444444444444,-0.03611111111111111,None,1,471.74787469999865,None,,99,m,99,r,MS,2021_Jun_03_1005,WASABI Nback,2020.2.10,59.997756073821215,
0,1,5,"[0, 0]",None,0,1,1,1,,,,,0,0,0,0,0,85,85,85,,,,,,,,,,,473.7486642000149,None,473.7486642000149,474.7489997000084,474.73249389999546,475.7326346000191,-0.05694444444444444,-0.03611111111111111,None,1,473.7486642000149,None,,99,m,99,r,MS,2021_Jun_03_1005,WASABI Nback,2020.2.10,59.997756073821215,
0,1,2,"[0, 0.2]",None,0,1,1,1,,,,,0,0,0,0,0,86,86,86,,,,,,,,,,,475.74965370001155,None,475.74965370001155,476.75011220001034,476.73359479999635,477.7338037000154,-0.05694444444444444,-0.03611111111111111,None,1,475.74965370001155,None,,99,m,99,r,MS,2021_Jun_03_1005,WASABI Nback,2020.2.10,59.997756073821215,
0,1,6,"[0.2, 0]",None,0,1,1,1,,,,,0,0,0,0,0,87,87,87,,,,,,,,,,,477.7500990999979,None,477.7500990999979,478.75123090000125,478.73468300001696,479.73475239999243,-0.05694444444444444,-0.03611111111111111,None,1,477.7500990999979,None,,99,m,99,r,MS,2021_Jun_03_1005,WASABI Nback,2020.2.10,59.997756073821215,
0,1,7,"[-0.2, -0.2]",None,0,1,1,1,,,,,0,0,0,0,0,88,88,88,,,,,,,,,,,479.750967400003,None,479.750967400003,480.7520633999957,480.73565819999203,481.73573780001607,-0.05694444444444444,-0.03611111111111111,None,1,479.750967400003,None,,99,m,99,r,MS,2021_Jun_03_1005,WASABI Nback,2020.2.10,59.997756073821215,
0,1,6,"[0.2, 0]",1,0,1,1,1,,,,,0,0,0,0,0,89,89,89,,,,,,,,,,,481.75240860000486,None,481.75240860000486,482.7528059000033,482.7362106000073,483.7368470999936,-0.05694444444444444,-0.03611111111111111,None,0,481.75240860000486,None,,99,m,99,r,MS,2021_Jun_03_1005,WASABI Nback,2020.2.10,59.997756073821215,
0,1,6,"[0.2, 0]",None,0,1,1,1,,,,,0,0,0,0,0,90,90,90,,,,,,,,,,,483.75339200001326,None,483.75339200001326,484.75386709999293,484.73711710001226,485.73735750000924,-0.05694444444444444,-0.03611111111111111,None,1,483.75339200001326,None,,99,m,99,r,MS,2021_Jun_03_1005,WASABI Nback,2020.2.10,59.997756073821215,
0,1,7,"[-0.2, -0.2]",None,0,1,1,1,,,,,0,0,0,0,0,91,91,91,,,,,,,,,,,485.7543011000089,None,485.7543011000089,486.75483469999745,486.73793679999653,487.73928760000854,-0.05694444444444444,-0.03611111111111111,None,1,485.7543011000089,None,,99,m,99,r,MS,2021_Jun_03_1005,WASABI Nback,2020.2.10,59.997756073821215,
0,1,6,"[0.2, 0]",1,0,1,1,1,,,,,0,0,0,0,0,92,92,92,,,,,,,,,,,487.75510790001135,None,487.75510790001135,488.75559740001336,488.73908759999904,None,-0.05694444444444444,-0.03611111111111111,None,0,487.75510790001135,None,,99,m,99,r,MS,2021_Jun_03_1005,WASABI Nback,2020.2.10,59.997756073821215,
0,1,2,"[0, 0.2]",None,0,1,1,1,,,,,0,0,0,0,0,93,93,93,,,,,,,,,,,489.7393468999944,None,489.7393468999944,490.7399673000036,490.7231538000051,491.72362710000016,-0.05694444444444444,-0.03611111111111111,None,1,489.7393468999944,None,,99,m,99,r,MS,2021_Jun_03_1005,WASABI Nback,2020.2.10,59.997756073821215,
0,1,5,"[0, 0]",None,0,1,1,1,,,,,0,0,0,0,0,94,94,94,,,,,,,,,,,491.74042780001764,None,491.74042780001764,492.74090950001846,492.7240003000188,493.72475100000156,-0.05694444444444444,-0.03611111111111111,None,1,491.74042780001764,None,,99,m,99,r,MS,2021_Jun_03_1005,WASABI Nback,2020.2.10,59.997756073821215,
0,1,4,"[-0.2, 0]",None,0,1,1,1,,,,,0,0,0,0,0,95,95,95,,,,,,,,,,,493.74124870001106,None,493.74124870001106,494.7417047000199,494.72542550001526,495.72559370001545,-0.05277777777777778,-0.03888888888888889,None,1,493.74124870001106,None,,99,m,99,r,MS,2021_Jun_03_1005,WASABI Nback,2020.2.10,59.997756073821215,
0,1,4,"[-0.2, 0]",None,0,1,1,1,,,,,0,0,0,0,0,96,96,96,,,,,,,,,,,495.74216310001793,None,495.74216310001793,496.7429148000083,496.72630260000005,497.72643969999626,-0.05416666666666667,-0.044444444444444446,None,1,495.74216310001793,None,,99,m,99,r,MS,2021_Jun_03_1005,WASABI Nback,2020.2.10,59.997756073821215,
0,1,7,"[-0.2, -0.2]",None,0,1,1,1,,,,,0,0,0,0,0,97,97,97,,,,,,,,,,,497.74337800001376,None,497.74337800001376,498.74343309999676,498.72709530001157,499.7276484000031,-0.05416666666666667,-0.044444444444444446,None,1,497.74337800001376,None,,99,m,99,r,MS,2021_Jun_03_1005,WASABI Nback,2020.2.10,59.997756073821215,
0,1,4,"[-0.2, 0]",1,0,1,1,1,,,,,0,0,0,0,0,98,98,98,,,,,,,,,,,499.7442979000043,None,499.7442979000043,500.74462870002026,500.7278925999999,501.7284498999943,-0.05555555555555555,-0.044444444444444446,None,0,499.7442979000043,None,,99,m,99,r,MS,2021_Jun_03_1005,WASABI Nback,2020.2.10,59.997756073821215,
0,1,3,"[0.2, 0.2]",None,0,1,1,1,,,,,0,0,0,0,0,99,99,99,,,,,,,,,,,501.7446496000048,None,501.7446496000048,502.7456894000061,502.728895200009,503.72974730000715,-0.05555555555555555,-0.044444444444444446,None,1,501.7446496000048,None,,99,m,99,r,MS,2021_Jun_03_1005,WASABI Nback,2020.2.10,59.997756073821215,
0,1,5,"[0, 0]",None,0,1,1,1,,,,,0,0,0,0,0,100,100,100,,,,,,,,,,,503.7461985000118,None,503.7461985000118,504.7467369000078,504.72975430000224,505.73084740000195,-0.05694444444444444,-0.044444444444444446,None,1,503.7461985000118,None,,99,m,99,r,MS,2021_Jun_03_1005,WASABI Nback,2020.2.10,59.997756073821215,
0,1,3,"[0.2, 0.2]",1,0,1,1,1,,,,,0,0,0,0,0,101,101,101,,,,,,,,,,,505.74713530001463,None,505.74713530001463,506.7469488000206,506.730865599995,507.73123130001477,-0.05694444444444444,-0.044444444444444446,None,0,505.74713530001463,None,,99,m,99,r,MS,2021_Jun_03_1005,WASABI Nback,2020.2.10,59.997756073821215,
0,1,1,"[-0.2, 0.2]",None,0,1,1,1,,,,,0,0,0,0,0,102,102,102,,,,,,,,,,,507.7477887000132,None,507.7477887000132,508.7483990000037,508.73139880000963,509.7323207000154,-0.05694444444444444,-0.044444444444444446,None,1,507.7477887000132,None,,99,m,99,r,MS,2021_Jun_03_1005,WASABI Nback,2020.2.10,59.997756073821215,
0,1,9,"[0.2, -0.2]",None,0,1,1,1,,,,,0,0,0,0,0,103,103,103,,,,,,,,,,,509.7485977000033,None,509.7485977000033,510.7492376000155,510.7327605000173,511.73301110000466,-0.05694444444444444,-0.044444444444444446,None,1,509.7485977000033,None,,99,m,99,r,MS,2021_Jun_03_1005,WASABI Nback,2020.2.10,59.997756073821215,
0,1,9,"[0.2, -0.2]",None,0,1,1,1,,,,,0,0,0,0,0,104,104,104,,,,,,,,,,,511.7496981000004,None,511.7496981000004,512.7508760000055,512.7335779000132,513.7341676999931,-0.05694444444444444,-0.044444444444444446,None,1,511.7496981000004,None,,99,m,99,r,MS,2021_Jun_03_1005,WASABI Nback,2020.2.10,59.997756073821215,
0,1,8,"[0, -0.2]",None,0,1,1,1,,,,,0,0,0,0,0,105,105,105,,,,,,,,,,,513.7507251999923,None,513.7507251999923,514.7511008000001,514.7339983000129,515.7351079999935,-0.05694444444444444,-0.044444444444444446,None,1,513.7507251999923,None,,99,m,99,r,MS,2021_Jun_03_1005,WASABI Nback,2020.2.10,59.997756073821215,
0,1,6,"[0.2, 0]",None,0,1,1,1,,,,,0,0,0,0,0,106,106,106,,,,,,,,,,,515.7516301000142,None,515.7516301000142,516.7521899999992,516.7355900999974,517.7360420000041,-0.058333333333333334,-0.044444444444444446,None,1,515.7516301000142,None,,99,m,99,r,MS,2021_Jun_03_1005,WASABI Nback,2020.2.10,59.997756073821215,
0,1,3,"[0.2, 0.2]",None,0,1,1,1,,,,,0,0,0,0,0,107,107,107,,,,,,,,,,,517.7527294000029,None,517.7527294000029,518.752954800002,518.7364949000184,519.7368788000022,-0.058333333333333334,-0.044444444444444446,None,1,517.7527294000029,None,,99,m,99,r,MS,2021_Jun_03_1005,WASABI Nback,2020.2.10,59.997756073821215,
0,1,6,"[0.2, 0]",1,0,1,1,1,,,,,0,0,0,0,0,108,108,108,,,,,,,,,,,519.7535154999932,None,519.7535154999932,520.7542785000114,520.737309899996,521.737832999992,-0.058333333333333334,-0.044444444444444446,None,0,519.7535154999932,None,,99,m,99,r,MS,2021_Jun_03_1005,WASABI Nback,2020.2.10,59.997756073821215,
0,1,5,"[0, 0]",None,0,1,1,1,,,,,0,0,0,0,0,109,109,109,,,,,,,,,,,521.7540242999967,None,521.7540242999967,522.7550323000178,522.7383256000176,523.7387120000203,-0.058333333333333334,-0.044444444444444446,None,1,521.7540242999967,None,,99,m,99,r,MS,2021_Jun_03_1005,WASABI Nback,2020.2.10,59.997756073821215,
0,1,7,"[-0.2, -0.2]",None,0,1,1,1,,,,,0,0,0,0,0,110,110,110,,,,,,,,,,,523.7557167000195,None,523.7557167000195,524.7560967000027,524.7391067999997,None,-0.058333333333333334,-0.044444444444444446,None,1,523.7557167000195,None,,99,m,99,r,MS,2021_Jun_03_1005,WASABI Nback,2020.2.10,59.997756073821215,
0,1,5,"[0, 0]",1,0,1,1,1,,,,,0,0,0,0,0,111,111,111,,,,,,,,,,,525.7399034000118,None,525.7399034000118,526.7401818000071,526.7235290000099,527.7247287000064,-0.06111111111111111,-0.044444444444444446,None,0,525.7399034000118,None,,99,m,99,r,MS,2021_Jun_03_1005,WASABI Nback,2020.2.10,59.997756073821215,
0,1,1,"[-0.2, 0.2]",None,0,1,1,1,,,,,0,0,0,0,0,112,112,112,,,,,,,,,,,527.7409545000119,None,527.7409545000119,528.7414024000173,528.7254736000032,529.7253736999992,-0.0625,-0.05138888888888889,None,1,527.7409545000119,None,,99,m,99,r,MS,2021_Jun_03_1005,WASABI Nback,2020.2.10,59.997756073821215,
0,1,7,"[-0.2, -0.2]",None,0,1,1,1,,,,,0,0,0,0,0,113,113,113,,,,,,,,,,,529.7418883999926,None,529.7418883999926,530.742097600014,530.7256955000048,531.7260846999998,-0.0625,-0.05138888888888889,None,1,529.7418883999926,None,,99,m,99,r,MS,2021_Jun_03_1005,WASABI Nback,2020.2.10,59.997756073821215,
0,1,9,"[0.2, -0.2]",None,0,1,1,1,,,,,0,0,0,0,0,114,114,114,,,,,,,,,,,531.7425610999926,None,531.7425610999926,532.7430136000039,532.7263004000124,533.7268295999966,-0.06388888888888888,-0.05138888888888889,None,1,531.7425610999926,None,,99,m,99,r,MS,2021_Jun_03_1005,WASABI Nback,2020.2.10,59.997756073821215,
0,1,3,"[0.2, 0.2]",None,0,1,1,1,,,,,0,0,0,0,0,115,115,115,,,,,,,,,,,533.7434886000119,None,533.7434886000119,534.7440760000027,534.7272542999999,535.7275685000059,-0.06388888888888888,-0.05138888888888889,1,0,533.7434886000119,None,1.8348480999993626,99,m,99,r,MS,2021_Jun_03_1005,WASABI Nback,2020.2.10,59.997756073821215,
0,1,9,"[0.2, -0.2]",1,0,1,1,1,,,,,0,0,0,0,0,116,116,116,,,,,,,,,,,535.7443843999936,None,535.7443843999936,536.7450073999935,536.7279521000164,537.7286491999985,-0.06388888888888888,-0.05138888888888889,None,0,535.7443843999936,None,,99,m,99,r,MS,2021_Jun_03_1005,WASABI Nback,2020.2.10,59.997756073821215,
0,1,6,"[0.2, 0]",None,0,1,1,1,,,,,0,0,0,0,0,117,117,117,,,,,,,,,,,537.7453690000111,None,537.7453690000111,538.74566830002,538.7287505000131,539.729754,-0.06527777777777778,-0.05138888888888889,None,1,537.7453690000111,None,,99,m,99,r,MS,2021_Jun_03_1005,WASABI Nback,2020.2.10,59.997756073821215,
0,1,2,"[0, 0.2]",None,0,1,1,1,,,,,0,0,0,0,0,118,118,118,,,,,,,,,,,539.7462710000109,None,539.7462710000109,540.7466787000012,540.730163900007,541.7305287000199,-0.06527777777777778,-0.05138888888888889,None,1,539.7462710000109,None,,99,m,99,r,MS,2021_Jun_03_1005,WASABI Nback,2020.2.10,59.997756073821215,
0,1,5,"[0, 0]",None,0,1,1,1,,,,,0,0,0,0,0,119,119,119,,,,,,,,,,,541.747158800019,None,541.747158800019,542.7475106000202,542.7309955999954,543.7314753000101,-0.06527777777777778,-0.05138888888888889,None,1,541.747158800019,None,,99,m,99,r,MS,2021_Jun_03_1005,WASABI Nback,2020.2.10,59.997756073821215,
