square,location,corrAns,TaskT1Loop.thisRepN,TaskT1Loop.thisTrialN,TaskT1Loop.thisN,TaskT1Loop.thisIndex,trials_2.thisRepN,trials_2.thisTrialN,trials_2.thisN,trials_2.thisIndex,NbackInstructions.started,NbackInstructions.stopped,NbackStart.keys,NbackStart.rt,NbackStart.started,NbackStart.stopped,fixation_2.started,fixation_2.stopped,response_2.x,response_2.y,response_2.leftButton,response_2.rt,grid_lines_2.started,grid_lines_2.stopped,target_square_2.started,target_square_2.stopped,fixation_3.started,fixation_3.stopped,response_2.click,response_2.corr,response_2.started,response_2.stopped,subject number,gender,session,handedness,scanner,date,expName,psychopyVersion,frameRate,
,,,0,0,0,0,,,,,11.582118100021034,None,space,1.6665489999868441,11.582118100021034,None,,,,,,,,,,,,,,,,,99,m,99,r,MS,2021_Jun_03_1019,WASABI Nback,2020.2.10,60.046680295190555,
5,"[0, 0]",None,0,0,0,0,0,0,0,0,,,,,,,None,None,-0.006944444444444444,-0.14583333333333334,0,1.2969105999800377,14.655276200006483,None,14.655276200006483,15.667095200013136,15.633753300004173,None,None,1,14.655276200006483,None,99,m,99,r,MS,2021_Jun_03_1019,WASABI Nback,2020.2.10,60.046680295190555,
2,"[0, 0.2]",None,0,0,0,0,0,1,1,1,,,,,,,,,-0.15555555555555556,-0.2625,0,1.00136389999534,16.284313500014832,None,16.284313500014832,17.28424950002227,17.268198700010544,18.268453900003806,None,1,16.284313500014832,None,99,m,99,r,MS,2021_Jun_03_1019,WASABI Nback,2020.2.10,60.046680295190555,
6,"[0.2, 0]",None,0,0,0,0,0,2,2,2,,,,,,,,,-0.15555555555555556,-0.31666666666666665,0,0.26789640000788495,18.28520139999455,None,18.28520139999455,19.28609900001902,19.26875590000418,20.2694851999986,None,1,18.28520139999455,None,99,m,99,r,MS,2021_Jun_03_1019,WASABI Nback,2020.2.10,60.046680295190555,
9,"[0.2, -0.2]",None,0,0,0,0,0,3,3,3,,,,,,,,,-0.1625,-0.3236111111111111,0,0.10134350002044812,20.28566600001068,None,20.28566600001068,21.286475100001553,21.26973580001504,None,None,1,20.28566600001068,None,99,m,99,r,MS,2021_Jun_03_1019,WASABI Nback,2020.2.10,60.046680295190555,
3,"[0.2, 0.2]",None,0,0,0,0,0,4,4,4,,,,,,,,,-0.1625,-0.32916666666666666,0,0.3513657999865245,22.269945000007283,None,22.269945000007283,23.270895499998005,23.254325800022343,24.254557200009003,None,1,22.269945000007283,None,99,m,99,r,MS,2021_Jun_03_1019,WASABI Nback,2020.2.10,60.046680295190555,
9,"[0.2, -0.2]",1,0,0,0,0,0,5,5,5,,,,,,,,,-0.1625,-0.32916666666666666,0,0.26776580000296235,24.27148130000569,None,24.27148130000569,25.27196830001776,25.254950300004566,26.255767900001956,None,0,24.27148130000569,None,99,m,99,r,MS,2021_Jun_03_1019,WASABI Nback,2020.2.10,60.046680295190555,
7,"[-0.2, -0.2]",None,0,0,0,0,0,6,6,6,,,,,,,,,-0.16666666666666666,-0.3333333333333333,0,0.2706670000043232,26.272210600000108,None,26.272210600000108,27.272616700007347,27.256156799994642,28.2566058000084,None,1,26.272210600000108,None,99,m,99,r,MS,2021_Jun_03_1019,WASABI Nback,2020.2.10,60.046680295190555,
1,"[-0.2, 0.2]",None,0,0,0,0,0,7,7,7,,,,,,,,,-0.1736111111111111,-0.3388888888888889,0,0.28511129997787066,28.273239700007252,None,28.273239700007252,29.273457600007532,29.257062899996527,30.257454200007487,None,1,28.273239700007252,None,99,m,99,r,MS,2021_Jun_03_1019,WASABI Nback,2020.2.10,60.046680295190555,
5,"[0, 0]",None,0,0,0,0,0,8,8,8,,,,,,,,,-0.1736111111111111,-0.3388888888888889,0,0.26836360001470894,30.273794300010195,None,30.273794300010195,31.274680300004547,31.258173900016118,32.25843400001759,None,1,30.273794300010195,None,99,m,99,r,MS,2021_Jun_03_1019,WASABI Nback,2020.2.10,60.046680295190555,
7,"[-0.2, -0.2]",None,0,0,0,0,0,9,9,9,,,,,,,,,-0.17916666666666667,-0.34305555555555556,0,0.33370459999423474,32.2752442000201,None,32.2752442000201,33.27531680001994,33.25894070000504,34.259164600021904,None,1,32.2752442000201,None,99,m,99,r,MS,2021_Jun_03_1019,WASABI Nback,2020.2.10,60.046680295190555,
5,"[0, 0]",1,0,0,0,0,0,10,10,10,,,,,,,,,-0.17916666666666667,-0.34305555555555556,0,0.35158650000812486,34.276049900014186,None,34.276049900014186,35.276625200000126,35.25959319999674,36.260261999996146,None,0,34.276049900014186,None,99,m,99,r,MS,2021_Jun_03_1019,WASABI Nback,2020.2.10,60.046680295190555,
6,"[0.2, 0]",None,0,0,0,0,0,11,11,11,,,,,,,,,-0.18055555555555555,-0.34444444444444444,0,0.26707190001616254,36.276911199995084,None,36.276911199995084,37.277471400011564,37.26057490002131,38.26103900000453,None,1,36.276911199995084,None,99,m,99,r,MS,2021_Jun_03_1019,WASABI Nback,2020.2.10,60.046680295190555,
3,"[0.2, 0.2]",None,0,0,0,0,0,12,12,12,,,,,,,,,-0.18472222222222223,-0.3472222222222222,0,0.2182021999906283,38.2773924000212,None,38.2773924000212,39.27835860001505,39.26171880000038,40.262203999998746,None,1,38.2773924000212,None,99,m,99,r,MS,2021_Jun_03_1019,WASABI Nback,2020.2.10,60.046680295190555,
6,"[0.2, 0]",1,0,0,0,0,0,13,13,13,,,,,,,,,-0.18472222222222223,-0.3472222222222222,0,0.2513685000012629,40.27876330001163,None,40.27876330001163,41.278793800011044,41.2625842000125,42.26310110001941,None,0,40.27876330001163,None,99,m,99,r,MS,2021_Jun_03_1019,WASABI Nback,2020.2.10,60.046680295190555,
8,"[0, -0.2]",None,0,0,0,0,0,14,14,14,,,,,,,,,-0.18888888888888888,-0.3486111111111111,0,0.2679133999918122,42.279380399995716,None,42.279380399995716,43.28018719999818,43.26331460001529,44.264656500017736,None,1,42.279380399995716,None,99,m,99,r,MS,2021_Jun_03_1019,WASABI Nback,2020.2.10,60.046680295190555,
9,"[0.2, -0.2]",None,0,0,0,0,0,15,15,15,,,,,,,,,-0.18888888888888888,-0.3486111111111111,0,0.30155189998913556,44.28028619999532,None,44.28028619999532,45.28117520001251,45.26470080000581,46.26476280001225,None,1,44.28028619999532,None,99,m,99,r,MS,2021_Jun_03_1019,WASABI Nback,2020.2.10,60.046680295190555,
9,"[0.2, -0.2]",None,0,0,0,0,0,16,16,16,,,,,,,,,-0.19305555555555556,-0.35138888888888886,0,0.23396769998362288,46.28163320000749,None,46.28163320000749,47.28172870000708,47.265326699998695,48.2659347000008,None,1,46.28163320000749,None,99,m,99,r,MS,2021_Jun_03_1019,WASABI Nback,2020.2.10,60.046680295190555,
1,"[-0.2, 0.2]",None,0,0,0,0,0,17,17,17,,,,,,,,,-0.19305555555555556,-0.35138888888888886,0,0.23330469999928027,48.2833982000011,None,48.2833982000011,49.283044700016035,49.266344400006346,50.266856400005054,None,1,48.2833982000011,None,99,m,99,r,MS,2021_Jun_03_1019,WASABI Nback,2020.2.10,60.046680295190555,
3,"[0.2, 0.2]",None,0,0,0,0,0,18,18,18,,,,,,,,,-0.19583333333333333,-0.3541666666666667,0,0.2672794999962207,50.283479800011264,None,50.283479800011264,51.28396349999821,51.26738740000292,52.26727250000113,None,1,50.283479800011264,None,99,m,99,r,MS,2021_Jun_03_1019,WASABI Nback,2020.2.10,60.046680295190555,
5,"[0, 0]",None,0,0,0,0,0,19,19,19,,,,,,,,,-0.19583333333333333,-0.3541666666666667,0,0.3039804000000004,52.284554600017145,None,52.284554600017145,53.28502030001255,53.26835620001657,54.26816960002179,None,1,52.284554600017145,None,99,m,99,r,MS,2021_Jun_03_1019,WASABI Nback,2020.2.10,60.046680295190555,
3,"[0.2, 0.2]",1,0,0,0,0,0,20,20,20,,,,,,,,,-0.19722222222222222,-0.35555555555555557,0,0.3011088000203017,54.285098099993775,None,54.285098099993775,55.28573289999622,55.26903440000024,56.26959340000758,None,0,54.285098099993775,None,99,m,99,r,MS,2021_Jun_03_1019,WASABI Nback,2020.2.10,60.046680295190555,
4,"[-0.2, 0]",None,0,0,0,0,0,21,21,21,,,,,,,,,-0.1986111111111111,-0.35694444444444445,1,1.9688476000155788,56.28647069999715,None,56.28647069999715,57.28664590002154,57.2700160999957,None,1,0,56.28647069999715,None,99,m,99,r,MS,2021_Jun_03_1019,WASABI Nback,2020.2.10,60.046680295190555,
7,"[-0.2, -0.2]",None,0,0,0,0,0,22,22,22,,,,,,,,,-0.2,-0.35694444444444445,0,0.0,58.270357300003525,None,58.270357300003525,59.27089870002237,59.25447240000358,60.25487070000963,None,1,58.270357300003525,None,99,m,99,r,MS,2021_Jun_03_1019,WASABI Nback,2020.2.10,60.046680295190555,
4,"[-0.2, 0]",1,0,0,0,0,0,23,23,23,,,,,,,,,-0.2,-0.35833333333333334,0,0.25092799999401905,60.27157370001078,None,60.27157370001078,61.27188960000058,61.25529679999454,62.255610799998976,None,0,60.27157370001078,None,99,m,99,r,MS,2021_Jun_03_1019,WASABI Nback,2020.2.10,60.046680295190555,
4,"[-0.2, 0]",None,0,0,0,0,0,24,24,24,,,,,,,,,-0.2013888888888889,-0.35833333333333334,0,0.10123880000901408,62.27256189999753,None,62.27256189999753,63.27296460000798,63.256524299999,64.25677910001832,None,1,62.27256189999753,None,99,m,99,r,MS,2021_Jun_03_1019,WASABI Nback,2020.2.10,60.046680295190555,
5,"[0, 0]",None,0,0,0,0,0,25,25,25,,,,,,,,,-0.20277777777777778,-0.3597222222222222,0,0.017469899990828708,64.27339159999974,None,64.27339159999974,65.2737490000145,65.25712200000999,66.25766120001208,None,1,64.27339159999974,None,99,m,99,r,MS,2021_Jun_03_1019,WASABI Nback,2020.2.10,60.046680295190555,
2,"[0, 0.2]",None,0,0,0,0,0,26,26,26,,,,,,,,,-0.20416666666666666,-0.3611111111111111,0,0.21757809998234734,66.27472509999643,None,66.27472509999643,67.27488959999755,67.25793419999536,68.2580966000096,None,1,66.27472509999643,None,99,m,99,r,MS,2021_Jun_03_1019,WASABI Nback,2020.2.10,60.046680295190555,
6,"[0.2, 0]",None,0,0,0,0,0,27,27,27,,,,,,,,,-0.20416666666666666,-0.3611111111111111,0,0.20393419999163598,68.27529890000005,None,68.27529890000005,69.27569700000458,69.25900449999608,70.2595271000173,None,1,68.27529890000005,None,99,m,99,r,MS,2021_Jun_03_1019,WASABI Nback,2020.2.10,60.046680295190555,
7,"[-0.2, -0.2]",None,0,0,0,0,0,28,28,28,,,,,,,,,-0.20416666666666666,-0.3611111111111111,0,0.11736849998123944,70.27622060000431,None,70.27622060000431,71.27702120001777,71.26001030000043,72.26044990000082,None,1,70.27622060000431,None,99,m,99,r,MS,2021_Jun_03_1019,WASABI Nback,2020.2.10,60.046680295190555,
6,"[0.2, 0]",1,0,0,0,0,0,29,29,29,,,,,,,,,-0.20416666666666666,-0.3611111111111111,0,0.26789000001735985,72.27711560000898,None,72.27711560000898,73.27761610000744,73.26097070000833,74.26127740001539,None,0,72.27711560000898,None,99,m,99,r,MS,2021_Jun_03_1019,WASABI Nback,2020.2.10,60.046680295190555,
6,"[0.2, 0]",None,0,0,0,0,0,30,30,30,,,,,,,,,-0.20416666666666666,-0.3611111111111111,0,0.16725350002525374,74.27821330001461,None,74.27821330001461,75.2783189000038,75.26184650001233,76.26232010000967,None,1,74.27821330001461,None,99,m,99,r,MS,2021_Jun_03_1019,WASABI Nback,2020.2.10,60.046680295190555,
7,"[-0.2, -0.2]",None,0,0,0,0,0,31,31,31,,,,,,,,,-0.20416666666666666,-0.3611111111111111,0,0.20044409998808987,76.27894829999423,None,76.27894829999423,77.27946260001045,77.26265600000625,78.2632649000152,None,1,76.27894829999423,None,99,m,99,r,MS,2021_Jun_03_1019,WASABI Nback,2020.2.10,60.046680295190555,
6,"[0.2, 0]",1,0,0,0,0,0,32,32,32,,,,,,,,,-0.20555555555555555,-0.3625,0,0.1845521000213921,78.27954670001054,None,78.27954670001054,79.28032260001055,79.26380270000664,80.26420730000245,None,0,78.27954670001054,None,99,m,99,r,MS,2021_Jun_03_1019,WASABI Nback,2020.2.10,60.046680295190555,
2,"[0, 0.2]",None,0,0,0,0,0,33,33,33,,,,,,,,,-0.20694444444444443,-0.3625,0,0.13435609999578446,80.28113390001818,None,80.28113390001818,81.281312600011,81.26467390000471,82.26565560000017,None,1,80.28113390001818,None,99,m,99,r,MS,2021_Jun_03_1019,WASABI Nback,2020.2.10,60.046680295190555,
5,"[0, 0]",None,0,0,0,0,0,34,34,34,,,,,,,,,-0.20833333333333334,-0.375,0,0.2007308999891393,82.28187210002216,None,82.28187210002216,83.28240460000234,83.26568830001634,84.26596230000723,None,1,82.28187210002216,None,99,m,99,r,MS,2021_Jun_03_1019,WASABI Nback,2020.2.10,60.046680295190555,
4,"[-0.2, 0]",None,0,0,0,0,0,35,35,35,,,,,,,,,-0.20833333333333334,-0.375,0,0.3013521000102628,84.28270700000576,None,84.28270700000576,85.2832779000164,85.26645840000128,86.26718130000518,None,1,84.28270700000576,None,99,m,99,r,MS,2021_Jun_03_1019,WASABI Nback,2020.2.10,60.046680295190555,
4,"[-0.2, 0]",None,0,0,0,0,0,36,36,36,,,,,,,,,-0.20833333333333334,-0.375,0,0.0034808999917004257,86.2834347000171,None,86.2834347000171,87.28412120000576,87.2675894999993,88.26805080001941,None,1,86.2834347000171,None,99,m,99,r,MS,2021_Jun_03_1019,WASABI Nback,2020.2.10,60.046680295190555,
7,"[-0.2, -0.2]",None,0,0,0,0,0,37,37,37,,,,,,,,,-0.20833333333333334,-0.375,0,0.28381660001468845,88.28467059999821,None,88.28467059999821,89.28462710001622,89.26842639999813,90.26932809999562,None,1,88.28467059999821,None,99,m,99,r,MS,2021_Jun_03_1019,WASABI Nback,2020.2.10,60.046680295190555,
4,"[-0.2, 0]",1,0,0,0,0,0,38,38,38,,,,,,,,,-0.20833333333333334,-0.375,0,0.13377970000146888,90.2855339999951,None,90.2855339999951,91.28611020001699,91.26948469999479,92.26993750000838,None,0,90.2855339999951,None,99,m,99,r,MS,2021_Jun_03_1019,WASABI Nback,2020.2.10,60.046680295190555,
3,"[0.2, 0.2]",None,0,0,0,0,0,39,39,39,,,,,,,,,-0.20833333333333334,-0.375,0,0.23401760001434013,92.28652100000181,None,92.28652100000181,93.28694109999924,93.27045300000464,None,None,1,92.28652100000181,None,99,m,99,r,MS,2021_Jun_03_1019,WASABI Nback,2020.2.10,60.046680295190555,
5,"[0, 0]",None,0,0,0,0,0,40,40,40,,,,,,,,,-0.20833333333333334,-0.375,0,0.41779680000036024,94.27058780001244,None,94.27058780001244,95.2712373000104,95.2545841000101,96.25509550000424,None,1,94.27058780001244,None,99,m,99,r,MS,2021_Jun_03_1019,WASABI Nback,2020.2.10,60.046680295190555,
3,"[0.2, 0.2]",1,0,0,0,0,0,41,41,41,,,,,,,,,-0.20833333333333334,-0.375,0,0.15054450000752695,96.27171150001232,None,96.27171150001232,97.27200300002005,97.2555321000109,98.25543390001985,None,0,96.27171150001232,None,99,m,99,r,MS,2021_Jun_03_1019,WASABI Nback,2020.2.10,60.046680295190555,
1,"[-0.2, 0.2]",None,0,0,0,0,0,42,42,42,,,,,,,,,-0.20833333333333334,-0.375,0,0.30072369999834336,98.27248600000166,None,98.27248600000166,99.27328300001682,99.25628960001632,100.25695540002198,None,1,98.27248600000166,None,99,m,99,r,MS,2021_Jun_03_1019,WASABI Nback,2020.2.10,60.046680295190555,
9,"[0.2, -0.2]",None,0,0,0,0,0,43,43,43,,,,,,,,,-0.20833333333333334,-0.375,0,0.1671249000064563,100.2736608000123,None,100.2736608000123,101.27410730000702,101.2574600999942,102.25832550000632,None,1,100.2736608000123,None,99,m,99,r,MS,2021_Jun_03_1019,WASABI Nback,2020.2.10,60.046680295190555,
9,"[0.2, -0.2]",None,0,0,0,0,0,44,44,44,,,,,,,,,-0.20833333333333334,-0.375,0,0.30061200002091937,102.27433499999461,None,102.27433499999461,103.2750455000205,103.25835290001123,104.25875510001788,None,1,102.27433499999461,None,99,m,99,r,MS,2021_Jun_03_1019,WASABI Nback,2020.2.10,60.046680295190555,
8,"[0, -0.2]",None,0,0,0,0,0,45,45,45,,,,,,,,,-0.20833333333333334,-0.375,0,0.21754730000975542,104.27534550000564,None,104.27534550000564,105.27611090001301,105.25914619999821,106.25963879999472,None,1,104.27534550000564,None,99,m,99,r,MS,2021_Jun_03_1019,WASABI Nback,2020.2.10,60.046680295190555,
6,"[0.2, 0]",None,0,0,0,0,0,46,46,46,,,,,,,,,-0.20833333333333334,-0.375,0,0.3174882000021171,106.27635990001727,None,106.27635990001727,107.27683190000243,107.26017029999639,108.26068710000254,None,1,106.27635990001727,None,99,m,99,r,MS,2021_Jun_03_1019,WASABI Nback,2020.2.10,60.046680295190555,
3,"[0.2, 0.2]",None,0,0,0,0,0,47,47,47,,,,,,,,,-0.20833333333333334,-0.375,0,0.0,108.27685600001132,None,108.27685600001132,109.27791410000646,109.26140899999882,110.26158469999791,None,1,108.27685600001132,None,99,m,99,r,MS,2021_Jun_03_1019,WASABI Nback,2020.2.10,60.046680295190555,
6,"[0.2, 0]",1,0,0,0,0,0,48,48,48,,,,,,,,,-0.20833333333333334,-0.375,0,0.1342329999897629,110.27807010000106,None,110.27807010000106,111.27859150001314,111.26213240000652,112.2623886000074,None,0,110.27807010000106,None,99,m,99,r,MS,2021_Jun_03_1019,WASABI Nback,2020.2.10,60.046680295190555,
5,"[0, 0]",None,0,0,0,0,0,49,49,49,,,,,,,,,-0.20833333333333334,-0.375,0,0.23395789999631234,112.27928030001931,None,112.27928030001931,113.27965800001402,113.26302490002126,114.2634085000027,None,1,112.27928030001931,None,99,m,99,r,MS,2021_Jun_03_1019,WASABI Nback,2020.2.10,60.046680295190555,
7,"[-0.2, -0.2]",None,0,0,0,0,0,50,50,50,,,,,,,,,-0.20833333333333334,-0.375,0,0.2380377000081353,114.27974580001319,None,114.27974580001319,115.2805847999989,115.26449160001357,116.26429469999857,None,1,114.27974580001319,None,99,m,99,r,MS,2021_Jun_03_1019,WASABI Nback,2020.2.10,60.046680295190555,
5,"[0, 0]",1,0,0,0,0,0,51,51,51,,,,,,,,,-0.20833333333333334,-0.375,0,0.26648910000221804,116.28190530001302,None,116.28190530001302,117.28167500000563,117.26497330001439,118.26539780001622,None,0,116.28190530001302,None,99,m,99,r,MS,2021_Jun_03_1019,WASABI Nback,2020.2.10,60.046680295190555,
1,"[-0.2, 0.2]",None,0,0,0,0,0,52,52,52,,,,,,,,,-0.5680555555555555,-0.4777777777777778,0,0.0,118.28204849999747,None,118.28204849999747,119.28284630001872,119.26579050000873,120.26737099999445,None,1,118.28204849999747,None,99,m,99,r,MS,2021_Jun_03_1019,WASABI Nback,2020.2.10,60.046680295190555,
7,"[-0.2, -0.2]",None,0,0,0,0,0,53,53,53,,,,,,,,,-0.5680555555555555,-0.4777777777777778,0,0.0,120.28472789999796,None,120.28472789999796,121.30041300001903,121.26669700001366,122.26811330000055,None,1,120.28472789999796,None,99,m,99,r,MS,2021_Jun_03_1019,WASABI Nback,2020.2.10,60.046680295190555,
9,"[0.2, -0.2]",None,0,0,0,0,0,54,54,54,,,,,,,,,-0.5680555555555555,-0.4777777777777778,0,0.0,122.28534250002122,None,122.28534250002122,123.28523020001012,123.26814640001976,124.26847480001743,None,1,122.28534250002122,None,99,m,99,r,MS,2021_Jun_03_1019,WASABI Nback,2020.2.10,60.046680295190555,
3,"[0.2, 0.2]",None,0,0,0,0,0,55,55,55,,,,,,,,,-0.5680555555555555,-0.4777777777777778,0,0.0,124.29460860000108,None,124.29460860000108,125.30217169999378,125.26881710000453,126.2690094000136,None,1,124.29460860000108,None,99,m,99,r,MS,2021_Jun_03_1019,WASABI Nback,2020.2.10,60.046680295190555,
9,"[0.2, -0.2]",1,0,0,0,0,0,56,56,56,,,,,,,,,-0.5680555555555555,-0.4777777777777778,0,0.0,126.28580690000672,None,126.28580690000672,127.28632149999612,127.26956760001485,128.26970130001428,None,0,126.28580690000672,None,99,m,99,r,MS,2021_Jun_03_1019,WASABI Nback,2020.2.10,60.046680295190555,
6,"[0.2, 0]",None,0,0,0,0,0,57,57,57,,,,,,,,,-0.5680555555555555,-0.4777777777777778,0,0.0,128.28681710001547,None,128.28681710001547,129.28731060001883,129.27041590001318,None,None,1,128.28681710001547,None,99,m,99,r,MS,2021_Jun_03_1019,WASABI Nback,2020.2.10,60.046680295190555,
2,"[0, 0.2]",None,0,0,0,0,0,58,58,58,,,,,,,,,-0.5680555555555555,-0.4777777777777778,0,0.0,130.27105189999565,None,130.27105189999565,131.27152490001754,131.2546801000135,132.25503110000864,None,1,130.27105189999565,None,99,m,99,r,MS,2021_Jun_03_1019,WASABI Nback,2020.2.10,60.046680295190555,
5,"[0, 0]",None,0,0,0,0,0,59,59,59,,,,,,,,,-0.5680555555555555,-0.4777777777777778,0,0.0,132.27181120001478,None,132.27181120001478,133.2724162999948,133.25563110000803,134.25629410002148,None,1,132.27181120001478,None,99,m,99,r,MS,2021_Jun_03_1019,WASABI Nback,2020.2.10,60.046680295190555,
5,"[0, 0]",None,0,0,0,0,0,60,60,60,,,,,,,,,-0.5680555555555555,-0.4777777777777778,0,0.0,134.27281480000238,None,134.27281480000238,135.27319140001782,135.25660860000062,136.25734520002152,None,1,134.27281480000238,None,99,m,99,r,MS,2021_Jun_03_1019,WASABI Nback,2020.2.10,60.046680295190555,
2,"[0, 0.2]",None,0,0,0,0,0,61,61,61,,,,,,,,,-0.5680555555555555,-0.4777777777777778,0,0.0,136.274081200012,None,136.274081200012,137.2751596000162,137.2579820000101,138.25919080001768,None,1,136.274081200012,None,99,m,99,r,MS,2021_Jun_03_1019,WASABI Nback,2020.2.10,60.046680295190555,
6,"[0.2, 0]",None,0,0,0,0,0,62,62,62,,,,,,,,,-0.5680555555555555,-0.4777777777777778,0,0.0,138.28428799999529,None,138.28428799999529,139.2925579000148,139.27496080001583,None,None,1,138.28428799999529,None,99,m,99,r,MS,2021_Jun_03_1019,WASABI Nback,2020.2.10,60.046680295190555,
9,"[0.2, -0.2]",None,0,0,0,0,0,63,63,63,,,,,,,,,-0.5680555555555555,-0.4777777777777778,0,0.0,140.2765642000013,None,140.2765642000013,141.27638450000086,141.25936860000365,142.2609113000217,None,1,140.2765642000013,None,99,m,99,r,MS,2021_Jun_03_1019,WASABI Nback,2020.2.10,60.046680295190555,
3,"[0.2, 0.2]",None,0,0,0,0,0,64,64,64,,,,,,,,,-0.5680555555555555,-0.4777777777777778,0,0.0,142.2772871000052,None,142.2772871000052,143.2781157999998,143.26865710000857,None,None,1,142.2772871000052,None,99,m,99,r,MS,2021_Jun_03_1019,WASABI Nback,2020.2.10,60.046680295190555,
9,"[0.2, -0.2]",1,0,0,0,0,0,65,65,65,,,,,,,,,-0.5680555555555555,-0.4777777777777778,0,0.0,144.27913730000728,None,144.27913730000728,145.27841339999577,145.26241490000393,146.26229800001602,None,0,144.27913730000728,None,99,m,99,r,MS,2021_Jun_03_1019,WASABI Nback,2020.2.10,60.046680295190555,
7,"[-0.2, -0.2]",None,0,0,0,0,0,66,66,66,,,,,,,,,-0.5680555555555555,-0.4777777777777778,0,0.0,146.27917970001,None,146.27917970001,147.27905219999957,147.26349090001895,148.26617879999685,None,1,146.27917970001,None,99,m,99,r,MS,2021_Jun_03_1019,WASABI Nback,2020.2.10,60.046680295190555,
1,"[-0.2, 0.2]",None,0,0,0,0,0,67,67,67,,,,,,,,,-0.5680555555555555,-0.4777777777777778,0,0.0,148.28307230002247,None,148.28307230002247,149.28035360001377,149.26710120000644,None,None,1,148.28307230002247,None,99,m,99,r,MS,2021_Jun_03_1019,WASABI Nback,2020.2.10,60.046680295190555,
5,"[0, 0]",None,0,0,0,0,0,68,68,68,,,,,,,,,-0.5680555555555555,-0.4777777777777778,0,0.0,150.28020540002035,None,150.28020540002035,151.2846419000125,151.266835300019,None,None,1,150.28020540002035,None,99,m,99,r,MS,2021_Jun_03_1019,WASABI Nback,2020.2.10,60.046680295190555,
7,"[-0.2, -0.2]",None,0,0,0,0,0,69,69,69,,,,,,,,,-0.5680555555555555,-0.4777777777777778,0,0.0,152.2815072000085,None,152.2815072000085,153.28140259999782,153.26572009999654,154.26628820001497,None,1,152.2815072000085,None,99,m,99,r,MS,2021_Jun_03_1019,WASABI Nback,2020.2.10,60.046680295190555,
5,"[0, 0]",1,0,0,0,0,0,70,70,70,,,,,,,,,-0.5680555555555555,-0.4777777777777778,0,0.0,154.28226589999394,None,154.28226589999394,155.2823625000019,155.2674270000134,156.26713710001786,None,0,154.28226589999394,None,99,m,99,r,MS,2021_Jun_03_1019,WASABI Nback,2020.2.10,60.046680295190555,
6,"[0.2, 0]",None,0,0,0,0,0,71,71,71,,,,,,,,,-0.5680555555555555,-0.4777777777777778,0,0.0,156.28321100000176,None,156.28321100000176,157.2832316000131,157.26773479999974,158.2679732000106,None,1,156.28321100000176,None,99,m,99,r,MS,2021_Jun_03_1019,WASABI Nback,2020.2.10,60.046680295190555,
3,"[0.2, 0.2]",None,0,0,0,0,0,72,72,72,,,,,,,,,-0.5680555555555555,-0.4777777777777778,0,0.0,158.28366499999538,None,158.28366499999538,159.28456960001495,159.26891949999845,160.269111600006,None,1,158.28366499999538,None,99,m,99,r,MS,2021_Jun_03_1019,WASABI Nback,2020.2.10,60.046680295190555,
6,"[0.2, 0]",1,0,0,0,0,0,73,73,73,,,,,,,,,-0.5680555555555555,-0.4777777777777778,0,0.0,160.28486860002158,None,160.28486860002158,161.28534780000336,161.26961030001985,162.2698611000087,None,0,160.28486860002158,None,99,m,99,r,MS,2021_Jun_03_1019,WASABI Nback,2020.2.10,60.046680295190555,
8,"[0, -0.2]",None,0,0,0,0,0,74,74,74,,,,,,,,,-0.5680555555555555,-0.4777777777777778,0,0.0,162.28590489999624,None,162.28590489999624,163.28616459999466,163.27055200000177,None,None,1,162.28590489999624,None,99,m,99,r,MS,2021_Jun_03_1019,WASABI Nback,2020.2.10,60.046680295190555,
9,"[0.2, -0.2]",None,0,0,0,0,0,75,75,75,,,,,,,,,-0.5680555555555555,-0.4777777777777778,0,0.0,164.2709765000036,None,164.2709765000036,165.27200580001227,165.25366060002125,166.25830080002197,None,1,164.2709765000036,None,99,m,99,r,MS,2021_Jun_03_1019,WASABI Nback,2020.2.10,60.046680295190555,
9,"[0.2, -0.2]",None,0,0,0,0,0,76,76,76,,,,,,,,,-0.5680555555555555,-0.4777777777777778,0,0.0,166.27496730000712,None,166.27496730000712,167.28831110001192,167.25470459999633,168.25537150001037,None,1,166.27496730000712,None,99,m,99,r,MS,2021_Jun_03_1019,WASABI Nback,2020.2.10,60.046680295190555,
1,"[-0.2, 0.2]",None,0,0,0,0,0,77,77,77,,,,,,,,,-0.5680555555555555,-0.4777777777777778,0,0.0,168.27253899999778,None,168.27253899999778,169.27327750000404,169.25569849999738,170.25609840001562,None,1,168.27253899999778,None,99,m,99,r,MS,2021_Jun_03_1019,WASABI Nback,2020.2.10,60.046680295190555,
3,"[0.2, 0.2]",None,0,0,0,0,0,78,78,78,,,,,,,,,-0.5680555555555555,-0.4777777777777778,0,0.0,170.27321490002214,None,170.27321490002214,171.27390950001427,171.2564503000176,172.25715990000754,None,1,170.27321490002214,None,99,m,99,r,MS,2021_Jun_03_1019,WASABI Nback,2020.2.10,60.046680295190555,
5,"[0, 0]",None,0,0,0,0,0,79,79,79,,,,,,,,,-0.5680555555555555,-0.4777777777777778,0,0.0,172.27415219999966,None,172.27415219999966,173.2747789999994,173.25749600000563,174.25807159999385,None,1,172.27415219999966,None,99,m,99,r,MS,2021_Jun_03_1019,WASABI Nback,2020.2.10,60.046680295190555,
3,"[0.2, 0.2]",1,0,0,0,0,0,80,80,80,,,,,,,,,-0.5680555555555555,-0.4777777777777778,0,0.0,174.27535280000302,None,174.27535280000302,175.27610010001808,175.25869820002117,176.25903529999778,None,0,174.27535280000302,None,99,m,99,r,MS,2021_Jun_03_1019,WASABI Nback,2020.2.10,60.046680295190555,
4,"[-0.2, 0]",None,0,0,0,0,0,81,81,81,,,,,,,,,-0.5680555555555555,-0.4777777777777778,0,0.0,176.27615690001403,None,176.27615690001403,177.27658460001112,177.25948550002067,178.2603571000218,None,1,176.27615690001403,None,99,m,99,r,MS,2021_Jun_03_1019,WASABI Nback,2020.2.10,60.046680295190555,
7,"[-0.2, -0.2]",None,0,0,0,0,0,82,82,82,,,,,,,,,-0.5680555555555555,-0.4777777777777778,0,0.0,178.27642460001516,None,178.27642460001516,179.27711080000154,179.26087769999867,180.26135800001794,None,1,178.27642460001516,None,99,m,99,r,MS,2021_Jun_03_1019,WASABI Nback,2020.2.10,60.046680295190555,
4,"[-0.2, 0]",1,0,0,0,0,0,83,83,83,,,,,,,,,-0.5680555555555555,-0.4777777777777778,0,0.0,180.27758250001352,None,180.27758250001352,181.2777823000215,181.26187460002257,182.26236680001603,None,0,180.27758250001352,None,99,m,99,r,MS,2021_Jun_03_1019,WASABI Nback,2020.2.10,60.046680295190555,
4,"[-0.2, 0]",None,0,0,0,0,0,84,84,84,,,,,,,,,-0.5680555555555555,-0.4777777777777778,0,0.0,182.27824380001402,None,182.27824380001402,183.27943470000173,183.262939200009,184.26322210000944,None,1,182.27824380001402,None,99,m,99,r,MS,2021_Jun_03_1019,WASABI Nback,2020.2.10,60.046680295190555,
5,"[0, 0]",None,0,0,0,0,0,85,85,85,,,,,,,,,-0.5680555555555555,-0.4777777777777778,0,0.0,184.27952630000073,None,184.27952630000073,185.27994979999494,185.26379120000638,186.2640970000066,None,1,184.27952630000073,None,99,m,99,r,MS,2021_Jun_03_1019,WASABI Nback,2020.2.10,60.046680295190555,
2,"[0, 0.2]",None,0,0,0,0,0,86,86,86,,,,,,,,,-0.5680555555555555,-0.4777777777777778,0,0.0,186.28013960001408,None,186.28013960001408,187.2807018000167,187.26466780001647,188.26553200001945,None,1,186.28013960001408,None,99,m,99,r,MS,2021_Jun_03_1019,WASABI Nback,2020.2.10,60.046680295190555,
6,"[0.2, 0]",None,0,0,0,0,0,87,87,87,,,,,,,,,-0.5680555555555555,-0.4777777777777778,0,0.0,188.2815976999991,None,188.2815976999991,189.28184080001665,189.26488540001446,190.26539040001808,None,1,188.2815976999991,None,99,m,99,r,MS,2021_Jun_03_1019,WASABI Nback,2020.2.10,60.046680295190555,
7,"[-0.2, -0.2]",None,0,0,0,0,0,88,88,88,,,,,,,,,-0.5680555555555555,-0.4777777777777778,0,0.0,190.28204980000737,None,190.28204980000737,191.28254400001606,191.26584070001263,192.26642080000602,None,1,190.28204980000737,None,99,m,99,r,MS,2021_Jun_03_1019,WASABI Nback,2020.2.10,60.046680295190555,
6,"[0.2, 0]",1,0,0,0,0,0,89,89,89,,,,,,,,,-0.5680555555555555,-0.4777777777777778,0,0.0,192.2829897000047,None,192.2829897000047,193.28340630000457,193.26687019999372,194.26726720001898,None,0,192.2829897000047,None,99,m,99,r,MS,2021_Jun_03_1019,WASABI Nback,2020.2.10,60.046680295190555,
6,"[0.2, 0]",None,0,0,0,0,0,90,90,90,,,,,,,,,-0.5680555555555555,-0.4777777777777778,0,0.0,194.2841769999941,None,194.2841769999941,195.2843966000073,195.26773029999458,196.26820590000716,None,1,194.2841769999941,None,99,m,99,r,MS,2021_Jun_03_1019,WASABI Nback,2020.2.10,60.046680295190555,
7,"[-0.2, -0.2]",None,0,0,0,0,0,91,91,91,,,,,,,,,-0.5680555555555555,-0.4777777777777778,0,0.0,196.2849009000056,None,196.2849009000056,197.28529610001715,197.26865010001347,198.2693300000101,None,1,196.2849009000056,None,99,m,99,r,MS,2021_Jun_03_1019,WASABI Nback,2020.2.10,60.046680295190555,
6,"[0.2, 0]",1,0,0,0,0,0,92,92,92,,,,,,,,,-0.5680555555555555,-0.4777777777777778,0,0.0,198.28586740000173,None,198.28586740000173,199.28656180002145,199.26973390000057,None,None,0,198.28586740000173,None,99,m,99,r,MS,2021_Jun_03_1019,WASABI Nback,2020.2.10,60.046680295190555,
2,"[0, 0.2]",None,0,0,0,0,0,93,93,93,,,,,,,,,-0.5680555555555555,-0.4777777777777778,0,0.0,200.26998390001245,None,200.26998390001245,201.27062500000466,201.2538518999936,202.25437310000416,None,1,200.26998390001245,None,99,m,99,r,MS,2021_Jun_03_1019,WASABI Nback,2020.2.10,60.046680295190555,
5,"[0, 0]",None,0,0,0,0,0,94,94,94,,,,,,,,,-0.5680555555555555,-0.4777777777777778,0,0.0,202.27099580000504,None,202.27099580000504,203.27553569999873,203.25770300001022,None,None,1,202.27099580000504,None,99,m,99,r,MS,2021_Jun_03_1019,WASABI Nback,2020.2.10,60.046680295190555,
4,"[-0.2, 0]",None,0,0,0,0,0,95,95,95,,,,,,,,,-0.5680555555555555,-0.4777777777777778,0,0.0,204.27202940001735,None,204.27202940001735,205.27285670000128,205.2559375000128,206.25620030000573,None,1,204.27202940001735,None,99,m,99,r,MS,2021_Jun_03_1019,WASABI Nback,2020.2.10,60.046680295190555,
4,"[-0.2, 0]",None,0,0,0,0,0,96,96,96,,,,,,,,,-0.5680555555555555,-0.4777777777777778,0,0.0,206.27281740002218,None,206.27281740002218,207.2733550000121,207.256741899997,208.257125300006,None,1,206.27281740002218,None,99,m,99,r,MS,2021_Jun_03_1019,WASABI Nback,2020.2.10,60.046680295190555,
7,"[-0.2, -0.2]",None,0,0,0,0,0,97,97,97,,,,,,,,,-0.5680555555555555,-0.4777777777777778,0,0.0,208.27382030000445,None,208.27382030000445,209.27424329999485,209.25760219999938,210.25805190001847,None,1,208.27382030000445,None,99,m,99,r,MS,2021_Jun_03_1019,WASABI Nback,2020.2.10,60.046680295190555,
4,"[-0.2, 0]",1,0,0,0,0,0,98,98,98,,,,,,,,,-0.5680555555555555,-0.4777777777777778,0,0.0,210.27499740000349,None,210.27499740000349,211.27545460002148,211.25842990001547,212.259241199994,None,0,210.27499740000349,None,99,m,99,r,MS,2021_Jun_03_1019,WASABI Nback,2020.2.10,60.046680295190555,
3,"[0.2, 0.2]",None,0,0,0,0,0,99,99,99,,,,,,,,,-0.5680555555555555,-0.4777777777777778,0,0.0,212.27581590000773,None,212.27581590000773,213.27613179999753,213.25982310000109,214.26000530002057,None,1,212.27581590000773,None,99,m,99,r,MS,2021_Jun_03_1019,WASABI Nback,2020.2.10,60.046680295190555,
5,"[0, 0]",None,0,0,0,0,0,100,100,100,,,,,,,,,-0.5680555555555555,-0.4777777777777778,0,0.0,214.27664980001282,None,214.27664980001282,215.27709449999384,215.26095900000655,216.26088129999698,None,1,214.27664980001282,None,99,m,99,r,MS,2021_Jun_03_1019,WASABI Nback,2020.2.10,60.046680295190555,
3,"[0.2, 0.2]",1,0,0,0,0,0,101,101,101,,,,,,,,,-0.5680555555555555,-0.4777777777777778,0,0.0,216.2775990999944,None,216.2775990999944,217.27807160001248,217.26136450000922,218.26186769999913,None,0,216.2775990999944,None,99,m,99,r,MS,2021_Jun_03_1019,WASABI Nback,2020.2.10,60.046680295190555,
1,"[-0.2, 0.2]",None,0,0,0,0,0,102,102,102,,,,,,,,,-0.5680555555555555,-0.4777777777777778,0,0.0,218.27845620000153,None,218.27845620000153,219.27903229999356,219.26242290000664,220.26262150000548,None,1,218.27845620000153,None,99,m,99,r,MS,2021_Jun_03_1019,WASABI Nback,2020.2.10,60.046680295190555,
9,"[0.2, -0.2]",None,0,0,0,0,0,103,103,103,,,,,,,,,-0.5680555555555555,-0.4777777777777778,0,0.0,220.2794154000003,None,220.2794154000003,221.27978700000676,221.26312970000436,222.26357360000839,None,1,220.2794154000003,None,99,m,99,r,MS,2021_Jun_03_1019,WASABI Nback,2020.2.10,60.046680295190555,
9,"[0.2, -0.2]",None,0,0,0,0,0,104,104,104,,,,,,,,,-0.5680555555555555,-0.4777777777777778,0,0.0,222.28031170001486,None,222.28031170001486,223.2807490999985,223.26413200001116,224.2647174000158,None,1,222.28031170001486,None,99,m,99,r,MS,2021_Jun_03_1019,WASABI Nback,2020.2.10,60.046680295190555,
8,"[0, -0.2]",None,0,0,0,0,0,105,105,105,,,,,,,,,-0.5680555555555555,-0.4777777777777778,0,0.0,224.28153269999893,None,224.28153269999893,225.28183089999948,225.26514520001365,226.26558989999467,None,1,224.28153269999893,None,99,m,99,r,MS,2021_Jun_03_1019,WASABI Nback,2020.2.10,60.046680295190555,
6,"[0.2, 0]",None,0,0,0,0,0,106,106,106,,,,,,,,,-0.5680555555555555,-0.4777777777777778,0,0.0,226.28237970001646,None,226.28237970001646,227.28295130000333,227.26612080002087,228.26654000001145,None,1,226.28237970001646,None,99,m,99,r,MS,2021_Jun_03_1019,WASABI Nback,2020.2.10,60.046680295190555,
3,"[0.2, 0.2]",None,0,0,0,0,0,107,107,107,,,,,,,,,-0.5680555555555555,-0.4777777777777778,0,0.0,228.28340640000533,None,228.28340640000533,229.28354420000687,229.26688969999668,230.2674904000014,None,1,228.28340640000533,None,99,m,99,r,MS,2021_Jun_03_1019,WASABI Nback,2020.2.10,60.046680295190555,
6,"[0.2, 0]",1,0,0,0,0,0,108,108,108,,,,,,,,,-0.5680555555555555,-0.4777777777777778,0,0.0,230.28452690000995,None,230.28452690000995,231.28451399999904,231.26790289999917,232.26896560000023,None,0,230.28452690000995,None,99,m,99,r,MS,2021_Jun_03_1019,WASABI Nback,2020.2.10,60.046680295190555,
5,"[0, 0]",None,0,0,0,0,0,109,109,109,,,,,,,,,-0.5680555555555555,-0.4777777777777778,0,0.0,232.28509059999487,None,232.28509059999487,233.2855278000061,233.26887220001663,234.26935109999613,None,1,232.28509059999487,None,99,m,99,r,MS,2021_Jun_03_1019,WASABI Nback,2020.2.10,60.046680295190555,
7,"[-0.2, -0.2]",None,0,0,0,0,0,110,110,110,,,,,,,,,-0.5680555555555555,-0.4777777777777778,0,0.0,234.2859182000102,None,234.2859182000102,235.2865032000118,235.26977830001852,None,None,1,234.2859182000102,None,99,m,99,r,MS,2021_Jun_03_1019,WASABI Nback,2020.2.10,60.046680295190555,
5,"[0, 0]",1,0,0,0,0,0,111,111,111,,,,,,,,,-0.5680555555555555,-0.4777777777777778,0,0.0,236.2702288000146,None,236.2702288000146,237.27094220000436,237.254110400012,238.25456299999496,None,0,236.2702288000146,None,99,m,99,r,MS,2021_Jun_03_1019,WASABI Nback,2020.2.10,60.046680295190555,
1,"[-0.2, 0.2]",None,0,0,0,0,0,112,112,112,,,,,,,,,-0.5680555555555555,-0.4777777777777778,0,0.0,238.27121570002055,None,238.27121570002055,239.27156670001568,239.25534210001933,240.25543000001926,None,1,238.27121570002055,None,99,m,99,r,MS,2021_Jun_03_1019,WASABI Nback,2020.2.10,60.046680295190555,
7,"[-0.2, -0.2]",None,0,0,0,0,0,113,113,113,,,,,,,,,-0.5680555555555555,-0.4777777777777778,0,0.0,240.27229360002093,None,240.27229360002093,241.27295149999554,241.256249500002,242.25656639999943,None,1,240.27229360002093,None,99,m,99,r,MS,2021_Jun_03_1019,WASABI Nback,2020.2.10,60.046680295190555,
9,"[0.2, -0.2]",None,0,0,0,0,0,114,114,114,,,,,,,,,-0.5680555555555555,-0.4777777777777778,0,0.0,242.27309770000284,None,242.27309770000284,243.2735234000138,243.2568366000196,244.25748850000673,None,1,242.27309770000284,None,99,m,99,r,MS,2021_Jun_03_1019,WASABI Nback,2020.2.10,60.046680295190555,
3,"[0.2, 0.2]",None,0,0,0,0,0,115,115,115,,,,,,,,,-0.5680555555555555,-0.4777777777777778,0,0.0,244.27404780001962,None,244.27404780001962,245.27450260001933,245.25780120000127,246.25832240001182,None,1,244.27404780001962,None,99,m,99,r,MS,2021_Jun_03_1019,WASABI Nback,2020.2.10,60.046680295190555,
9,"[0.2, -0.2]",1,0,0,0,0,0,116,116,116,,,,,,,,,-0.5680555555555555,-0.4777777777777778,0,0.0,246.27487220001058,None,246.27487220001058,247.27551340000355,247.25873240001965,248.25935030000983,None,0,246.27487220001058,None,99,m,99,r,MS,2021_Jun_03_1019,WASABI Nback,2020.2.10,60.046680295190555,
6,"[0.2, 0]",None,0,0,0,0,0,117,117,117,,,,,,,,,-0.5680555555555555,-0.4777777777777778,0,0.0,248.27583880000748,None,248.27583880000748,249.27635220001685,249.25973980000708,250.2604978000163,None,1,248.27583880000748,None,99,m,99,r,MS,2021_Jun_03_1019,WASABI Nback,2020.2.10,60.046680295190555,
2,"[0, 0.2]",None,0,0,0,0,0,118,118,118,,,,,,,,,-0.5680555555555555,-0.4777777777777778,0,0.0,250.27714099999866,None,250.27714099999866,251.27727670001332,251.26053970001522,252.2611058000184,None,1,250.27714099999866,None,99,m,99,r,MS,2021_Jun_03_1019,WASABI Nback,2020.2.10,60.046680295190555,
5,"[0, 0]",None,0,0,0,0,0,119,119,119,,,,,,,,,-0.5680555555555555,-0.4777777777777778,0,0.0,252.27777980000246,None,252.27777980000246,253.27832090001903,253.26183030000539,254.26208620000398,None,1,252.27777980000246,None,99,m,99,r,MS,2021_Jun_03_1019,WASABI Nback,2020.2.10,60.046680295190555,
