RestT1,TaskT1,square,location,corrAns,counterbalancer.thisRepN,counterbalancer.thisTrialN,counterbalancer.thisN,counterbalancer.thisIndex,RestT1Loop.thisRepN,RestT1Loop.thisTrialN,RestT1Loop.thisN,RestT1Loop.thisIndex,TaskT1Loop.thisRepN,TaskT1Loop.thisTrialN,TaskT1Loop.thisN,TaskT1Loop.thisIndex,trials_2.thisRepN,trials_2.thisTrialN,trials_2.thisN,trials_2.thisIndex,NbackInstructions.started,NbackInstructions.stopped,NbackStart.keys,NbackStart.rt,NbackStart.started,NbackStart.stopped,fixation_2.started,fixation_2.stopped,response_2.x,response_2.y,response_2.leftButton,grid_lines_2.started,grid_lines_2.stopped,target_square_2.started,target_square_2.stopped,fixation_3.started,fixation_3.stopped,response_2.click,response_2.corr,response_2.started,response_2.stopped,fixation_1.started,fixation_1.stopped,subject number,gender,session,handedness,scanner,date,expName,psychopyVersion,frameRate,
0,1,,,,0,0,0,0,,,,,0,0,0,0,,,,,20.95128689997364,None,space,45.21868139994331,20.95128689997364,None,,,,,,,,,,,,,,,,,,4,m,6,r,KB,2021_Jul_23_1143,WASABI Nback,2020.2.10,59.99646020983193,
0,1,5,"[0, 0]",None,0,0,0,0,,,,,0,0,0,0,0,0,0,0,,,,,,,None,None,None,None,[],None,None,None,None,None,None,[],[],None,None,,,4,m,6,r,KB,2021_Jul_23_1143,WASABI Nback,2020.2.10,59.99646020983193,
0,1,2,"[0, 0.2]",None,0,0,0,0,,,,,0,0,0,0,0,1,1,1,,,,,,,,,None,None,[],None,None,None,None,None,None,[],[],None,None,,,4,m,6,r,KB,2021_Jul_23_1143,WASABI Nback,2020.2.10,59.99646020983193,
0,1,6,"[0.2, 0]",None,0,0,0,0,,,,,0,0,0,0,0,2,2,2,,,,,,,,,None,None,[],None,None,None,None,None,None,[],[],None,None,,,4,m,6,r,KB,2021_Jul_23_1143,WASABI Nback,2020.2.10,59.99646020983193,
0,1,9,"[0.2, -0.2]",None,0,0,0,0,,,,,0,0,0,0,0,3,3,3,,,,,,,,,None,None,[],None,None,None,None,None,None,[],[],None,None,,,4,m,6,r,KB,2021_Jul_23_1143,WASABI Nback,2020.2.10,59.99646020983193,
0,1,3,"[0.2, 0.2]",None,0,0,0,0,,,,,0,0,0,0,0,4,4,4,,,,,,,,,None,None,[],None,None,None,None,None,None,[],[],None,None,,,4,m,6,r,KB,2021_Jul_23_1143,WASABI Nback,2020.2.10,59.99646020983193,
0,1,9,"[0.2, -0.2]",1,0,0,0,0,,,,,0,0,0,0,0,5,5,5,,,,,,,,,None,None,[],None,None,None,None,None,None,[],[],None,None,,,4,m,6,r,KB,2021_Jul_23_1143,WASABI Nback,2020.2.10,59.99646020983193,
0,1,7,"[-0.2, -0.2]",None,0,0,0,0,,,,,0,0,0,0,0,6,6,6,,,,,,,,,None,None,[],None,None,None,None,None,None,[],[],None,None,,,4,m,6,r,KB,2021_Jul_23_1143,WASABI Nback,2020.2.10,59.99646020983193,
0,1,1,"[-0.2, 0.2]",None,0,0,0,0,,,,,0,0,0,0,0,7,7,7,,,,,,,,,None,None,[],None,None,None,None,None,None,[],[],None,None,,,4,m,6,r,KB,2021_Jul_23_1143,WASABI Nback,2020.2.10,59.99646020983193,
0,1,5,"[0, 0]",None,0,0,0,0,,,,,0,0,0,0,0,8,8,8,,,,,,,,,None,None,[],None,None,None,None,None,None,[],[],None,None,,,4,m,6,r,KB,2021_Jul_23_1143,WASABI Nback,2020.2.10,59.99646020983193,
0,1,7,"[-0.2, -0.2]",None,0,0,0,0,,,,,0,0,0,0,0,9,9,9,,,,,,,,,None,None,[],None,None,None,None,None,None,[],[],None,None,,,4,m,6,r,KB,2021_Jul_23_1143,WASABI Nback,2020.2.10,59.99646020983193,
0,1,5,"[0, 0]",1,0,0,0,0,,,,,0,0,0,0,0,10,10,10,,,,,,,,,None,None,[],None,None,None,None,None,None,[],[],None,None,,,4,m,6,r,KB,2021_Jul_23_1143,WASABI Nback,2020.2.10,59.99646020983193,
0,1,6,"[0.2, 0]",None,0,0,0,0,,,,,0,0,0,0,0,11,11,11,,,,,,,,,None,None,[],None,None,None,None,None,None,[],[],None,None,,,4,m,6,r,KB,2021_Jul_23_1143,WASABI Nback,2020.2.10,59.99646020983193,
0,1,3,"[0.2, 0.2]",None,0,0,0,0,,,,,0,0,0,0,0,12,12,12,,,,,,,,,None,None,0,91.80974810000043,None,91.80974810000043,92.80974810000043,92.79306789999828,None,0,1,91.80974810000043,None,,,4,m,6,r,KB,2021_Jul_23_1143,WASABI Nback,2020.2.10,59.99646020983193,
0,1,6,"[0.2, 0]",1,0,0,0,0,,,,,0,0,0,0,0,13,13,13,,,,,,,,,None,None,0,93.20975739997812,None,93.20975739997812,94.20976400002837,94.193079699995,95.19308789994102,0,0,93.20975739997812,None,,,4,m,6,r,KB,2021_Jul_23_1143,WASABI Nback,2020.2.10,59.99646020983193,
0,1,8,"[0, -0.2]",None,0,0,0,0,,,,,0,0,0,0,0,14,14,14,,,,,,,,,None,None,0,95.20975419995375,None,95.20975419995375,96.20977880002465,96.19308649993036,97.19310509995557,0,1,95.20975419995375,None,,,4,m,6,r,KB,2021_Jul_23_1143,WASABI Nback,2020.2.10,59.99646020983193,
0,1,9,"[0.2, -0.2]",None,0,0,0,0,,,,,0,0,0,0,0,15,15,15,,,,,,,,,None,None,0,97.20977299998049,None,97.20977299998049,98.20977509999648,98.19312299997546,99.19311290001497,0,1,97.20977299998049,None,,,4,m,6,r,KB,2021_Jul_23_1143,WASABI Nback,2020.2.10,59.99646020983193,
0,1,9,"[0.2, -0.2]",None,0,0,0,0,,,,,0,0,0,0,0,16,16,16,,,,,,,,,None,None,0,99.20980369998142,None,99.20980369998142,100.20979599992279,100.19313439994585,101.19314679992385,0,1,99.20980369998142,None,,,4,m,6,r,KB,2021_Jul_23_1143,WASABI Nback,2020.2.10,59.99646020983193,
0,1,1,"[-0.2, 0.2]",None,0,0,0,0,,,,,0,0,0,0,0,17,17,17,,,,,,,,,None,None,0,101.20979719993193,None,101.20979719993193,102.20980419998523,102.19314220000524,103.19314280000981,0,1,101.20979719993193,None,,,4,m,6,r,KB,2021_Jul_23_1143,WASABI Nback,2020.2.10,59.99646020983193,
0,1,3,"[0.2, 0.2]",None,0,0,0,0,,,,,0,0,0,0,0,18,18,18,,,,,,,,,None,None,0,103.20980750001036,None,103.20980750001036,104.2098171999678,104.19316819997039,105.19316989998333,0,1,103.20980750001036,None,,,4,m,6,r,KB,2021_Jul_23_1143,WASABI Nback,2020.2.10,59.99646020983193,
0,1,5,"[0, 0]",None,0,0,0,0,,,,,0,0,0,0,0,19,19,19,,,,,,,,,None,None,0,105.20984689996112,None,105.20984689996112,106.2098885999294,106.19317709992174,107.19318169995677,0,1,105.20984689996112,None,,,4,m,6,r,KB,2021_Jul_23_1143,WASABI Nback,2020.2.10,59.99646020983193,
0,1,3,"[0.2, 0.2]",1,0,0,0,0,,,,,0,0,0,0,0,20,20,20,,,,,,,,,None,None,0,107.20984949998092,None,107.20984949998092,108.20985560002737,108.1931921999203,109.19319150003139,0,1,107.20984949998092,None,,,4,m,6,r,KB,2021_Jul_23_1143,WASABI Nback,2020.2.10,59.99646020983193,
0,1,4,"[-0.2, 0]",None,0,0,0,0,,,,,0,0,0,0,0,21,21,21,,,,,,,,,None,None,0,109.20983830001205,None,109.20983830001205,110.20986509998329,110.19319799996447,111.1931907000253,0,1,109.20983830001205,None,,,4,m,6,r,KB,2021_Jul_23_1143,WASABI Nback,2020.2.10,59.99646020983193,
0,1,7,"[-0.2, -0.2]",None,0,0,0,0,,,,,0,0,0,0,0,22,22,22,,,,,,,,,None,None,0,111.20989699999336,None,111.20989699999336,112.20987209992018,112.19321479997598,113.19312139996327,0,1,111.20989699999336,None,,,4,m,6,r,KB,2021_Jul_23_1143,WASABI Nback,2020.2.10,59.99646020983193,
0,1,4,"[-0.2, 0]",1,0,0,0,0,,,,,0,0,0,0,0,23,23,23,,,,,,,,,None,None,0,113.20988689991646,None,113.20988689991646,114.20989269996062,114.19322489993647,115.19324229995254,0,1,113.20988689991646,None,,,4,m,6,r,KB,2021_Jul_23_1143,WASABI Nback,2020.2.10,59.99646020983193,
0,1,4,"[-0.2, 0]",None,0,0,0,0,,,,,0,0,0,0,0,24,24,24,,,,,,,,,None,None,0,115.20991099998355,None,115.20991099998355,116.20990709995385,116.19324209995102,117.19323690002784,0,1,115.20991099998355,None,,,4,m,6,r,KB,2021_Jul_23_1143,WASABI Nback,2020.2.10,59.99646020983193,
0,1,5,"[0, 0]",None,0,0,0,0,,,,,0,0,0,0,0,25,25,25,,,,,,,,,None,None,0,117.20993200002704,None,117.20993200002704,118.20992469997145,118.19326169998385,119.19326099997852,0,1,117.20993200002704,None,,,4,m,6,r,KB,2021_Jul_23_1143,WASABI Nback,2020.2.10,59.99646020983193,
0,1,2,"[0, 0.2]",None,0,0,0,0,,,,,0,0,0,0,0,26,26,26,,,,,,,,,None,None,0,119.20995930000208,None,119.20995930000208,120.20994039997458,120.19327499996871,121.19333229993936,0,1,119.20995930000208,None,,,4,m,6,r,KB,2021_Jul_23_1143,WASABI Nback,2020.2.10,59.99646020983193,
0,1,6,"[0.2, 0]",None,0,0,0,0,,,,,0,0,0,0,0,27,27,27,,,,,,,,,None,None,0,121.20996329991613,None,121.20996329991613,122.20995339995716,122.19329379999544,123.19330049993005,0,1,121.20996329991613,None,,,4,m,6,r,KB,2021_Jul_23_1143,WASABI Nback,2020.2.10,59.99646020983193,
0,1,7,"[-0.2, -0.2]",None,0,0,0,0,,,,,0,0,0,0,0,28,28,28,,,,,,,,,None,None,0,123.20995599997696,None,123.20995599997696,124.20998689997941,124.19331010000315,125.19331489992328,0,1,123.20995599997696,None,,,4,m,6,r,KB,2021_Jul_23_1143,WASABI Nback,2020.2.10,59.99646020983193,
0,1,6,"[0.2, 0]",1,0,0,0,0,,,,,0,0,0,0,0,29,29,29,,,,,,,,,None,None,0,125.20997760002501,None,125.20997760002501,126.20997470000293,126.19331989996135,127.193325500004,0,1,125.20997760002501,None,,,4,m,6,r,KB,2021_Jul_23_1143,WASABI Nback,2020.2.10,59.99646020983193,
0,1,6,"[0.2, 0]",None,0,0,0,0,,,,,0,0,0,0,0,30,30,30,,,,,,,,,None,None,0,127.21002659993246,None,127.21002659993246,128.2099898000015,128.19333289994393,129.19333229993936,0,1,127.21002659993246,None,,,4,m,6,r,KB,2021_Jul_23_1143,WASABI Nback,2020.2.10,59.99646020983193,
0,1,7,"[-0.2, -0.2]",None,0,0,0,0,,,,,0,0,0,0,0,31,31,31,,,,,,,,,None,None,0,129.21000189997721,None,129.21000189997721,130.21002230001613,130.19335029996,131.19336459995247,0,1,129.21000189997721,None,,,4,m,6,r,KB,2021_Jul_23_1143,WASABI Nback,2020.2.10,59.99646020983193,
0,1,6,"[0.2, 0]",1,0,0,0,0,,,,,0,0,0,0,0,32,32,32,,,,,,,,,None,None,0,131.21001739997882,None,131.21001739997882,132.2100216000108,132.19336499995552,133.1933652999578,0,1,131.21001739997882,None,,,4,m,6,r,KB,2021_Jul_23_1143,WASABI Nback,2020.2.10,59.99646020983193,
0,1,2,"[0, 0.2]",None,0,0,0,0,,,,,0,0,0,0,0,33,33,33,,,,,,,,,None,None,0,133.21004659996834,None,133.21004659996834,134.2100361000048,134.1933728000149,135.19337559991982,0,1,133.21004659996834,None,,,4,m,6,r,KB,2021_Jul_23_1143,WASABI Nback,2020.2.10,59.99646020983193,
0,1,5,"[0, 0]",None,0,0,0,0,,,,,0,0,0,0,0,34,34,34,,,,,,,,,None,None,0,135.21006489999127,None,135.21006489999127,136.21006589999888,136.19341149996035,137.1933947999496,0,1,135.21006489999127,None,,,4,m,6,r,KB,2021_Jul_23_1143,WASABI Nback,2020.2.10,59.99646020983193,
0,1,4,"[-0.2, 0]",None,0,0,0,0,,,,,0,0,0,0,0,35,35,35,,,,,,,,,None,None,0,137.21005609992426,None,137.21005609992426,138.21009009995032,138.19341089995578,139.19342209992465,0,1,137.21005609992426,None,,,4,m,6,r,KB,2021_Jul_23_1143,WASABI Nback,2020.2.10,59.99646020983193,
0,1,4,"[-0.2, 0]",None,0,0,0,0,,,,,0,0,0,0,0,36,36,36,,,,,,,,,None,None,0,139.2100890999427,None,139.2100890999427,140.21007779997308,140.19341609999537,141.19342979998328,0,1,139.2100890999427,None,,,4,m,6,r,KB,2021_Jul_23_1143,WASABI Nback,2020.2.10,59.99646020983193,
0,1,7,"[-0.2, -0.2]",None,0,0,0,0,,,,,0,0,0,0,0,37,37,37,,,,,,,,,None,None,0,141.21010499994736,None,141.21010499994736,142.21009860001504,142.19343500002287,143.19344149995595,0,1,141.21010499994736,None,,,4,m,6,r,KB,2021_Jul_23_1143,WASABI Nback,2020.2.10,59.99646020983193,
0,1,4,"[-0.2, 0]",1,0,0,0,0,,,,,0,0,0,0,0,38,38,38,,,,,,,,,None,None,0,143.21010139991995,None,143.21010139991995,144.2101348999422,144.1934594999766,145.19345709995832,0,1,143.21010139991995,None,,,4,m,6,r,KB,2021_Jul_23_1143,WASABI Nback,2020.2.10,59.99646020983193,
0,1,3,"[0.2, 0.2]",None,0,0,0,0,,,,,0,0,0,0,0,39,39,39,,,,,,,,,None,None,0,145.2101274000015,None,145.2101274000015,146.2101290000137,146.1934810000239,147.19347900000867,0,1,145.2101274000015,None,,,4,m,6,r,KB,2021_Jul_23_1143,WASABI Nback,2020.2.10,59.99646020983193,
0,1,5,"[0, 0]",None,0,0,0,0,,,,,0,0,0,0,0,40,40,40,,,,,,,,,None,None,0,147.21015129995067,None,147.21015129995067,148.21015880000778,148.19347990001552,149.19350129994564,0,1,147.21015129995067,None,,,4,m,6,r,KB,2021_Jul_23_1143,WASABI Nback,2020.2.10,59.99646020983193,
0,1,3,"[0.2, 0.2]",1,0,0,0,0,,,,,0,0,0,0,0,41,41,41,,,,,,,,,None,None,0,149.21015439997427,None,149.21015439997427,150.21017520001624,150.19349019997753,151.19353679998312,0,1,149.21015439997427,None,,,4,m,6,r,KB,2021_Jul_23_1143,WASABI Nback,2020.2.10,59.99646020983193,
0,1,1,"[-0.2, 0.2]",None,0,0,0,0,,,,,0,0,0,0,0,42,42,42,,,,,,,,,None,None,0,151.21015940001234,None,151.21015940001234,152.21015269996133,152.1935242000036,153.1935120000271,0,1,151.21015940001234,None,,,4,m,6,r,KB,2021_Jul_23_1143,WASABI Nback,2020.2.10,59.99646020983193,
0,1,9,"[0.2, -0.2]",None,0,0,0,0,,,,,0,0,0,0,0,43,43,43,,,,,,,,,None,None,0,153.21018429996911,None,153.21018429996911,154.21019969996996,154.19352319999598,155.19356389995664,0,1,153.21018429996911,None,,,4,m,6,r,KB,2021_Jul_23_1143,WASABI Nback,2020.2.10,59.99646020983193,
0,1,9,"[0.2, -0.2]",None,0,0,0,0,,,,,0,0,0,0,0,44,44,44,,,,,,,,,None,None,0,155.21019419992808,None,155.21019419992808,156.21021689998452,156.1935432999162,157.19355510000605,0,1,155.21019419992808,None,,,4,m,6,r,KB,2021_Jul_23_1143,WASABI Nback,2020.2.10,59.99646020983193,
0,1,8,"[0, -0.2]",None,0,0,0,0,,,,,0,0,0,0,0,45,45,45,,,,,,,,,None,None,0,157.21018029993866,None,157.21018029993866,158.21021739998832,158.1935678999871,159.1935639999574,0,1,157.21018029993866,None,,,4,m,6,r,KB,2021_Jul_23_1143,WASABI Nback,2020.2.10,59.99646020983193,
0,1,6,"[0.2, 0]",None,0,0,0,0,,,,,0,0,0,0,0,46,46,46,,,,,,,,,None,None,0,159.21022270002868,None,159.21022270002868,160.21022749994881,160.19357270002365,161.1935750999255,0,1,159.21022270002868,None,,,4,m,6,r,KB,2021_Jul_23_1143,WASABI Nback,2020.2.10,59.99646020983193,
0,1,3,"[0.2, 0.2]",None,0,0,0,0,,,,,0,0,0,0,0,47,47,47,,,,,,,,,None,None,0,161.21023760002572,None,161.21023760002572,162.21024389995728,162.19360150001012,163.19359859998804,0,1,161.21023760002572,None,,,4,m,6,r,KB,2021_Jul_23_1143,WASABI Nback,2020.2.10,59.99646020983193,
0,1,6,"[0.2, 0]",1,0,0,0,0,,,,,0,0,0,0,0,48,48,48,,,,,,,,,None,None,0,163.21027059992775,None,163.21027059992775,164.21027109993156,164.19361209997442,165.19361269997898,0,1,163.21027059992775,None,,,4,m,6,r,KB,2021_Jul_23_1143,WASABI Nback,2020.2.10,59.99646020983193,
0,1,5,"[0, 0]",None,0,0,0,0,,,,,0,0,0,0,0,49,49,49,,,,,,,,,None,None,0,165.21026540000457,None,165.21026540000457,166.21027729997877,166.19362979999278,167.1936255999608,0,1,165.21026540000457,None,,,4,m,6,r,KB,2021_Jul_23_1143,WASABI Nback,2020.2.10,59.99646020983193,
0,1,7,"[-0.2, -0.2]",None,0,0,0,0,,,,,0,0,0,0,0,50,50,50,,,,,,,,,None,None,0,167.21028210001532,None,167.21028210001532,168.2102851999225,168.1936289999867,169.19363120000344,0,1,167.21028210001532,None,,,4,m,6,r,KB,2021_Jul_23_1143,WASABI Nback,2020.2.10,59.99646020983193,
0,1,5,"[0, 0]",1,0,0,0,0,,,,,0,0,0,0,0,51,51,51,,,,,,,,,None,None,0,169.21031180000864,None,169.21031180000864,170.21025200001895,170.19402079994325,171.19364720000885,0,1,169.21031180000864,None,,,4,m,6,r,KB,2021_Jul_23_1143,WASABI Nback,2020.2.10,59.99646020983193,
0,1,1,"[-0.2, 0.2]",None,0,0,0,0,,,,,0,0,0,0,0,52,52,52,,,,,,,,,None,None,0,171.21031100000255,None,171.21031100000255,172.21033289993647,172.19367990002502,173.19365439994726,0,1,171.21031100000255,None,,,4,m,6,r,KB,2021_Jul_23_1143,WASABI Nback,2020.2.10,59.99646020983193,
0,1,7,"[-0.2, -0.2]",None,0,0,0,0,,,,,0,0,0,0,0,53,53,53,,,,,,,,,None,None,0,173.21032600000035,None,173.21032600000035,174.21033329993952,174.1936666999245,175.19367259996943,0,1,173.21032600000035,None,,,4,m,6,r,KB,2021_Jul_23_1143,WASABI Nback,2020.2.10,59.99646020983193,
0,1,9,"[0.2, -0.2]",None,0,0,0,0,,,,,0,0,0,0,0,54,54,54,,,,,,,,,None,None,0,175.21035629999824,None,175.21035629999824,176.2103457999183,176.19368080003187,177.19368799997028,0,1,175.21035629999824,None,,,4,m,6,r,KB,2021_Jul_23_1143,WASABI Nback,2020.2.10,59.99646020983193,
0,1,3,"[0.2, 0.2]",None,0,0,0,0,,,,,0,0,0,0,0,55,55,55,,,,,,,,,None,None,0,177.21037159999833,None,177.21037159999833,178.21037570002954,178.1937023999635,179.19371439993847,0,1,177.21037159999833,None,,,4,m,6,r,KB,2021_Jul_23_1143,WASABI Nback,2020.2.10,59.99646020983193,
0,1,9,"[0.2, -0.2]",1,0,0,0,0,,,,,0,0,0,0,0,56,56,56,,,,,,,,,None,None,0,179.2103748000227,None,179.2103748000227,180.2103948999429,180.19371239992324,181.19372839992866,0,1,179.2103748000227,None,,,4,m,6,r,KB,2021_Jul_23_1143,WASABI Nback,2020.2.10,59.99646020983193,
0,1,6,"[0.2, 0]",None,0,0,0,0,,,,,0,0,0,0,0,57,57,57,,,,,,,,,None,None,0,181.21040290000383,None,181.21040290000383,182.2103920999216,182.19378069997765,183.19374309992418,0,1,181.21040290000383,None,,,4,m,6,r,KB,2021_Jul_23_1143,WASABI Nback,2020.2.10,59.99646020983193,
0,1,2,"[0, 0.2]",None,0,0,0,0,,,,,0,0,0,0,0,58,58,58,,,,,,,,,None,None,0,183.2104158999864,None,183.2104158999864,184.21041970001534,184.1937484999653,185.1937539000064,0,1,183.2104158999864,None,,,4,m,6,r,KB,2021_Jul_23_1143,WASABI Nback,2020.2.10,59.99646020983193,
0,1,5,"[0, 0]",None,0,0,0,0,,,,,0,0,0,0,0,59,59,59,,,,,,,,,None,None,0,185.21040869993158,None,185.21040869993158,186.210439199931,186.1937574999174,187.19371989998035,0,1,185.21040869993158,None,,,4,m,6,r,KB,2021_Jul_23_1143,WASABI Nback,2020.2.10,59.99646020983193,
0,1,5,"[0, 0]",None,0,0,0,0,,,,,0,0,0,0,0,60,60,60,,,,,,,,,None,None,0,187.2104414999485,None,187.2104414999485,188.21043320000172,188.1937723000301,189.1937845000066,0,1,187.2104414999485,None,,,4,m,6,r,KB,2021_Jul_23_1143,WASABI Nback,2020.2.10,59.99646020983193,
0,1,2,"[0, 0.2]",None,0,0,0,0,,,,,0,0,0,0,0,61,61,61,,,,,,,,,None,None,0,189.21047689998522,None,189.21047689998522,190.21046450000722,190.19378309999593,191.19379569997545,0,1,189.21047689998522,None,,,4,m,6,r,KB,2021_Jul_23_1143,WASABI Nback,2020.2.10,59.99646020983193,
0,1,6,"[0.2, 0]",None,0,0,0,0,,,,,0,0,0,0,0,62,62,62,,,,,,,,,None,None,0,191.21046009997372,None,191.21046009997372,192.210489399964,192.19381329999305,193.19380349991843,0,1,191.21046009997372,None,,,4,m,6,r,KB,2021_Jul_23_1143,WASABI Nback,2020.2.10,59.99646020983193,
0,1,9,"[0.2, -0.2]",None,0,0,0,0,,,,,0,0,0,0,0,63,63,63,,,,,,,,,None,None,0,193.21048040001187,None,193.21048040001187,194.21047970000654,194.19381849991623,195.19387419999111,0,1,193.21048040001187,None,,,4,m,6,r,KB,2021_Jul_23_1143,WASABI Nback,2020.2.10,59.99646020983193,
0,1,3,"[0.2, 0.2]",None,0,0,0,0,,,,,0,0,0,0,0,64,64,64,,,,,,,,,None,None,0,195.21051449992228,None,195.21051449992228,196.21054559992626,196.1938441999955,197.19384069996886,0,1,195.21051449992228,None,,,4,m,6,r,KB,2021_Jul_23_1143,WASABI Nback,2020.2.10,59.99646020983193,
0,1,9,"[0.2, -0.2]",1,0,0,0,0,,,,,0,0,0,0,0,65,65,65,,,,,,,,,None,None,0,197.21051999996416,None,197.21051999996416,198.21053109993227,198.19385649997275,199.19385539996438,0,0,197.21051999996416,None,,,4,m,6,r,KB,2021_Jul_23_1143,WASABI Nback,2020.2.10,59.99646020983193,
0,1,7,"[-0.2, -0.2]",None,0,0,0,0,,,,,0,0,0,0,0,66,66,66,,,,,,,,,None,None,0,199.21053889999166,None,199.21053889999166,200.21052570000757,200.19387079996523,201.19387349998578,0,1,199.21053889999166,None,,,4,m,6,r,KB,2021_Jul_23_1143,WASABI Nback,2020.2.10,59.99646020983193,
0,1,1,"[-0.2, 0.2]",None,0,0,0,0,,,,,0,0,0,0,0,67,67,67,,,,,,,,,None,None,0,201.21054999995977,None,201.21054999995977,202.2104380999226,202.19387610000558,203.1938021000242,0,1,201.21054999995977,None,,,4,m,6,r,KB,2021_Jul_23_1143,WASABI Nback,2020.2.10,59.99646020983193,
0,1,5,"[0, 0]",None,0,0,0,0,,,,,0,0,0,0,0,68,68,68,,,,,,,,,None,None,0,203.21055139997043,None,203.21055139997043,204.2105819999706,204.19388109992724,205.193894200027,0,1,203.21055139997043,None,,,4,m,6,r,KB,2021_Jul_23_1143,WASABI Nback,2020.2.10,59.99646020983193,
0,1,7,"[-0.2, -0.2]",None,0,0,0,0,,,,,0,0,0,0,0,69,69,69,,,,,,,,,None,None,0,205.21055129996967,None,205.21055129996967,206.21057310001925,206.19391659996472,207.19390389998443,0,1,205.21055129996967,None,,,4,m,6,r,KB,2021_Jul_23_1143,WASABI Nback,2020.2.10,59.99646020983193,
0,1,5,"[0, 0]",1,0,0,0,0,,,,,0,0,0,0,0,70,70,70,,,,,,,,,None,None,0,207.21059419994708,None,207.21059419994708,208.21059299993794,208.19391889998224,209.1939419999253,0,1,207.21059419994708,None,,,4,m,6,r,KB,2021_Jul_23_1143,WASABI Nback,2020.2.10,59.99646020983193,
0,1,6,"[0.2, 0]",None,0,0,0,0,,,,,0,0,0,0,0,71,71,71,,,,,,,,,None,None,0,209.21060599992052,None,209.21060599992052,210.21060589991976,210.19392999995034,211.19383499992546,0,1,209.21060599992052,None,,,4,m,6,r,KB,2021_Jul_23_1143,WASABI Nback,2020.2.10,59.99646020983193,
0,1,3,"[0.2, 0.2]",None,0,0,0,0,,,,,0,0,0,0,0,72,72,72,,,,,,,,,None,None,0,211.21062589995563,None,211.21062589995563,212.21063989994582,212.19394889997784,213.1939492999809,0,1,211.21062589995563,None,,,4,m,6,r,KB,2021_Jul_23_1143,WASABI Nback,2020.2.10,59.99646020983193,
0,1,6,"[0.2, 0]",1,0,0,0,0,,,,,0,0,0,0,0,73,73,73,,,,,,,,,None,None,0,213.21063909993973,None,213.21063909993973,214.21062679996248,214.1939674000023,215.19398039998487,0,0,213.21063909993973,None,,,4,m,6,r,KB,2021_Jul_23_1143,WASABI Nback,2020.2.10,59.99646020983193,
0,1,8,"[0, -0.2]",None,0,0,0,0,,,,,0,0,0,0,0,74,74,74,,,,,,,,,None,None,0,215.21062869997695,None,215.21062869997695,216.21054559992626,216.19397579994984,217.19398789992556,0,1,215.21062869997695,None,,,4,m,6,r,KB,2021_Jul_23_1143,WASABI Nback,2020.2.10,59.99646020983193,
0,1,9,"[0.2, -0.2]",None,0,0,0,0,,,,,0,0,0,0,0,75,75,75,,,,,,,,,None,None,0,217.21066470001824,None,217.21066470001824,218.21067159995437,218.1939965999918,219.19400060002226,0,1,217.21066470001824,None,,,4,m,6,r,KB,2021_Jul_23_1143,WASABI Nback,2020.2.10,59.99646020983193,
0,1,9,"[0.2, -0.2]",None,0,0,0,0,,,,,0,0,0,0,0,76,76,76,,,,,,,,,None,None,0,219.21067209995817,None,219.21067209995817,220.21068379993085,220.19401969993487,221.19401169999037,0,1,219.21067209995817,None,,,4,m,6,r,KB,2021_Jul_23_1143,WASABI Nback,2020.2.10,59.99646020983193,
0,1,1,"[-0.2, 0.2]",None,0,0,0,0,,,,,0,0,0,0,0,77,77,77,,,,,,,,,None,None,0,221.2106774999993,None,221.2106774999993,222.21068789996207,222.19402439997066,223.1940340999281,0,1,221.2106774999993,None,,,4,m,6,r,KB,2021_Jul_23_1143,WASABI Nback,2020.2.10,59.99646020983193,
0,1,3,"[0.2, 0.2]",None,0,0,0,0,,,,,0,0,0,0,0,78,78,78,,,,,,,,,None,None,0,223.2107106000185,None,223.2107106000185,224.2106961000245,224.194033299922,225.1940387999639,0,1,223.2107106000185,None,,,4,m,6,r,KB,2021_Jul_23_1143,WASABI Nback,2020.2.10,59.99646020983193,
0,1,5,"[0, 0]",None,0,0,0,0,,,,,0,0,0,0,0,79,79,79,,,,,,,,,None,None,0,225.2107056999812,None,225.2107056999812,226.21071919996757,226.19406709994655,227.19405459996779,0,1,225.2107056999812,None,,,4,m,6,r,KB,2021_Jul_23_1143,WASABI Nback,2020.2.10,59.99646020983193,
0,1,3,"[0.2, 0.2]",1,0,0,0,0,,,,,0,0,0,0,0,80,80,80,,,,,,,,,None,None,0,227.21071899996605,None,227.21071899996605,228.21072809991892,228.19407099997625,229.19407730002422,0,0,227.21071899996605,None,,,4,m,6,r,KB,2021_Jul_23_1143,WASABI Nback,2020.2.10,59.99646020983193,
0,1,4,"[-0.2, 0]",None,0,0,0,0,,,,,0,0,0,0,0,81,81,81,,,,,,,,,None,None,0,229.2107529999921,None,229.2107529999921,230.21073970000725,230.1940758000128,231.19408289995044,0,1,229.2107529999921,None,,,4,m,6,r,KB,2021_Jul_23_1143,WASABI Nback,2020.2.10,59.99646020983193,
0,1,7,"[-0.2, -0.2]",None,0,0,0,0,,,,,0,0,0,0,0,82,82,82,,,,,,,,,None,None,0,231.21075440000277,None,231.21075440000277,232.21077310002875,232.19409719994292,233.19410389999393,0,1,231.21075440000277,None,,,4,m,6,r,KB,2021_Jul_23_1143,WASABI Nback,2020.2.10,59.99646020983193,
0,1,4,"[-0.2, 0]",1,0,0,0,0,,,,,0,0,0,0,0,83,83,83,,,,,,,,,None,None,0,233.21074969996698,None,233.21074969996698,234.2107891999185,234.19412050000392,235.19411519996356,0,0,233.21074969996698,None,,,4,m,6,r,KB,2021_Jul_23_1143,WASABI Nback,2020.2.10,59.99646020983193,
0,1,4,"[-0.2, 0]",None,0,0,0,0,,,,,0,0,0,0,0,84,84,84,,,,,,,,,None,None,0,235.21079869999085,None,235.21079869999085,236.2107904999284,236.19412250001915,237.19413409999106,0,1,235.21079869999085,None,,,4,m,6,r,KB,2021_Jul_23_1143,WASABI Nback,2020.2.10,59.99646020983193,
0,1,5,"[0, 0]",None,0,0,0,0,,,,,0,0,0,0,0,85,85,85,,,,,,,,,None,None,0,237.21081489999779,None,237.21081489999779,238.21081880002748,238.19414109992795,239.1941471999744,0,1,237.21081489999779,None,,,4,m,6,r,KB,2021_Jul_23_1143,WASABI Nback,2020.2.10,59.99646020983193,
0,1,2,"[0, 0.2]",None,0,0,0,0,,,,,0,0,0,0,0,86,86,86,,,,,,,,,None,None,0,239.21081139997113,None,239.21081139997113,240.2108150999993,240.19416549999733,241.19405749998987,0,1,239.21081139997113,None,,,4,m,6,r,KB,2021_Jul_23_1143,WASABI Nback,2020.2.10,59.99646020983193,
0,1,6,"[0.2, 0]",None,0,0,0,0,,,,,0,0,0,0,0,87,87,87,,,,,,,,,None,None,0,241.21081079996657,None,241.21081079996657,242.21084529999644,242.1941882999381,243.19418899994344,0,1,241.21081079996657,None,,,4,m,6,r,KB,2021_Jul_23_1143,WASABI Nback,2020.2.10,59.99646020983193,
0,1,7,"[-0.2, -0.2]",None,0,0,0,0,,,,,0,0,0,0,0,88,88,88,,,,,,,,,None,None,0,243.2108520999318,None,243.2108520999318,244.21084690000862,244.19418759993277,245.194191699964,0,1,243.2108520999318,None,,,4,m,6,r,KB,2021_Jul_23_1143,WASABI Nback,2020.2.10,59.99646020983193,
0,1,6,"[0.2, 0]",1,0,0,0,0,,,,,0,0,0,0,0,89,89,89,,,,,,,,,None,None,0,245.2108704999555,None,245.2108704999555,246.21087820001412,246.1942119000014,247.19420319993515,0,1,245.2108704999555,None,,,4,m,6,r,KB,2021_Jul_23_1143,WASABI Nback,2020.2.10,59.99646020983193,
0,1,6,"[0.2, 0]",None,0,0,0,0,,,,,0,0,0,0,0,90,90,90,,,,,,,,,None,None,0,247.21086669992656,None,247.21086669992656,248.21087710000575,248.19423070002813,249.19422569999006,0,1,247.21086669992656,None,,,4,m,6,r,KB,2021_Jul_23_1143,WASABI Nback,2020.2.10,59.99646020983193,
0,1,7,"[-0.2, -0.2]",None,0,0,0,0,,,,,0,0,0,0,0,91,91,91,,,,,,,,,None,None,0,249.2109035999747,None,249.2109035999747,250.21090940001886,250.19423299992923,251.19423709996045,0,1,249.2109035999747,None,,,4,m,6,r,KB,2021_Jul_23_1143,WASABI Nback,2020.2.10,59.99646020983193,
0,1,6,"[0.2, 0]",1,0,0,0,0,,,,,0,0,0,0,0,92,92,92,,,,,,,,,None,None,0,251.21090559998993,None,251.21090559998993,252.21092719992157,252.19424560002517,253.1942565999925,0,1,251.21090559998993,None,,,4,m,6,r,KB,2021_Jul_23_1143,WASABI Nback,2020.2.10,59.99646020983193,
0,1,2,"[0, 0.2]",None,0,0,0,0,,,,,0,0,0,0,0,93,93,93,,,,,,,,,None,None,0,253.21091139991768,None,253.21091139991768,254.21092059998773,254.1942697999766,255.1942560999887,0,1,253.21091139991768,None,,,4,m,6,r,KB,2021_Jul_23_1143,WASABI Nback,2020.2.10,59.99646020983193,
0,1,5,"[0, 0]",None,0,0,0,0,,,,,0,0,0,0,0,94,94,94,,,,,,,,,None,None,0,255.2109503999818,None,255.2109503999818,256.2109403000213,256.1942721999949,257.194293599925,0,1,255.2109503999818,None,,,4,m,6,r,KB,2021_Jul_23_1143,WASABI Nback,2020.2.10,59.99646020983193,
0,1,4,"[-0.2, 0]",None,0,0,0,0,,,,,0,0,0,0,0,95,95,95,,,,,,,,,None,None,0,257.2109475999605,None,257.2109475999605,258.21095749991946,258.19430309999734,259.19429559994023,0,1,257.2109475999605,None,,,4,m,6,r,KB,2021_Jul_23_1143,WASABI Nback,2020.2.10,59.99646020983193,
0,1,4,"[-0.2, 0]",None,0,0,0,0,,,,,0,0,0,0,0,96,96,96,,,,,,,,,None,None,0,259.21095909993164,None,259.21095909993164,260.21097819996066,260.19431369996164,261.1943069000263,0,1,259.21095909993164,None,,,4,m,6,r,KB,2021_Jul_23_1143,WASABI Nback,2020.2.10,59.99646020983193,
0,1,7,"[-0.2, -0.2]",None,0,0,0,0,,,,,0,0,0,0,0,97,97,97,,,,,,,,,None,None,0,261.21097249991726,None,261.21097249991726,262.21099169994704,262.1943137999624,263.19432170002256,0,1,261.21097249991726,None,,,4,m,6,r,KB,2021_Jul_23_1143,WASABI Nback,2020.2.10,59.99646020983193,
0,1,4,"[-0.2, 0]",1,0,0,0,0,,,,,0,0,0,0,0,98,98,98,,,,,,,,,None,None,0,263.210997999995,None,263.210997999995,264.21099339996,264.1943455999717,265.19433879991993,0,0,263.210997999995,None,,,4,m,6,r,KB,2021_Jul_23_1143,WASABI Nback,2020.2.10,59.99646020983193,
0,1,3,"[0.2, 0.2]",None,0,0,0,0,,,,,0,0,0,0,0,99,99,99,,,,,,,,,None,None,0,265.21100879996084,None,265.21100879996084,266.2110116999829,266.19435689994134,267.19434779998846,0,1,265.21100879996084,None,,,4,m,6,r,KB,2021_Jul_23_1143,WASABI Nback,2020.2.10,59.99646020983193,
0,1,5,"[0, 0]",None,0,0,0,0,,,,,0,0,0,0,0,100,100,100,,,,,,,,,None,None,0,267.2110381999519,None,267.2110381999519,268.21102299995255,268.1943679000251,269.1943827000214,0,1,267.2110381999519,None,,,4,m,6,r,KB,2021_Jul_23_1143,WASABI Nback,2020.2.10,59.99646020983193,
0,1,3,"[0.2, 0.2]",1,0,0,0,0,,,,,0,0,0,0,0,101,101,101,,,,,,,,,None,None,0,269.21103569993284,None,269.21103569993284,270.2110430999892,270.1943737999536,271.1943885999499,0,0,269.21103569993284,None,,,4,m,6,r,KB,2021_Jul_23_1143,WASABI Nback,2020.2.10,59.99646020983193,
0,1,1,"[-0.2, 0.2]",None,0,0,0,0,,,,,0,0,0,0,0,102,102,102,,,,,,,,,None,None,0,271.2110624000197,None,271.2110624000197,272.21105169993825,272.19438949995674,273.19435919995885,0,1,271.2110624000197,None,,,4,m,6,r,KB,2021_Jul_23_1143,WASABI Nback,2020.2.10,59.99646020983193,
0,1,9,"[0.2, -0.2]",None,0,0,0,0,,,,,0,0,0,0,0,103,103,103,,,,,,,,,None,None,0,273.21103949996177,None,273.21103949996177,274.2110735999886,274.19429969997145,275.194425099995,0,1,273.21103949996177,None,,,4,m,6,r,KB,2021_Jul_23_1143,WASABI Nback,2020.2.10,59.99646020983193,
0,1,9,"[0.2, -0.2]",None,0,0,0,0,,,,,0,0,0,0,0,104,104,104,,,,,,,,,None,None,0,275.2110882999841,None,275.2110882999841,276.2110879999818,276.19441659993026,277.1944403999951,0,1,275.2110882999841,None,,,4,m,6,r,KB,2021_Jul_23_1143,WASABI Nback,2020.2.10,59.99646020983193,
0,1,8,"[0, -0.2]",None,0,0,0,0,,,,,0,0,0,0,0,105,105,105,,,,,,,,,None,None,0,277.21110680000857,None,277.21110680000857,278.21110299997963,278.1944480999373,279.19443449995015,0,1,277.21110680000857,None,,,4,m,6,r,KB,2021_Jul_23_1143,WASABI Nback,2020.2.10,59.99646020983193,
0,1,6,"[0.2, 0]",None,0,0,0,0,,,,,0,0,0,0,0,106,106,106,,,,,,,,,None,None,0,279.21110399998724,None,279.21110399998724,280.2111332999775,280.19449839997105,281.19438230001833,0,1,279.21110399998724,None,,,4,m,6,r,KB,2021_Jul_23_1143,WASABI Nback,2020.2.10,59.99646020983193,
0,1,3,"[0.2, 0.2]",None,0,0,0,0,,,,,0,0,0,0,0,107,107,107,,,,,,,,,None,None,0,281.2111183999805,None,281.2111183999805,282.21111459995154,282.1943867999362,283.19450749992393,0,1,281.2111183999805,None,,,4,m,6,r,KB,2021_Jul_23_1143,WASABI Nback,2020.2.10,59.99646020983193,
0,1,6,"[0.2, 0]",1,0,0,0,0,,,,,0,0,0,0,0,108,108,108,,,,,,,,,None,None,0,283.2111536000157,None,283.2111536000157,284.21116139995866,284.1944892000174,285.19449449994136,0,1,283.2111536000157,None,,,4,m,6,r,KB,2021_Jul_23_1143,WASABI Nback,2020.2.10,59.99646020983193,
0,1,5,"[0, 0]",None,0,0,0,0,,,,,0,0,0,0,0,109,109,109,,,,,,,,,None,None,0,285.2111701000249,None,285.2111701000249,286.21117949998006,286.1944935999345,287.1945160999894,0,1,285.2111701000249,None,,,4,m,6,r,KB,2021_Jul_23_1143,WASABI Nback,2020.2.10,59.99646020983193,
0,1,7,"[-0.2, -0.2]",None,0,0,0,0,,,,,0,0,0,0,0,110,110,110,,,,,,,,,None,None,0,287.21116710000206,None,287.21116710000206,288.21117999998387,288.19451990001835,289.19452489994,0,1,287.21116710000206,None,,,4,m,6,r,KB,2021_Jul_23_1143,WASABI Nback,2020.2.10,59.99646020983193,
0,1,5,"[0, 0]",1,0,0,0,0,,,,,0,0,0,0,0,111,111,111,,,,,,,,,None,None,0,289.21119739999995,None,289.21119739999995,290.211188999936,290.1945366000291,291.19453799992334,0,1,289.21119739999995,None,,,4,m,6,r,KB,2021_Jul_23_1143,WASABI Nback,2020.2.10,59.99646020983193,
0,1,1,"[-0.2, 0.2]",None,0,0,0,0,,,,,0,0,0,0,0,112,112,112,,,,,,,,,None,None,0,291.2112196999369,None,291.2112196999369,292.21122009993996,292.19455899996683,293.19456360000186,0,1,291.2112196999369,None,,,4,m,6,r,KB,2021_Jul_23_1143,WASABI Nback,2020.2.10,59.99646020983193,
0,1,7,"[-0.2, -0.2]",None,0,0,0,0,,,,,0,0,0,0,0,113,113,113,,,,,,,,,None,None,0,293.2111993000144,None,293.2111993000144,294.2112222999567,294.19445209996775,295.19456700002775,0,1,293.2111993000144,None,,,4,m,6,r,KB,2021_Jul_23_1143,WASABI Nback,2020.2.10,59.99646020983193,
0,1,9,"[0.2, -0.2]",None,0,0,0,0,,,,,0,0,0,0,0,114,114,114,,,,,,,,,None,None,0,295.2111193999881,None,295.2111193999881,296.21121939993463,296.1945872999495,297.19458399992436,0,1,295.2111193999881,None,,,4,m,6,r,KB,2021_Jul_23_1143,WASABI Nback,2020.2.10,59.99646020983193,
0,1,3,"[0.2, 0.2]",None,0,0,0,0,,,,,0,0,0,0,0,115,115,115,,,,,,,,,None,None,0,297.2112567999866,None,297.2112567999866,298.2112624000292,298.1945862999419,299.1945893999655,0,1,297.2112567999866,None,,,4,m,6,r,KB,2021_Jul_23_1143,WASABI Nback,2020.2.10,59.99646020983193,
0,1,9,"[0.2, -0.2]",1,0,0,0,0,,,,,0,0,0,0,0,116,116,116,,,,,,,,,None,None,0,299.2112569999881,None,299.2112569999881,300.21126409992576,300.19460789998993,301.1946195999626,0,1,299.2112569999881,None,,,4,m,6,r,KB,2021_Jul_23_1143,WASABI Nback,2020.2.10,59.99646020983193,
0,1,6,"[0.2, 0]",None,0,0,0,0,,,,,0,0,0,0,0,117,117,117,,,,,,,,,None,None,0,301.2112854999723,None,301.2112854999723,302.21126639994327,302.19462620001286,303.1946259000106,0,1,301.2112854999723,None,,,4,m,6,r,KB,2021_Jul_23_1143,WASABI Nback,2020.2.10,59.99646020983193,
0,1,2,"[0, 0.2]",None,0,0,0,0,,,,,0,0,0,0,0,118,118,118,,,,,,,,,None,None,0,303.21128609997686,None,303.21128609997686,304.2113512000069,304.1946682999842,305.1946384999901,0,1,303.21128609997686,None,,,4,m,6,r,KB,2021_Jul_23_1143,WASABI Nback,2020.2.10,59.99646020983193,
0,1,5,"[0, 0]",None,0,0,0,0,,,,,0,0,0,0,0,119,119,119,,,,,,,,,None,None,0,305.21129669994116,None,305.21129669994116,306.2113283999497,306.1946449999232,307.1946495999582,0,1,305.21129669994116,None,,,4,m,6,r,KB,2021_Jul_23_1143,WASABI Nback,2020.2.10,59.99646020983193,
1,0,,,,0,1,1,1,0,0,0,0,,,,,,,,,,,,,,,,,,,,,,,,,,,,,,362.36161959997844,None,4,m,6,r,KB,2021_Jul_23_1143,WASABI Nback,2020.2.10,59.99646020983193,
