	SID	day	sex	session	handedness	scanner	onset	duration	value	body_site	skin_site	temperature	condition	keys	rt	phase	biopac_channel
0	2570	3	F	3	R	MS MH	2.774279500124976	5.010820912895724		Chest	3	48.0	Instructions			Control	19
1	2570	3	F	3	R	MS MH	8.1065479000099	5.014007799793035	40.06172839506172	Chest	3	48.0	Expectancy		2.6833935999311507	Control	51
2	2570	3	F	3	R	MS MH	13.51433050003834	2.0151417998131365		Chest	3	48.0	Cue			Control	6
3	2570	3	F	3	R	MS MH	15.525497999973595	7.9929207800887525		Chest	3	48.0	Pre-Jitter			Control	7
4	2570	3	F	3	R	MS MH	23.56801649997942	15.008153419941664		Chest	3	48.0	Control Heat 			Control	17
5	2570	3	F	3	R	MS MH	38.57355530001223	6.997223680140451		Chest	3	48.0	Mid-Jitter			Control	8
6	2570	3	F	3	R	MS MH	45.59209779999219	5.010312659665942	-1.0	Chest	3	48.0	PainBinary		1.5333306998945773	Control	20
7	2570	3	F	3	R	MS MH	55.614099900005385	7.0164998578839		Chest	3	48.0	Post-Q-Jitter			Control	9
8	2570	3	F	3	R	MS MH	63.894864900037646	5.005108259385452	32.77777777777778	Chest	3	48.0	Expectancy		3.3167318999767303	Control	51
9	2570	3	F	3	R	MS MH	69.27325570001267	2.0150390395428985		Chest	3	48.0	Cue			Control	6
10	2570	3	F	3	R	MS MH	71.29276890004985	7.992797379847616		Chest	3	48.0	Pre-Jitter			Control	7
11	2570	3	F	3	R	MS MH	79.3435949999839	15.008050619857386		Chest	3	48.0	Control Heat 			Control	17
12	2570	3	F	3	R	MS MH	94.35713490005583	8.997847380349413		Chest	3	48.0	Mid-Jitter			Control	8
13	2570	3	F	3	R	MS MH	103.37587360013276	4.993855059845373	-1.0	Chest	3	48.0	PainBinary		1.1844538999721408	Control	20
14	2570	3	F	3	R	MS MH	113.38141699996777	9.016298657516018		Chest	3	48.0	Post-Q-Jitter			Control	9
15	2570	3	F	3	R	MS MH	122.72819599998184	5.006265879608691	34.81481481481482	Chest	3	48.0	Expectancy		3.2833642999175936	Control	51
16	2570	3	F	3	R	MS MH	128.11392659996636	2.0015206397511065		Chest	3	48.0	Cue			Control	6
17	2570	3	F	3	R	MS MH	130.1265066000633	7.993127080146223		Chest	3	48.0	Pre-Jitter			Control	7
18	2570	3	F	3	R	MS MH	138.17347269994207	14.99944032006897		Chest	3	48.0	Control Heat 			Control	17
19	2570	3	F	3	R	MS MH	153.17510739993304	8.996398380026221		Chest	3	48.0	Mid-Jitter			Control	8
20	2570	3	F	3	R	MS MH	162.19493640004657	5.0069054597988725	-1.0	Chest	3	48.0	PainBinary		1.3000427999068052	Control	20
21	2570	3	F	3	R	MS MH	172.2158053999301	9.015328757930547		Chest	3	48.0	Post-Q-Jitter			Control	9
22	2570	3	F	3	R	MS MH	181.53408810007386	5.0122790997847915	34.50617283950617	Chest	3	48.0	Expectancy		3.86709040007554	Control	51
23	2570	3	F	3	R	MS MH	186.9276330000721	2.0086289197206497		Chest	3	48.0	Cue			Control	6
24	2570	3	F	3	R	MS MH	188.94382679997943	7.992993180407211		Chest	3	48.0	Pre-Jitter			Control	7
25	2570	3	F	3	R	MS MH	196.99223749991506	14.996420220006257		Chest	3	48.0	Control Heat 			Control	17
26	2570	3	F	3	R	MS MH	211.9914693001192	6.9980462801177055		Chest	3	48.0	Mid-Jitter			Control	8
27	2570	3	F	3	R	MS MH	219.01034300005995	5.01043235999532	-1.0	Chest	3	48.0	PainBinary		0.9667492001317441	Control	20
28	2570	3	F	3	R	MS MH	229.03273750003427	7.015895857708529		Chest	3	48.0	Post-Q-Jitter			Control	9
29	2570	3	F	3	R	MS MH	236.36492779990658	5.001742499880493	31.913580246913583	Chest	3	48.0	Expectancy		3.5671265001874417	Control	51
30	2570	3	F	3	R	MS MH	241.75317550008185	2.0086068199016154		Chest	3	48.0	Cue			Control	6
31	2570	3	F	3	R	MS MH	243.76130000012927	8.009138580178842		Chest	3	48.0	Pre-Jitter			Control	7
32	2570	3	F	3	R	MS MH	251.81254850002006	15.00685414019972		Chest	3	48.0	Control Heat 			Control	17
33	2570	3	F	3	R	MS MH	266.82611869997345	6.99658898008056		Chest	3	48.0	Mid-Jitter			Control	8
34	2570	3	F	3	R	MS MH	273.8447795000393	5.009429259924218	-1.0	Chest	3	48.0	PainBinary		1.3333419999107718	Control	20
35	2570	3	F	3	R	MS MH	283.865785199916	7.000842977780849		Chest	3	48.0	Post-Q-Jitter			Control	9
36	2570	3	F	3	R	MS MH	291.1785373000894	5.0088495197705925	25.0	Chest	3	48.0	Expectancy		4.2859161999076605	Control	51
37	2570	3	F	3	R	MS MH	296.5705923999194	2.0081804199144244		Chest	3	48.0	Cue			Control	6
38	2570	3	F	3	R	MS MH	298.5791766999755	6.007772980257869		Chest	3	48.0	Pre-Jitter			Control	7
39	2570	3	F	3	R	MS MH	304.6244026001077	15.000838339794427		Chest	3	48.0	Control Heat 			Control	17
40	2570	3	F	3	R	MS MH	319.6259137999732	6.998044079868123		Chest	3	48.0	Mid-Jitter			Control	8
41	2570	3	F	3	R	MS MH	326.64430829999037	5.011388960061595	-1.0	Chest	3	48.0	PainBinary		1.1833443001378328	Control	20
42	2570	3	F	3	R	MS MH	336.6671581999399	7.0158664574846625		Chest	3	48.0	Post-Q-Jitter			Control	9
43	2570	3	F	3	R	MS MH	343.6999373999424	4.917234760010615	13.456790123456798	Chest	3	48.0	ComfortRating		4.9003717000596225	Control	26
44	2570	3	F	3	R	MS MH	348.64772849995643	2.771720460150391	58.82716049382716	Chest	3	48.0	ValenceRating		2.7500409001950175	Control	24
45	2570	3	F	3	R	MS MH	351.44169540004805	3.533858360024169	63.95061728395062	Chest	3	48.0	IntensityRating		3.5170098000671715	Control	26
46	2570	3	F	3	R	MS MH	354.9952179999091	2.560232459800318	11.728395061728406	Chest	3	48.0	AvoidanceRating		2.533362800022587	Control	27
47	2570	3	F	3	R	MS MH	357.5724671999924	3.105864259880036	60.12345679012346	Chest	3	48.0	RelaxationRating		3.0837718001566827	Control	28
48	2570	3	F	3	R	MS MH	360.6929637999274	3.7315599599387497	63.827160493827165	Chest	3	48.0	AttentionRating		3.7035113000310957	Control	29
49	2570	3	F	3	R	MS MH	364.4402326999698	2.970382560044527	42.839506172839506	Chest	3	48.0	BoredomRating		2.950306799961254	Control	30
50	2570	3	F	3	R	MS MH	367.4247234999202	3.2014443597290665	-6.172839506172835	Chest	3	48.0	AlertnessRating		3.183762799948454	Control	31
51	2570	3	F	3	R	MS MH	370.64209929993376	4.150114960037172	11.481481481481495	Chest	3	48.0	PosThxRating		4.1336839001160115	Control	32
52	2570	3	F	3	R	MS MH	374.8086836999282	3.400336760096252	7.407407407407419	Chest	3	48.0	NegThxRating		3.383654700126499	Control	33
53	2570	3	F	3	R	MS MH	378.22469770000316	4.184971659677103	21.23456790123457	Chest	3	48.0	SelfRating		4.166943700052798	Control	34
54	2570	3	F	3	R	MS MH	382.4248609000351	2.4680020599626005	-19.506172839506164	Chest	3	48.0	OtherRating		2.4503203998319805	Control	35
55	2570	3	F	3	R	MS MH	384.90933359996416	2.8491842600051314	21.975308641975303	Chest	3	48.0	ImageryRating		2.8337928999681026	Control	32
56	2570	3	F	3	R	MS MH	387.77786989999004	3.2122426598798484	48.641975308641975	Chest	3	48.0	PresentRating		3.1834196001291275	Control	37
