runSeq,trial_type,runLoop.thisRepN,runLoop.thisTrialN,runLoop.thisN,runLoop.thisIndex,trials.thisRepN,trials.thisTrialN,trials.thisN,trials.thisIndex,Begin.started,Begin.stopped,BeginTask.keys,BeginTask.rt,BeginTask.started,BeginTask.stopped,BodySiteInstructionText.started,BodySiteImg.started,BodySiteImg.stopped,BodySiteInstructionRead.keys,BodySiteInstructionRead.rt,BodySiteInstructionRead.started,BodySiteInstructionRead.stopped,ImagineInstructionText.started,ImaginationInstructionRead.keys,ImaginationInstructionRead.rt,ImaginationInstructionRead.started,ImaginationInstructionRead.stopped,BodySiteCue.started,BodySiteCue.stopped,NonStimTrialText.started,NonStimTrialText.stopped,fix_cross.started,fix_cross.stopped,ValenceRating.response,ValenceRating.rt,ValenceRating.started,ValenceRating.stopped,IntensityRating.response,IntensityRating.rt,IntensityRating.started,IntensityRating.stopped,ComfortRating.response,ComfortRating.rt,ComfortRating.started,ComfortRating.stopped,EndingText.started,EndingText.stopped,ConfirmEnd.keys,ConfirmEnd.rt,ConfirmEnd.started,ConfirmEnd.stopped,subject number,gender,bodymap first- or second-half (1 or 2),session,handedness,scanner,date,psychopyVersion,expName,frameRate,body_site_order,
,,,,,,,,,,43.658595800050534,None,space,1.6850505999755114,43.658595800050534,None,,,,,,,,,,,,,,,,,,,,,,,,,,,,,,,,,,,,,1,M,1,6,r,CIB,2021_May_19_0907,2020.2.5,bodymapST1,59.99847605504297,"['Right Face', 'Chest', 'Right Leg', 'Left Arm']",
stimuli/orders/stimOrder5.xlsx,3,0,0,0,2,0,0,0,0,,,,,,,45.47592470003292,45.47592470003292,None,space,943.7334552999819,45.47592470003292,None,989.2336508000735,space,67.2069333998952,989.2336508000735,None,1074.668099500006,None,1074.668099500006,None,,,,,,,,,,,,,,,,,,,,,1,M,1,6,r,CIB,2021_May_19_0907,2020.2.5,bodymapST1,59.99847605504297,"['Right Face', 'Chest', 'Right Leg', 'Left Arm']",
stimuli/orders/stimOrder5.xlsx,3,0,0,0,2,0,2,2,2,,,,,,,,,,,,,,,,,,,1100.6685197000625,None,1100.6685197000625,None,1087.6681545000756,None,,,,,,,,,,,,,,,,,,,1,M,1,6,r,CIB,2021_May_19_0907,2020.2.5,bodymapST1,59.99847605504297,"['Right Face', 'Chest', 'Right Leg', 'Left Arm']",
stimuli/orders/stimOrder5.xlsx,3,0,0,0,2,0,7,7,7,,,,,,,,,,,,,,,,,,,1165.6685635000467,None,1165.6685635000467,None,1152.6684073000215,1152.6684073000215,,,,,,,,,,,,,,,,,,,1,M,1,6,r,CIB,2021_May_19_0907,2020.2.5,bodymapST1,59.99847605504297,"['Right Face', 'Chest', 'Right Leg', 'Left Arm']",
stimuli/orders/stimOrder5.xlsx,3,0,0,0,2,0,11,11,11,,,,,,,,,,,,,,,,,,,1217.6690918999957,None,1217.6690918999957,None,1204.668836900033,1204.668836900033,,,,,,,,,,,,,,,,,,,1,M,1,6,r,CIB,2021_May_19_0907,2020.2.5,bodymapST1,59.99847605504297,"['Right Face', 'Chest', 'Right Leg', 'Left Arm']",
stimuli/orders/stimOrder5.xlsx,3,0,0,0,2,0,13,13,13,,,,,,,,,,,,,,,,,,,1243.6695239000255,None,1243.6695239000255,None,1230.6691637000768,None,,,,,,,,,,,,,,,,,,,1,M,1,6,r,CIB,2021_May_19_0907,2020.2.5,bodymapST1,59.99847605504297,"['Right Face', 'Chest', 'Right Leg', 'Left Arm']",
stimuli/orders/stimOrder5.xlsx,3,0,0,0,2,0,16,16,16,,,,,,,,,,,,,,,,,,,1282.6698454000289,None,1282.6698454000289,None,1269.6693788000848,1269.6693788000848,,,,,,,,,,,,,,,,,,,1,M,1,6,r,CIB,2021_May_19_0907,2020.2.5,bodymapST1,59.99847605504297,"['Right Face', 'Chest', 'Right Leg', 'Left Arm']",
stimuli/orders/stimOrder5.xlsx,3,0,0,0,2,0,20,20,20,,,,,,,,,,,,,,,,,,,1334.6701066000387,None,1334.6701066000387,None,1321.6698160000378,1321.6698160000378,,,,,,,,,,,,,,,,,,,1,M,1,6,r,CIB,2021_May_19_0907,2020.2.5,bodymapST1,59.99847605504297,"['Right Face', 'Chest', 'Right Leg', 'Left Arm']",
stimuli/orders/stimOrder5.xlsx,3,0,0,0,2,0,25,25,25,,,,,,,,,,,,,,,,,,,1399.6708984000143,None,1399.6708984000143,None,1386.6703957000282,1386.6703957000282,,,,,,,,,,,,,,,,,,,1,M,1,6,r,CIB,2021_May_19_0907,2020.2.5,bodymapST1,59.99847605504297,"['Right Face', 'Chest', 'Right Leg', 'Left Arm']",
stimuli/orders/stimOrder5.xlsx,3,0,0,0,2,0,31,31,31,,,,,,,,,,,,,,,,,,,1477.671498700045,None,1477.671498700045,None,1464.6710426000645,1464.6710426000645,,,,,,,,,,,,,,,,,,,1,M,1,6,r,CIB,2021_May_19_0907,2020.2.5,bodymapST1,59.99847605504297,"['Right Face', 'Chest', 'Right Leg', 'Left Arm']",
stimuli/orders/stimOrder5.xlsx,3,0,0,0,2,0,33,33,33,,,,,,,,,,,,,,,,,,,1503.671589100035,None,1503.671589100035,None,1490.671160900034,None,,,,,,,,,,,,,,,,,,,1,M,1,6,r,CIB,2021_May_19_0907,2020.2.5,bodymapST1,59.99847605504297,"['Right Face', 'Chest', 'Right Leg', 'Left Arm']",
stimuli/orders/stimOrder5.xlsx,3,0,0,0,2,0,34,34,34,,,,,,,,,,,,,,,,,,,1516.6714928000001,1516.6714928000001,1516.6714928000001,1516.6714928000001,,,,,,,,,,,,,,,,,,,,,1,M,1,6,r,CIB,2021_May_19_0907,2020.2.5,bodymapST1,59.99847605504297,"['Right Face', 'Chest', 'Right Leg', 'Left Arm']",
stimuli/orders/stimOrder5.xlsx,3,0,0,0,2,0,39,39,39,,,,,,,,,,,,,,,,,,,1581.6722649000585,None,1581.6722649000585,None,1568.6719258000376,1568.6719258000376,,,,,,,,,,,,,,,,,,,1,M,1,6,r,CIB,2021_May_19_0907,2020.2.5,bodymapST1,59.99847605504297,"['Right Face', 'Chest', 'Right Leg', 'Left Arm']",
stimuli/orders/stimOrder5.xlsx,,0,0,0,2,,,,,,,,,,,,,,,,,,,,,,,,,,,,,-10.246913580246911,1598.9236208499642,,,,,,,,,,,,,,,,,1,M,1,6,r,CIB,2021_May_19_0907,2020.2.5,bodymapST1,59.99847605504297,"['Right Face', 'Chest', 'Right Leg', 'Left Arm']",
stimuli/orders/stimOrder5.xlsx,,0,0,0,2,,,,,,,,,,,,,,,,,,,,,,,,,,,,,,,0.012165550026111305,10.007957249996252,22.77777777777778,1605.4887912499253,,,,,,,,,,,,,1,M,1,6,r,CIB,2021_May_19_0907,2020.2.5,bodymapST1,59.99847605504297,"['Right Face', 'Chest', 'Right Leg', 'Left Arm']",
stimuli/orders/stimOrder5.xlsx,,0,0,0,2,,,,,,,,,,,,,,,,,,,,,,,,,,,,,,,,,,,0.01368045003619045,None,55.80246913580247,1611.4726051499601,,,,,,,,,1,M,1,6,r,CIB,2021_May_19_0907,2020.2.5,bodymapST1,59.99847605504297,"['Right Face', 'Chest', 'Right Leg', 'Left Arm']",
stimuli/orders/stimOrder7.xlsx,3,0,1,1,3,0,4,4,4,,,,,,,1628.456028200104,1628.456028200104,None,space,214.04256560001522,1628.456028200104,None,,,,,,1929.3583303000778,None,1929.3583303000778,None,1916.341538800043,1916.341538800043,,,,,,,,,,,0.013291749986819923,None,,,,,,,1,M,1,6,r,CIB,2021_May_19_0907,2020.2.5,bodymapST1,59.99847605504297,"['Right Face', 'Chest', 'Right Leg', 'Left Arm']",
stimuli/orders/stimOrder7.xlsx,3,0,1,1,3,0,6,6,6,,,,,,,,,,,,,,,,,,,1955.3589260000736,None,1955.3589260000736,None,1942.3587692000438,None,,,,,,,,,,,,,,,,,,,1,M,1,6,r,CIB,2021_May_19_0907,2020.2.5,bodymapST1,59.99847605504297,"['Right Face', 'Chest', 'Right Leg', 'Left Arm']",
stimuli/orders/stimOrder7.xlsx,3,0,1,1,3,0,11,11,11,,,,,,,,,,,,,,,,,,,2020.3586981000844,None,2020.3586981000844,None,2007.35897270008,2007.35897270008,,,,,,,,,,,,,,,,,,,1,M,1,6,r,CIB,2021_May_19_0907,2020.2.5,bodymapST1,59.99847605504297,"['Right Face', 'Chest', 'Right Leg', 'Left Arm']",
stimuli/orders/stimOrder7.xlsx,3,0,1,1,3,0,19,19,19,,,,,,,,,,,,,,,,,,,2124.3598598000826,None,2124.3598598000826,None,2111.359883100027,2111.359883100027,,,,,,,,,,,,,,,,,,,1,M,1,6,r,CIB,2021_May_19_0907,2020.2.5,bodymapST1,59.99847605504297,"['Right Face', 'Chest', 'Right Leg', 'Left Arm']",
stimuli/orders/stimOrder7.xlsx,3,0,1,1,3,0,20,20,20,,,,,,,,,,,,,,,,,,,2137.3602611001115,2137.3602611001115,2137.3602611001115,2137.3602611001115,,,,,,,,,,,,,,,,,,,,,1,M,1,6,r,CIB,2021_May_19_0907,2020.2.5,bodymapST1,59.99847605504297,"['Right Face', 'Chest', 'Right Leg', 'Left Arm']",
stimuli/orders/stimOrder7.xlsx,3,0,1,1,3,0,22,22,22,,,,,,,,,,,,,,,,,,,2163.360708500026,None,2163.360708500026,None,2150.3604409000836,None,,,,,,,,,,,,,,,,,,,1,M,1,6,r,CIB,2021_May_19_0907,2020.2.5,bodymapST1,59.99847605504297,"['Right Face', 'Chest', 'Right Leg', 'Left Arm']",
stimuli/orders/stimOrder7.xlsx,3,0,1,1,3,0,23,23,23,,,,,,,,,,,,,,,,,,,2176.3605842000106,2176.3605842000106,2176.3605842000106,2176.3605842000106,,,,,,,,,,,,,,,,,,,,,1,M,1,6,r,CIB,2021_May_19_0907,2020.2.5,bodymapST1,59.99847605504297,"['Right Face', 'Chest', 'Right Leg', 'Left Arm']",
stimuli/orders/stimOrder7.xlsx,3,0,1,1,3,0,29,29,29,,,,,,,,,,,,,,,,,,,2254.3615160000045,None,2254.3615160000045,None,2241.3609740000684,2241.3609740000684,,,,,,,,,,,,,,,,,,,1,M,1,6,r,CIB,2021_May_19_0907,2020.2.5,bodymapST1,59.99847605504297,"['Right Face', 'Chest', 'Right Leg', 'Left Arm']",
stimuli/orders/stimOrder7.xlsx,3,0,1,1,3,0,30,30,30,,,,,,,,,,,,,,,,,,,2267.3613562000683,2267.3613562000683,2267.3613562000683,2267.3613562000683,,,,,,,,,,,,,,,,,,,,,1,M,1,6,r,CIB,2021_May_19_0907,2020.2.5,bodymapST1,59.99847605504297,"['Right Face', 'Chest', 'Right Leg', 'Left Arm']",
stimuli/orders/stimOrder7.xlsx,3,0,1,1,3,0,34,34,34,,,,,,,,,,,,,,,,,,,2319.3619691000786,None,2319.3619691000786,None,2306.3615261000814,2306.3615261000814,,,,,,,,,,,,,,,,,,,1,M,1,6,r,CIB,2021_May_19_0907,2020.2.5,bodymapST1,59.99847605504297,"['Right Face', 'Chest', 'Right Leg', 'Left Arm']",
stimuli/orders/stimOrder7.xlsx,3,0,1,1,3,0,36,36,36,,,,,,,,,,,,,,,,,,,2345.362466700026,None,2345.362466700026,None,2332.362116800039,None,,,,,,,,,,,,,,,,,,,1,M,1,6,r,CIB,2021_May_19_0907,2020.2.5,bodymapST1,59.99847605504297,"['Right Face', 'Chest', 'Right Leg', 'Left Arm']",
stimuli/orders/stimOrder7.xlsx,3,0,1,1,3,0,37,37,37,,,,,,,,,,,,,,,,,,,2358.3619679000694,2358.3619679000694,2358.3619679000694,2358.3619679000694,,,,,,,,,,,,,,,,,,,,,1,M,1,6,r,CIB,2021_May_19_0907,2020.2.5,bodymapST1,59.99847605504297,"['Right Face', 'Chest', 'Right Leg', 'Left Arm']",
stimuli/orders/stimOrder7.xlsx,,0,1,1,3,,,,,,,,,,,,,,,,,,,,,,,,,,,2384.3622070000274,2384.3622070000274,-27.037037037037024,2398.0456225500675,,,,,,,,,,,,,,,,,1,M,1,6,r,CIB,2021_May_19_0907,2020.2.5,bodymapST1,59.99847605504297,"['Right Face', 'Chest', 'Right Leg', 'Left Arm']",
stimuli/orders/stimOrder7.xlsx,,0,1,1,3,,,,,,,,,,,,,,,,,,,,,,,,,,,,,,,0.01366984995547682,None,37.46913580246913,2403.5628344499273,,,,,,,,,,,,,1,M,1,6,r,CIB,2021_May_19_0907,2020.2.5,bodymapST1,59.99847605504297,"['Right Face', 'Chest', 'Right Leg', 'Left Arm']",
stimuli/orders/stimOrder7.xlsx,,0,1,1,3,,,,,,,,,,,,,,,,,,,,,,,,,,,,,,,,,,,0.013117050053551793,None,43.14814814814815,2409.8956980499206,,,,,,,,,1,M,1,6,r,CIB,2021_May_19_0907,2020.2.5,bodymapST1,59.99847605504297,"['Right Face', 'Chest', 'Right Leg', 'Left Arm']",
stimuli/orders/stimOrder1.xlsx,3,0,2,2,0,0,0,0,0,,,,,,,2420.196135000093,2420.196135000093,None,space,167.2717346000718,2420.196135000093,None,,,,,,2622.3641745001078,None,2622.3641745001078,None,,,,,,,,,,,,,0.013680350035429,None,,,,,,,1,M,1,6,r,CIB,2021_May_19_0907,2020.2.5,bodymapST1,59.99847605504297,"['Right Face', 'Chest', 'Right Leg', 'Left Arm']",
stimuli/orders/stimOrder1.xlsx,3,0,2,2,0,0,5,5,5,,,,,,,,,,,,,,,,,,,2687.3649872000096,None,2687.3649872000096,None,2674.36468670005,2674.36468670005,,,,,,,,,,,,,,,,,,,1,M,1,6,r,CIB,2021_May_19_0907,2020.2.5,bodymapST1,59.99847605504297,"['Right Face', 'Chest', 'Right Leg', 'Left Arm']",
stimuli/orders/stimOrder1.xlsx,3,0,2,2,0,0,8,8,8,,,,,,,,,,,,,,,,,,,2726.3654941000277,None,2726.3654941000277,None,2713.365005400032,2713.365005400032,,,,,,,,,,,,,,,,,,,1,M,1,6,r,CIB,2021_May_19_0907,2020.2.5,bodymapST1,59.99847605504297,"['Right Face', 'Chest', 'Right Leg', 'Left Arm']",
stimuli/orders/stimOrder1.xlsx,3,0,2,2,0,0,10,10,10,,,,,,,,,,,,,,,,,,,2752.3654728000984,None,2752.3654728000984,None,2739.3655828000046,None,,,,,,,,,,,,,,,,,,,1,M,1,6,r,CIB,2021_May_19_0907,2020.2.5,bodymapST1,59.99847605504297,"['Right Face', 'Chest', 'Right Leg', 'Left Arm']",
stimuli/orders/stimOrder1.xlsx,3,0,2,2,0,0,12,12,12,,,,,,,,,,,,,,,,,,,2778.3662392999977,None,2778.3662392999977,None,2765.3656517000636,None,,,,,,,,,,,,,,,,,,,1,M,1,6,r,CIB,2021_May_19_0907,2020.2.5,bodymapST1,59.99847605504297,"['Right Face', 'Chest', 'Right Leg', 'Left Arm']",
stimuli/orders/stimOrder1.xlsx,3,0,2,2,0,0,14,14,14,,,,,,,,,,,,,,,,,,,2804.3661132000852,None,2804.3661132000852,None,2791.365852100076,None,,,,,,,,,,,,,,,,,,,1,M,1,6,r,CIB,2021_May_19_0907,2020.2.5,bodymapST1,59.99847605504297,"['Right Face', 'Chest', 'Right Leg', 'Left Arm']",
stimuli/orders/stimOrder1.xlsx,3,0,2,2,0,0,20,20,20,,,,,,,,,,,,,,,,,,,2882.366910800105,None,2882.366910800105,None,2869.366350300028,2869.366350300028,,,,,,,,,,,,,,,,,,,1,M,1,6,r,CIB,2021_May_19_0907,2020.2.5,bodymapST1,59.99847605504297,"['Right Face', 'Chest', 'Right Leg', 'Left Arm']",
stimuli/orders/stimOrder1.xlsx,3,0,2,2,0,0,26,26,26,,,,,,,,,,,,,,,,,,,2960.367246900103,None,2960.367246900103,None,2947.367020000005,2947.367020000005,,,,,,,,,,,,,,,,,,,1,M,1,6,r,CIB,2021_May_19_0907,2020.2.5,bodymapST1,59.99847605504297,"['Right Face', 'Chest', 'Right Leg', 'Left Arm']",
stimuli/orders/stimOrder1.xlsx,3,0,2,2,0,0,28,28,28,,,,,,,,,,,,,,,,,,,2986.368592700106,None,2986.368592700106,None,2973.367552800104,None,,,,,,,,,,,,,,,,,,,1,M,1,6,r,CIB,2021_May_19_0907,2020.2.5,bodymapST1,59.99847605504297,"['Right Face', 'Chest', 'Right Leg', 'Left Arm']",
stimuli/orders/stimOrder1.xlsx,3,0,2,2,0,0,29,29,29,,,,,,,,,,,,,,,,,,,2999.384293200099,None,2999.384293200099,None,,,,,,,,,,,,,,,,,,,,,1,M,1,6,r,CIB,2021_May_19_0907,2020.2.5,bodymapST1,59.99847605504297,"['Right Face', 'Chest', 'Right Leg', 'Left Arm']",
stimuli/orders/stimOrder1.xlsx,3,0,2,2,0,0,36,36,36,,,,,,,,,,,,,,,,,,,3090.384976200061,None,3090.384976200061,None,3077.384801600012,3077.384801600012,,,,,,,,,,,,,,,,,,,1,M,1,6,r,CIB,2021_May_19_0907,2020.2.5,bodymapST1,59.99847605504297,"['Right Face', 'Chest', 'Right Leg', 'Left Arm']",
stimuli/orders/stimOrder1.xlsx,3,0,2,2,0,0,39,39,39,,,,,,,,,,,,,,,,,,,3129.3856925000437,None,3129.3856925000437,None,3116.3851351001067,3116.3851351001067,,,,,,,,,,,,,,,,,,,1,M,1,6,r,CIB,2021_May_19_0907,2020.2.5,bodymapST1,59.99847605504297,"['Right Face', 'Chest', 'Right Leg', 'Left Arm']",
stimuli/orders/stimOrder1.xlsx,,0,2,2,0,,,,,,,,,,,,,,,,,,,,,,,,,,,,,-26.913580246913583,3145.0028711500345,,,,,,,,,,,,,,,,,1,M,1,6,r,CIB,2021_May_19_0907,2020.2.5,bodymapST1,59.99847605504297,"['Right Face', 'Chest', 'Right Leg', 'Left Arm']",
stimuli/orders/stimOrder1.xlsx,,0,2,2,0,,,,,,,,,,,,,,,,,,,,,,,,,,,,,,,0.012789450003765523,None,50.74074074074074,3147.252139050048,,,,,,,,,,,,,1,M,1,6,r,CIB,2021_May_19_0907,2020.2.5,bodymapST1,59.99847605504297,"['Right Face', 'Chest', 'Right Leg', 'Left Arm']",
stimuli/orders/stimOrder1.xlsx,,0,2,2,0,,,,,,,,,,,,,,,,,,,,,,,,,,,,,,,,,,,0.013516949955374002,None,44.69135802469136,3152.185598650016,,,,,,,,,1,M,1,6,r,CIB,2021_May_19_0907,2020.2.5,bodymapST1,59.99847605504297,"['Right Face', 'Chest', 'Right Leg', 'Left Arm']",
stimuli/orders/stimOrder3.xlsx,3,0,3,3,1,0,2,2,2,,,,,,,3161.869160500006,3161.869160500006,None,space,146.27174280001782,3161.869160500006,None,,,,,,3396.654200799996,None,3396.654200799996,None,3383.6374483000254,3383.6374483000254,,,,,,,,,,,0.013464750023558736,None,,,,,,,1,M,1,6,r,CIB,2021_May_19_0907,2020.2.5,bodymapST1,59.99847605504297,"['Right Face', 'Chest', 'Right Leg', 'Left Arm']",
stimuli/orders/stimOrder3.xlsx,3,0,3,3,1,0,4,4,4,,,,,,,,,,,,,,,,,,,3422.6548696000827,None,3422.6548696000827,None,3409.6543254000135,None,,,,,,,,,,,,,,,,,,,1,M,1,6,r,CIB,2021_May_19_0907,2020.2.5,bodymapST1,59.99847605504297,"['Right Face', 'Chest', 'Right Leg', 'Left Arm']",
stimuli/orders/stimOrder3.xlsx,3,0,3,3,1,0,9,9,9,,,,,,,,,,,,,,,,,,,3487.656213700073,None,3487.656213700073,None,3474.6548889999976,3474.6548889999976,,,,,,,,,,,,,,,,,,,1,M,1,6,r,CIB,2021_May_19_0907,2020.2.5,bodymapST1,59.99847605504297,"['Right Face', 'Chest', 'Right Leg', 'Left Arm']",
stimuli/orders/stimOrder3.xlsx,3,0,3,3,1,0,15,15,15,,,,,,,,,,,,,,,,,,,3565.6727602001047,None,3565.6727602001047,None,3552.672211500001,3552.672211500001,,,,,,,,,,,,,,,,,,,1,M,1,6,r,CIB,2021_May_19_0907,2020.2.5,bodymapST1,59.99847605504297,"['Right Face', 'Chest', 'Right Leg', 'Left Arm']",
stimuli/orders/stimOrder3.xlsx,3,0,3,3,1,0,16,16,16,,,,,,,,,,,,,,,,,,,3578.672603800078,3578.672603800078,3578.672603800078,3578.672603800078,,,,,,,,,,,,,,,,,,,,,1,M,1,6,r,CIB,2021_May_19_0907,2020.2.5,bodymapST1,59.99847605504297,"['Right Face', 'Chest', 'Right Leg', 'Left Arm']",
stimuli/orders/stimOrder3.xlsx,3,0,3,3,1,0,18,18,18,,,,,,,,,,,,,,,,,,,3604.6728316000663,None,3604.6728316000663,None,3591.6728639000794,None,,,,,,,,,,,,,,,,,,,1,M,1,6,r,CIB,2021_May_19_0907,2020.2.5,bodymapST1,59.99847605504297,"['Right Face', 'Chest', 'Right Leg', 'Left Arm']",
stimuli/orders/stimOrder3.xlsx,3,0,3,3,1,0,24,24,24,,,,,,,,,,,,,,,,,,,3682.673322800081,None,3682.673322800081,None,3669.6732024000958,3669.6732024000958,,,,,,,,,,,,,,,,,,,1,M,1,6,r,CIB,2021_May_19_0907,2020.2.5,bodymapST1,59.99847605504297,"['Right Face', 'Chest', 'Right Leg', 'Left Arm']",
stimuli/orders/stimOrder3.xlsx,3,0,3,3,1,0,27,27,27,,,,,,,,,,,,,,,,,,,3721.6735100001097,None,3721.6735100001097,None,3708.673542500008,3708.673542500008,,,,,,,,,,,,,,,,,,,1,M,1,6,r,CIB,2021_May_19_0907,2020.2.5,bodymapST1,59.99847605504297,"['Right Face', 'Chest', 'Right Leg', 'Left Arm']",
stimuli/orders/stimOrder3.xlsx,3,0,3,3,1,0,30,30,30,,,,,,,,,,,,,,,,,,,3760.674325900036,None,3760.674325900036,None,3747.6738669000333,3747.6738669000333,,,,,,,,,,,,,,,,,,,1,M,1,6,r,CIB,2021_May_19_0907,2020.2.5,bodymapST1,59.99847605504297,"['Right Face', 'Chest', 'Right Leg', 'Left Arm']",
stimuli/orders/stimOrder3.xlsx,3,0,3,3,1,0,32,32,32,,,,,,,,,,,,,,,,,,,3786.6743199001066,None,3786.6743199001066,None,3773.6744823000627,None,,,,,,,,,,,,,,,,,,,1,M,1,6,r,CIB,2021_May_19_0907,2020.2.5,bodymapST1,59.99847605504297,"['Right Face', 'Chest', 'Right Leg', 'Left Arm']",
stimuli/orders/stimOrder3.xlsx,3,0,3,3,1,0,33,33,33,,,,,,,,,,,,,,,,,,,3799.6744840000756,3799.6744840000756,3799.6744840000756,3799.6744840000756,,,,,,,,,,,,,,,,,,,,,1,M,1,6,r,CIB,2021_May_19_0907,2020.2.5,bodymapST1,59.99847605504297,"['Right Face', 'Chest', 'Right Leg', 'Left Arm']",
stimuli/orders/stimOrder3.xlsx,3,0,3,3,1,0,35,35,35,,,,,,,,,,,,,,,,,,,3825.6749030000065,None,3825.6749030000065,None,3812.674756200053,None,,,,,,,,,,,,,,,,,,,1,M,1,6,r,CIB,2021_May_19_0907,2020.2.5,bodymapST1,59.99847605504297,"['Right Face', 'Chest', 'Right Leg', 'Left Arm']",
stimuli/orders/stimOrder3.xlsx,,0,3,3,1,,,,,,,,,,,,,,,,,,,,,,,,,,,3877.6749855000526,3877.6749855000526,8.518518518518519,3892.592089349986,,,,,,,,,,,,,,,,,1,M,1,6,r,CIB,2021_May_19_0907,2020.2.5,bodymapST1,59.99847605504297,"['Right Face', 'Chest', 'Right Leg', 'Left Arm']",
stimuli/orders/stimOrder3.xlsx,,0,3,3,1,,,,,,,,,,,,,,,,,,,,,,,,,,,,,,,0.01331305003259331,None,14.320987654320986,3897.192200149875,,,,,,,,,,,,,1,M,1,6,r,CIB,2021_May_19_0907,2020.2.5,bodymapST1,59.99847605504297,"['Right Face', 'Chest', 'Right Leg', 'Left Arm']",
stimuli/orders/stimOrder3.xlsx,,0,3,3,1,,,,,,,,,,,,,,,,,,,,,,,,,,,,,,,,,,,0.013209650060161948,None,65.37037037037038,3901.758922050125,,,,,,,,,1,M,1,6,r,CIB,2021_May_19_0907,2020.2.5,bodymapST1,59.99847605504297,"['Right Face', 'Chest', 'Right Leg', 'Left Arm']",
,,,,,,,,,,,,,,,,,,,,,,,,,,,,,,,,,,,,,,,,,,,,0.013220349908806384,None,3910.8419569000835,None,space,2.5804625999880955,3910.8419569000835,None,1,M,1,6,r,CIB,2021_May_19_0907,2020.2.5,bodymapST1,59.99847605504297,"['Right Face', 'Chest', 'Right Leg', 'Left Arm']",
