	SID	date	sex	session	handedness	scanner	onset	duration	repetition	rating	body_site	keys	temperature	conditionrt	mouseclick	biopac_channel	condition	rt	value
0	2553	2023_Jan_28_0934	M	01	R	MH BG	2.7745208002161235	5.00583810149692								19	Instructions		
1	2553	2023_Jan_28_0934	M	01	R	MH BG	8.64954480016604	2.00485060014762								6	Cue		
2	2553	2023_Jan_28_0934	M	01	R	MH BG	10.659532900201157	4.001493099844083								7	Pre-Jitter		
3	2553	2023_Jan_28_0934	M	01	R	MH BG	14.703590500168502	14.996932699810714			Left Face		48.0			11	Heat-Stimulation		
4	2553	2023_Jan_28_0934	M	01	R	MH BG	29.778994700172916	9.013033099938184								8	Mid-Jitter		
5	2553	2023_Jan_28_0934	M	01	R	MH BG	38.806593800196424	5.00799630000256								20	PainBinary	4.4024972000624985	1.0
6	2553	2023_Jan_28_0934	M	01	R	MH BG	43.83883220003918	5.010387199930847								21	IntensityRating		36.66666666666667
7	2553	2023_Jan_28_0934	M	01	R	MH BG	48.8700149001088	4.998031999915838								22	ToleranceRating	3.3336656999308616	0.0
8	2553	2023_Jan_28_0934	M	01	R	MH BG	53.873515699990094	9.007837599841878								9	Post-Q-Jitter		
9	2553	2023_Jan_28_0934	M	01	R	MH BG	64.34756110003218	2.0099541002418846								6	Cue		
10	2553	2023_Jan_28_0934	M	01	R	MH BG	66.35380300018005	5.997482099803165								7	Pre-Jitter		
11	2553	2023_Jan_28_0934	M	01	R	MH BG	72.40137880016118	15.002538400236517			Left Face		48.0			11	Heat-Stimulation		
12	2553	2023_Jan_28_0934	M	01	R	MH BG	87.47850680002011	7.015177800087258								8	Mid-Jitter		
13	2553	2023_Jan_28_0934	M	01	R	MH BG	94.5071065002121	5.008106800029054								20	PainBinary	1.3501332001760602	1.0
14	2553	2023_Jan_28_0934	M	01	R	MH BG	99.5382494002115	5.012584100011736								21	IntensityRating	2.18340320000425	36.358024691358025
15	2553	2023_Jan_28_0934	M	01	R	MH BG	104.56905890000053	5.001038099871948								22	ToleranceRating	1.1856898998375982	1.0
16	2553	2023_Jan_28_0934	M	01	R	MH BG	109.57442450011149	7.0070984999183565								9	Post-Q-Jitter		
17	2553	2023_Jan_28_0934	M	01	R	MH BG	117.21706819999963	2.0053134001791477								6	Cue		
18	2553	2023_Jan_28_0934	M	01	R	MH BG	119.2211099001579	3.997222000034526								7	Pre-Jitter		
19	2553	2023_Jan_28_0934	M	01	R	MH BG	123.2547232999932	14.996879199985415			Left Face		48.5			11	Heat-Stimulation		
20	2553	2023_Jan_28_0934	M	01	R	MH BG	138.32901980006136	7.015153900021687								8	Mid-Jitter		
21	2553	2023_Jan_28_0934	M	01	R	MH BG	145.3584693002049	5.006397299934179								20	PainBinary	1.3167137999553233	1.0
22	2553	2023_Jan_28_0934	M	01	R	MH BG	150.3885645000264	5.012978200102225								21	IntensityRating	2.5000858001876622	38.82716049382716
23	2553	2023_Jan_28_0934	M	01	R	MH BG	155.4191023001913	5.001998299732804								22	ToleranceRating	2.0337032000534236	1.0
24	2553	2023_Jan_28_0934	M	01	R	MH BG	160.4254897001665	7.006011400138959								9	Post-Q-Jitter		
25	2553	2023_Jan_28_0934	M	01	R	MH BG	168.98834500019439	1.9971848002169281								6	Cue		
26	2553	2023_Jan_28_0934	M	01	R	MH BG	170.9884761001449	5.996876299846917								7	Pre-Jitter		
27	2553	2023_Jan_28_0934	M	01	R	MH BG	177.0225292001851	14.99567999993451			Left Face		48.5			11	Heat-Stimulation		
28	2553	2023_Jan_28_0934	M	01	R	MH BG	192.09576560021378	5.016084399772808								8	Mid-Jitter		
29	2553	2023_Jan_28_0934	M	01	R	MH BG	197.1243990000803	5.008924300083891								20	PainBinary	1.935928300023079	-1.0
30	2553	2023_Jan_28_0934	M	01	R	MH BG	212.14666520012543	5.015359601005912								9	Post-Q-Jitter		
31	2553	2023_Jan_28_0934	M	01	R	MH BG	217.7925220001489	2.006427600281313								6	Cue		
32	2553	2023_Jan_28_0934	M	01	R	MH BG	219.80547090014443	5.99723649979569								7	Pre-Jitter		
33	2553	2023_Jan_28_0934	M	01	R	MH BG	225.84634330007248	15.015716900117695			Left Face		48.5			11	Heat-Stimulation		
34	2553	2023_Jan_28_0934	M	01	R	MH BG	240.9372449000366	7.0007590998429805								8	Mid-Jitter		
35	2553	2023_Jan_28_0934	M	01	R	MH BG	247.95831630006433	5.008752300171182								20	PainBinary	1.3500860000494868	1.0
36	2553	2023_Jan_28_0934	M	01	R	MH BG	252.98985100002028	5.012473700335249								21	IntensityRating	4.216736899921671	35.98765432098765
37	2553	2023_Jan_28_0934	M	01	R	MH BG	258.02035750006326	5.0016111000441015								22	ToleranceRating	1.602528299903497	1.0
38	2553	2023_Jan_28_0934	M	01	R	MH BG	263.02575060003437	7.007581499638036								9	Post-Q-Jitter		
39	2553	2023_Jan_28_0934	M	01	R	MH BG	271.6081225001253	2.0096959001384676								6	Cue		
40	2553	2023_Jan_28_0934	M	01	R	MH BG	273.6229492002167	3.9966598998289555								7	Pre-Jitter		
41	2553	2023_Jan_28_0934	M	01	R	MH BG	277.6749397001695	15.009537700098008			Left Face		48.5			11	Heat-Stimulation		
42	2553	2023_Jan_28_0934	M	01	R	MH BG	292.76740550016984	5.008176299976185								8	Mid-Jitter		
43	2553	2023_Jan_28_0934	M	01	R	MH BG	297.7923691000324	5.008394400123507								20	PainBinary	1.4334114999510348	1.0
44	2553	2023_Jan_28_0934	M	01	R	MH BG	302.82384840003215	5.012193100061268								21	IntensityRating	2.266835799906403	42.22222222222222
45	2553	2023_Jan_28_0934	M	01	R	MH BG	307.85421360004693	5.001508800080046								22	ToleranceRating	1.650342300068587	1.0
46	2553	2023_Jan_28_0934	M	01	R	MH BG	312.8597262999974	5.00726979970932								9	Post-Q-Jitter		
47	2553	2023_Jan_28_0934	M	01	R	MH BG	319.2957514000591	2.002088699955493								6	Cue		
48	2553	2023_Jan_28_0934	M	01	R	MH BG	321.30641180020757	7.99739299970679								7	Pre-Jitter		
49	2553	2023_Jan_28_0934	M	01	R	MH BG	329.3550453002099	15.000412999885157			Left Face		48.5			11	Heat-Stimulation		
50	2553	2023_Jan_28_0934	M	01	R	MH BG	344.4296719999984	9.00137980026193								8	Mid-Jitter		
51	2553	2023_Jan_28_0934	M	01	R	MH BG	353.46068380004726	5.006197000155225								20	PainBinary	1.8167180998716503	1.0
52	2553	2023_Jan_28_0934	M	01	R	MH BG	358.4921154000331	5.010107800131664								21	IntensityRating	2.8833919998724014	37.03703703703704
53	2553	2023_Jan_28_0934	M	01	R	MH BG	363.5222658000421	4.9999034001957625								22	ToleranceRating	1.616987599991262	1.0
54	2553	2023_Jan_28_0934	M	01	R	MH BG	368.526942800032	9.007382499752566								9	Post-Q-Jitter		
55	2553	2023_Jan_28_0934	M	01	R	MH BG	377.56634070002474	7.578845199896023								26	ComfortRating	7.55035850009881	-14.074074074074076
56	2553	2023_Jan_28_0934	M	01	R	MH BG	385.16565380012617	3.2636001999489963								24	ValenceRating	3.2336446000263095	59.135802469135804
57	2553	2023_Jan_28_0934	M	01	R	MH BG	388.44100490002893	3.629689099965617								26	IntensityRating	3.600109400227666	68.08641975308643
58	2553	2023_Jan_28_0934	M	01	R	MH BG	392.0930342001375	4.642406300175935								27	AvoidanceRating	4.616787399863824	-8.024691358024697
59	2553	2023_Jan_28_0934	M	01	R	MH BG	396.7550755001139	4.401748599950224								28	RelaxationRating	4.369617100106552	64.13580246913581
60	2553	2023_Jan_28_0934	M	01	R	MH BG	401.1766426002141	4.5753520000725985								29	AttentionRating	4.5500922000501305	47.28395061728395
61	2553	2023_Jan_28_0934	M	01	R	MH BG	405.77218930004165	4.634335000067949								30	BoredomRating	4.617015899857506	44.382716049382715
62	2553	2023_Jan_28_0934	M	01	R	MH BG	410.4232543001417	3.9655995001085103								31	AlertnessRating	3.950308700092137	52.83950617283952
63	2553	2023_Jan_28_0934	M	01	R	MH BG	414.40667300019413	4.182191800093278								32	PosThxRating	4.152243699878454	15.679012345679013
64	2553	2023_Jan_28_0934	M	01	R	MH BG	418.60681989998557	3.448647800134495								33	NegThxRating	3.4337830001022667	-11.851851851851862
65	2553	2023_Jan_28_0934	M	01	R	MH BG	422.0729873999953	5.249757499899715								34	SelfRating	5.233752500033006	25.80246913580247
66	2553	2023_Jan_28_0934	M	01	R	MH BG	427.34013060014695	3.832230499945581								35	OtherRating	3.8170164998155087	-18.88888888888887
67	2553	2023_Jan_28_0934	M	01	R	MH BG	431.19147800002247	4.029647800140083								32	ImageryRating	4.000266999937594	-15.18518518518519
68	2553	2023_Jan_28_0934	M	01	R	MH BG	435.24319230020046	4.359588399762288								37	PresentRating	4.333429699996486	27.160493827160508
