	SID	date	sex	session	handedness	scanner	onset	duration	repetition	rating	body_site	keys	temperature	conditionrt	mouseclick	biopac_channel	condition	rt	value
0	2553	2023_Jan_28_1017	M	01	R	BG MH	2.774444399867207	5.006420450983569								19	Instructions		
1	2553	2023_Jan_28_1017	M	01	R	BG MH	8.488097099820152	2.0130703405011445								6	Cue		
2	2553	2023_Jan_28_1017	M	01	R	BG MH	10.497416399884969	7.994547660229728								7	Pre-Jitter		
3	2553	2023_Jan_28_1017	M	01	R	BG MH	18.562388699967414	14.998180800117552			Right Arm		48.0			14	Heat-Stimulation		
4	2553	2023_Jan_28_1017	M	01	R	BG MH	33.63830369990319	5.013214260106906								8	Mid-Jitter		
5	2553	2023_Jan_28_1017	M	01	R	BG MH	38.66522249998525	5.009521920233965								20	PainBinary	2.4997666999697685	1.0
6	2553	2023_Jan_28_1017	M	01	R	BG MH	43.697987999999896	5.010745819658041								21	IntensityRating	2.766790400026366	32.34567901234568
7	2553	2023_Jan_28_1017	M	01	R	BG MH	48.72746789990924	5.001814719988033								22	ToleranceRating	1.6689474999438971	1.0
8	2553	2023_Jan_28_1017	M	01	R	BG MH	53.73349479981698	5.006533860228956								9	Post-Q-Jitter		
9	2553	2023_Jan_28_1017	M	01	R	BG MH	60.31562309991568	2.0090697009582072								6	Cue		
10	2553	2023_Jan_28_1017	M	01	R	BG MH	62.32991599990055	7.997274460271001								7	Pre-Jitter		
11	2553	2023_Jan_28_1017	M	01	R	BG MH	70.38239019992761	15.009231640025973			Right Arm		48.5			14	Heat-Stimulation		
12	2553	2023_Jan_28_1017	M	01	R	BG MH	85.47097939997911	7.015606860164553								8	Mid-Jitter		
13	2553	2023_Jan_28_1017	M	01	R	BG MH	92.50011839997023	5.007517619989812								20	PainBinary	1.5500417000148445	1.0
14	2553	2023_Jan_28_1017	M	01	R	BG MH	97.530796200037	5.01294131972827								21	IntensityRating	2.866720700170845	35.49382716049383
15	2553	2023_Jan_28_1017	M	01	R	BG MH	102.56214219983667	5.000334219774231								22	ToleranceRating	2.333622899837792	1.0
16	2553	2023_Jan_28_1017	M	01	R	BG MH	107.56671249982901	7.007969659985974								9	Post-Q-Jitter		
17	2553	2023_Jan_28_1017	M	01	R	BG MH	115.21336989989504	1.9980614404194057								6	Cue		
18	2553	2023_Jan_28_1017	M	01	R	BG MH	117.21394759998657	3.996963760117069								7	Pre-Jitter		
19	2553	2023_Jan_28_1017	M	01	R	BG MH	121.25358549994417	15.001215579919517			Right Arm		48.5			14	Heat-Stimulation		
20	2553	2023_Jan_28_1017	M	01	R	BG MH	136.33729419996962	5.000734300352633								8	Mid-Jitter		
21	2553	2023_Jan_28_1017	M	01	R	BG MH	141.36714109987952	5.007835919968784								20	PainBinary	1.4167285999283195	1.0
22	2553	2023_Jan_28_1017	M	01	R	BG MH	146.39855719986372	5.01170511986129								21	IntensityRating	3.500251099932939	37.53086419753087
23	2553	2023_Jan_28_1017	M	01	R	BG MH	151.42884749989025	5.001228419831023								22	ToleranceRating	1.4503361000679433	1.0
24	2553	2023_Jan_28_1017	M	01	R	BG MH	156.43451069993898	5.006700660102069								9	Post-Q-Jitter		
25	2553	2023_Jan_28_1017	M	01	R	BG MH	162.9401791000273	2.0119805610738695								6	Cue		
26	2553	2023_Jan_28_1017	M	01	R	BG MH	164.94818859989755	7.996078460011631								7	Pre-Jitter		
27	2553	2023_Jan_28_1017	M	01	R	BG MH	172.98924789996818	15.01431903988123			Right Arm		48.5			14	Heat-Stimulation		
28	2553	2023_Jan_28_1017	M	01	R	BG MH	188.07301960000768	9.013673359761015								8	Mid-Jitter		
29	2553	2023_Jan_28_1017	M	01	R	BG MH	197.1005916998256	5.008683419786394								20	PainBinary	2.400114599848166	1.0
30	2553	2023_Jan_28_1017	M	01	R	BG MH	202.13238850003108	5.011889619752765								21	IntensityRating	2.1168685001321137	33.641975308641975
31	2553	2023_Jan_28_1017	M	01	R	BG MH	207.1625651998911	5.001635720022023								22	ToleranceRating	1.0669483998790383	1.0
32	2553	2023_Jan_28_1017	M	01	R	BG MH	212.1681712998543	9.007242059800774								9	Post-Q-Jitter		
33	2553	2023_Jan_28_1017	M	01	R	BG MH	222.60073129995726	2.0088811609894037								6	Cue		
34	2553	2023_Jan_28_1017	M	01	R	BG MH	224.61521249986254	5.996714460197836								7	Pre-Jitter		
35	2553	2023_Jan_28_1017	M	01	R	BG MH	230.6626597000286	15.002016640268266			Right Arm		48.5			14	Heat-Stimulation		
36	2553	2023_Jan_28_1017	M	01	R	BG MH	245.7431951998733	9.007724659983069								8	Mid-Jitter		
37	2553	2023_Jan_28_1017	M	01	R	BG MH	254.76848979992792	5.007311219815165								20	PainBinary	1.566710599930957	1.0
38	2553	2023_Jan_28_1017	M	01	R	BG MH	259.7998070998583	5.011551020201296								21	IntensityRating	2.9500955999828875	35.98765432098765
39	2553	2023_Jan_28_1017	M	01	R	BG MH	264.8292527999729	5.002754620043561								22	ToleranceRating	3.383659499930218	1.0
40	2553	2023_Jan_28_1017	M	01	R	BG MH	269.8351560998708	9.007759160129353								9	Post-Q-Jitter		
41	2553	2023_Jan_28_1017	M	01	R	BG MH	280.3718973000068	2.0010319212451577								6	Cue		
42	2553	2023_Jan_28_1017	M	01	R	BG MH	282.3827549999114	7.99613846000284								7	Pre-Jitter		
43	2553	2023_Jan_28_1017	M	01	R	BG MH	290.44742639991455	15.00036760023795			Right Arm		48.5			14	Heat-Stimulation		
44	2553	2023_Jan_28_1017	M	01	R	BG MH	305.522887900006	7.016334559768438								8	Mid-Jitter		
45	2553	2023_Jan_28_1017	M	01	R	BG MH	312.5522227999754	5.007812520023435								20	PainBinary	1.4000488999299705	1.0
46	2553	2023_Jan_28_1017	M	01	R	BG MH	317.5835614998359	5.011924119899049								21	IntensityRating	3.352245199959725	34.75308641975308
47	2553	2023_Jan_28_1017	M	01	R	BG MH	322.6140117999166	5.001112619880587								22	ToleranceRating	1.1339608998969197	1.0
48	2553	2023_Jan_28_1017	M	01	R	BG MH	327.6192640999798	7.007391560124233								9	Post-Q-Jitter		
49	2553	2023_Jan_28_1017	M	01	R	BG MH	335.2900949998293	2.01582146063447								6	Cue		
50	2553	2023_Jan_28_1017	M	01	R	BG MH	337.29952699993737	3.9970294600352645								7	Pre-Jitter		
51	2553	2023_Jan_28_1017	M	01	R	BG MH	341.33099409984425	15.000934480223805			Right Arm		48.5			14	Heat-Stimulation		
52	2553	2023_Jan_28_1017	M	01	R	BG MH	356.4141477998346	5.001504359999672								8	Mid-Jitter		
53	2553	2023_Jan_28_1017	M	01	R	BG MH	361.4348652998451	5.01023611985147								20	PainBinary	1.6334418000187725	1.0
54	2553	2023_Jan_28_1017	M	01	R	BG MH	366.4680909998715	5.010694720083848								21	IntensityRating		36.66666666666667
55	2553	2023_Jan_28_1017	M	01	R	BG MH	371.4980450000148	5.000809619901702								22	ToleranceRating	4.8502558001782745	0.0
56	2553	2023_Jan_28_1017	M	01	R	BG MH	376.5038367998786	5.005958360387012								9	Post-Q-Jitter		
57	2553	2023_Jan_28_1017	M	01	R	BG MH	381.54544280003756	3.2562124799005687								26	ComfortRating	3.2336732998955995	-6.172839506172835
58	2553	2023_Jan_28_1017	M	01	R	BG MH	384.8218119998928	2.2202094197273254								24	ValenceRating	2.2001040000468493	50.0
59	2553	2023_Jan_28_1017	M	01	R	BG MH	387.0646720000077	1.5011684198398143								26	IntensityRating	1.483623299980536	51.97530864197532
60	2553	2023_Jan_28_1017	M	01	R	BG MH	388.58379689999856	2.0462684200610965								27	AvoidanceRating	2.016732400050387	-9.382716049382722
61	2553	2023_Jan_28_1017	M	01	R	BG MH	390.6464535999112	2.7376418199855834								28	RelaxationRating	2.7169490999076515	40.30864197530864
62	2553	2023_Jan_28_1017	M	01	R	BG MH	393.3998197000474	2.3809635201469064								29	AttentionRating	2.350076299859211	52.09876543209876
63	2553	2023_Jan_28_1017	M	01	R	BG MH	395.796547499951	2.220932319993153								30	BoredomRating	2.2003077000845224	54.19753086419753
64	2553	2023_Jan_28_1017	M	01	R	BG MH	398.03266919986345	2.04873992013745								31	AlertnessRating	2.0337636000476778	9.135802469135811
65	2553	2023_Jan_28_1017	M	01	R	BG MH	400.0986627000384	2.7168110199272633								32	PosThxRating	2.7003277000039816	-6.296296296296305
66	2553	2023_Jan_28_1017	M	01	R	BG MH	402.83255039993674	1.265745819779113								33	NegThxRating	1.2503076000139117	10.617283950617278
67	2553	2023_Jan_28_1017	M	01	R	BG MH	404.114704699954	1.6514617197681218								34	SelfRating	1.6338531000074	6.296296296296305
68	2553	2023_Jan_28_1017	M	01	R	BG MH	405.7817805998493	2.284012020099908								35	OtherRating	2.2670872998423874	-8.395061728395063
69	2553	2023_Jan_28_1017	M	01	R	BG MH	408.08332389988936	2.514318820089102								32	ImageryRating	2.500886700116098	-8.518518518518519
70	2553	2023_Jan_28_1017	M	01	R	BG MH	410.61734599992633	2.26302552013658								37	PresentRating	2.233436199836433	9.135802469135811
