square,location,corrAns,trials.thisRepN,trials.thisTrialN,trials.thisN,trials.thisIndex,trials_2.thisRepN,trials_2.thisTrialN,trials_2.thisN,trials_2.thisIndex,fixation_1.started,fixation_1.stopped,grid_lines.started,grid_lines.stopped,target_square.started,target_square.stopped,fixation_2.started,fixation_2.stopped,response.corr,response.x,response.y,response.leftButton,response.click_left,response.click_right,response.started,response.stopped,ScoreReportText.started,ScoreReportText.stopped,ScoreReportResponse.keys,ScoreReportResponse.started,ScoreReportResponse.stopped,response_2.x,response_2.y,response_2.leftButton,grid_lines_2.started,grid_lines_2.stopped,target_square_2.started,target_square_2.stopped,fixation_3.started,fixation_3.stopped,response_2.click,response_2.corr,response_2.started,response_2.stopped,BodySiteInstructionText.started,BodySiteImg.started,BodySiteImg.stopped,BodySiteInstructionRead.keys,BodySiteInstructionRead.rt,BodySiteInstructionRead.started,BodySiteInstructionRead.stopped,response_2.rt_left,response_2.rt_right,IntensityRating.response,IntensityRating.rt,IntensityRating.started,IntensityRating.stopped,response.click,subject number,gender,distractMap first- or second-half (1 or 2),session,handedness,scanner,date,psychopyVersion,expName,frameRate,body_site_order,
6,"[0.2, 0]",None,0,0,0,0,,,,,1208.2793532998767,None,1209.3127051999327,None,1209.3127051999327,1210.3125783000141,1210.295984499855,None,1,0.20277777777777778,-0.4777777777777778,"[0, 0, 0]",0,0,1209.3127051999327,None,,,,,,,,,,,,,,,,,,,,,,,,,,,,,,,,,4,M,2,13,l,CIB,2021_Sep_28_1036,2020.2.10,distractmap2,60.00214807928742,"['Left Arm', 'Chest', 'Right Leg', 'Right Face']",
6,"[0.2, 0]",1,0,1,1,1,,,,,,,1211.2960429999512,None,1211.2960429999512,1212.2960397000425,1212.2793951998465,1213.2793794998433,1,0.20277777777777778,-0.4777777777777778,"[0, 0, 0]",0,0,1211.2960429999512,None,,,,,,,,,,,,,,,,,,,,,,,,,,,,,,,,,4,M,2,13,l,CIB,2021_Sep_28_1036,2020.2.10,distractmap2,60.00214807928742,"['Left Arm', 'Chest', 'Right Leg', 'Right Face']",
2,"[0, 0.2]",0,0,2,2,2,,,,,,,1213.296065100003,None,1213.296065100003,1214.2960685999133,1214.2793870000169,1215.2793985998724,1,0.20277777777777778,-0.4777777777777778,"[0, 0, 0]",0,0,1213.296065100003,None,,,,,,,,,,,,,,,,,,,,,,,,,,,,,,,,,4,M,2,13,l,CIB,2021_Sep_28_1036,2020.2.10,distractmap2,60.00214807928742,"['Left Arm', 'Chest', 'Right Leg', 'Right Face']",
9,"[0.2, -0.2]",0,0,3,3,3,,,,,,,1215.2960673999041,None,1215.2960673999041,1216.2960740998387,1216.279412999982,1217.2794402998406,0,0.20277777777777778,-0.4777777777777778,"[0, 0, 0]",0,0,1215.2960673999041,None,,,,,,,,,,,,,,,,,,,,,,,,,,,,,,,,,4,M,2,13,l,CIB,2021_Sep_28_1036,2020.2.10,distractmap2,60.00214807928742,"['Left Arm', 'Chest', 'Right Leg', 'Right Face']",
9,"[0.2, -0.2]",1,0,4,4,4,,,,,,,1217.2960957998876,None,1217.2960957998876,1218.2960906999651,1218.279439699836,1219.2794383000582,1,0.20277777777777778,-0.4777777777777778,"[0, 0, 0]",0,0,1217.2960957998876,None,,,,,,,,,,,,,,,,,,,,,,,,,,,,,,,,,4,M,2,13,l,CIB,2021_Sep_28_1036,2020.2.10,distractmap2,60.00214807928742,"['Left Arm', 'Chest', 'Right Leg', 'Right Face']",
6,"[0.2, 0]",0,0,5,5,5,,,,,,,1219.2961082998663,None,1219.2961082998663,1220.2961038998328,1220.2794456998818,1221.2794371999335,1,0.20277777777777778,-0.4777777777777778,"[0, 0, 0]",0,0,1219.2961082998663,None,,,,,,,,,,,,,,,,,,,,,,,,,,,,,,,,,4,M,2,13,l,CIB,2021_Sep_28_1036,2020.2.10,distractmap2,60.00214807928742,"['Left Arm', 'Chest', 'Right Leg', 'Right Face']",
4,"[-0.2, 0]",0,0,6,6,6,,,,,,,1221.296100599924,None,1221.296100599924,1222.2961335000582,1222.2794637999032,1223.2794788999017,1,0.20277777777777778,-0.4777777777777778,"[0, 0, 0]",0,0,1221.296100599924,None,,,,,,,,,,,,,,,,,,,,,,,,,,,,,,,,,4,M,2,13,l,CIB,2021_Sep_28_1036,2020.2.10,distractmap2,60.00214807928742,"['Left Arm', 'Chest', 'Right Leg', 'Right Face']",
3,"[0.2, 0.2]",0,0,7,7,7,,,,,,,1223.2961255998816,None,1223.2961255998816,1224.2961303999182,1224.2793850000016,1225.2794792999048,1,0.20277777777777778,-0.4777777777777778,"[0, 0, 0]",0,0,1223.2961255998816,None,,,,,,,,,,,,,,,,,,,,,,,,,,,,,,,,,4,M,2,13,l,CIB,2021_Sep_28_1036,2020.2.10,distractmap2,60.00214807928742,"['Left Arm', 'Chest', 'Right Leg', 'Right Face']",
3,"[0.2, 0.2]",1,0,8,8,8,,,,,,,1225.2961504999548,None,1225.2961504999548,1226.2961591999047,1226.279479400022,1227.2795032998547,1,0.20277777777777778,-0.4777777777777778,"[0, 0, 0]",0,0,1225.2961504999548,None,,,,,,,,,,,,,,,,,,,,,,,,,,,,,,,,,4,M,2,13,l,CIB,2021_Sep_28_1036,2020.2.10,distractmap2,60.00214807928742,"['Left Arm', 'Chest', 'Right Leg', 'Right Face']",
8,"[0, -0.2]",0,0,9,9,9,,,,,,,1227.2961391999852,None,1227.2961391999852,1228.296172299888,1228.2795090998989,1229.2795012998395,1,0.20277777777777778,-0.4777777777777778,"[0, 0, 0]",0,0,1227.2961391999852,None,,,,,,,,,,,,,,,,,,,,,,,,,,,,,,,,,4,M,2,13,l,CIB,2021_Sep_28_1036,2020.2.10,distractmap2,60.00214807928742,"['Left Arm', 'Chest', 'Right Leg', 'Right Face']",
1,"[-0.2, 0.2]",0,0,10,10,10,,,,,,,1229.2961611000355,None,1229.2961611000355,1230.2962000998668,1230.279563299846,1231.2795177998487,1,0.20277777777777778,-0.4777777777777778,"[0, 0, 0]",0,0,1229.2961611000355,None,,,,,,,,,,,,,,,,,,,,,,,,,,,,,,,,,4,M,2,13,l,CIB,2021_Sep_28_1036,2020.2.10,distractmap2,60.00214807928742,"['Left Arm', 'Chest', 'Right Leg', 'Right Face']",
2,"[0, 0.2]",0,0,11,11,11,,,,,,,1231.2961897999048,None,1231.2961897999048,1232.2961883000098,1232.279524399899,1233.2795496999752,1,0.20277777777777778,-0.4777777777777778,"[0, 0, 0]",0,0,1231.2961897999048,None,,,,,,,,,,,,,,,,,,,,,,,,,,,,,,,,,4,M,2,13,l,CIB,2021_Sep_28_1036,2020.2.10,distractmap2,60.00214807928742,"['Left Arm', 'Chest', 'Right Leg', 'Right Face']",
4,"[-0.2, 0]",0,0,12,12,12,,,,,,,1233.2961935999338,None,1233.2961935999338,1234.2962225999217,1234.2795404999051,1235.2795452999417,1,0.20277777777777778,-0.4777777777777778,"[0, 0, 0]",0,0,1233.2961935999338,None,,,,,,,,,,,,,,,,,,,,,,,,,,,,,,,,,4,M,2,13,l,CIB,2021_Sep_28_1036,2020.2.10,distractmap2,60.00214807928742,"['Left Arm', 'Chest', 'Right Leg', 'Right Face']",
4,"[-0.2, 0]",1,0,13,13,13,,,,,,,1235.2962048999034,None,1235.2962048999034,1236.2962137998547,1236.2796054999344,1237.2795555999037,1,0.20277777777777778,-0.4777777777777778,"[0, 0, 0]",0,0,1235.2962048999034,None,,,,,,,,,,,,,,,,,,,,,,,,,,,,,,,,,4,M,2,13,l,CIB,2021_Sep_28_1036,2020.2.10,distractmap2,60.00214807928742,"['Left Arm', 'Chest', 'Right Leg', 'Right Face']",
8,"[0, -0.2]",0,0,14,14,14,,,,,,,1237.296219300013,None,1237.296219300013,1238.296224300051,1238.279572899919,1239.2796193999238,1,0.20277777777777778,-0.4777777777777778,"[0, 0, 0]",0,0,1237.296219300013,None,,,,,,,,,,,,,,,,,,,,,,,,,,,,,,,,,4,M,2,13,l,CIB,2021_Sep_28_1036,2020.2.10,distractmap2,60.00214807928742,"['Left Arm', 'Chest', 'Right Leg', 'Right Face']",
5,"[0, 0]",0,0,15,15,15,,,,,,,1239.2962382999249,None,1239.2962382999249,1240.2962442999706,1240.2795849000104,1241.2795959999785,1,0.20277777777777778,-0.4777777777777778,"[0, 0, 0]",0,0,1239.2962382999249,None,,,,,,,,,,,,,,,,,,,,,,,,,,,,,,,,,4,M,2,13,l,CIB,2021_Sep_28_1036,2020.2.10,distractmap2,60.00214807928742,"['Left Arm', 'Chest', 'Right Leg', 'Right Face']",
5,"[0, 0]",1,0,16,16,16,,,,,,,1241.2962640000042,None,1241.2962640000042,1242.2962549999356,1242.2796097998507,1243.2795931999572,1,0.20277777777777778,-0.4777777777777778,"[0, 0, 0]",0,0,1241.2962640000042,None,,,,,,,,,,,,,,,,,,,,,,,,,,,,,,,,,4,M,2,13,l,CIB,2021_Sep_28_1036,2020.2.10,distractmap2,60.00214807928742,"['Left Arm', 'Chest', 'Right Leg', 'Right Face']",
1,"[-0.2, 0.2]",0,0,17,17,17,,,,,,,1243.2962644998915,None,1243.2962644998915,1244.296291799983,1244.2796175000258,1245.2796108999755,1,0.20277777777777778,-0.4777777777777778,"[0, 0, 0]",0,0,1243.2962644998915,None,,,,,,,,,,,,,,,,,,,,,,,,,,,,,,,,,4,M,2,13,l,CIB,2021_Sep_28_1036,2020.2.10,distractmap2,60.00214807928742,"['Left Arm', 'Chest', 'Right Leg', 'Right Face']",
3,"[0.2, 0.2]",0,0,18,18,18,,,,,,,1245.2962744999677,None,1245.2962744999677,1246.296282999916,1246.2796241999604,1247.2796283999924,1,0.20277777777777778,-0.4777777777777778,"[0, 0, 0]",0,0,1245.2962744999677,None,,,,,,,,,,,,,,,,,,,,,,,,,,,,,,,,,4,M,2,13,l,CIB,2021_Sep_28_1036,2020.2.10,distractmap2,60.00214807928742,"['Left Arm', 'Chest', 'Right Leg', 'Right Face']",
6,"[0.2, 0]",0,0,19,19,19,,,,,,,1247.2963021998294,None,1247.2963021998294,1248.2962990999222,1248.2796459000092,1249.2796439998783,1,0.20277777777777778,-0.4777777777777778,"[0, 0, 0]",0,0,1247.2963021998294,None,,,,,,,,,,,,,,,,,,,,,,,,,,,,,,,,,4,M,2,13,l,CIB,2021_Sep_28_1036,2020.2.10,distractmap2,60.00214807928742,"['Left Arm', 'Chest', 'Right Leg', 'Right Face']",
1,"[-0.2, 0.2]",0,0,20,20,20,,,,,,,1249.2963065998629,None,1249.2963065998629,1250.2963324999437,1250.279653799953,1251.2796674000565,1,0.20277777777777778,-0.4777777777777778,"[0, 0, 0]",0,0,1249.2963065998629,None,,,,,,,,,,,,,,,,,,,,,,,,,,,,,,,,,4,M,2,13,l,CIB,2021_Sep_28_1036,2020.2.10,distractmap2,60.00214807928742,"['Left Arm', 'Chest', 'Right Leg', 'Right Face']",
1,"[-0.2, 0.2]",1,0,21,21,21,,,,,,,1251.2963200998493,None,1251.2963200998493,1252.2963370999787,1252.279663800029,1253.2796636000276,1,0.20277777777777778,-0.4777777777777778,"[0, 0, 0]",0,0,1251.2963200998493,None,,,,,,,,,,,,,,,,,,,,,,,,,,,,,,,,,4,M,2,13,l,CIB,2021_Sep_28_1036,2020.2.10,distractmap2,60.00214807928742,"['Left Arm', 'Chest', 'Right Leg', 'Right Face']",
1,"[-0.2, 0.2]",1,0,22,22,22,,,,,,,1253.2963477999438,None,1253.2963477999438,1254.296346399933,1254.2796813999303,1255.2796954999212,1,0.20277777777777778,-0.4777777777777778,"[0, 0, 0]",0,0,1253.2963477999438,None,,,,,,,,,,,,,,,,,,,,,,,,,,,,,,,,,4,M,2,13,l,CIB,2021_Sep_28_1036,2020.2.10,distractmap2,60.00214807928742,"['Left Arm', 'Chest', 'Right Leg', 'Right Face']",
3,"[0.2, 0.2]",0,0,23,23,23,,,,,,,1255.2963667998556,None,1255.2963667998556,1256.296365399845,1256.279697299935,1257.2795975999907,1,0.20277777777777778,-0.4777777777777778,"[0, 0, 0]",0,0,1255.2963667998556,None,,,,,,,,,,,,,,,,,,,,,,,,,,,,,,,,,4,M,2,13,l,CIB,2021_Sep_28_1036,2020.2.10,distractmap2,60.00214807928742,"['Left Arm', 'Chest', 'Right Leg', 'Right Face']",
2,"[0, 0.2]",0,0,24,24,24,,,,,,,1257.2962597999722,None,1257.2962597999722,1258.296354799997,1258.279712199932,1259.2797137999441,1,0.20277777777777778,-0.4777777777777778,"[0, 0, 0]",0,0,1257.2962597999722,None,,,,,,,,,,,,,,,,,,,,,,,,,,,,,,,,,4,M,2,13,l,CIB,2021_Sep_28_1036,2020.2.10,distractmap2,60.00214807928742,"['Left Arm', 'Chest', 'Right Leg', 'Right Face']",
1,"[-0.2, 0.2]",0,0,25,25,25,,,,,,,1259.2963839999866,None,1259.2963839999866,1260.2963823999744,1260.2797375998925,1261.2797314999625,1,0.20277777777777778,-0.4777777777777778,"[0, 0, 0]",0,0,1259.2963839999866,None,,,,,,,,,,,,,,,,,,,,,,,,,,,,,,,,,4,M,2,13,l,CIB,2021_Sep_28_1036,2020.2.10,distractmap2,60.00214807928742,"['Left Arm', 'Chest', 'Right Leg', 'Right Face']",
7,"[-0.2, -0.2]",0,0,26,26,26,,,,,,,1261.2964132998604,None,1261.2964132998604,1262.2964069999289,1262.2797049998771,1263.2797379998956,1,0.20277777777777778,-0.4777777777777778,"[0, 0, 0]",0,0,1261.2964132998604,None,,,,,,,,,,,,,,,,,,,,,,,,,,,,,,,,,4,M,2,13,l,CIB,2021_Sep_28_1036,2020.2.10,distractmap2,60.00214807928742,"['Left Arm', 'Chest', 'Right Leg', 'Right Face']",
7,"[-0.2, -0.2]",1,0,27,27,27,,,,,,,1263.2964133999776,None,1263.2964133999776,1264.2964319998864,1264.27974119992,1265.2797638999764,1,0.20277777777777778,-0.4777777777777778,"[0, 0, 0]",0,0,1263.2964133999776,None,,,,,,,,,,,,,,,,,,,,,,,,,,,,,,,,,4,M,2,13,l,CIB,2021_Sep_28_1036,2020.2.10,distractmap2,60.00214807928742,"['Left Arm', 'Chest', 'Right Leg', 'Right Face']",
2,"[0, 0.2]",0,0,28,28,28,,,,,,,1265.2964244999457,None,1265.2964244999457,1266.2964339000173,1266.2797803999856,1267.2797651998699,1,0.20277777777777778,-0.4777777777777778,"[0, 0, 0]",0,0,1265.2964244999457,None,,,,,,,,,,,,,,,,,,,,,,,,,,,,,,,,,4,M,2,13,l,CIB,2021_Sep_28_1036,2020.2.10,distractmap2,60.00214807928742,"['Left Arm', 'Chest', 'Right Leg', 'Right Face']",
6,"[0.2, 0]",0,0,29,29,29,,,,,,,1267.2964765999932,None,1267.2964765999932,1268.296456599841,1268.279788200045,1269.279801900033,1,0.20277777777777778,-0.4777777777777778,"[0, 0, 0]",0,0,1267.2964765999932,None,,,,,,,,,,,,,,,,,,,,,,,,,,,,,,,,,4,M,2,13,l,CIB,2021_Sep_28_1036,2020.2.10,distractmap2,60.00214807928742,"['Left Arm', 'Chest', 'Right Leg', 'Right Face']",
,,,,,,,,,,,,,,,,,,,,,,,,,,,1269.31313210004,None,space,1269.31313210004,None,,,,,,,,,,,,,,,,,,,,,,,,,,,,4,M,2,13,l,CIB,2021_Sep_28_1036,2020.2.10,distractmap2,60.00214807928742,"['Left Arm', 'Chest', 'Right Leg', 'Right Face']",
6,"[0.2, 0]",None,,,,,0,0,0,0,1331.630243099993,None,,,,,,,,,,,,,,,,,,,,None,None,"[0, 0, 0]",1332.6468048000243,None,1332.6468048000243,1333.646923799999,1333.6302883999888,1334.630266000051,"[0, 0, 0]",1,1332.6468048000243,None,,,,,,,,,,,,,,,4,M,2,13,l,CIB,2021_Sep_28_1036,2020.2.10,distractmap2,60.00214807928742,"['Left Arm', 'Chest', 'Right Leg', 'Right Face']",
7,"[-0.2, -0.2]",None,,,,,0,1,1,1,,,,,,,,,,,,,,,,,,,,,,None,None,"[0, 0, 0]",1334.6469326999504,1336.6469423000235,1334.6469326999504,1335.6469403998926,1335.6302765000146,1336.6302730999887,"[0, 0, 0]",1,1334.6469326999504,1336.6469423000235,,,,,,,,,,,,,,,4,M,2,13,l,CIB,2021_Sep_28_1036,2020.2.10,distractmap2,60.00214807928742,"['Left Arm', 'Chest', 'Right Leg', 'Right Face']",
6,"[0.2, 0]",1,,,,,0,2,2,2,,,,,,,,,,,,,,,,,,,,,,None,None,"[0, 0, 0]",1336.663618999999,1338.6636198998895,1336.663618999999,1337.663618599996,1337.6469486998394,1338.646953499876,"[0, 0, 0]",1,1336.663618999999,1338.6636198998895,,,,,,,,,,,,,,,4,M,2,13,l,CIB,2021_Sep_28_1036,2020.2.10,distractmap2,60.00214807928742,"['Left Arm', 'Chest', 'Right Leg', 'Right Face']",
2,"[0, 0.2]",0,,,,,0,3,3,3,,,,,,,,,,,,,,,,,,,,,,None,None,"[0, 0, 0]",1338.680277099833,1340.6803156000096,1338.680277099833,1339.6802921998315,1339.6636347000021,1340.6636455999687,"[0, 0, 0]",1,1338.680277099833,1340.6803156000096,,,,,,,,,,,,,,,4,M,2,13,l,CIB,2021_Sep_28_1036,2020.2.10,distractmap2,60.00214807928742,"['Left Arm', 'Chest', 'Right Leg', 'Right Face']",
5,"[0, 0]",0,,,,,0,4,4,4,,,,,,,,,,,,,,,,,,,,,,None,None,"[0, 0, 0]",1340.6969737999607,1342.6969634999987,1340.6969737999607,1341.6969770998694,1341.6803025999106,1342.6803239998408,"[0, 0, 0]",1,1340.6969737999607,1342.6969634999987,,,,,,,,,,,,,,,4,M,2,13,l,CIB,2021_Sep_28_1036,2020.2.10,distractmap2,60.00214807928742,"['Left Arm', 'Chest', 'Right Leg', 'Right Face']",
4,"[-0.2, 0]",0,,,,,0,5,5,5,,,,,,,,,,,,,,,,,,,,,,None,None,"[0, 0, 0]",1342.7136516999453,1344.7136776999105,1342.7136516999453,1343.7136772999074,1343.6969943998847,1344.696993399877,"[0, 0, 0]",1,1342.7136516999453,1344.7136776999105,,,,,,,,,,,,,,,4,M,2,13,l,CIB,2021_Sep_28_1036,2020.2.10,distractmap2,60.00214807928742,"['Left Arm', 'Chest', 'Right Leg', 'Right Face']",
4,"[-0.2, 0]",0,,,,,0,6,6,6,,,,,,,,,,,,,,,,,,,,,,None,None,"[0, 0, 0]",1344.7303206999786,1346.7303541,1344.7303206999786,1345.7303317999467,1345.7136724998709,1346.7136925000232,"[0, 0, 0]",1,1344.7303206999786,1346.7303541,,,,,,,,,,,,,,,4,M,2,13,l,CIB,2021_Sep_28_1036,2020.2.10,distractmap2,60.00214807928742,"['Left Arm', 'Chest', 'Right Leg', 'Right Face']",
7,"[-0.2, -0.2]",0,,,,,0,7,7,7,,,,,,,,,,,,,,,,,,,,,,None,None,"[0, 0, 0]",1346.7470257999375,1348.7470229000319,1346.7470257999375,1347.7470215999056,1347.7303732000291,1348.7303700998891,"[0, 0, 0]",1,1346.7470257999375,1348.7470229000319,,,,,,,,,,,,,,,4,M,2,13,l,CIB,2021_Sep_28_1036,2020.2.10,distractmap2,60.00214807928742,"['Left Arm', 'Chest', 'Right Leg', 'Right Face']",
4,"[-0.2, 0]",1,,,,,0,8,8,8,,,,,,,,,,,,,,,,,,,,,,None,None,"[0, 0, 0]",1348.7637024000287,1350.763715500012,1348.7637024000287,1349.7637046999298,1349.7470416000579,1350.7470455998555,"[0, 0, 0]",1,1348.7637024000287,1350.763715500012,,,,,,,,,,,,,,,4,M,2,13,l,CIB,2021_Sep_28_1036,2020.2.10,distractmap2,60.00214807928742,"['Left Arm', 'Chest', 'Right Leg', 'Right Face']",
3,"[0.2, 0.2]",0,,,,,0,9,9,9,,,,,,,,,,,,,,,,,,,,,,None,None,"[0, 0, 0]",1350.7804080999922,1352.7803966999054,1350.7804080999922,1351.7804002000485,1351.763677699957,1352.763723099837,"[0, 0, 0]",1,1350.7804080999922,1352.7803966999054,,,,,,,,,,,,,,,4,M,2,13,l,CIB,2021_Sep_28_1036,2020.2.10,distractmap2,60.00214807928742,"['Left Arm', 'Chest', 'Right Leg', 'Right Face']",
5,"[0, 0]",0,,,,,0,10,10,10,,,,,,,,,,,,,,,,,,,,,,None,None,"[0, 0, 0]",1352.797071899986,1354.7970717998687,1352.797071899986,1353.7970697998535,1353.7803990000393,1354.7804179999512,"[0, 0, 0]",1,1352.797071899986,1354.7970717998687,,,,,,,,,,,,,,,4,M,2,13,l,CIB,2021_Sep_28_1036,2020.2.10,distractmap2,60.00214807928742,"['Left Arm', 'Chest', 'Right Leg', 'Right Face']",
3,"[0.2, 0.2]",1,,,,,0,11,11,11,,,,,,,,,,,,,,,,,,,,,,None,None,"[0, 0, 0]",1354.8137535999995,1356.8137296000496,1354.8137535999995,1355.8137530998792,1355.7970803000499,1356.7970971998293,"[0, 0, 0]",1,1354.8137535999995,1356.8137296000496,,,,,,,,,,,,,,,4,M,2,13,l,CIB,2021_Sep_28_1036,2020.2.10,distractmap2,60.00214807928742,"['Left Arm', 'Chest', 'Right Leg', 'Right Face']",
1,"[-0.2, 0.2]",0,,,,,0,12,12,12,,,,,,,,,,,,,,,,,,,,,,None,None,"[0, 0, 0]",1356.830457399832,1358.8304365000222,1356.830457399832,1357.8304556999356,1357.8137668999843,1358.8137713999022,"[0, 0, 0]",1,1356.830457399832,1358.8304365000222,,,,,,,,,,,,,,,4,M,2,13,l,CIB,2021_Sep_28_1036,2020.2.10,distractmap2,60.00214807928742,"['Left Arm', 'Chest', 'Right Leg', 'Right Face']",
9,"[0.2, -0.2]",0,,,,,0,13,13,13,,,,,,,,,,,,,,,,,,,,,,None,None,"[0, 0, 0]",1358.847040799912,1360.8471303000115,1358.847040799912,1359.8471210999414,1359.8304522000253,1360.8304510999005,"[0, 0, 0]",1,1358.847040799912,1360.8471303000115,,,,,,,,,,,,,,,4,M,2,13,l,CIB,2021_Sep_28_1036,2020.2.10,distractmap2,60.00214807928742,"['Left Arm', 'Chest', 'Right Leg', 'Right Face']",
9,"[0.2, -0.2]",0,,,,,0,14,14,14,,,,,,,,,,,,,,,,,,,,,,None,None,"[0, 0, 0]",1360.8637930999976,1362.8638032998424,1360.8637930999976,1361.8804758000188,1361.8638207998592,1362.8638032998424,"[0, 0, 0]",1,1360.8637930999976,1362.8638032998424,,,,,,,,,,,,,,,4,M,2,13,l,CIB,2021_Sep_28_1036,2020.2.10,distractmap2,60.00214807928742,"['Left Arm', 'Chest', 'Right Leg', 'Right Face']",
8,"[0, -0.2]",0,,,,,0,15,15,15,,,,,,,,,,,,,,,,,,,,,,None,None,"[0, 0, 0]",1362.8804976998363,1364.8804874999914,1362.8804976998363,1363.880483499961,1363.8638025999535,1364.863820699975,"[0, 0, 0]",1,1362.8804976998363,1364.8804874999914,,,,,,,,,,,,,,,4,M,2,13,l,CIB,2021_Sep_28_1036,2020.2.10,distractmap2,60.00214807928742,"['Left Arm', 'Chest', 'Right Leg', 'Right Face']",
6,"[0.2, 0]",0,,,,,0,16,16,16,,,,,,,,,,,,,,,,,,,,,,None,None,"[0, 0, 0]",1364.8971518999897,1366.8971765998285,1364.8971518999897,1365.8971609999426,1365.8805335999932,1366.8805434999522,"[0, 0, 0]",1,1364.8971518999897,1366.8971765998285,,,,,,,,,,,,,,,4,M,2,13,l,CIB,2021_Sep_28_1036,2020.2.10,distractmap2,60.00214807928742,"['Left Arm', 'Chest', 'Right Leg', 'Right Face']",
3,"[0.2, 0.2]",0,,,,,0,17,17,17,,,,,,,,,,,,,,,,,,,,,,None,None,"[0, 0, 0]",1366.913830399979,1368.9138338998891,1366.913830399979,1367.9138364000246,1367.897177199833,1368.8971800999716,"[0, 0, 0]",1,1366.913830399979,1368.9138338998891,,,,,,,,,,,,,,,4,M,2,13,l,CIB,2021_Sep_28_1036,2020.2.10,distractmap2,60.00214807928742,"['Left Arm', 'Chest', 'Right Leg', 'Right Face']",
6,"[0.2, 0]",1,,,,,0,18,18,18,,,,,,,,,,,,,,,,,,,,,,None,None,"[0, 0, 0]",1368.9305159999058,1370.9305334000383,1368.9305159999058,1369.930565400049,1369.9138572998345,1370.9138569999486,"[0, 0, 0]",1,1368.9305159999058,1370.9305334000383,,,,,,,,,,,,,,,4,M,2,13,l,CIB,2021_Sep_28_1036,2020.2.10,distractmap2,60.00214807928742,"['Left Arm', 'Chest', 'Right Leg', 'Right Face']",
5,"[0, 0]",0,,,,,0,19,19,19,,,,,,,,,,,,,,,,,,,,,,None,None,"[0, 0, 0]",1370.9471861999482,1372.9472099998966,1370.9471861999482,1371.9472044999711,1371.930538599845,1372.9305697998498,"[0, 0, 0]",1,1370.9471861999482,1372.9472099998966,,,,,,,,,,,,,,,4,M,2,13,l,CIB,2021_Sep_28_1036,2020.2.10,distractmap2,60.00214807928742,"['Left Arm', 'Chest', 'Right Leg', 'Right Face']",
7,"[-0.2, -0.2]",0,,,,,0,20,20,20,,,,,,,,,,,,,,,,,,,,,,None,None,"[0, 0, 0]",1372.9638888000045,1374.9638918999117,1372.9638888000045,1373.9638886998873,1373.94720519986,1374.9472800998483,"[0, 0, 0]",1,1372.9638888000045,1374.9638918999117,,,,,,,,,,,,,,,4,M,2,13,l,CIB,2021_Sep_28_1036,2020.2.10,distractmap2,60.00214807928742,"['Left Arm', 'Chest', 'Right Leg', 'Right Face']",
5,"[0, 0]",1,,,,,0,21,21,21,,,,,,,,,,,,,,,,,,,,,,None,None,"[0, 0, 0]",1374.9805872999132,1376.9805886000395,1374.9805872999132,1375.980565899983,1375.9639143999666,1376.9638994999696,"[0, 0, 0]",1,1374.9805872999132,1376.9805886000395,,,,,,,,,,,,,,,4,M,2,13,l,CIB,2021_Sep_28_1036,2020.2.10,distractmap2,60.00214807928742,"['Left Arm', 'Chest', 'Right Leg', 'Right Face']",
1,"[-0.2, 0.2]",0,,,,,0,22,22,22,,,,,,,,,,,,,,,,,,,,,,None,None,"[0, 0, 0]",1376.9972228000406,1378.9972467999905,1376.9972228000406,1377.997247399995,1377.9805703000166,1378.980589899933,"[0, 0, 0]",1,1376.9972228000406,1378.9972467999905,,,,,,,,,,,,,,,4,M,2,13,l,CIB,2021_Sep_28_1036,2020.2.10,distractmap2,60.00214807928742,"['Left Arm', 'Chest', 'Right Leg', 'Right Face']",
7,"[-0.2, -0.2]",0,,,,,0,23,23,23,,,,,,,,,,,,,,,,,,,,,,None,None,"[0, 0, 0]",1379.0139162999112,1381.013918499928,1379.0139162999112,1380.013929199893,1379.9972620999906,1380.9972643000074,"[0, 0, 0]",1,1379.0139162999112,1381.013918499928,,,,,,,,,,,,,,,4,M,2,13,l,CIB,2021_Sep_28_1036,2020.2.10,distractmap2,60.00214807928742,"['Left Arm', 'Chest', 'Right Leg', 'Right Face']",
9,"[0.2, -0.2]",0,,,,,0,24,24,24,,,,,,,,,,,,,,,,,,,,,,None,None,"[0, 0, 0]",1381.0306156999432,1383.0306096998975,1381.0306156999432,1382.0306073999964,1382.013952899957,1383.0138785999734,"[0, 0, 0]",1,1381.0306156999432,1383.0306096998975,,,,,,,,,,,,,,,4,M,2,13,l,CIB,2021_Sep_28_1036,2020.2.10,distractmap2,60.00214807928742,"['Left Arm', 'Chest', 'Right Leg', 'Right Face']",
3,"[0.2, 0.2]",0,,,,,0,25,25,25,,,,,,,,,,,,,,,,,,,,,,None,None,"[0, 0, 0]",1383.047289500013,1385.047293300042,1383.047289500013,1384.047294799937,1384.0306333999615,1385.0306213998701,"[0, 0, 0]",1,1383.047289500013,1385.047293300042,,,,,,,,,,,,,,,4,M,2,13,l,CIB,2021_Sep_28_1036,2020.2.10,distractmap2,60.00214807928742,"['Left Arm', 'Chest', 'Right Leg', 'Right Face']",
9,"[0.2, -0.2]",1,,,,,0,26,26,26,,,,,,,,,,,,,,,,,,,,,,None,None,"[0, 0, 0]",1385.0639215998817,1387.0639891000465,1385.0639215998817,1386.0639726000372,1386.0473113998305,1387.0473160999827,"[0, 0, 0]",1,1385.0639215998817,1387.0639891000465,,,,,,,,,,,,,,,4,M,2,13,l,CIB,2021_Sep_28_1036,2020.2.10,distractmap2,60.00214807928742,"['Left Arm', 'Chest', 'Right Leg', 'Right Face']",
6,"[0.2, 0]",0,,,,,0,27,27,27,,,,,,,,,,,,,,,,,,,,,,None,None,"[0, 0, 0]",1387.080647799885,1389.08065239992,1387.080647799885,1388.0806419998407,1388.0639736000448,1389.0639941999689,"[0, 0, 0]",1,1387.080647799885,1389.08065239992,,,,,,,,,,,,,,,4,M,2,13,l,CIB,2021_Sep_28_1036,2020.2.10,distractmap2,60.00214807928742,"['Left Arm', 'Chest', 'Right Leg', 'Right Face']",
2,"[0, 0.2]",0,,,,,0,28,28,28,,,,,,,,,,,,,,,,,,,,,,None,None,"[0, 0, 0]",1389.0973157000262,1391.097354899859,1389.0973157000262,1390.0973416999914,1390.0806728999596,1391.0806770999916,"[0, 0, 0]",1,1389.0973157000262,1391.097354899859,,,,,,,,,,,,,,,4,M,2,13,l,CIB,2021_Sep_28_1036,2020.2.10,distractmap2,60.00214807928742,"['Left Arm', 'Chest', 'Right Leg', 'Right Face']",
5,"[0, 0]",0,,,,,0,29,29,29,,,,,,,,,,,,,,,,,,,,,,None,None,"[0, 0, 0]",1391.1140222998802,1393.114019999979,1391.1140222998802,1392.1140072999988,1392.0968573000282,1393.0973675998393,"[0, 0, 0]",1,1391.1140222998802,1393.114019999979,,,,,,,,,,,,,,,4,M,2,13,l,CIB,2021_Sep_28_1036,2020.2.10,distractmap2,60.00214807928742,"['Left Arm', 'Chest', 'Right Leg', 'Right Face']",
,,,,,,,,,,,,,,,,,,,,,,,,,,,1393.1473755999468,None,space,1393.1473755999468,None,,,,,,,,,,,,,,,,,,,,,,,,,,,,4,M,2,13,l,CIB,2021_Sep_28_1036,2020.2.10,distractmap2,60.00214807928742,"['Left Arm', 'Chest', 'Right Leg', 'Right Face']",
3,"[0.2, 0.2]",None,,,,,0,0,0,0,1632.5998205998912,None,,,,,,,,,,,,,,,,,,,,None,None,"[0, 0, 0]",1638.7992036999203,None,1638.7992036999203,1639.7991899999324,1639.7825515998993,1640.7825428999495,"[0, 0, 0]",1,1638.7992036999203,None,1432.5479544999544,1432.5479544999544,None,space,150.63477529981174,1432.5479544999544,None,,,,,,,,4,M,2,13,l,CIB,2021_Sep_28_1036,2020.2.10,distractmap2,60.00214807928742,"['Left Arm', 'Chest', 'Right Leg', 'Right Face']",
3,"[0.2, 0.2]",None,,,,,0,1,1,1,,,,,,,,,,,,,,,,,,,,,,None,None,"[1, 0, 0]",1640.7992034000345,1642.799229199998,1640.7992034000345,1641.79922419996,1641.782566400012,1642.7825585999526,"[1, 0, 0]",0,1640.7992034000345,1642.799229199998,,,,,,,,1.7174924002029002,0.0,,,,,,4,M,2,13,l,CIB,2021_Sep_28_1036,2020.2.10,distractmap2,60.00214807928742,"['Left Arm', 'Chest', 'Right Leg', 'Right Face']",
5,"[0, 0]",0,,,,,0,2,2,2,,,,,,,,,,,,,,,,,,,,,,None,None,"[0, 0, 0]",1642.8159024999477,1644.8159497999586,1642.8159024999477,1643.8159089998808,1643.7992352000438,1644.799242499983,"[0, 0, 0]",0,1642.8159024999477,1644.8159497999586,,,,,,,,,,,,,,,4,M,2,13,l,CIB,2021_Sep_28_1036,2020.2.10,distractmap2,60.00214807928742,"['Left Arm', 'Chest', 'Right Leg', 'Right Face']",
1,"[-0.2, 0.2]",0,,,,,0,3,3,3,,,,,,,,,,,,,,,,,,,,,,None,None,"[0, 0, 0]",1644.8325723998714,1646.8326049998868,1644.8325723998714,1645.832577999914,1645.8159161000513,1646.8159232998732,"[0, 0, 0]",0,1644.8325723998714,1646.8326049998868,,,,,,,,,,,,,,,4,M,2,13,l,CIB,2021_Sep_28_1036,2020.2.10,distractmap2,60.00214807928742,"['Left Arm', 'Chest', 'Right Leg', 'Right Face']",
5,"[0, 0]",1,,,,,0,4,4,4,,,,,,,,,,,,,,,,,,,,,,None,None,"[0, 0, 0]",1646.8826409999747,None,1646.8826409999747,1647.88262509997,1647.88262509997,None,"[0, 0, 0]",0,1646.8826409999747,None,,,,,,,,,,,,,,,4,M,2,13,l,CIB,2021_Sep_28_1036,2020.2.10,distractmap2,60.00214807928742,"['Left Arm', 'Chest', 'Right Leg', 'Right Face']",
8,"[0, -0.2]",0,,,,,0,5,5,5,,,,,,,,,,,,,,,,,,,,,,None,None,"[0, 0, 0]",1648.865937900031,1650.8659462998621,1648.865937900031,1649.86595700006,1649.8492759999353,1650.8492928999476,"[0, 0, 0]",1,1648.865937900031,1650.8659462998621,,,,,,,,,,,,,,,4,M,2,13,l,CIB,2021_Sep_28_1036,2020.2.10,distractmap2,60.00214807928742,"['Left Arm', 'Chest', 'Right Leg', 'Right Face']",
5,"[0, 0]",1,,,,,0,6,6,6,,,,,,,,,,,,,,,,,,,,,,None,None,"[0, 0, 0]",1650.8826291000005,1652.8826282999944,1650.8826291000005,1651.8826138998847,1651.8659632999916,1652.8659746998455,"[0, 0, 0]",0,1650.8826291000005,1652.8826282999944,,,,,,,,,,,,,,,4,M,2,13,l,CIB,2021_Sep_28_1036,2020.2.10,distractmap2,60.00214807928742,"['Left Arm', 'Chest', 'Right Leg', 'Right Face']",
7,"[-0.2, -0.2]",0,,,,,0,7,7,7,,,,,,,,,,,,,,,,,,,,,,None,None,"[0, 0, 0]",1652.8993009999394,1654.8993126000278,1652.8993009999394,1653.8993110000156,1653.8826571998652,1654.8826444000006,"[0, 0, 0]",1,1652.8993009999394,1654.8993126000278,,,,,,,,,,,,,,,4,M,2,13,l,CIB,2021_Sep_28_1036,2020.2.10,distractmap2,60.00214807928742,"['Left Arm', 'Chest', 'Right Leg', 'Right Face']",
5,"[0, 0]",1,,,,,0,8,8,8,,,,,,,,,,,,,,,,,,,,,,None,None,"[0, 0, 0]",1654.9159836999606,1656.915991799906,1654.9159836999606,1655.915988799883,1655.8993223998696,1656.8993243000004,"[0, 0, 0]",1,1654.9159836999606,1656.915991799906,,,,,,,,,,,,,,,4,M,2,13,l,CIB,2021_Sep_28_1036,2020.2.10,distractmap2,60.00214807928742,"['Left Arm', 'Chest', 'Right Leg', 'Right Face']",
7,"[-0.2, -0.2]",1,,,,,0,9,9,9,,,,,,,,,,,,,,,,,,,,,,None,None,"[0, 0, 0]",1656.9326537000015,1658.9326696000062,1656.9326537000015,1657.9326762999408,1657.916010600049,1658.916025399929,"[0, 0, 0]",1,1656.9326537000015,1658.9326696000062,,,,,,,,,,,,,,,4,M,2,13,l,CIB,2021_Sep_28_1036,2020.2.10,distractmap2,60.00214807928742,"['Left Arm', 'Chest', 'Right Leg', 'Right Face']",
,,,,,,,,,,,1658.9493549000472,None,,,,,,,,,,,,,,,,,,,,,,,,,,,,,,,,,,,,,,,,,,19.074074074074073,1639.4553954496514,,,,4,M,2,13,l,CIB,2021_Sep_28_1036,2020.2.10,distractmap2,60.00214807928742,"['Left Arm', 'Chest', 'Right Leg', 'Right Face']",
5,"[0, 0]",None,0,0,0,0,,,,,1672.6994886999018,None,1679.0161713999696,None,1679.0161713999696,1680.0161841998342,1679.982846800005,1680.9828373999335,1,None,None,"[0, 0, 0]",,,1679.0161713999696,None,,,,,,,,,,,,,,,,,,,,,,,,,,,,,,0.014650550205260515,5.011644350131974,"[0, 0, 0]",4,M,2,13,l,CIB,2021_Sep_28_1036,2020.2.10,distractmap2,60.00214807928742,"['Left Arm', 'Chest', 'Right Leg', 'Right Face']",
5,"[0, 0]",1,0,1,1,1,,,,,,,1681.0161853998434,None,1681.0161853998434,1682.0161846999545,1681.9995440999046,1682.999527900014,1,None,None,"[0, 0, 0]",,,1681.0161853998434,None,,,,,,,,,,,,,,,,,,,,,,,,,,,,,,,,"[0, 0, 0]",4,M,2,13,l,CIB,2021_Sep_28_1036,2020.2.10,distractmap2,60.00214807928742,"['Left Arm', 'Chest', 'Right Leg', 'Right Face']",
4,"[-0.2, 0]",0,0,2,2,2,,,,,,,1683.016207400011,1683.016207400011,1683.016207400011,1684.0161973000504,1683.9995452999137,1684.9995633000508,1,None,None,"[0, 0, 0]",,,1683.016207400011,1683.016207400011,,,,,,,,,,,,,,,,,,,,,,,,,,,,,,,,"[0, 0, 0]",4,M,2,13,l,CIB,2021_Sep_28_1036,2020.2.10,distractmap2,60.00214807928742,"['Left Arm', 'Chest', 'Right Leg', 'Right Face']",
2,"[0, 0.2]",0,0,3,3,3,,,,,,,1685.0162100000307,1685.0162100000307,1685.0162100000307,1686.016229599947,1685.9995497998316,1686.99958589999,1,None,None,"[0, 0, 0]",,,1685.0162100000307,1685.0162100000307,,,,,,,,,,,,,,,,,,,,,,,,,,,,,,,,"[0, 0, 0]",4,M,2,13,l,CIB,2021_Sep_28_1036,2020.2.10,distractmap2,60.00214807928742,"['Left Arm', 'Chest', 'Right Leg', 'Right Face']",
6,"[0.2, 0]",0,0,4,4,4,,,,,,,1687.0496807999443,1687.0496807999443,1687.0496807999443,1688.0495941999834,1688.0495941999834,None,1,None,None,"[0, 0, 0]",,,1687.0496807999443,1687.0496807999443,,,,,,,,,,,,,,,,,,,,,,,,,,,,,,,,"[0, 0, 0]",4,M,2,13,l,CIB,2021_Sep_28_1036,2020.2.10,distractmap2,60.00214807928742,"['Left Arm', 'Chest', 'Right Leg', 'Right Face']",
8,"[0, -0.2]",0,0,5,5,5,,,,,,,1689.03291599988,None,1689.03291599988,1690.0329253999516,1690.016248999862,1691.0161732998677,1,None,None,"[0, 0, 0]",,,1689.03291599988,None,,,,,,,,,,,,,,,,,,,,,,,,,,,,,,,,"[0, 0, 0]",4,M,2,13,l,CIB,2021_Sep_28_1036,2020.2.10,distractmap2,60.00214807928742,"['Left Arm', 'Chest', 'Right Leg', 'Right Face']",
1,"[-0.2, 0.2]",0,0,6,6,6,,,,,,,1691.0329264998436,1691.0329264998436,1691.0329264998436,1692.0329312998801,1692.0162732000463,1693.0162593000568,1,None,None,"[0, 0, 0]",,,1691.0329264998436,1691.0329264998436,,,,,,,,,,,,,,,,,,,,,,,,,,,,,,,,"[0, 0, 0]",4,M,2,13,l,CIB,2021_Sep_28_1036,2020.2.10,distractmap2,60.00214807928742,"['Left Arm', 'Chest', 'Right Leg', 'Right Face']",
4,"[-0.2, 0]",0,0,7,7,7,,,,,,,1693.0329446999822,1693.0329446999822,1693.0329446999822,1694.032942299964,1694.01628109999,1695.0162816999946,1,None,None,"[0, 0, 0]",,,1693.0329446999822,1693.0329446999822,,,,,,,,,,,,,,,,,,,,,,,,,,,,,,,,"[0, 0, 0]",4,M,2,13,l,CIB,2021_Sep_28_1036,2020.2.10,distractmap2,60.00214807928742,"['Left Arm', 'Chest', 'Right Leg', 'Right Face']",
8,"[0, -0.2]",0,0,8,8,8,,,,,,,1695.0329557999503,1695.0329557999503,1695.0329557999503,1696.0329630998895,1696.0162841000129,1697.0162871000357,1,None,None,"[0, 0, 0]",,,1695.0329557999503,1695.0329557999503,,,,,,,,,,,,,,,,,,,,,,,,,,,,,,,,"[0, 0, 0]",4,M,2,13,l,CIB,2021_Sep_28_1036,2020.2.10,distractmap2,60.00214807928742,"['Left Arm', 'Chest', 'Right Leg', 'Right Face']",
8,"[0, -0.2]",1,0,9,9,9,,,,,,,1697.0329714999534,1697.0329714999534,1697.0329714999534,1698.0329759998713,1698.0163175000343,1699.016315799905,1,None,None,"[0, 0, 0]",,,1697.0329714999534,1697.0329714999534,,,,,,,,,,,,,,,,,,,,,,,,,,,,,,,,"[0, 0, 0]",4,M,2,13,l,CIB,2021_Sep_28_1036,2020.2.10,distractmap2,60.00214807928742,"['Left Arm', 'Chest', 'Right Leg', 'Right Face']",
,,,,,,,,,,,1699.0329779000022,None,,,,,,,,,,,,,,,,,,,,,,,,,,,,,,,,,,,,,,,,,,20.679012345679013,1679.92161484994,,,,4,M,2,13,l,CIB,2021_Sep_28_1036,2020.2.10,distractmap2,60.00214807928742,"['Left Arm', 'Chest', 'Right Leg', 'Right Face']",
6,"[0.2, 0]",None,,,,,0,0,0,0,1714.8830295000225,None,,,,,,,,,,,,,,,,,,,,None,None,"[0, 0, 0]",1719.0998112000525,None,1719.0998112000525,1720.0998084000312,1720.0831408000086,1721.0831428000238,"[0, 0, 0]",1,1719.0998112000525,None,,,,,,,,,,,,0.015391150023788214,5.013145050033927,,4,M,2,13,l,CIB,2021_Sep_28_1036,2020.2.10,distractmap2,60.00214807928742,"['Left Arm', 'Chest', 'Right Leg', 'Right Face']",
1,"[-0.2, 0.2]",None,,,,,0,1,1,1,,,,,,,,,,,,,,,,,,,,,,None,None,"[0, 0, 0]",1721.0998116000555,1723.0998327999841,1721.0998116000555,1722.099832299864,1722.0831414998975,1723.0830397000536,"[0, 0, 0]",1,1721.0998116000555,1723.0998327999841,,,,,,,,,,,,,,,4,M,2,13,l,CIB,2021_Sep_28_1036,2020.2.10,distractmap2,60.00214807928742,"['Left Arm', 'Chest', 'Right Leg', 'Right Face']",
6,"[0.2, 0]",1,,,,,0,2,2,2,,,,,,,,,,,,,,,,,,,,,,None,None,"[0, 0, 0]",1723.1164932998363,1725.1165171000175,1723.1164932998363,1724.1165115998592,1724.09983620001,1725.099860599963,"[0, 0, 0]",1,1723.1164932998363,1725.1165171000175,,,,,,,,,,,,,,,4,M,2,13,l,CIB,2021_Sep_28_1036,2020.2.10,distractmap2,60.00214807928742,"['Left Arm', 'Chest', 'Right Leg', 'Right Face']",
4,"[-0.2, 0]",0,,,,,0,3,3,3,,,,,,,,,,,,,,,,,,,,,,None,None,"[0, 0, 0]",1725.1331782999914,1727.1331880998332,1725.1331782999914,1726.133189199958,1726.1165203000419,1727.1165376999415,"[0, 0, 0]",1,1725.1331782999914,1727.1331880998332,,,,,,,,,,,,,,,4,M,2,13,l,CIB,2021_Sep_28_1036,2020.2.10,distractmap2,60.00214807928742,"['Left Arm', 'Chest', 'Right Leg', 'Right Face']",
1,"[-0.2, 0.2]",0,,,,,0,4,4,4,,,,,,,,,,,,,,,,,,,,,,None,None,"[0, 0, 0]",1727.2169023999013,None,1727.2169023999013,1728.2165385999251,1728.1998709000181,None,"[0, 0, 0]",1,1727.2169023999013,None,,,,,,,,,,,,,,,4,M,2,13,l,CIB,2021_Sep_28_1036,2020.2.10,distractmap2,60.00214807928742,"['Left Arm', 'Chest', 'Right Leg', 'Right Face']",
8,"[0, -0.2]",0,,,,,0,5,5,5,,,,,,,,,,,,,,,,,,,,,,None,None,"[0, 0, 0]",1729.166569699999,1731.1665767999366,1729.166569699999,1730.1665725999046,1730.1498934999108,1731.1498819999397,"[0, 0, 0]",1,1729.166569699999,1731.1665767999366,,,,,,,,,,,,,,,4,M,2,13,l,CIB,2021_Sep_28_1036,2020.2.10,distractmap2,60.00214807928742,"['Left Arm', 'Chest', 'Right Leg', 'Right Face']",
1,"[-0.2, 0.2]",1,,,,,0,6,6,6,,,,,,,,,,,,,,,,,,,,,,None,None,"[0, 0, 0]",1731.1832425999455,1733.1832385000307,1731.1832425999455,1732.1832336999942,1732.1665656999685,1733.1665878000204,"[0, 0, 0]",1,1731.1832425999455,1733.1832385000307,,,,,,,,,,,,,,,4,M,2,13,l,CIB,2021_Sep_28_1036,2020.2.10,distractmap2,60.00214807928742,"['Left Arm', 'Chest', 'Right Leg', 'Right Face']",
8,"[0, -0.2]",1,,,,,0,7,7,7,,,,,,,,,,,,,,,,,,,,,,None,None,"[0, 0, 0]",1733.1999206000473,1735.1999160000123,1733.1999206000473,1734.1999180000275,1734.1832436998375,1735.183250400005,"[0, 0, 0]",1,1733.1999206000473,1735.1999160000123,,,,,,,,,,,,,,,4,M,2,13,l,CIB,2021_Sep_28_1036,2020.2.10,distractmap2,60.00214807928742,"['Left Arm', 'Chest', 'Right Leg', 'Right Face']",
1,"[-0.2, 0.2]",1,,,,,0,8,8,8,,,,,,,,,,,,,,,,,,,,,,None,None,"[0, 0, 0]",1735.2165935998783,1737.2166211998556,1735.2165935998783,1736.2165945000015,1736.1999210999347,1737.1999488999136,"[0, 0, 0]",1,1735.2165935998783,1737.2166211998556,,,,,,,,,,,,,,,4,M,2,13,l,CIB,2021_Sep_28_1036,2020.2.10,distractmap2,60.00214807928742,"['Left Arm', 'Chest', 'Right Leg', 'Right Face']",
6,"[0.2, 0]",0,,,,,0,9,9,9,,,,,,,,,,,,,,,,,,,,,,None,None,"[0, 0, 0]",1737.2332597998902,1739.233280400047,1737.2332597998902,1738.2332796999253,1738.2166208999697,1739.2166212999728,"[0, 0, 0]",1,1737.2332597998902,1739.233280400047,,,,,,,,,,,,,,,4,M,2,13,l,CIB,2021_Sep_28_1036,2020.2.10,distractmap2,60.00214807928742,"['Left Arm', 'Chest', 'Right Leg', 'Right Face']",
,,,,,,,,,,,1739.2499464000575,None,,,,,,,,,,,,,,,,,,,,,,,,,,,,,,,,,,,,,,,,,,20.61728395061728,1718.7554341498762,,,,4,M,2,13,l,CIB,2021_Sep_28_1036,2020.2.10,distractmap2,60.00214807928742,"['Left Arm', 'Chest', 'Right Leg', 'Right Face']",
3,"[0.2, 0.2]",None,0,0,0,0,,,,,1753.083379099844,None,1759.3167606999632,None,1759.3167606999632,1760.3167790998705,1760.283443900058,1761.2835204999428,1,None,None,"[0, 0, 0]",,,1759.3167606999632,None,,,,,,,,,,,,,,,,,,,,,,,,,,,,,,0.015189450001344085,5.012893449980766,"[0, 0, 0]",4,M,2,13,l,CIB,2021_Sep_28_1036,2020.2.10,distractmap2,60.00214807928742,"['Left Arm', 'Chest', 'Right Leg', 'Right Face']",
4,"[-0.2, 0]",0,0,1,1,1,,,,,,,1761.3001399999484,None,1761.3001399999484,1762.3001371999271,1762.2834950999822,1763.2834765999578,1,None,None,"[0, 0, 0]",,,1761.3001399999484,None,,,,,,,,,,,,,,,,,,,,,,,,,,,,,,,,"[0, 0, 0]",4,M,2,13,l,CIB,2021_Sep_28_1036,2020.2.10,distractmap2,60.00214807928742,"['Left Arm', 'Chest', 'Right Leg', 'Right Face']",
1,"[-0.2, 0.2]",0,0,2,2,2,,,,,,,1763.3001315998845,1763.3001315998845,1763.3001315998845,1764.3001327000093,1764.2834733999334,1765.2834854000248,1,None,None,"[0, 0, 0]",,,1763.3001315998845,1763.3001315998845,,,,,,,,,,,,,,,,,,,,,,,,,,,,,,,,"[0, 0, 0]",4,M,2,13,l,CIB,2021_Sep_28_1036,2020.2.10,distractmap2,60.00214807928742,"['Left Arm', 'Chest', 'Right Leg', 'Right Face']",
2,"[0, 0.2]",0,0,3,3,3,,,,,,,1765.3001619998831,1765.3001619998831,1765.3001619998831,1766.3001677999273,1766.2835047999397,1767.2835158000235,1,None,None,"[0, 0, 0]",,,1765.3001619998831,1765.3001619998831,,,,,,,,,,,,,,,,,,,,,,,,,,,,,,,,"[0, 0, 0]",4,M,2,13,l,CIB,2021_Sep_28_1036,2020.2.10,distractmap2,60.00214807928742,"['Left Arm', 'Chest', 'Right Leg', 'Right Face']",
2,"[0, 0.2]",1,0,4,4,4,,,,,,,1767.3671975999605,1767.3671975999605,1767.3671975999605,1768.3668457998428,1768.3501631999388,None,1,None,None,"[0, 0, 0]",,,1767.3671975999605,1767.3671975999605,,,,,,,,,,,,,,,,,,,,,,,,,,,,,,,,"[0, 0, 0]",4,M,2,13,l,CIB,2021_Sep_28_1036,2020.2.10,distractmap2,60.00214807928742,"['Left Arm', 'Chest', 'Right Leg', 'Right Face']",
5,"[0, 0]",0,0,5,5,5,,,,,,,1769.3168547998648,None,1769.3168547998648,1770.31685679988,1770.3001922999974,1771.3001933998894,1,None,None,"[0, 0, 0]",,,1769.3168547998648,None,,,,,,,,,,,,,,,,,,,,,,,,,,,,,,,,"[0, 0, 0]",4,M,2,13,l,CIB,2021_Sep_28_1036,2020.2.10,distractmap2,60.00214807928742,"['Left Arm', 'Chest', 'Right Leg', 'Right Face']",
1,"[-0.2, 0.2]",0,0,6,6,6,,,,,,,1771.3163462998345,1771.3163462998345,1771.3163462998345,1772.3168925000355,1772.3002041999716,1773.3002086000051,1,None,None,"[0, 0, 0]",,,1771.3163462998345,1771.3163462998345,,,,,,,,,,,,,,,,,,,,,,,,,,,,,,,,"[0, 0, 0]",4,M,2,13,l,CIB,2021_Sep_28_1036,2020.2.10,distractmap2,60.00214807928742,"['Left Arm', 'Chest', 'Right Leg', 'Right Face']",
1,"[-0.2, 0.2]",1,0,7,7,7,,,,,,,1773.3168770999182,1773.3168770999182,1773.3168770999182,1774.316881199833,1774.30022799992,1775.3002335999627,1,None,None,"[0, 0, 0]",,,1773.3168770999182,1773.3168770999182,,,,,,,,,,,,,,,,,,,,,,,,,,,,,,,,"[0, 0, 0]",4,M,2,13,l,CIB,2021_Sep_28_1036,2020.2.10,distractmap2,60.00214807928742,"['Left Arm', 'Chest', 'Right Leg', 'Right Face']",
8,"[0, -0.2]",0,0,8,8,8,,,,,,,1775.3168872999959,1775.3168872999959,1775.3168872999959,1776.316899599973,1776.3002293999307,1777.3002526999917,1,None,None,"[0, 0, 0]",,,1775.3168872999959,1775.3168872999959,,,,,,,,,,,,,,,,,,,,,,,,,,,,,,,,"[0, 0, 0]",4,M,2,13,l,CIB,2021_Sep_28_1036,2020.2.10,distractmap2,60.00214807928742,"['Left Arm', 'Chest', 'Right Leg', 'Right Face']",
7,"[-0.2, -0.2]",0,0,9,9,9,,,,,,,1777.3168287998997,1777.3168287998997,1777.3168287998997,1778.3169171998743,1778.300250099972,1779.3002497998532,1,None,None,"[0, 0, 0]",,,1777.3168287998997,1777.3168287998997,,,,,,,,,,,,,,,,,,,,,,,,,,,,,,,,"[0, 0, 0]",4,M,2,13,l,CIB,2021_Sep_28_1036,2020.2.10,distractmap2,60.00214807928742,"['Left Arm', 'Chest', 'Right Leg', 'Right Face']",
,,,,,,,,,,,1779.316912499955,None,,,,,,,,,,,,,,,,,,,,,,,,,,,,,,,,,,,,,,,,,,22.40740740740741,1763.3723274499644,,,,4,M,2,13,l,CIB,2021_Sep_28_1036,2020.2.10,distractmap2,60.00214807928742,"['Left Arm', 'Chest', 'Right Leg', 'Right Face']",
6,"[0.2, 0]",None,0,0,0,0,,,,,1796.5337340000551,None,1799.3670791999903,None,1799.3670791999903,1800.367082899902,1800.3337522000074,1801.3337703999132,1,None,None,"[0, 0, 0]",,,1799.3670791999903,None,,,,,,,,,,,,,,,,,,,,,,,,,,,,,,0.015301950043067336,5.013035450130701,"[0, 0, 0]",4,M,2,13,l,CIB,2021_Sep_28_1036,2020.2.10,distractmap2,60.00214807928742,"['Left Arm', 'Chest', 'Right Leg', 'Right Face']",
6,"[0.2, 0]",1,0,1,1,1,,,,,,,1801.3670852999203,None,1801.3670852999203,1802.3670961998869,1802.3504420998506,1803.3504435999785,1,None,None,"[0, 0, 0]",,,1801.3670852999203,None,,,,,,,,,,,,,,,,,,,,,,,,,,,,,,,,"[0, 0, 0]",4,M,2,13,l,CIB,2021_Sep_28_1036,2020.2.10,distractmap2,60.00214807928742,"['Left Arm', 'Chest', 'Right Leg', 'Right Face']",
1,"[-0.2, 0.2]",0,0,2,2,2,,,,,,,1803.3671031000558,1803.3671031000558,1803.3671031000558,1804.3671035999432,1804.3504512999207,1805.3504763999954,1,None,None,"[0, 0, 0]",,,1803.3671031000558,1803.3671031000558,,,,,,,,,,,,,,,,,,,,,,,,,,,,,,,,"[0, 0, 0]",4,M,2,13,l,CIB,2021_Sep_28_1036,2020.2.10,distractmap2,60.00214807928742,"['Left Arm', 'Chest', 'Right Leg', 'Right Face']",
8,"[0, -0.2]",0,0,3,3,3,,,,,,,1805.3671162999235,1805.3671162999235,1805.3671162999235,1806.3671317000408,1806.3504667999223,1807.3504651000258,1,None,None,"[0, 0, 0]",,,1805.3671162999235,1805.3671162999235,,,,,,,,,,,,,,,,,,,,,,,,,,,,,,,,"[0, 0, 0]",4,M,2,13,l,CIB,2021_Sep_28_1036,2020.2.10,distractmap2,60.00214807928742,"['Left Arm', 'Chest', 'Right Leg', 'Right Face']",
1,"[-0.2, 0.2]",0,0,4,4,4,,,,,,,1807.4171602998395,1807.4171602998395,1807.4171602998395,1808.4171480999794,1808.4004714000039,None,1,None,None,"[0, 0, 0]",,,1807.4171602998395,1807.4171602998395,,,,,,,,,,,,,,,,,,,,,,,,,,,,,,,,"[0, 0, 0]",4,M,2,13,l,CIB,2021_Sep_28_1036,2020.2.10,distractmap2,60.00214807928742,"['Left Arm', 'Chest', 'Right Leg', 'Right Face']",
4,"[-0.2, 0]",0,0,5,5,5,,,,,,,1809.3838128000498,None,1809.3838128000498,1810.383832699852,1810.3671653999481,1811.3671678998508,1,None,None,"[0, 0, 0]",,,1809.3838128000498,None,,,,,,,,,,,,,,,,,,,,,,,,,,,,,,,,"[0, 0, 0]",4,M,2,13,l,CIB,2021_Sep_28_1036,2020.2.10,distractmap2,60.00214807928742,"['Left Arm', 'Chest', 'Right Leg', 'Right Face']",
5,"[0, 0]",0,0,6,6,6,,,,,,,1811.383843800053,1811.383843800053,1811.383843800053,1812.3838450999465,1812.367174499901,1813.3671820999589,1,None,None,"[0, 0, 0]",,,1811.383843800053,1811.383843800053,,,,,,,,,,,,,,,,,,,,,,,,,,,,,,,,"[0, 0, 0]",4,M,2,13,l,CIB,2021_Sep_28_1036,2020.2.10,distractmap2,60.00214807928742,"['Left Arm', 'Chest', 'Right Leg', 'Right Face']",
7,"[-0.2, -0.2]",0,0,7,7,7,,,,,,,1813.3838422000408,1813.3838422000408,1813.3838422000408,1814.383863599971,1814.367188300006,1815.367193199927,1,None,None,"[0, 0, 0]",,,1813.3838422000408,1813.3838422000408,,,,,,,,,,,,,,,,,,,,,,,,,,,,,,,,"[0, 0, 0]",4,M,2,13,l,CIB,2021_Sep_28_1036,2020.2.10,distractmap2,60.00214807928742,"['Left Arm', 'Chest', 'Right Leg', 'Right Face']",
7,"[-0.2, -0.2]",1,0,8,8,8,,,,,,,1815.383860599948,1815.383860599948,1815.383860599948,1816.3838763998356,1816.3672354000155,1817.3671472999267,1,None,None,"[0, 0, 0]",,,1815.383860599948,1815.383860599948,,,,,,,,,,,,,,,,,,,,,,,,,,,,,,,,"[0, 0, 0]",4,M,2,13,l,CIB,2021_Sep_28_1036,2020.2.10,distractmap2,60.00214807928742,"['Left Arm', 'Chest', 'Right Leg', 'Right Face']",
7,"[-0.2, -0.2]",1,0,9,9,9,,,,,,,1817.3838905000594,1817.3838905000594,1817.3838905000594,1818.3838885000441,1818.367176800035,1819.3672315999866,1,None,None,"[0, 0, 0]",,,1817.3838905000594,1817.3838905000594,,,,,,,,,,,,,,,,,,,,,,,,,,,,,,,,"[0, 0, 0]",4,M,2,13,l,CIB,2021_Sep_28_1036,2020.2.10,distractmap2,60.00214807928742,"['Left Arm', 'Chest', 'Right Leg', 'Right Face']",
,,,,,,,,,,,1819.3838980998844,None,,,,,,,,,,,,,,,,,,,,,,,,,,,,,,,,,,,,,,,,,,23.209876543209877,1802.8893863500562,,,,4,M,2,13,l,CIB,2021_Sep_28_1036,2020.2.10,distractmap2,60.00214807928742,"['Left Arm', 'Chest', 'Right Leg', 'Right Face']",
7,"[-0.2, -0.2]",None,,,,,0,0,0,0,1836.6173930999357,None,,,,,,,,,,,,,,,,,,,,None,None,"[0, 0, 0]",1839.4505996999796,None,1839.4505996999796,1840.4507285999134,1840.4340553998481,1841.4340837998316,"[0, 0, 0]",1,1839.4505996999796,None,,,,,,,,,,,,0.015227449825033545,5.012879449874163,,4,M,2,13,l,CIB,2021_Sep_28_1036,2020.2.10,distractmap2,60.00214807928742,"['Left Arm', 'Chest', 'Right Leg', 'Right Face']",
7,"[-0.2, -0.2]",None,,,,,0,1,1,1,,,,,,,,,,,,,,,,,,,,,,None,None,"[0, 0, 0]",1841.4507209998555,1843.45075790002,1841.4507209998555,1842.4507351999637,1842.4340810999274,1843.4340792999137,"[0, 0, 0]",1,1841.4507209998555,1843.45075790002,,,,,,,,,,,,,,,4,M,2,13,l,CIB,2021_Sep_28_1036,2020.2.10,distractmap2,60.00214807928742,"['Left Arm', 'Chest', 'Right Leg', 'Right Face']",
7,"[-0.2, -0.2]",1,,,,,0,2,2,2,,,,,,,,,,,,,,,,,,,,,,None,None,"[0, 0, 0]",1843.4674094000366,1845.467466800008,1843.4674094000366,1844.4674325999804,1844.450753199868,1845.4507546999957,"[0, 0, 0]",1,1843.4674094000366,1845.467466800008,,,,,,,,,,,,,,,4,M,2,13,l,CIB,2021_Sep_28_1036,2020.2.10,distractmap2,60.00214807928742,"['Left Arm', 'Chest', 'Right Leg', 'Right Face']",
5,"[0, 0]",0,,,,,0,3,3,3,,,,,,,,,,,,,,,,,,,,,,None,None,"[0, 0, 0]",1845.4840831998736,1847.4841032000259,1845.4840831998736,1846.4841054000426,1846.4674376000185,1847.4674394000322,"[0, 0, 0]",1,1845.4840831998736,1847.4841032000259,,,,,,,,,,,,,,,4,M,2,13,l,CIB,2021_Sep_28_1036,2020.2.10,distractmap2,60.00214807928742,"['Left Arm', 'Chest', 'Right Leg', 'Right Face']",
1,"[-0.2, 0.2]",0,,,,,0,4,4,4,,,,,,,,,,,,,,,,,,,,,,None,None,"[0, 0, 0]",1847.5511457999237,None,1847.5511457999237,1848.5507642000448,1848.5341207999736,None,"[0, 0, 0]",1,1847.5511457999237,None,,,,,,,,,,,,,,,4,M,2,13,l,CIB,2021_Sep_28_1036,2020.2.10,distractmap2,60.00214807928742,"['Left Arm', 'Chest', 'Right Leg', 'Right Face']",
6,"[0.2, 0]",0,,,,,0,5,5,5,,,,,,,,,,,,,,,,,,,,,,None,None,"[0, 0, 0]",1849.5174598000012,1851.5174705998506,1849.5174598000012,1850.517521099886,1850.5008335998282,1851.500811799895,"[0, 0, 0]",1,1849.5174598000012,1851.5174705998506,,,,,,,,,,,,,,,4,M,2,13,l,CIB,2021_Sep_28_1036,2020.2.10,distractmap2,60.00214807928742,"['Left Arm', 'Chest', 'Right Leg', 'Right Face']",
1,"[-0.2, 0.2]",1,,,,,0,6,6,6,,,,,,,,,,,,,,,,,,,,,,None,None,"[0, 0, 0]",1851.534136599861,1853.5341536998749,1851.534136599861,1852.534148799954,1852.5174912000075,1853.5175013998523,"[0, 0, 0]",1,1851.534136599861,1853.5341536998749,,,,,,,,,,,,,,,4,M,2,13,l,CIB,2021_Sep_28_1036,2020.2.10,distractmap2,60.00214807928742,"['Left Arm', 'Chest', 'Right Leg', 'Right Face']",
7,"[-0.2, -0.2]",0,,,,,0,7,7,7,,,,,,,,,,,,,,,,,,,,,,None,None,"[0, 0, 0]",1853.550824200036,1855.550833699992,1853.550824200036,1854.5508373999037,1854.5341598000377,1855.5341641998384,"[0, 0, 0]",1,1853.550824200036,1855.550833699992,,,,,,,,,,,,,,,4,M,2,13,l,CIB,2021_Sep_28_1036,2020.2.10,distractmap2,60.00214807928742,"['Left Arm', 'Chest', 'Right Leg', 'Right Face']",
6,"[0.2, 0]",0,,,,,0,8,8,8,,,,,,,,,,,,,,,,,,,,,,None,None,"[0, 0, 0]",1855.5675001998898,1857.567517499905,1855.5675001998898,1856.5675110998563,1856.5508397000376,1857.5508667998947,"[0, 0, 0]",1,1855.5675001998898,1857.567517499905,,,,,,,,,,,,,,,4,M,2,13,l,CIB,2021_Sep_28_1036,2020.2.10,distractmap2,60.00214807928742,"['Left Arm', 'Chest', 'Right Leg', 'Right Face']",
7,"[-0.2, -0.2]",1,,,,,0,9,9,9,,,,,,,,,,,,,,,,,,,,,,None,None,"[0, 0, 0]",1857.5841759999748,1859.5842013999354,1857.5841759999748,1858.584192899987,1858.567534999922,1859.567535100039,"[0, 0, 0]",1,1857.5841759999748,1859.5842013999354,,,,,,,,,,,,,,,4,M,2,13,l,CIB,2021_Sep_28_1036,2020.2.10,distractmap2,60.00214807928742,"['Left Arm', 'Chest', 'Right Leg', 'Right Face']",
,,,,,,,,,,,1859.600873999996,None,,,,,,,,,,,,,,,,,,,,,,,,,,,,,,,,,,,,,,,,,,22.40740740740741,1842.6731058498845,,,,4,M,2,13,l,CIB,2021_Sep_28_1036,2020.2.10,distractmap2,60.00214807928742,"['Left Arm', 'Chest', 'Right Leg', 'Right Face']",
4,"[-0.2, 0]",None,,,,,0,0,0,0,1877.4176922999322,None,,,,,,,,,,,,,,,,,,,,None,None,"[0, 0, 0]",1879.6510193999857,None,1879.6510193999857,1880.651009599911,1880.6343735998962,1881.6343733998947,"[0, 0, 0]",1,1879.6510193999857,None,,,,,,,,,,,,0.015142850112169981,5.0126985500101,,4,M,2,13,l,CIB,2021_Sep_28_1036,2020.2.10,distractmap2,60.00214807928742,"['Left Arm', 'Chest', 'Right Leg', 'Right Face']",
5,"[0, 0]",None,,,,,0,1,1,1,,,,,,,,,,,,,,,,,,,,,,None,None,"[0, 0, 0]",1881.6510383000132,1883.6510491999798,1881.6510383000132,1882.651044699829,1882.634371999884,1883.6343771000393,"[0, 0, 0]",1,1881.6510383000132,1883.6510491999798,,,,,,,,,,,,,,,4,M,2,13,l,CIB,2021_Sep_28_1036,2020.2.10,distractmap2,60.00214807928742,"['Left Arm', 'Chest', 'Right Leg', 'Right Face']",
6,"[0.2, 0]",0,,,,,0,2,2,2,,,,,,,,,,,,,,,,,,,,,,None,None,"[0, 0, 0]",1883.6677073000465,1885.6677321998868,1883.6677073000465,1884.6677224999294,1884.6510598999448,1885.6510679000057,"[0, 0, 0]",1,1883.6677073000465,1885.6677321998868,,,,,,,,,,,,,,,4,M,2,13,l,CIB,2021_Sep_28_1036,2020.2.10,distractmap2,60.00214807928742,"['Left Arm', 'Chest', 'Right Leg', 'Right Face']",
1,"[-0.2, 0.2]",0,,,,,0,3,3,3,,,,,,,,,,,,,,,,,,,,,,None,None,"[0, 0, 0]",1885.6844062998425,1887.6844046998303,1885.6844062998425,1886.684420199832,1886.6677343999036,1887.667747600004,"[0, 0, 0]",1,1885.6844062998425,1887.6844046998303,,,,,,,,,,,,,,,4,M,2,13,l,CIB,2021_Sep_28_1036,2020.2.10,distractmap2,60.00214807928742,"['Left Arm', 'Chest', 'Right Leg', 'Right Face']",
6,"[0.2, 0]",1,,,,,0,4,4,4,,,,,,,,,,,,,,,,,,,,,,None,None,"[0, 0, 0]",1887.7347909000237,None,1887.7347909000237,1888.7344372998923,1888.7177452999167,None,"[0, 0, 0]",1,1887.7347909000237,None,,,,,,,,,,,,,,,4,M,2,13,l,CIB,2021_Sep_28_1036,2020.2.10,distractmap2,60.00214807928742,"['Left Arm', 'Chest', 'Right Leg', 'Right Face']",
1,"[-0.2, 0.2]",1,,,,,0,5,5,5,,,,,,,,,,,,,,,,,,,,,,None,None,"[0, 0, 0]",1889.717779000057,1891.7177652998362,1889.717779000057,1890.7177786999382,1890.7011072000023,1891.7011160999537,"[0, 0, 0]",0,1889.717779000057,1891.7177652998362,,,,,,,,,,,,,,,4,M,2,13,l,CIB,2021_Sep_28_1036,2020.2.10,distractmap2,60.00214807928742,"['Left Arm', 'Chest', 'Right Leg', 'Right Face']",
2,"[0, 0.2]",0,,,,,0,6,6,6,,,,,,,,,,,,,,,,,,,,,,None,None,"[0, 0, 0]",1891.7344459998421,1893.7344668998849,1891.7344459998421,1892.7344545999076,1892.7178022000007,1893.717810699949,"[0, 0, 0]",1,1891.7344459998421,1893.7344668998849,,,,,,,,,,,,,,,4,M,2,13,l,CIB,2021_Sep_28_1036,2020.2.10,distractmap2,60.00214807928742,"['Left Arm', 'Chest', 'Right Leg', 'Right Face']",
3,"[0.2, 0.2]",0,,,,,0,7,7,7,,,,,,,,,,,,,,,,,,,,,,None,None,"[0, 0, 0]",1893.7511287999805,1895.7511535999365,1893.7511287999805,1894.7511521999259,1894.7344728000462,1895.7344982998911,"[0, 0, 0]",1,1893.7511287999805,1895.7511535999365,,,,,,,,,,,,,,,4,M,2,13,l,CIB,2021_Sep_28_1036,2020.2.10,distractmap2,60.00214807928742,"['Left Arm', 'Chest', 'Right Leg', 'Right Face']",
6,"[0.2, 0]",0,,,,,0,8,8,8,,,,,,,,,,,,,,,,,,,,,,None,None,"[0, 0, 0]",1895.767800099915,1897.7678165999241,1895.767800099915,1896.767815799918,1896.7511533000506,1897.7511725998484,"[0, 0, 0]",1,1895.767800099915,1897.7678165999241,,,,,,,,,,,,,,,4,M,2,13,l,CIB,2021_Sep_28_1036,2020.2.10,distractmap2,60.00214807928742,"['Left Arm', 'Chest', 'Right Leg', 'Right Face']",
3,"[0.2, 0.2]",1,,,,,0,9,9,9,,,,,,,,,,,,,,,,,,,,,,None,None,"[0, 0, 0]",1897.7845037998632,1899.7845091999043,1897.7845037998632,1898.784507199889,1898.7678353998344,1899.767856999999,"[0, 0, 0]",1,1897.7845037998632,1899.7845091999043,,,,,,,,,,,,,,,4,M,2,13,l,CIB,2021_Sep_28_1036,2020.2.10,distractmap2,60.00214807928742,"['Left Arm', 'Chest', 'Right Leg', 'Right Face']",
,,,,,,,,,,,1899.801171900006,None,,,,,,,,,,,,,,,,,,,,,,,,,,,,,,,,,,,,,,,,,,22.65432098765432,1879.0241218497977,,,,4,M,2,13,l,CIB,2021_Sep_28_1036,2020.2.10,distractmap2,60.00214807928742,"['Left Arm', 'Chest', 'Right Leg', 'Right Face']",
8,"[0, -0.2]",None,0,0,0,0,,,,,1913.667955499841,None,1919.8680105998646,None,1919.8680105998646,1920.8680054000579,1920.834666899871,1921.834689799929,1,None,None,"[0, 0, 0]",,,1919.8680105998646,None,,,,,,,,,,,,,,,,,,,,,,,,,,,,,,0.014401850057765841,5.011150249978527,"[0, 0, 0]",4,M,2,13,l,CIB,2021_Sep_28_1036,2020.2.10,distractmap2,60.00214807928742,"['Left Arm', 'Chest', 'Right Leg', 'Right Face']",
6,"[0.2, 0]",0,0,1,1,1,,,,,,,1921.8680067998357,None,1921.8680067998357,1922.868032099912,1922.8513501000125,1923.8513680999167,1,None,None,"[0, 0, 0]",,,1921.8680067998357,None,,,,,,,,,,,,,,,,,,,,,,,,,,,,,,,,"[0, 0, 0]",4,M,2,13,l,CIB,2021_Sep_28_1036,2020.2.10,distractmap2,60.00214807928742,"['Left Arm', 'Chest', 'Right Leg', 'Right Face']",
6,"[0.2, 0]",1,0,2,2,2,,,,,,,1923.86802789988,1923.86802789988,1923.86802789988,1924.8680369998328,1924.851379300002,1925.8513776999898,1,None,None,"[0, 0, 0]",,,1923.86802789988,1923.86802789988,,,,,,,,,,,,,,,,,,,,,,,,,,,,,,,,"[0, 0, 0]",4,M,2,13,l,CIB,2021_Sep_28_1036,2020.2.10,distractmap2,60.00214807928742,"['Left Arm', 'Chest', 'Right Leg', 'Right Face']",
2,"[0, 0.2]",0,0,3,3,3,,,,,,,1925.8680527999531,1925.8680527999531,1925.8680527999531,1926.8680554998573,1926.8513894998468,1927.851391099859,1,None,None,"[0, 0, 0]",,,1925.8680527999531,1925.8680527999531,,,,,,,,,,,,,,,,,,,,,,,,,,,,,,,,"[0, 0, 0]",4,M,2,13,l,CIB,2021_Sep_28_1036,2020.2.10,distractmap2,60.00214807928742,"['Left Arm', 'Chest', 'Right Leg', 'Right Face']",
1,"[-0.2, 0.2]",0,0,4,4,4,,,,,,,1927.9017387998756,1927.9017387998756,1927.9017387998756,1928.9014407000504,1928.8847367998678,None,1,None,None,"[0, 0, 0]",,,1927.9017387998756,1927.9017387998756,,,,,,,,,,,,,,,,,,,,,,,,,,,,,,,,"[0, 0, 0]",4,M,2,13,l,CIB,2021_Sep_28_1036,2020.2.10,distractmap2,60.00214807928742,"['Left Arm', 'Chest', 'Right Leg', 'Right Face']",
6,"[0.2, 0]",0,0,5,5,5,,,,,,,1929.8847646999639,None,1929.8847646999639,1930.88473839988,1930.8680881999899,1931.8681081999093,1,None,None,"[0, 0, 0]",,,1929.8847646999639,None,,,,,,,,,,,,,,,,,,,,,,,,,,,,,,,,"[0, 0, 0]",4,M,2,13,l,CIB,2021_Sep_28_1036,2020.2.10,distractmap2,60.00214807928742,"['Left Arm', 'Chest', 'Right Leg', 'Right Face']",
9,"[0.2, -0.2]",0,0,6,6,6,,,,,,,1931.8847483999562,1931.8847483999562,1931.8847483999562,1932.8847642999608,1932.8680962999351,1933.8681073999032,1,None,None,"[0, 0, 0]",,,1931.8847483999562,1931.8847483999562,,,,,,,,,,,,,,,,,,,,,,,,,,,,,,,,"[0, 0, 0]",4,M,2,13,l,CIB,2021_Sep_28_1036,2020.2.10,distractmap2,60.00214807928742,"['Left Arm', 'Chest', 'Right Leg', 'Right Face']",
1,"[-0.2, 0.2]",0,0,7,7,7,,,,,,,1933.884760600049,1933.884760600049,1933.884760600049,1934.8847564999014,1934.8680938000325,1935.8681218998972,1,None,None,"[0, 0, 0]",,,1933.884760600049,1933.884760600049,,,,,,,,,,,,,,,,,,,,,,,,,,,,,,,,"[0, 0, 0]",4,M,2,13,l,CIB,2021_Sep_28_1036,2020.2.10,distractmap2,60.00214807928742,"['Left Arm', 'Chest', 'Right Leg', 'Right Face']",
6,"[0.2, 0]",0,0,8,8,8,,,,,,,1935.8847835999914,1935.8847835999914,1935.8847835999914,1936.8847937998362,1936.868123400025,1937.86814889987,1,None,None,"[0, 0, 0]",,,1935.8847835999914,1935.8847835999914,,,,,,,,,,,,,,,,,,,,,,,,,,,,,,,,"[0, 0, 0]",4,M,2,13,l,CIB,2021_Sep_28_1036,2020.2.10,distractmap2,60.00214807928742,"['Left Arm', 'Chest', 'Right Leg', 'Right Face']",
6,"[0.2, 0]",1,0,9,9,9,,,,,,,1937.8847908999305,1937.8847908999305,1937.8847908999305,1938.8846700000577,1938.8681325998623,1939.8681478998624,1,None,None,"[0, 0, 0]",,,1937.8847908999305,1937.8847908999305,,,,,,,,,,,,,,,,,,,,,,,,,,,,,,,,"[0, 0, 0]",4,M,2,13,l,CIB,2021_Sep_28_1036,2020.2.10,distractmap2,60.00214807928742,"['Left Arm', 'Chest', 'Right Leg', 'Right Face']",
,,,,,,,,,,,1939.8848057999276,None,,,,,,,,,,,,,,,,,,,,,,,,,,,,,,,,,,,,,,,,,,26.296296296296294,1918.5071197499055,,,,4,M,2,13,l,CIB,2021_Sep_28_1036,2020.2.10,distractmap2,60.00214807928742,"['Left Arm', 'Chest', 'Right Leg', 'Right Face']",
9,"[0.2, -0.2]",None,0,0,0,0,,,,,1953.7182741998695,None,1959.9349862998351,None,1959.9349862998351,1960.9349769998807,1960.9016644000076,1961.901654300047,1,None,None,"[0, 0, 0]",,,1959.9349862998351,None,,,,,,,,,,,,,,,,,,,,,,,,,,,,,,0.01506295008584857,5.012400950072333,"[0, 0, 0]",4,M,2,13,l,CIB,2021_Sep_28_1036,2020.2.10,distractmap2,60.00214807928742,"['Left Arm', 'Chest', 'Right Leg', 'Right Face']",
9,"[0.2, -0.2]",1,0,1,1,1,,,,,,,1961.935047299834,None,1961.935047299834,1962.9349841999356,1962.91832229984,1963.91832539998,1,None,None,"[0, 0, 0]",,,1961.935047299834,None,,,,,,,,,,,,,,,,,,,,,,,,,,,,,,,,"[0, 0, 0]",4,M,2,13,l,CIB,2021_Sep_28_1036,2020.2.10,distractmap2,60.00214807928742,"['Left Arm', 'Chest', 'Right Leg', 'Right Face']",
9,"[0.2, -0.2]",1,0,2,2,2,,,,,,,1963.9350183999632,1963.9350183999632,1963.9350183999632,1964.9350115999114,1964.9183350999374,1965.9183525999542,1,None,None,"[0, 0, 0]",,,1963.9350183999632,1963.9350183999632,,,,,,,,,,,,,,,,,,,,,,,,,,,,,,,,"[0, 0, 0]",4,M,2,13,l,CIB,2021_Sep_28_1036,2020.2.10,distractmap2,60.00214807928742,"['Left Arm', 'Chest', 'Right Leg', 'Right Face']",
3,"[0.2, 0.2]",0,0,3,3,3,,,,,,,1965.935011100024,1965.935011100024,1965.935011100024,1966.9350137999281,1966.9183606000151,1967.9183674999513,1,None,None,"[0, 0, 0]",,,1965.935011100024,1965.935011100024,,,,,,,,,,,,,,,,,,,,,,,,,,,,,,,,"[0, 0, 0]",4,M,2,13,l,CIB,2021_Sep_28_1036,2020.2.10,distractmap2,60.00214807928742,"['Left Arm', 'Chest', 'Right Leg', 'Right Face']",
5,"[0, 0]",0,0,4,4,4,,,,,,,1967.9687340999953,1967.9687340999953,1967.9687340999953,1968.968375599943,1968.9517190998886,None,1,None,None,"[0, 0, 0]",,,1967.9687340999953,1967.9687340999953,,,,,,,,,,,,,,,,,,,,,,,,,,,,,,,,"[0, 0, 0]",4,M,2,13,l,CIB,2021_Sep_28_1036,2020.2.10,distractmap2,60.00214807928742,"['Left Arm', 'Chest', 'Right Leg', 'Right Face']",
4,"[-0.2, 0]",0,0,5,5,5,,,,,,,1969.9517099000514,None,1969.9517099000514,1970.951742199948,1970.9350604999345,1971.9350731000304,1,None,None,"[0, 0, 0]",,,1969.9517099000514,None,,,,,,,,,,,,,,,,,,,,,,,,,,,,,,,,"[0, 0, 0]",4,M,2,13,l,CIB,2021_Sep_28_1036,2020.2.10,distractmap2,60.00214807928742,"['Left Arm', 'Chest', 'Right Leg', 'Right Face']",
9,"[0.2, -0.2]",0,0,6,6,6,,,,,,,1971.9517198998947,1971.9517198998947,1971.9517198998947,1972.9517163999844,1972.935086299898,1973.9350813999772,1,None,None,"[0, 0, 0]",,,1971.9517198998947,1971.9517198998947,,,,,,,,,,,,,,,,,,,,,,,,,,,,,,,,"[0, 0, 0]",4,M,2,13,l,CIB,2021_Sep_28_1036,2020.2.10,distractmap2,60.00214807928742,"['Left Arm', 'Chest', 'Right Leg', 'Right Face']",
6,"[0.2, 0]",0,0,7,7,7,,,,,,,1973.951626199996,1973.951626199996,1973.951626199996,1974.9517548999283,1974.9350841999985,1975.9351536999457,1,None,None,"[0, 0, 0]",,,1973.951626199996,1973.951626199996,,,,,,,,,,,,,,,,,,,,,,,,,,,,,,,,"[0, 0, 0]",4,M,2,13,l,CIB,2021_Sep_28_1036,2020.2.10,distractmap2,60.00214807928742,"['Left Arm', 'Chest', 'Right Leg', 'Right Face']",
2,"[0, 0.2]",0,0,8,8,8,,,,,,,1975.9517592999619,1975.9517592999619,1975.9517592999619,1976.951789899962,1976.9351057000458,1977.9351100998465,1,None,None,"[0, 0, 0]",,,1975.9517592999619,1975.9517592999619,,,,,,,,,,,,,,,,,,,,,,,,,,,,,,,,"[0, 0, 0]",4,M,2,13,l,CIB,2021_Sep_28_1036,2020.2.10,distractmap2,60.00214807928742,"['Left Arm', 'Chest', 'Right Leg', 'Right Face']",
2,"[0, 0.2]",1,0,9,9,9,,,,,,,1977.9517750998493,1977.9517750998493,1977.9517750998493,1978.9517822999042,1978.935133199906,1979.9351174000185,1,None,None,"[0, 0, 0]",,,1977.9517750998493,1977.9517750998493,,,,,,,,,,,,,,,,,,,,,,,,,,,,,,,,"[0, 0, 0]",4,M,2,13,l,CIB,2021_Sep_28_1036,2020.2.10,distractmap2,60.00214807928742,"['Left Arm', 'Chest', 'Right Leg', 'Right Face']",
,,,,,,,,,,,1979.9517806000076,None,,,,,,,,,,,,,,,,,,,,,,,,,,,,,,,,,,,,,,,,,,27.901234567901234,1960.9408423500136,,,,4,M,2,13,l,CIB,2021_Sep_28_1036,2020.2.10,distractmap2,60.00214807928742,"['Left Arm', 'Chest', 'Right Leg', 'Right Face']",
2,"[0, 0.2]",None,,,,,0,0,0,0,1995.9852489000186,None,,,,,,,,,,,,,,,,,,,,None,None,"[0, 0, 0]",2000.0186075000092,None,2000.0186075000092,2001.0186377000064,2001.0019564998802,2002.0018898998387,"[0, 0, 0]",1,2000.0186075000092,None,,,,,,,,,,,,0.014986949972808361,5.012403150089085,,4,M,2,13,l,CIB,2021_Sep_28_1036,2020.2.10,distractmap2,60.00214807928742,"['Left Arm', 'Chest', 'Right Leg', 'Right Face']",
5,"[0, 0]",None,,,,,0,1,1,1,,,,,,,,,,,,,,,,,,,,,,None,None,"[0, 0, 0]",2002.0186288999394,2004.0186596000567,2002.0186288999394,2003.018635599874,2003.0019520998467,2004.0019808998331,"[0, 0, 0]",1,2002.0186288999394,2004.0186596000567,,,,,,,,,,,,,,,4,M,2,13,l,CIB,2021_Sep_28_1036,2020.2.10,distractmap2,60.00214807928742,"['Left Arm', 'Chest', 'Right Leg', 'Right Face']",
6,"[0.2, 0]",0,,,,,0,2,2,2,,,,,,,,,,,,,,,,,,,,,,None,None,"[0, 0, 0]",2004.0353184998967,2006.035313299857,2004.0353184998967,2005.0353256999515,2005.0186473999638,2006.0186506998725,"[0, 0, 0]",1,2004.0353184998967,2006.035313299857,,,,,,,,,,,,,,,4,M,2,13,l,CIB,2021_Sep_28_1036,2020.2.10,distractmap2,60.00214807928742,"['Left Arm', 'Chest', 'Right Leg', 'Right Face']",
1,"[-0.2, 0.2]",0,,,,,0,3,3,3,,,,,,,,,,,,,,,,,,,,,,None,None,"[0, 0, 0]",2006.0518928999081,2008.05199359986,2006.0518928999081,2007.0520066998433,2007.035338100046,2008.0353436998557,"[0, 0, 0]",1,2006.0518928999081,2008.05199359986,,,,,,,,,,,,,,,4,M,2,13,l,CIB,2021_Sep_28_1036,2020.2.10,distractmap2,60.00214807928742,"['Left Arm', 'Chest', 'Right Leg', 'Right Face']",
6,"[0.2, 0]",1,,,,,0,4,4,4,,,,,,,,,,,,,,,,,,,,,,None,None,"[0, 0, 0]",2008.1190468999557,None,2008.1190468999557,2009.1186913999263,2009.1020305999555,None,"[0, 0, 0]",1,2008.1190468999557,None,,,,,,,,,,,,,,,4,M,2,13,l,CIB,2021_Sep_28_1036,2020.2.10,distractmap2,60.00214807928742,"['Left Arm', 'Chest', 'Right Leg', 'Right Face']",
6,"[0.2, 0]",0,,,,,0,5,5,5,,,,,,,,,,,,,,,,,,,,,,None,None,"[0, 0, 0]",2010.085346299922,2012.0853877998888,2010.085346299922,2011.0853668998461,2011.0687082000077,2012.0687057999894,"[0, 0, 0]",0,2010.085346299922,2012.0853877998888,,,,,,,,,,,,,,,4,M,2,13,l,CIB,2021_Sep_28_1036,2020.2.10,distractmap2,60.00214807928742,"['Left Arm', 'Chest', 'Right Leg', 'Right Face']",
9,"[0.2, -0.2]",0,,,,,0,6,6,6,,,,,,,,,,,,,,,,,,,,,,None,None,"[0, 0, 0]",2012.102040699916,2014.102060599951,2012.102040699916,2013.1020626998506,2013.0853758000303,2014.0853865998797,"[0, 0, 0]",1,2012.102040699916,2014.102060599951,,,,,,,,,,,,,,,4,M,2,13,l,CIB,2021_Sep_28_1036,2020.2.10,distractmap2,60.00214807928742,"['Left Arm', 'Chest', 'Right Leg', 'Right Face']",
6,"[0.2, 0]",1,,,,,0,7,7,7,,,,,,,,,,,,,,,,,,,,,,None,None,"[0, 0, 0]",2014.118712699972,2016.1187674000394,2014.118712699972,2015.1187350000255,2015.102076199837,2016.1020661999937,"[0, 0, 0]",0,2014.118712699972,2016.1187674000394,,,,,,,,,,,,,,,4,M,2,13,l,CIB,2021_Sep_28_1036,2020.2.10,distractmap2,60.00214807928742,"['Left Arm', 'Chest', 'Right Leg', 'Right Face']",
3,"[0.2, 0.2]",0,,,,,0,8,8,8,,,,,,,,,,,,,,,,,,,,,,None,None,"[0, 0, 0]",2016.1354113998823,2018.1354239999782,2016.1354113998823,2017.1354153000284,2017.1187406999525,2018.1187601999845,"[0, 0, 0]",1,2016.1354113998823,2018.1354239999782,,,,,,,,,,,,,,,4,M,2,13,l,CIB,2021_Sep_28_1036,2020.2.10,distractmap2,60.00214807928742,"['Left Arm', 'Chest', 'Right Leg', 'Right Face']",
9,"[0.2, -0.2]",0,,,,,0,9,9,9,,,,,,,,,,,,,,,,,,,,,,None,None,"[0, 0, 0]",2018.1520811000373,2020.152118399972,2018.1520811000373,2019.1520994000603,2019.135452499846,2020.135452499846,"[0, 0, 0]",1,2018.1520811000373,2020.152118399972,,,,,,,,,,,,,,,4,M,2,13,l,CIB,2021_Sep_28_1036,2020.2.10,distractmap2,60.00214807928742,"['Left Arm', 'Chest', 'Right Leg', 'Right Face']",
,,,,,,,,,,,2020.1687668999657,None,,,,,,,,,,,,,,,,,,,,,,,,,,,,,,,,,,,,,,,,,,25.74074074074074,2001.1412179498002,,,,4,M,2,13,l,CIB,2021_Sep_28_1036,2020.2.10,distractmap2,60.00214807928742,"['Left Arm', 'Chest', 'Right Leg', 'Right Face']",
3,"[0.2, 0.2]",None,,,,,0,0,0,0,2036.0855872998945,None,,,,,,,,,,,,,,,,,,,,None,None,"[0, 0, 0]",2040.218932399992,None,2040.218932399992,2041.2189364999067,2041.2022651999723,2042.2022802999709,"[0, 0, 0]",1,2040.218932399992,None,,,,,,,,,,,,0.014905950054526329,5.012231550179422,,4,M,2,13,l,CIB,2021_Sep_28_1036,2020.2.10,distractmap2,60.00214807928742,"['Left Arm', 'Chest', 'Right Leg', 'Right Face']",
9,"[0.2, -0.2]",None,,,,,0,1,1,1,,,,,,,,,,,,,,,,,,,,,,None,None,"[0, 0, 0]",2042.2188862999901,2044.2189700000454,2042.2188862999901,2043.2189378999174,2043.2022843000013,2044.2022895999253,"[0, 0, 0]",1,2042.2188862999901,2044.2189700000454,,,,,,,,,,,,,,,4,M,2,13,l,CIB,2021_Sep_28_1036,2020.2.10,distractmap2,60.00214807928742,"['Left Arm', 'Chest', 'Right Leg', 'Right Face']",
3,"[0.2, 0.2]",1,,,,,0,2,2,2,,,,,,,,,,,,,,,,,,,,,,None,None,"[0, 0, 0]",2044.2356429998763,2046.2356292998884,2044.2356429998763,2045.2356298000086,2045.2189646998886,2046.2189599999692,"[0, 0, 0]",1,2044.2356429998763,2046.2356292998884,,,,,,,,,,,,,,,4,M,2,13,l,CIB,2021_Sep_28_1036,2020.2.10,distractmap2,60.00214807928742,"['Left Arm', 'Chest', 'Right Leg', 'Right Face']",
7,"[-0.2, -0.2]",0,,,,,0,3,3,3,,,,,,,,,,,,,,,,,,,,,,None,None,"[0, 0, 0]",2046.2523167999461,2048.2522966999095,2046.2523167999461,2047.2523141999263,2047.2356393998489,2048.235645900015,"[0, 0, 0]",1,2046.2523167999461,2048.2522966999095,,,,,,,,,,,,,,,4,M,2,13,l,CIB,2021_Sep_28_1036,2020.2.10,distractmap2,60.00214807928742,"['Left Arm', 'Chest', 'Right Leg', 'Right Face']",
8,"[0, -0.2]",0,,,,,0,4,4,4,,,,,,,,,,,,,,,,,,,,,,None,None,"[0, 0, 0]",2048.3527061999775,None,2048.3527061999775,2049.3523396998644,2049.3356761999894,None,"[0, 0, 0]",1,2048.3527061999775,None,,,,,,,,,,,,,,,4,M,2,13,l,CIB,2021_Sep_28_1036,2020.2.10,distractmap2,60.00214807928742,"['Left Arm', 'Chest', 'Right Leg', 'Right Face']",
4,"[-0.2, 0]",0,,,,,0,5,5,5,,,,,,,,,,,,,,,,,,,,,,None,None,"[0, 0, 0]",2050.285671300022,2052.285683599999,2050.285671300022,2051.2856757000554,2051.269018099876,2052.26901989989,"[0, 0, 0]",1,2050.285671300022,2052.285683599999,,,,,,,,,,,,,,,4,M,2,13,l,CIB,2021_Sep_28_1036,2020.2.10,distractmap2,60.00214807928742,"['Left Arm', 'Chest', 'Right Leg', 'Right Face']",
4,"[-0.2, 0]",0,,,,,0,6,6,6,,,,,,,,,,,,,,,,,,,,,,None,None,"[0, 0, 0]",2052.3023410998285,2054.3023762998637,2052.3023410998285,2053.302374199964,2053.285692199832,2054.285699900007,"[0, 0, 0]",1,2052.3023410998285,2054.3023762998637,,,,,,,,,,,,,,,4,M,2,13,l,CIB,2021_Sep_28_1036,2020.2.10,distractmap2,60.00214807928742,"['Left Arm', 'Chest', 'Right Leg', 'Right Face']",
1,"[-0.2, 0.2]",0,,,,,0,7,7,7,,,,,,,,,,,,,,,,,,,,,,None,None,"[0, 0, 0]",2054.3190357000567,2056.319050000049,2054.3190357000567,2055.3190470999107,2055.3023738998454,2056.302395599894,"[0, 0, 0]",1,2054.3190357000567,2056.319050000049,,,,,,,,,,,,,,,4,M,2,13,l,CIB,2021_Sep_28_1036,2020.2.10,distractmap2,60.00214807928742,"['Left Arm', 'Chest', 'Right Leg', 'Right Face']",
4,"[-0.2, 0]",1,,,,,0,8,8,8,,,,,,,,,,,,,,,,,,,,,,None,None,"[0, 0, 0]",2056.3357106000185,2058.3357281999197,2056.3357106000185,2057.335731399944,2057.319080499932,2058.3190621999092,"[0, 0, 0]",1,2056.3357106000185,2058.3357281999197,,,,,,,,,,,,,,,4,M,2,13,l,CIB,2021_Sep_28_1036,2020.2.10,distractmap2,60.00214807928742,"['Left Arm', 'Chest', 'Right Leg', 'Right Face']",
8,"[0, -0.2]",0,,,,,0,9,9,9,,,,,,,,,,,,,,,,,,,,,,None,None,"[0, 0, 0]",2058.352404499892,2060.3524126999546,2058.352404499892,2059.3523996998556,2059.3357462000567,2060.3357345999684,"[0, 0, 0]",1,2058.352404499892,2060.3524126999546,,,,,,,,,,,,,,,4,M,2,13,l,CIB,2021_Sep_28_1036,2020.2.10,distractmap2,60.00214807928742,"['Left Arm', 'Chest', 'Right Leg', 'Right Face']",
,,,,,,,,,,,2060.3691531999502,None,,,,,,,,,,,,,,,,,,,,,,,,,,,,,,,,,,,,,,,,,,24.25925925925926,2041.3080480501521,,,,4,M,2,13,l,CIB,2021_Sep_28_1036,2020.2.10,distractmap2,60.00214807928742,"['Left Arm', 'Chest', 'Right Leg', 'Right Face']",
2,"[0, 0.2]",None,,,,,0,0,0,0,2076.369628599845,None,,,,,,,,,,,,,,,,,,,,None,None,"[0, 0, 0]",2080.4192419999745,None,2080.4192419999745,2081.419257399859,2081.4026901999023,2082.402626799885,"[0, 0, 0]",1,2080.4192419999745,None,,,,,,,,,,,,0.015066349878907204,5.01262874994427,,4,M,2,13,l,CIB,2021_Sep_28_1036,2020.2.10,distractmap2,60.00214807928742,"['Left Arm', 'Chest', 'Right Leg', 'Right Face']",
5,"[0, 0]",None,,,,,0,1,1,1,,,,,,,,,,,,,,,,,,,,,,None,None,"[0, 0, 0]",2082.4192375000566,2084.4192804999184,2082.4192375000566,2083.419270099839,2083.4026386998594,2084.402636999963,"[0, 0, 0]",1,2082.4192375000566,2084.4192804999184,,,,,,,,,,,,,,,4,M,2,13,l,CIB,2021_Sep_28_1036,2020.2.10,distractmap2,60.00214807928742,"['Left Arm', 'Chest', 'Right Leg', 'Right Face']",
3,"[0.2, 0.2]",0,,,,,0,2,2,2,,,,,,,,,,,,,,,,,,,,,,None,None,"[0, 0, 0]",2084.4360166999977,2086.43595189997,2084.4360166999977,2085.4359569998924,2085.4192847998347,2086.419272799976,"[0, 0, 0]",1,2084.4360166999977,2086.43595189997,,,,,,,,,,,,,,,4,M,2,13,l,CIB,2021_Sep_28_1036,2020.2.10,distractmap2,60.00214807928742,"['Left Arm', 'Chest', 'Right Leg', 'Right Face']",
5,"[0, 0]",1,,,,,0,3,3,3,,,,,,,,,,,,,,,,,,,,,,None,None,"[0, 0, 0]",2086.452605899889,2088.4526368998922,2086.452605899889,2087.452631399967,2087.4359551998787,2088.4359676998574,"[0, 0, 0]",1,2086.452605899889,2088.4526368998922,,,,,,,,,,,,,,,4,M,2,13,l,CIB,2021_Sep_28_1036,2020.2.10,distractmap2,60.00214807928742,"['Left Arm', 'Chest', 'Right Leg', 'Right Face']",
2,"[0, 0.2]",0,,,,,0,4,4,4,,,,,,,,,,,,,,,,,,,,,,None,None,"[0, 0, 0]",2088.5029094000347,None,2088.5029094000347,2089.5026386999525,2089.485984199913,None,"[0, 0, 0]",1,2088.5029094000347,None,,,,,,,,,,,,,,,4,M,2,13,l,CIB,2021_Sep_28_1036,2020.2.10,distractmap2,60.00214807928742,"['Left Arm', 'Chest', 'Right Leg', 'Right Face']",
8,"[0, -0.2]",0,,,,,0,5,5,5,,,,,,,,,,,,,,,,,,,,,,None,None,"[0, 0, 0]",2090.4859698000364,2092.4860040999483,2090.4859698000364,2091.485991799971,2091.4693382999394,2092.4693314000033,"[0, 0, 0]",1,2090.4859698000364,2092.4860040999483,,,,,,,,,,,,,,,4,M,2,13,l,CIB,2021_Sep_28_1036,2020.2.10,distractmap2,60.00214807928742,"['Left Arm', 'Chest', 'Right Leg', 'Right Face']",
4,"[-0.2, 0]",0,,,,,0,6,6,6,,,,,,,,,,,,,,,,,,,,,,None,None,"[0, 0, 0]",2092.5026602,2094.502690699883,2092.5026602,2093.5026771998964,2093.4860082999803,2094.4860113998875,"[0, 0, 0]",1,2092.5026602,2094.502690699883,,,,,,,,,,,,,,,4,M,2,13,l,CIB,2021_Sep_28_1036,2020.2.10,distractmap2,60.00214807928742,"['Left Arm', 'Chest', 'Right Leg', 'Right Face']",
8,"[0, -0.2]",1,,,,,0,7,7,7,,,,,,,,,,,,,,,,,,,,,,None,None,"[0, 0, 0]",2094.5193449000362,2096.5194822999183,2094.5193449000362,2095.5193697998766,2095.5026848998386,2096.5027135999408,"[0, 0, 0]",1,2094.5193449000362,2096.5194822999183,,,,,,,,,,,,,,,4,M,2,13,l,CIB,2021_Sep_28_1036,2020.2.10,distractmap2,60.00214807928742,"['Left Arm', 'Chest', 'Right Leg', 'Right Face']",
7,"[-0.2, -0.2]",0,,,,,0,8,8,8,,,,,,,,,,,,,,,,,,,,,,None,None,"[0, 0, 0]",2096.536037399899,2098.5360433000606,2096.536037399899,2097.536034299992,2097.5193769999314,2098.51939559984,"[0, 0, 0]",1,2096.536037399899,2098.5360433000606,,,,,,,,,,,,,,,4,M,2,13,l,CIB,2021_Sep_28_1036,2020.2.10,distractmap2,60.00214807928742,"['Left Arm', 'Chest', 'Right Leg', 'Right Face']",
8,"[0, -0.2]",1,,,,,0,9,9,9,,,,,,,,,,,,,,,,,,,,,,None,None,"[0, 0, 0]",2098.5527128998656,2100.552730299998,2098.5527128998656,2099.5527224999387,2099.536062499974,2100.5360659,"[0, 0, 0]",1,2098.5527128998656,2100.552730299998,,,,,,,,,,,,,,,4,M,2,13,l,CIB,2021_Sep_28_1036,2020.2.10,distractmap2,60.00214807928742,"['Left Arm', 'Chest', 'Right Leg', 'Right Face']",
,,,,,,,,,,,2100.569394899998,None,,,,,,,,,,,,,,,,,,,,,,,,,,,,,,,,,,,,,,,,,,24.19753086419753,2083.342322750017,,,,4,M,2,13,l,CIB,2021_Sep_28_1036,2020.2.10,distractmap2,60.00214807928742,"['Left Arm', 'Chest', 'Right Leg', 'Right Face']",
2,"[0, 0.2]",None,0,0,0,0,,,,,2118.5362048000097,None,2120.63622320001,None,2120.63622320001,2121.6362339998595,2121.6028630000073,2122.602906399872,1,None,None,"[0, 0, 0]",,,2120.63622320001,None,,,,,,,,,,,,,,,,,,,,,,,,,,,,,,0.014457850018516183,5.011320349993184,"[0, 0, 0]",4,M,2,13,l,CIB,2021_Sep_28_1036,2020.2.10,distractmap2,60.00214807928742,"['Left Arm', 'Chest', 'Right Leg', 'Right Face']",
8,"[0, -0.2]",0,0,1,1,1,,,,,,,2122.6362264000345,None,2122.6362264000345,2123.6362449999433,2123.6196260999423,2124.619595099939,1,None,None,"[0, 0, 0]",,,2122.6362264000345,None,,,,,,,,,,,,,,,,,,,,,,,,,,,,,,,,"[0, 0, 0]",4,M,2,13,l,CIB,2021_Sep_28_1036,2020.2.10,distractmap2,60.00214807928742,"['Left Arm', 'Chest', 'Right Leg', 'Right Face']",
1,"[-0.2, 0.2]",0,0,2,2,2,,,,,,,2124.6362518998794,2124.6362518998794,2124.6362518998794,2125.636256299913,2125.6195910999086,2126.619600899983,1,None,None,"[0, 0, 0]",,,2124.6362518998794,2124.6362518998794,,,,,,,,,,,,,,,,,,,,,,,,,,,,,,,,"[0, 0, 0]",4,M,2,13,l,CIB,2021_Sep_28_1036,2020.2.10,distractmap2,60.00214807928742,"['Left Arm', 'Chest', 'Right Leg', 'Right Face']",
2,"[0, 0.2]",0,0,3,3,3,,,,,,,2126.636221499881,2126.636221499881,2126.636221499881,2127.636280699866,2127.619496200001,2128.619616499869,1,None,None,"[0, 0, 0]",,,2126.636221499881,2126.636221499881,,,,,,,,,,,,,,,,,,,,,,,,,,,,,,,,"[0, 0, 0]",4,M,2,13,l,CIB,2021_Sep_28_1036,2020.2.10,distractmap2,60.00214807928742,"['Left Arm', 'Chest', 'Right Leg', 'Right Face']",
2,"[0, 0.2]",1,0,4,4,4,,,,,,,2128.6699942999985,2128.6699942999985,2128.6699942999985,2129.6696228999645,2129.6529490998946,None,1,None,None,"[0, 0, 0]",,,2128.6699942999985,2128.6699942999985,,,,,,,,,,,,,,,,,,,,,,,,,,,,,,,,"[0, 0, 0]",4,M,2,13,l,CIB,2021_Sep_28_1036,2020.2.10,distractmap2,60.00214807928742,"['Left Arm', 'Chest', 'Right Leg', 'Right Face']",
7,"[-0.2, -0.2]",0,0,5,5,5,,,,,,,2130.652968399925,None,2130.652968399925,2131.6529723999556,2131.636309799971,2132.636303199921,1,None,None,"[0, 0, 0]",,,2130.652968399925,None,,,,,,,,,,,,,,,,,,,,,,,,,,,,,,,,"[0, 0, 0]",4,M,2,13,l,CIB,2021_Sep_28_1036,2020.2.10,distractmap2,60.00214807928742,"['Left Arm', 'Chest', 'Right Leg', 'Right Face']",
9,"[0.2, -0.2]",0,0,6,6,6,,,,,,,2132.652976699872,2132.652976699872,2132.652976699872,2133.652994999895,2133.6363214000594,2134.6363361999393,1,None,None,"[0, 0, 0]",,,2132.652976699872,2132.652976699872,,,,,,,,,,,,,,,,,,,,,,,,,,,,,,,,"[0, 0, 0]",4,M,2,13,l,CIB,2021_Sep_28_1036,2020.2.10,distractmap2,60.00214807928742,"['Left Arm', 'Chest', 'Right Leg', 'Right Face']",
9,"[0.2, -0.2]",1,0,7,7,7,,,,,,,2134.6529898999725,2134.6529898999725,2134.6529898999725,2135.6529993999284,2135.6363416998647,2136.636343799997,1,None,None,"[0, 0, 0]",,,2134.6529898999725,2134.6529898999725,,,,,,,,,,,,,,,,,,,,,,,,,,,,,,,,"[0, 0, 0]",4,M,2,13,l,CIB,2021_Sep_28_1036,2020.2.10,distractmap2,60.00214807928742,"['Left Arm', 'Chest', 'Right Leg', 'Right Face']",
4,"[-0.2, 0]",0,0,8,8,8,,,,,,,2136.652912199963,2136.652912199963,2136.652912199963,2137.653022199869,2137.6363470000215,2138.6363623000216,1,None,None,"[0, 0, 0]",,,2136.652912199963,2136.652912199963,,,,,,,,,,,,,,,,,,,,,,,,,,,,,,,,"[0, 0, 0]",4,M,2,13,l,CIB,2021_Sep_28_1036,2020.2.10,distractmap2,60.00214807928742,"['Left Arm', 'Chest', 'Right Leg', 'Right Face']",
5,"[0, 0]",0,0,9,9,9,,,,,,,2138.6530245998874,2138.6530245998874,2138.6530245998874,2139.6530609000474,2139.636373199988,2140.6363732998725,1,None,None,"[0, 0, 0]",,,2138.6530245998874,2138.6530245998874,,,,,,,,,,,,,,,,,,,,,,,,,,,,,,,,"[0, 0, 0]",4,M,2,13,l,CIB,2021_Sep_28_1036,2020.2.10,distractmap2,60.00214807928742,"['Left Arm', 'Chest', 'Right Leg', 'Right Face']",
,,,,,,,,,,,2140.653061900055,None,,,,,,,,,,,,,,,,,,,,,,,,,,,,,,,,,,,,,,,,,,24.753086419753085,2124.7598381501157,,,,4,M,2,13,l,CIB,2021_Sep_28_1036,2020.2.10,distractmap2,60.00214807928742,"['Left Arm', 'Chest', 'Right Leg', 'Right Face']",
2,"[0, 0.2]",None,,,,,0,0,0,0,2158.66994599998,None,,,,,,,,,,,,,,,,,,,,None,None,"[0, 0, 0]",2160.7198963998817,None,2160.7198963998817,2161.719864799874,2161.7032077000476,2162.703210099833,"[0, 0, 0]",1,2160.7198963998817,None,,,,,,,,,,,,0.013954449910670519,5.0103477500379086,,4,M,2,13,l,CIB,2021_Sep_28_1036,2020.2.10,distractmap2,60.00214807928742,"['Left Arm', 'Chest', 'Right Leg', 'Right Face']",
2,"[0, 0.2]",None,,,,,0,1,1,1,,,,,,,,,,,,,,,,,,,,,,None,None,"[0, 0, 0]",2162.7198840999044,2164.7198888000567,2162.7198840999044,2163.7197721998673,2163.703216099879,2164.7032365999185,"[0, 0, 0]",1,2162.7198840999044,2164.7198888000567,,,,,,,,,,,,,,,4,M,2,13,l,CIB,2021_Sep_28_1036,2020.2.10,distractmap2,60.00214807928742,"['Left Arm', 'Chest', 'Right Leg', 'Right Face']",
2,"[0, 0.2]",1,,,,,0,2,2,2,,,,,,,,,,,,,,,,,,,,,,None,None,"[0, 0, 0]",2164.7365516000427,2166.7366201998666,2164.7365516000427,2165.736571899848,2165.7199092998635,2166.7199111999944,"[0, 0, 0]",1,2164.7365516000427,2166.7366201998666,,,,,,,,,,,,,,,4,M,2,13,l,CIB,2021_Sep_28_1036,2020.2.10,distractmap2,60.00214807928742,"['Left Arm', 'Chest', 'Right Leg', 'Right Face']",
8,"[0, -0.2]",0,,,,,0,3,3,3,,,,,,,,,,,,,,,,,,,,,,None,None,"[0, 0, 0]",2166.753239999991,2168.7532669999637,2166.753239999991,2167.753272499889,2167.7365876999684,2168.7365900999866,"[0, 0, 0]",1,2166.753239999991,2168.7532669999637,,,,,,,,,,,,,,,4,M,2,13,l,CIB,2021_Sep_28_1036,2020.2.10,distractmap2,60.00214807928742,"['Left Arm', 'Chest', 'Right Leg', 'Right Face']",
2,"[0, 0.2]",1,,,,,0,4,4,4,,,,,,,,,,,,,,,,,,,,,,None,None,"[0, 0, 0]",2168.82029409986,None,2168.82029409986,2169.8199465998914,2169.803270400036,None,"[0, 0, 0]",1,2168.82029409986,None,,,,,,,,,,,,,,,4,M,2,13,l,CIB,2021_Sep_28_1036,2020.2.10,distractmap2,60.00214807928742,"['Left Arm', 'Chest', 'Right Leg', 'Right Face']",
5,"[0, 0]",0,,,,,0,5,5,5,,,,,,,,,,,,,,,,,,,,,,None,None,"[0, 0, 0]",2170.7865974998567,2172.7866275999695,2170.7865974998567,2171.786620199913,2171.769948999863,2172.7699573000427,"[0, 0, 0]",1,2170.7865974998567,2172.7866275999695,,,,,,,,,,,,,,,4,M,2,13,l,CIB,2021_Sep_28_1036,2020.2.10,distractmap2,60.00214807928742,"['Left Arm', 'Chest', 'Right Leg', 'Right Face']",
1,"[-0.2, 0.2]",0,,,,,0,6,6,6,,,,,,,,,,,,,,,,,,,,,,None,None,"[0, 0, 0]",2172.8032960998826,2174.803306199843,2172.8032960998826,2173.8032898998354,2173.7866267999634,2174.7866440999787,"[0, 0, 0]",1,2172.8032960998826,2174.803306199843,,,,,,,,,,,,,,,4,M,2,13,l,CIB,2021_Sep_28_1036,2020.2.10,distractmap2,60.00214807928742,"['Left Arm', 'Chest', 'Right Leg', 'Right Face']",
1,"[-0.2, 0.2]",0,,,,,0,7,7,7,,,,,,,,,,,,,,,,,,,,,,None,None,"[0, 0, 0]",2174.819967099931,2176.8200019998476,2174.819967099931,2175.819980900036,2175.8033739000093,2176.803316100035,"[0, 0, 0]",1,2174.819967099931,2176.8200019998476,,,,,,,,,,,,,,,4,M,2,13,l,CIB,2021_Sep_28_1036,2020.2.10,distractmap2,60.00214807928742,"['Left Arm', 'Chest', 'Right Leg', 'Right Face']",
6,"[0.2, 0]",0,,,,,0,8,8,8,,,,,,,,,,,,,,,,,,,,,,None,None,"[0, 0, 0]",2176.8366548998747,2178.83665429987,2176.8366548998747,2177.8366548998747,2177.819995699916,2178.820005199872,"[0, 0, 0]",1,2176.8366548998747,2178.83665429987,,,,,,,,,,,,,,,4,M,2,13,l,CIB,2021_Sep_28_1036,2020.2.10,distractmap2,60.00214807928742,"['Left Arm', 'Chest', 'Right Leg', 'Right Face']",
1,"[-0.2, 0.2]",1,,,,,0,9,9,9,,,,,,,,,,,,,,,,,,,,,,None,None,"[0, 0, 0]",2178.8533319998533,2180.853330799844,2178.8533319998533,2179.8533516000025,2179.836675700033,2180.836692099925,"[0, 0, 0]",1,2178.8533319998533,2180.853330799844,,,,,,,,,,,,,,,4,M,2,13,l,CIB,2021_Sep_28_1036,2020.2.10,distractmap2,60.00214807928742,"['Left Arm', 'Chest', 'Right Leg', 'Right Face']",
,,,,,,,,,,,2180.8700257998426,None,,,,,,,,,,,,,,,,,,,,,,,,,,,,,,,,,,,,,,,,,,30.185185185185187,2161.7767202500254,,,,4,M,2,13,l,CIB,2021_Sep_28_1036,2020.2.10,distractmap2,60.00214807928742,"['Left Arm', 'Chest', 'Right Leg', 'Right Face']",
2,"[0, 0.2]",None,0,0,0,0,,,,,2196.8035323999356,None,2200.9368542998563,None,2200.9368542998563,2201.936850100057,2201.903541599866,2202.9035471999086,1,None,None,"[0, 0, 0]",,,2200.9368542998563,None,,,,,,,,,,,,,,,,,,,,,,,,,,,,,,0.013987049926072359,5.010394850047305,"[0, 0, 0]",4,M,2,13,l,CIB,2021_Sep_28_1036,2020.2.10,distractmap2,60.00214807928742,"['Left Arm', 'Chest', 'Right Leg', 'Right Face']",
2,"[0, 0.2]",1,0,1,1,1,,,,,,,2202.93684999994,None,2202.93684999994,2203.936881999951,2203.920200899942,2204.920202099951,1,None,None,"[0, 0, 0]",,,2202.93684999994,None,,,,,,,,,,,,,,,,,,,,,,,,,,,,,,,,"[0, 0, 0]",4,M,2,13,l,CIB,2021_Sep_28_1036,2020.2.10,distractmap2,60.00214807928742,"['Left Arm', 'Chest', 'Right Leg', 'Right Face']",
1,"[-0.2, 0.2]",0,0,2,2,2,,,,,,,2204.9368634999264,2204.9368634999264,2204.9368634999264,2205.9368807999417,2205.9202145999297,2206.92022069986,1,None,None,"[0, 0, 0]",,,2204.9368634999264,2204.9368634999264,,,,,,,,,,,,,,,,,,,,,,,,,,,,,,,,"[0, 0, 0]",4,M,2,13,l,CIB,2021_Sep_28_1036,2020.2.10,distractmap2,60.00214807928742,"['Left Arm', 'Chest', 'Right Leg', 'Right Face']",
2,"[0, 0.2]",0,0,3,3,3,,,,,,,2206.936900799861,2206.936900799861,2206.936900799861,2207.93689799984,2207.920229499927,2208.920237999875,1,None,None,"[0, 0, 0]",,,2206.936900799861,2206.936900799861,,,,,,,,,,,,,,,,,,,,,,,,,,,,,,,,"[0, 0, 0]",4,M,2,13,l,CIB,2021_Sep_28_1036,2020.2.10,distractmap2,60.00214807928742,"['Left Arm', 'Chest', 'Right Leg', 'Right Face']",
2,"[0, 0.2]",1,0,4,4,4,,,,,,,2209.003925799858,2209.003925799858,2209.003925799858,2210.003606399987,2209.986905799946,None,1,None,None,"[0, 0, 0]",,,2209.003925799858,2209.003925799858,,,,,,,,,,,,,,,,,,,,,,,,,,,,,,,,"[0, 0, 0]",4,M,2,13,l,CIB,2021_Sep_28_1036,2020.2.10,distractmap2,60.00214807928742,"['Left Arm', 'Chest', 'Right Leg', 'Right Face']",
4,"[-0.2, 0]",0,0,5,5,5,,,,,,,2210.9536086998414,None,2210.9536086998414,2211.9536079999525,2211.936806899961,2212.9369210998993,1,None,None,"[0, 0, 0]",,,2210.9536086998414,None,,,,,,,,,,,,,,,,,,,,,,,,,,,,,,,,"[0, 0, 0]",4,M,2,13,l,CIB,2021_Sep_28_1036,2020.2.10,distractmap2,60.00214807928742,"['Left Arm', 'Chest', 'Right Leg', 'Right Face']",
6,"[0.2, 0]",0,0,6,6,6,,,,,,,2212.953579999972,2212.953579999972,2212.953579999972,2213.9536079999525,2213.936930899974,2214.9369554999284,1,None,None,"[0, 0, 0]",,,2212.953579999972,2212.953579999972,,,,,,,,,,,,,,,,,,,,,,,,,,,,,,,,"[0, 0, 0]",4,M,2,13,l,CIB,2021_Sep_28_1036,2020.2.10,distractmap2,60.00214807928742,"['Left Arm', 'Chest', 'Right Leg', 'Right Face']",
8,"[0, -0.2]",0,0,7,7,7,,,,,,,2214.953613999998,2214.953613999998,2214.953613999998,2215.9536286999937,2215.9369699999224,2216.9369725999422,1,None,None,"[0, 0, 0]",,,2214.953613999998,2214.953613999998,,,,,,,,,,,,,,,,,,,,,,,,,,,,,,,,"[0, 0, 0]",4,M,2,13,l,CIB,2021_Sep_28_1036,2020.2.10,distractmap2,60.00214807928742,"['Left Arm', 'Chest', 'Right Leg', 'Right Face']",
9,"[0.2, -0.2]",0,0,8,8,8,,,,,,,2216.953653299948,2216.953653299948,2216.953653299948,2217.9536411999725,2217.9368520998396,2218.9369818000123,1,None,None,"[0, 0, 0]",,,2216.953653299948,2216.953653299948,,,,,,,,,,,,,,,,,,,,,,,,,,,,,,,,"[0, 0, 0]",4,M,2,13,l,CIB,2021_Sep_28_1036,2020.2.10,distractmap2,60.00214807928742,"['Left Arm', 'Chest', 'Right Leg', 'Right Face']",
9,"[0.2, -0.2]",1,0,9,9,9,,,,,,,2218.953648200026,2218.953648200026,2218.953648200026,2219.953673399985,2219.9369975000154,2220.9369995000307,1,None,None,"[0, 0, 0]",,,2218.953648200026,2218.953648200026,,,,,,,,,,,,,,,,,,,,,,,,,,,,,,,,"[0, 0, 0]",4,M,2,13,l,CIB,2021_Sep_28_1036,2020.2.10,distractmap2,60.00214807928742,"['Left Arm', 'Chest', 'Right Leg', 'Right Face']",
,,,,,,,,,,,2220.953658899991,None,,,,,,,,,,,,,,,,,,,,,,,,,,,,,,,,,,,,,,,,,,36.48148148148149,2201.1263545500115,,,,4,M,2,13,l,CIB,2021_Sep_28_1036,2020.2.10,distractmap2,60.00214807928742,"['Left Arm', 'Chest', 'Right Leg', 'Right Face']",
4,"[-0.2, 0]",None,0,0,0,0,,,,,2236.9208503998816,None,2241.0038242000155,None,2241.0038242000155,2242.00382740004,2241.970514399931,2242.9705254000146,1,None,None,"[0, 0, 0]",,,2241.0038242000155,None,,,,,,,,,,,,,,,,,,,,,,,,,,,,,,0.014663349837064743,5.011769849807024,"[0, 0, 0]",4,M,2,13,l,CIB,2021_Sep_28_1036,2020.2.10,distractmap2,60.00214807928742,"['Left Arm', 'Chest', 'Right Leg', 'Right Face']",
7,"[-0.2, -0.2]",0,0,1,1,1,,,,,,,2243.0038630999625,None,2243.0038630999625,2244.003856000025,2243.987185699865,2244.9871904999018,1,None,None,"[0, 0, 0]",,,2243.0038630999625,None,,,,,,,,,,,,,,,,,,,,,,,,,,,,,,,,"[0, 0, 0]",4,M,2,13,l,CIB,2021_Sep_28_1036,2020.2.10,distractmap2,60.00214807928742,"['Left Arm', 'Chest', 'Right Leg', 'Right Face']",
7,"[-0.2, -0.2]",1,0,2,2,2,,,,,,,2245.0037866998464,2245.0037866998464,2245.0037866998464,2246.0038695998956,2245.987191000022,2246.987200499978,1,None,None,"[0, 0, 0]",,,2245.0037866998464,2245.0037866998464,,,,,,,,,,,,,,,,,,,,,,,,,,,,,,,,"[0, 0, 0]",4,M,2,13,l,CIB,2021_Sep_28_1036,2020.2.10,distractmap2,60.00214807928742,"['Left Arm', 'Chest', 'Right Leg', 'Right Face']",
4,"[-0.2, 0]",0,0,3,3,3,,,,,,,2247.003869500011,2247.003869500011,2247.003869500011,2248.003874799935,2247.9872120998334,2248.9872140998486,1,None,None,"[0, 0, 0]",,,2247.003869500011,2247.003869500011,,,,,,,,,,,,,,,,,,,,,,,,,,,,,,,,"[0, 0, 0]",4,M,2,13,l,CIB,2021_Sep_28_1036,2020.2.10,distractmap2,60.00214807928742,"['Left Arm', 'Chest', 'Right Leg', 'Right Face']",
8,"[0, -0.2]",0,0,4,4,4,,,,,,,2249.0542629000265,2249.0542629000265,2249.0542629000265,2250.053906999994,2250.037234300049,None,1,None,None,"[0, 0, 0]",,,2249.0542629000265,2249.0542629000265,,,,,,,,,,,,,,,,,,,,,,,,,,,,,,,,"[0, 0, 0]",4,M,2,13,l,CIB,2021_Sep_28_1036,2020.2.10,distractmap2,60.00214807928742,"['Left Arm', 'Chest', 'Right Leg', 'Right Face']",
4,"[-0.2, 0]",0,0,5,5,5,,,,,,,2251.0205659999046,None,2251.0205659999046,2252.020615699934,2252.0039268999826,2253.0039118998684,1,None,None,"[0, 0, 0]",,,2251.0205659999046,None,,,,,,,,,,,,,,,,,,,,,,,,,,,,,,,,"[0, 0, 0]",4,M,2,13,l,CIB,2021_Sep_28_1036,2020.2.10,distractmap2,60.00214807928742,"['Left Arm', 'Chest', 'Right Leg', 'Right Face']",
7,"[-0.2, -0.2]",0,0,6,6,6,,,,,,,2253.0205873998348,2253.0205873998348,2253.0205873998348,2254.020596199902,2254.0039435999934,2255.003939999966,1,None,None,"[0, 0, 0]",,,2253.0205873998348,2253.0205873998348,,,,,,,,,,,,,,,,,,,,,,,,,,,,,,,,"[0, 0, 0]",4,M,2,13,l,CIB,2021_Sep_28_1036,2020.2.10,distractmap2,60.00214807928742,"['Left Arm', 'Chest', 'Right Leg', 'Right Face']",
6,"[0.2, 0]",0,0,7,7,7,,,,,,,2255.0206106998958,2255.0206106998958,2255.0206106998958,2256.02061389992,2256.0039409999736,2257.0039488999173,1,None,None,"[0, 0, 0]",,,2255.0206106998958,2255.0206106998958,,,,,,,,,,,,,,,,,,,,,,,,,,,,,,,,"[0, 0, 0]",4,M,2,13,l,CIB,2021_Sep_28_1036,2020.2.10,distractmap2,60.00214807928742,"['Left Arm', 'Chest', 'Right Leg', 'Right Face']",
6,"[0.2, 0]",1,0,8,8,8,,,,,,,2257.020612400025,2257.020612400025,2257.020612400025,2258.0206255000085,2258.0039385999553,2259.003949600039,1,None,None,"[0, 0, 0]",,,2257.020612400025,2257.020612400025,,,,,,,,,,,,,,,,,,,,,,,,,,,,,,,,"[0, 0, 0]",4,M,2,13,l,CIB,2021_Sep_28_1036,2020.2.10,distractmap2,60.00214807928742,"['Left Arm', 'Chest', 'Right Leg', 'Right Face']",
1,"[-0.2, 0.2]",0,0,9,9,9,,,,,,,2259.0206297000404,2259.0206297000404,2259.0206297000404,2260.0206303999294,2260.0039860999677,2261.00397849991,1,None,None,"[0, 0, 0]",,,2259.0206297000404,2259.0206297000404,,,,,,,,,,,,,,,,,,,,,,,,,,,,,,,,"[0, 0, 0]",4,M,2,13,l,CIB,2021_Sep_28_1036,2020.2.10,distractmap2,60.00214807928742,"['Left Arm', 'Chest', 'Right Leg', 'Right Face']",
,,,,,,,,,,,2261.020627700025,None,,,,,,,,,,,,,,,,,,,,,,,,,,,,,,,,,,,,,,,,,,35.0,2244.2102035500575,,,,4,M,2,13,l,CIB,2021_Sep_28_1036,2020.2.10,distractmap2,60.00214807928742,"['Left Arm', 'Chest', 'Right Leg', 'Right Face']",
3,"[0.2, 0.2]",None,,,,,0,0,0,0,2547.289645999903,None,,,,,,,,,,,,,,,,,,,,None,None,"[0, 0, 0]",2549.972795699956,None,2549.972795699956,2550.9729124000296,2550.956255099969,2551.956258499995,"[0, 0, 0]",1,2549.972795699956,None,2312.5877261999995,2312.5877261999995,None,space,201.7640779998619,2312.5877261999995,None,,,,,0.01450544991530478,5.011436050059274,,4,M,2,13,l,CIB,2021_Sep_28_1036,2020.2.10,distractmap2,60.00214807928742,"['Left Arm', 'Chest', 'Right Leg', 'Right Face']",
3,"[0.2, 0.2]",None,,,,,0,1,1,1,,,,,,,,,,,,,,,,,,,,,,None,None,"[0, 0, 0]",2551.972924300004,2553.9729408998974,2551.972924300004,2552.9729253000114,2552.956284899963,2553.9562776999082,"[0, 0, 0]",1,2551.972924300004,2553.9729408998974,,,,,,,,,,,,,,,4,M,2,13,l,CIB,2021_Sep_28_1036,2020.2.10,distractmap2,60.00214807928742,"['Left Arm', 'Chest', 'Right Leg', 'Right Face']",
5,"[0, 0]",0,,,,,0,2,2,2,,,,,,,,,,,,,,,,,,,,,,None,None,"[0, 0, 0]",2553.9896044998895,2555.9896352998912,2553.9896044998895,2554.9896169998683,2554.972947299946,2555.9729477998335,"[0, 0, 0]",1,2553.9896044998895,2555.9896352998912,,,,,,,,,,,,,,,4,M,2,13,l,CIB,2021_Sep_28_1036,2020.2.10,distractmap2,60.00214807928742,"['Left Arm', 'Chest', 'Right Leg', 'Right Face']",
1,"[-0.2, 0.2]",0,,,,,0,3,3,3,,,,,,,,,,,,,,,,,,,,,,None,None,"[0, 0, 0]",2556.006295399973,2558.0063499999233,2556.006295399973,2557.0061836999375,2556.9896335999947,2557.9896835000254,"[0, 0, 0]",1,2556.006295399973,2558.0063499999233,,,,,,,,,,,,,,,4,M,2,13,l,CIB,2021_Sep_28_1036,2020.2.10,distractmap2,60.00214807928742,"['Left Arm', 'Chest', 'Right Leg', 'Right Face']",
5,"[0, 0]",1,,,,,0,4,4,4,,,,,,,,,,,,,,,,,,,,,,None,None,"[0, 0, 0]",2558.090023000026,None,2558.090023000026,2559.0896489999723,2559.073000299977,None,"[0, 0, 0]",1,2558.090023000026,None,,,,,,,,,,,,,,,4,M,2,13,l,CIB,2021_Sep_28_1036,2020.2.10,distractmap2,60.00214807928742,"['Left Arm', 'Chest', 'Right Leg', 'Right Face']",
8,"[0, -0.2]",0,,,,,0,5,5,5,,,,,,,,,,,,,,,,,,,,,,None,None,"[0, 0, 0]",2560.0396620000247,2562.0396769000217,2560.0396620000247,2561.0396654000506,2561.022990099853,2562.0228943000548,"[0, 0, 0]",1,2560.0396620000247,2562.0396769000217,,,,,,,,,,,,,,,4,M,2,13,l,CIB,2021_Sep_28_1036,2020.2.10,distractmap2,60.00214807928742,"['Left Arm', 'Chest', 'Right Leg', 'Right Face']",
5,"[0, 0]",1,,,,,0,6,6,6,,,,,,,,,,,,,,,,,,,,,,None,None,"[0, 0, 0]",2562.05635920004,2564.0563682999928,2562.05635920004,2563.0563389000017,2563.0396928999107,2564.0396827999502,"[0, 0, 0]",1,2562.05635920004,2564.0563682999928,,,,,,,,,,,,,,,4,M,2,13,l,CIB,2021_Sep_28_1036,2020.2.10,distractmap2,60.00214807928742,"['Left Arm', 'Chest', 'Right Leg', 'Right Face']",
7,"[-0.2, -0.2]",0,,,,,0,7,7,7,,,,,,,,,,,,,,,,,,,,,,None,None,"[0, 0, 0]",2564.0730188000016,2566.0729274998885,2564.0730188000016,2565.072949799942,2565.0563739999197,2566.0563642999623,"[0, 0, 0]",1,2564.0730188000016,2566.0729274998885,,,,,,,,,,,,,,,4,M,2,13,l,CIB,2021_Sep_28_1036,2020.2.10,distractmap2,60.00214807928742,"['Left Arm', 'Chest', 'Right Leg', 'Right Face']",
5,"[0, 0]",1,,,,,0,8,8,8,,,,,,,,,,,,,,,,,,,,,,None,None,"[0, 0, 0]",2566.089623000007,2568.0897170000244,2566.089623000007,2567.0897025000304,2567.073044599965,2568.073035300011,"[0, 0, 0]",1,2566.089623000007,2568.0897170000244,,,,,,,,,,,,,,,4,M,2,13,l,CIB,2021_Sep_28_1036,2020.2.10,distractmap2,60.00214807928742,"['Left Arm', 'Chest', 'Right Leg', 'Right Face']",
7,"[-0.2, -0.2]",1,,,,,0,9,9,9,,,,,,,,,,,,,,,,,,,,,,None,None,"[0, 0, 0]",2568.106399399927,2570.1063908999786,2568.106399399927,2569.1063985000364,2569.089727899991,2570.089738199953,"[0, 0, 0]",1,2568.106399399927,2570.1063908999786,,,,,,,,,,,,,,,4,M,2,13,l,CIB,2021_Sep_28_1036,2020.2.10,distractmap2,60.00214807928742,"['Left Arm', 'Chest', 'Right Leg', 'Right Face']",
,,,,,,,,,,,2570.1230480000377,None,,,,,,,,,,,,,,,,,,,,,,,,,,,,,,,,,,,,,,,,,,32.839506172839506,2549.429257150041,,,,4,M,2,13,l,CIB,2021_Sep_28_1036,2020.2.10,distractmap2,60.00214807928742,"['Left Arm', 'Chest', 'Right Leg', 'Right Face']",
5,"[0, 0]",None,0,0,0,0,,,,,2584.005994600011,None,2590.189911299851,None,2590.189911299851,2591.1898963998538,2591.173233699985,2592.1732507999986,1,None,None,"[0, 0, 0]",,,2590.189911299851,None,,,,,,,,,,,,,,,,,,,,,,,,,,,,,,0.014514749869704247,5.011399250011891,"[0, 0, 0]",4,M,2,13,l,CIB,2021_Sep_28_1036,2020.2.10,distractmap2,60.00214807928742,"['Left Arm', 'Chest', 'Right Leg', 'Right Face']",
5,"[0, 0]",1,0,1,1,1,,,,,,,2592.1899118998554,None,2592.1899118998554,2593.189916400006,2593.173246299848,2594.1732471999712,1,None,None,"[0, 0, 0]",,,2592.1899118998554,None,,,,,,,,,,,,,,,,,,,,,,,,,,,,,,,,"[0, 0, 0]",4,M,2,13,l,CIB,2021_Sep_28_1036,2020.2.10,distractmap2,60.00214807928742,"['Left Arm', 'Chest', 'Right Leg', 'Right Face']",
4,"[-0.2, 0]",0,0,2,2,2,,,,,,,2594.189920200035,2594.189920200035,2594.189920200035,2595.1899383999407,2595.1727487999015,2596.173269599909,1,None,None,"[0, 0, 0]",,,2594.189920200035,2594.189920200035,,,,,,,,,,,,,,,,,,,,,,,,,,,,,,,,"[0, 0, 0]",4,M,2,13,l,CIB,2021_Sep_28_1036,2020.2.10,distractmap2,60.00214807928742,"['Left Arm', 'Chest', 'Right Leg', 'Right Face']",
2,"[0, 0.2]",0,0,3,3,3,,,,,,,2596.189928199863,2596.189928199863,2596.189928199863,2597.189947299892,2597.173282200005,2598.1732929998543,1,None,None,"[0, 0, 0]",,,2596.189928199863,2596.189928199863,,,,,,,,,,,,,,,,,,,,,,,,,,,,,,,,"[0, 0, 0]",4,M,2,13,l,CIB,2021_Sep_28_1036,2020.2.10,distractmap2,60.00214807928742,"['Left Arm', 'Chest', 'Right Leg', 'Right Face']",
6,"[0.2, 0]",0,0,4,4,4,,,,,,,2598.2235923998524,2598.2235923998524,2598.2235923998524,2599.223308699904,2599.223308699904,None,1,None,None,"[0, 0, 0]",,,2598.2235923998524,2598.2235923998524,,,,,,,,,,,,,,,,,,,,,,,,,,,,,,,,"[0, 0, 0]",4,M,2,13,l,CIB,2021_Sep_28_1036,2020.2.10,distractmap2,60.00214807928742,"['Left Arm', 'Chest', 'Right Leg', 'Right Face']",
8,"[0, -0.2]",0,0,5,5,5,,,,,,,2600.206627999898,None,2600.206627999898,2601.2066548999865,2601.1899867998436,2602.1899945000187,1,None,None,"[0, 0, 0]",,,2600.206627999898,None,,,,,,,,,,,,,,,,,,,,,,,,,,,,,,,,"[0, 0, 0]",4,M,2,13,l,CIB,2021_Sep_28_1036,2020.2.10,distractmap2,60.00214807928742,"['Left Arm', 'Chest', 'Right Leg', 'Right Face']",
1,"[-0.2, 0.2]",0,0,6,6,6,,,,,,,2602.206693999935,2602.206693999935,2602.206693999935,2603.2066611000337,2603.189989199862,2604.190005699871,1,None,None,"[0, 0, 0]",,,2602.206693999935,2602.206693999935,,,,,,,,,,,,,,,,,,,,,,,,,,,,,,,,"[0, 0, 0]",4,M,2,13,l,CIB,2021_Sep_28_1036,2020.2.10,distractmap2,60.00214807928742,"['Left Arm', 'Chest', 'Right Leg', 'Right Face']",
4,"[-0.2, 0]",0,0,7,7,7,,,,,,,2604.2065407999326,2604.2065407999326,2604.2065407999326,2605.206678000046,2605.1900053999852,2606.1900050998665,1,None,None,"[0, 0, 0]",,,2604.2065407999326,2604.2065407999326,,,,,,,,,,,,,,,,,,,,,,,,,,,,,,,,"[0, 0, 0]",4,M,2,13,l,CIB,2021_Sep_28_1036,2020.2.10,distractmap2,60.00214807928742,"['Left Arm', 'Chest', 'Right Leg', 'Right Face']",
8,"[0, -0.2]",0,0,8,8,8,,,,,,,2606.2066935000475,2606.2066935000475,2606.2066935000475,2607.206699699862,2607.1900259999093,2608.190042400034,1,None,None,"[0, 0, 0]",,,2606.2066935000475,2606.2066935000475,,,,,,,,,,,,,,,,,,,,,,,,,,,,,,,,"[0, 0, 0]",4,M,2,13,l,CIB,2021_Sep_28_1036,2020.2.10,distractmap2,60.00214807928742,"['Left Arm', 'Chest', 'Right Leg', 'Right Face']",
8,"[0, -0.2]",1,0,9,9,9,,,,,,,2608.206697799964,2608.206697799964,2608.206697799964,2609.206729599973,2609.1900561999064,2610.1900531998836,1,None,None,"[0, 0, 0]",,,2608.206697799964,2608.206697799964,,,,,,,,,,,,,,,,,,,,,,,,,,,,,,,,"[0, 0, 0]",4,M,2,13,l,CIB,2021_Sep_28_1036,2020.2.10,distractmap2,60.00214807928742,"['Left Arm', 'Chest', 'Right Leg', 'Right Face']",
,,,,,,,,,,,2610.206720399903,None,,,,,,,,,,,,,,,,,,,,,,,,,,,,,,,,,,,,,,,,,,36.851851851851855,2590.362275850028,,,,4,M,2,13,l,CIB,2021_Sep_28_1036,2020.2.10,distractmap2,60.00214807928742,"['Left Arm', 'Chest', 'Right Leg', 'Right Face']",
6,"[0.2, 0]",None,,,,,0,0,0,0,2625.4237395999953,None,,,,,,,,,,,,,,,,,,,,None,None,"[0, 0, 0]",2630.256875399966,None,2630.256875399966,2631.256894499995,2631.2402142998762,2632.240232900018,"[0, 0, 0]",1,2630.256875399966,None,,,,,,,,,,,,0.015135549940168858,5.012690549949184,,4,M,2,13,l,CIB,2021_Sep_28_1036,2020.2.10,distractmap2,60.00214807928742,"['Left Arm', 'Chest', 'Right Leg', 'Right Face']",
1,"[-0.2, 0.2]",None,,,,,0,1,1,1,,,,,,,,,,,,,,,,,,,,,,None,None,"[0, 0, 0]",2632.2568911998533,2634.2569017000496,2632.2568911998533,2633.2569057999644,2633.24022479984,2634.2402254999615,"[0, 0, 0]",1,2632.2568911998533,2634.2569017000496,,,,,,,,,,,,,,,4,M,2,13,l,CIB,2021_Sep_28_1036,2020.2.10,distractmap2,60.00214807928742,"['Left Arm', 'Chest', 'Right Leg', 'Right Face']",
6,"[0.2, 0]",1,,,,,0,2,2,2,,,,,,,,,,,,,,,,,,,,,,None,None,"[0, 0, 0]",2634.27357069985,2636.2735998998396,2634.27357069985,2635.273614499951,2635.256896100007,2636.2569184999447,"[0, 0, 0]",1,2634.27357069985,2636.2735998998396,,,,,,,,,,,,,,,4,M,2,13,l,CIB,2021_Sep_28_1036,2020.2.10,distractmap2,60.00214807928742,"['Left Arm', 'Chest', 'Right Leg', 'Right Face']",
4,"[-0.2, 0]",0,,,,,0,3,3,3,,,,,,,,,,,,,,,,,,,,,,None,None,"[0, 0, 0]",2636.290249799844,2638.2902698998805,2636.290249799844,2637.2902611999307,2637.2735909998883,2638.2736043999903,"[0, 0, 0]",1,2636.290249799844,2638.2902698998805,,,,,,,,,,,,,,,4,M,2,13,l,CIB,2021_Sep_28_1036,2020.2.10,distractmap2,60.00214807928742,"['Left Arm', 'Chest', 'Right Leg', 'Right Face']",
1,"[-0.2, 0.2]",0,,,,,0,4,4,4,,,,,,,,,,,,,,,,,,,,,,None,None,"[0, 0, 0]",2638.357206000015,None,2638.357206000015,2639.3569438999984,2639.340278599877,None,"[0, 0, 0]",1,2638.357206000015,None,,,,,,,,,,,,,,,4,M,2,13,l,CIB,2021_Sep_28_1036,2020.2.10,distractmap2,60.00214807928742,"['Left Arm', 'Chest', 'Right Leg', 'Right Face']",
8,"[0, -0.2]",0,,,,,0,5,5,5,,,,,,,,,,,,,,,,,,,,,,None,None,"[0, 0, 0]",2640.3236070000567,2642.3236338999122,2640.3236070000567,2641.3236286998726,2641.3069642998744,2642.3069750999566,"[0, 0, 0]",1,2640.3236070000567,2642.3236338999122,,,,,,,,,,,,,,,4,M,2,13,l,CIB,2021_Sep_28_1036,2020.2.10,distractmap2,60.00214807928742,"['Left Arm', 'Chest', 'Right Leg', 'Right Face']",
1,"[-0.2, 0.2]",1,,,,,0,6,6,6,,,,,,,,,,,,,,,,,,,,,,None,None,"[0, 0, 0]",2642.3403014000505,2644.340307699982,2642.3403014000505,2643.340311399894,2643.323646900011,2644.3236485999078,"[0, 0, 0]",1,2642.3403014000505,2644.340307699982,,,,,,,,,,,,,,,4,M,2,13,l,CIB,2021_Sep_28_1036,2020.2.10,distractmap2,60.00214807928742,"['Left Arm', 'Chest', 'Right Leg', 'Right Face']",
8,"[0, -0.2]",1,,,,,0,7,7,7,,,,,,,,,,,,,,,,,,,,,,None,None,"[0, 0, 0]",2644.356964299921,2646.357004099991,2644.356964299921,2645.357012900058,2645.3403326999396,2646.340317300055,"[0, 0, 0]",1,2644.356964299921,2646.357004099991,,,,,,,,,,,,,,,4,M,2,13,l,CIB,2021_Sep_28_1036,2020.2.10,distractmap2,60.00214807928742,"['Left Arm', 'Chest', 'Right Leg', 'Right Face']",
1,"[-0.2, 0.2]",1,,,,,0,8,8,8,,,,,,,,,,,,,,,,,,,,,,None,None,"[0, 0, 0]",2646.373665199848,2648.373572499957,2646.373665199848,2647.373658400029,2647.357002399862,2648.3570167999715,"[0, 0, 0]",1,2646.373665199848,2648.373572499957,,,,,,,,,,,,,,,4,M,2,13,l,CIB,2021_Sep_28_1036,2020.2.10,distractmap2,60.00214807928742,"['Left Arm', 'Chest', 'Right Leg', 'Right Face']",
6,"[0.2, 0]",0,,,,,0,9,9,9,,,,,,,,,,,,,,,,,,,,,,None,None,"[0, 0, 0]",2648.390345499851,2650.3903687000275,2648.390345499851,2649.3902679998428,2649.3737029000185,2650.3737111999653,"[0, 0, 0]",1,2648.390345499851,2650.3903687000275,,,,,,,,,,,,,,,4,M,2,13,l,CIB,2021_Sep_28_1036,2020.2.10,distractmap2,60.00214807928742,"['Left Arm', 'Chest', 'Right Leg', 'Right Face']",
,,,,,,,,,,,2650.4070444998797,None,,,,,,,,,,,,,,,,,,,,,,,,,,,,,,,,,,,,,,,,,,35.98765432098765,2633.113350349944,,,,4,M,2,13,l,CIB,2021_Sep_28_1036,2020.2.10,distractmap2,60.00214807928742,"['Left Arm', 'Chest', 'Right Leg', 'Right Face']",
3,"[0.2, 0.2]",None,0,0,0,0,,,,,2668.1738270998467,None,2670.4738729998935,None,2670.4738729998935,2671.473859499907,2671.4572099000216,2672.4572151999455,1,None,None,"[0, 0, 0]",,,2670.4738729998935,None,,,,,,,,,,,,,,,,,,,,,,,,,,,,,,0.014426050009205937,5.011264350032434,"[0, 0, 0]",4,M,2,13,l,CIB,2021_Sep_28_1036,2020.2.10,distractmap2,60.00214807928742,"['Left Arm', 'Chest', 'Right Leg', 'Right Face']",
