	SID	day	sex	session	handedness	scanner	onset	duration	value	body_site	skin_site	temperature	condition	keys	rt	phase	biopac_channel
0	2428	2	m	2	r	MS MH	2.774277599994093	5.003866852726787		Left Leg	2	46.5	Instructions			Control	19
1	2428	2	m	2	r	MS MH	8.308265700004995	5.002964300103486	41.85185185185185	Left Leg	2	46.5	Expectancy		2.9502415996976197	Control	51
2	2428	2	m	2	r	MS MH	13.703017299994826	1.996913400478661		Left Leg	2	46.5	Cue			Control	6
3	2428	2	m	2	r	MS MH	15.70461540017277	7.993850649800152		Left Leg	2	46.5	Pre-Jitter			Control	7
4	2428	2	m	2	r	MS MH	23.767647200264037	15.00127474963665		Left Leg	2	46.5	Control Heat 			Control	15
5	2428	2	m	2	r	MS MH	38.769417100120336	6.997954949736595		Left Leg	2	46.5	Mid-Jitter			Control	8
6	2428	2	m	2	r	MS MH	45.78759610000998	5.011699099559337	1.0	Left Leg	2	46.5	PainBinary		1.766938399989158	Control	20
7	2428	2	m	2	r	MS MH	50.81996309990063	4.997105400077999	36.7283950617284	Left Leg	2	46.5	IntensityRating		4.351229699794203	Control	21
8	2428	2	m	2	r	MS MH	55.82220310019329	6.992735650390387		Left Leg	2	46.5	Post-Q-Jitter			Control	9
9	2428	2	m	2	r	MS MH	63.90131779992953	5.001205500215292	39.38271604938272	Left Leg	2	46.5	Expectancy		2.183689800091088	Control	51
10	2428	2	m	2	r	MS MH	69.26783479982987	2.001618550159037		Left Leg	2	46.5	Cue			Control	6
11	2428	2	m	2	r	MS MH	71.27238340023905	4.00936315022409		Left Leg	2	46.5	Pre-Jitter			Control	7
12	2428	2	m	2	r	MS MH	75.32936350023374	15.01227799989283		Left Leg	2	46.5	Control Heat 			Control	15
13	2428	2	m	2	r	MS MH	90.3366410001181	4.997949150390923		Left Leg	2	46.5	Mid-Jitter			Control	8
14	2428	2	m	2	r	MS MH	95.35509259998798	4.994509299751371	1.0	Left Leg	2	46.5	PainBinary		1.6012502000667155	Control	20
15	2428	2	m	2	r	MS MH	100.37073659989983	5.013331199996173	35.80246913580247	Left Leg	2	46.5	IntensityRating		2.3669679001905024	Control	21
16	2428	2	m	2	r	MS MH	105.38911759993061	4.9933141502551734		Left Leg	2	46.5	Post-Q-Jitter			Control	9
17	2428	2	m	2	r	MS MH	111.50023810006678	5.004512500017881	38.76543209876544	Left Leg	2	46.5	Expectancy		1.833663399796933	Control	51
18	2428	2	m	2	r	MS MH	116.89059629989788	2.0072231995873153		Left Leg	2	46.5	Cue			Control	6
19	2428	2	m	2	r	MS MH	118.90629569999874	4.009219950065017		Left Leg	2	46.5	Pre-Jitter			Control	7
20	2428	2	m	2	r	MS MH	122.99767469987273	15.010035099927336		Left Leg	2	46.5	Control Heat 			Control	15
21	2428	2	m	2	r	MS MH	138.00432740012184	4.996963550336659		Left Leg	2	46.5	Mid-Jitter			Control	8
22	2428	2	m	2	r	MS MH	143.02228070003912	5.0111436997540295	-1.0	Left Leg	2	46.5	PainBinary		0.9836213001981378	Control	20
23	2428	2	m	2	r	MS MH	153.04454560019076	5.016696100588888		Left Leg	2	46.5	Post-Q-Jitter			Control	9
24	2428	2	m	2	r	MS MH	158.3468188000843	5.012375749647617	37.407407407407405	Left Leg	2	46.5	Expectancy		3.3003092003054917	Control	51
25	2428	2	m	2	r	MS MH	163.72062449995428	1.998189850244671		Left Leg	2	46.5	Cue			Control	6
26	2428	2	m	2	r	MS MH	165.7226255000569	7.994265350047499		Left Leg	2	46.5	Pre-Jitter			Control	7
27	2428	2	m	2	r	MS MH	173.77698579989374	15.002459299750626		Left Leg	2	46.5	Control Heat 			Control	15
28	2428	2	m	2	r	MS MH	188.78732739994302	4.998650050256401		Left Leg	2	46.5	Mid-Jitter			Control	8
29	2428	2	m	2	r	MS MH	193.8052397002466	4.996335099916905	1.0	Left Leg	2	46.5	PainBinary		0.8839484998025	Control	20
30	2428	2	m	2	r	MS MH	198.82150770025328	5.013881099876016	35.74074074074074	Left Leg	2	46.5	IntensityRating		2.850312599912286	Control	21
31	2428	2	m	2	r	MS MH	203.84032479999587	4.993024550378323		Left Leg	2	46.5	Post-Q-Jitter			Control	9
32	2428	2	m	2	r	MS MH	209.11884120013565	5.0027641002088785	36.48148148148149	Left Leg	2	46.5	Expectancy		2.3503649001941085	Control	51
33	2428	2	m	2	r	MS MH	214.48577819997445	2.0022886502556503		Left Leg	2	46.5	Cue			Control	6
34	2428	2	m	2	r	MS MH	216.49027900025249	6.01002095034346		Left Leg	2	46.5	Pre-Jitter			Control	7
35	2428	2	m	2	r	MS MH	222.53699660021812	15.000159250106663		Left Leg	2	46.5	Control Heat 			Control	15
36	2428	2	m	2	r	MS MH	237.53859539981931	4.997196449898183		Left Leg	2	46.5	Mid-Jitter			Control	8
37	2428	2	m	2	r	MS MH	242.5565646002069	5.011363200377673	1.0	Left Leg	2	46.5	PainBinary		1.8002113001421094	Control	20
38	2428	2	m	2	r	MS MH	247.58910680003464	5.013043699786067	34.69135802469136	Left Leg	2	46.5	IntensityRating		3.1836291002109647	Control	21
39	2428	2	m	2	r	MS MH	252.6082843998447	5.0080949501134455		Left Leg	2	46.5	Post-Q-Jitter			Control	9
40	2428	2	m	2	r	MS MH	257.90768920024857	5.009524800349027	35.49382716049383	Left Leg	2	46.5	Expectancy		3.1003252998925745	Control	51
41	2428	2	m	2	r	MS MH	263.3043730999343	1.999546599574387		Left Leg	2	46.5	Cue			Control	6
42	2428	2	m	2	r	MS MH	265.308016799856	6.00890995003283		Left Leg	2	46.5	Pre-Jitter			Control	7
43	2428	2	m	2	r	MS MH	271.3813705998473	15.012441650032997		Left Leg	2	46.5	Control Heat 			Control	15
44	2428	2	m	2	r	MS MH	286.38911860017106	8.997162249870598		Left Leg	2	46.5	Mid-Jitter			Control	8
45	2428	2	m	2	r	MS MH	295.40734530007467	5.010903699789196	1.0	Left Leg	2	46.5	PainBinary		0.950303299818188	Control	20
46	2428	2	m	2	r	MS MH	300.43895110022277	5.014491199981421	33.641975308641975	Left Leg	2	46.5	IntensityRating		2.11699409969151	Control	21
47	2428	2	m	2	r	MS MH	305.4588200999424	9.008227050304413		Left Leg	2	46.5	Post-Q-Jitter			Control	9
48	2428	2	m	2	r	MS MH	314.49696339992806	5.34890825022012	15.432098765432102	Left Leg	2	46.5	ComfortRating		5.302637100219727	Control	26
49	2428	2	m	2	r	MS MH	319.8608896001242	3.9544583996757865	42.283950617283956	Left Leg	2	46.5	ValenceRating		3.933619699906558	Control	24
50	2428	2	m	2	r	MS MH	323.8368397001177	2.4526379997842014	39.50617283950617	Left Leg	2	46.5	IntensityRating		2.4195444001816213	Control	26
51	2428	2	m	2	r	MS MH	326.30589700024575	2.764582799281925	45.92592592592595	Left Leg	2	46.5	AvoidanceRating		2.750537999905646	Control	27
52	2428	2	m	2	r	MS MH	329.0851821000688	3.1394444000907242	38.88888888888889	Left Leg	2	46.5	RelaxationRating		3.1171059999614954	Control	28
53	2428	2	m	2	r	MS MH	332.2388035999611	4.698942099697888	59.44444444444444	Left Leg	2	46.5	AttentionRating		4.683755200356245	Control	29
54	2428	2	m	2	r	MS MH	336.95237050019205	2.388509300071746	23.827160493827158	Left Leg	2	46.5	BoredomRating		2.3670564997009933	Control	30
55	2428	2	m	2	r	MS MH	339.3541649002582	2.7349609998054802	37.53086419753086	Left Leg	2	46.5	AlertnessRating		2.717019900213927	Control	31
56	2428	2	m	2	r	MS MH	342.104844099842	2.5336469002068043	-28.641975308641975	Left Leg	2	46.5	PosThxRating		2.517138199880719	Control	32
57	2428	2	m	2	r	MS MH	344.6550568998791	1.4999334998428822	30.740740740740762	Left Leg	2	46.5	NegThxRating		1.4837248995900154	Control	33
58	2428	2	m	2	r	MS MH	346.17057610023767	1.4355988996103406	26.049382716049394	Left Leg	2	46.5	SelfRating		1.4171072002500296	Control	34
59	2428	2	m	2	r	MS MH	347.6213759998791	1.8673548004589975	-25.555555555555557	Left Leg	2	46.5	OtherRating		1.8503970000892878	Control	35
60	2428	2	m	2	r	MS MH	349.50482039991766	1.8005221001803875	18.148148148148138	Left Leg	2	46.5	ImageryRating		1.7837481000460684	Control	32
61	2428	2	m	2	r	MS MH	351.3235541000031	2.713104899507016	45.06172839506172	Left Leg	2	46.5	PresentRating		2.7009120997972786	Control	37
