RestT1,TaskT1,square,location,corrAns,counterbalancer.thisRepN,counterbalancer.thisTrialN,counterbalancer.thisN,counterbalancer.thisIndex,RestT1Loop.thisRepN,RestT1Loop.thisTrialN,RestT1Loop.thisN,RestT1Loop.thisIndex,TaskT1Loop.thisRepN,TaskT1Loop.thisTrialN,TaskT1Loop.thisN,TaskT1Loop.thisIndex,trials_2.thisRepN,trials_2.thisTrialN,trials_2.thisN,trials_2.thisIndex,NbackInstructions.started,NbackInstructions.stopped,NbackStart.keys,NbackStart.rt,NbackStart.started,NbackStart.stopped,fixation_2.started,fixation_2.stopped,response_2.x,response_2.y,response_2.leftButton,grid_lines_2.started,grid_lines_2.stopped,target_square_2.started,target_square_2.stopped,fixation_3.started,fixation_3.stopped,response_2.click,response_2.corr,response_2.started,response_2.stopped,fixation_1.started,fixation_1.stopped,subject number,gender,session,handedness,scanner,date,expName,psychopyVersion,frameRate,
0,1,,,,0,0,0,0,,,,,0,0,0,0,,,,,45.32064300007187,None,space,61.323914600070566,45.32064300007187,None,,,,,,,,,,,,,,,,,,8,F,1,R,CJM,2021_Oct_02_1956,WASABI Nback,2020.2.10,59.985771378417475,
0,1,5,"[0, 0]",None,0,0,0,0,,,,,0,0,0,0,0,0,0,0,,,,,,,None,None,None,None,[],None,None,None,None,None,None,[],[],None,None,,,8,F,1,R,CJM,2021_Oct_02_1956,WASABI Nback,2020.2.10,59.985771378417475,
0,1,2,"[0, 0.2]",None,0,0,0,0,,,,,0,0,0,0,0,1,1,1,,,,,,,,,None,None,[],None,None,None,None,None,None,[],[],None,None,,,8,F,1,R,CJM,2021_Oct_02_1956,WASABI Nback,2020.2.10,59.985771378417475,
0,1,6,"[0.2, 0]",None,0,0,0,0,,,,,0,0,0,0,0,2,2,2,,,,,,,,,None,None,[],None,None,None,None,None,None,[],[],None,None,,,8,F,1,R,CJM,2021_Oct_02_1956,WASABI Nback,2020.2.10,59.985771378417475,
0,1,9,"[0.2, -0.2]",None,0,0,0,0,,,,,0,0,0,0,0,3,3,3,,,,,,,,,None,None,[],None,None,None,None,None,None,[],[],None,None,,,8,F,1,R,CJM,2021_Oct_02_1956,WASABI Nback,2020.2.10,59.985771378417475,
0,1,3,"[0.2, 0.2]",None,0,0,0,0,,,,,0,0,0,0,0,4,4,4,,,,,,,,,None,None,[],None,None,None,None,None,None,[],[],None,None,,,8,F,1,R,CJM,2021_Oct_02_1956,WASABI Nback,2020.2.10,59.985771378417475,
0,1,9,"[0.2, -0.2]",1,0,0,0,0,,,,,0,0,0,0,0,5,5,5,,,,,,,,,None,None,[],None,None,None,None,None,None,[],[],None,None,,,8,F,1,R,CJM,2021_Oct_02_1956,WASABI Nback,2020.2.10,59.985771378417475,
0,1,7,"[-0.2, -0.2]",None,0,0,0,0,,,,,0,0,0,0,0,6,6,6,,,,,,,,,None,None,[],None,None,None,None,None,None,[],[],None,None,,,8,F,1,R,CJM,2021_Oct_02_1956,WASABI Nback,2020.2.10,59.985771378417475,
0,1,1,"[-0.2, 0.2]",None,0,0,0,0,,,,,0,0,0,0,0,7,7,7,,,,,,,,,None,None,[],None,None,None,None,None,None,[],[],None,None,,,8,F,1,R,CJM,2021_Oct_02_1956,WASABI Nback,2020.2.10,59.985771378417475,
0,1,5,"[0, 0]",None,0,0,0,0,,,,,0,0,0,0,0,8,8,8,,,,,,,,,None,None,[],None,None,None,None,None,None,[],[],None,None,,,8,F,1,R,CJM,2021_Oct_02_1956,WASABI Nback,2020.2.10,59.985771378417475,
0,1,7,"[-0.2, -0.2]",None,0,0,0,0,,,,,0,0,0,0,0,9,9,9,,,,,,,,,None,None,[],None,None,None,None,None,None,[],[],None,None,,,8,F,1,R,CJM,2021_Oct_02_1956,WASABI Nback,2020.2.10,59.985771378417475,
0,1,5,"[0, 0]",1,0,0,0,0,,,,,0,0,0,0,0,10,10,10,,,,,,,,,None,None,[],None,None,None,None,None,None,[],[],None,None,,,8,F,1,R,CJM,2021_Oct_02_1956,WASABI Nback,2020.2.10,59.985771378417475,
0,1,6,"[0.2, 0]",None,0,0,0,0,,,,,0,0,0,0,0,11,11,11,,,,,,,,,None,None,[],None,None,None,None,None,None,[],[],None,None,,,8,F,1,R,CJM,2021_Oct_02_1956,WASABI Nback,2020.2.10,59.985771378417475,
0,1,3,"[0.2, 0.2]",None,0,0,0,0,,,,,0,0,0,0,0,12,12,12,,,,,,,,,None,None,[],None,None,None,None,None,None,[],[],None,None,,,8,F,1,R,CJM,2021_Oct_02_1956,WASABI Nback,2020.2.10,59.985771378417475,
0,1,6,"[0.2, 0]",1,0,0,0,0,,,,,0,0,0,0,0,13,13,13,,,,,,,,,None,None,[],None,None,None,None,None,None,[],[],None,None,,,8,F,1,R,CJM,2021_Oct_02_1956,WASABI Nback,2020.2.10,59.985771378417475,
0,1,8,"[0, -0.2]",None,0,0,0,0,,,,,0,0,0,0,0,14,14,14,,,,,,,,,None,None,[],None,None,None,None,None,None,[],[],None,None,,,8,F,1,R,CJM,2021_Oct_02_1956,WASABI Nback,2020.2.10,59.985771378417475,
0,1,9,"[0.2, -0.2]",None,0,0,0,0,,,,,0,0,0,0,0,15,15,15,,,,,,,,,None,None,[],None,None,None,None,None,None,[],[],None,None,,,8,F,1,R,CJM,2021_Oct_02_1956,WASABI Nback,2020.2.10,59.985771378417475,
0,1,9,"[0.2, -0.2]",None,0,0,0,0,,,,,0,0,0,0,0,16,16,16,,,,,,,,,None,None,[],None,None,None,None,None,None,[],[],None,None,,,8,F,1,R,CJM,2021_Oct_02_1956,WASABI Nback,2020.2.10,59.985771378417475,
0,1,1,"[-0.2, 0.2]",None,0,0,0,0,,,,,0,0,0,0,0,17,17,17,,,,,,,,,None,None,[],None,None,None,None,None,None,[],[],None,None,,,8,F,1,R,CJM,2021_Oct_02_1956,WASABI Nback,2020.2.10,59.985771378417475,
0,1,3,"[0.2, 0.2]",None,0,0,0,0,,,,,0,0,0,0,0,18,18,18,,,,,,,,,None,None,[],None,None,None,None,None,None,[],[],None,None,,,8,F,1,R,CJM,2021_Oct_02_1956,WASABI Nback,2020.2.10,59.985771378417475,
0,1,5,"[0, 0]",None,0,0,0,0,,,,,0,0,0,0,0,19,19,19,,,,,,,,,None,None,[],None,None,None,None,None,None,[],[],None,None,,,8,F,1,R,CJM,2021_Oct_02_1956,WASABI Nback,2020.2.10,59.985771378417475,
0,1,3,"[0.2, 0.2]",1,0,0,0,0,,,,,0,0,0,0,0,20,20,20,,,,,,,,,None,None,[],None,None,None,None,None,None,[],[],None,None,,,8,F,1,R,CJM,2021_Oct_02_1956,WASABI Nback,2020.2.10,59.985771378417475,
0,1,4,"[-0.2, 0]",None,0,0,0,0,,,,,0,0,0,0,0,21,21,21,,,,,,,,,None,None,0,150.85800240002573,None,150.85800240002573,None,None,None,0,1,150.85800240002573,None,,,8,F,1,R,CJM,2021_Oct_02_1956,WASABI Nback,2020.2.10,59.985771378417475,
0,1,7,"[-0.2, -0.2]",None,0,0,0,0,,,,,0,0,0,0,0,22,22,22,,,,,,,,,None,None,0,151.69140979996882,None,151.69140979996882,152.69143270002678,152.67475860007107,153.67477370006964,0,1,151.69140979996882,None,,,8,F,1,R,CJM,2021_Oct_02_1956,WASABI Nback,2020.2.10,59.985771378417475,
0,1,4,"[-0.2, 0]",1,0,0,0,0,,,,,0,0,0,0,0,23,23,23,,,,,,,,,None,None,0,153.6914451001212,None,153.6914451001212,154.69143299991265,154.67478480003774,155.67478010011837,0,1,153.6914451001212,None,,,8,F,1,R,CJM,2021_Oct_02_1956,WASABI Nback,2020.2.10,59.985771378417475,
0,1,4,"[-0.2, 0]",None,0,0,0,0,,,,,0,0,0,0,0,24,24,24,,,,,,,,,None,None,0,155.69145740009844,None,155.69145740009844,156.69145040004514,156.6747932001017,157.67479979991913,0,1,155.69145740009844,None,,,8,F,1,R,CJM,2021_Oct_02_1956,WASABI Nback,2020.2.10,59.985771378417475,
0,1,5,"[0, 0]",None,0,0,0,0,,,,,0,0,0,0,0,25,25,25,,,,,,,,,None,None,0,157.6914856999647,None,157.6914856999647,158.69139120006002,158.6748039999511,159.67481820005924,0,1,157.6914856999647,None,,,8,F,1,R,CJM,2021_Oct_02_1956,WASABI Nback,2020.2.10,59.985771378417475,
0,1,2,"[0, 0.2]",None,0,0,0,0,,,,,0,0,0,0,0,26,26,26,,,,,,,,,None,None,0,159.6914914001245,None,159.6914914001245,160.69150210008956,160.67482000007294,161.67482560011558,0,1,159.6914914001245,None,,,8,F,1,R,CJM,2021_Oct_02_1956,WASABI Nback,2020.2.10,59.985771378417475,
0,1,6,"[0.2, 0]",None,0,0,0,0,,,,,0,0,0,0,0,27,27,27,,,,,,,,,None,None,0,161.69149619992822,None,161.69149619992822,162.69150470010936,162.67484350013547,163.6748391999863,0,1,161.69149619992822,None,,,8,F,1,R,CJM,2021_Oct_02_1956,WASABI Nback,2020.2.10,59.985771378417475,
0,1,7,"[-0.2, -0.2]",None,0,0,0,0,,,,,0,0,0,0,0,28,28,28,,,,,,,,,None,None,0,163.69150430010632,None,163.69150430010632,164.69150580000132,164.6748460000381,165.67486859997734,0,1,163.69150430010632,None,,,8,F,1,R,CJM,2021_Oct_02_1956,WASABI Nback,2020.2.10,59.985771378417475,
0,1,6,"[0.2, 0]",1,0,0,0,0,,,,,0,0,0,0,0,29,29,29,,,,,,,,,None,None,0,165.6915255000349,None,165.6915255000349,166.69155430002138,166.67485540010966,167.67487039999105,0,1,165.6915255000349,None,,,8,F,1,R,CJM,2021_Oct_02_1956,WASABI Nback,2020.2.10,59.985771378417475,
0,1,6,"[0.2, 0]",None,0,0,0,0,,,,,0,0,0,0,0,30,30,30,,,,,,,,,None,None,0,167.69152699992992,None,167.69152699992992,168.69155029999092,168.67490530014038,169.67489079991356,0,1,167.69152699992992,None,,,8,F,1,R,CJM,2021_Oct_02_1956,WASABI Nback,2020.2.10,59.985771378417475,
0,1,7,"[-0.2, -0.2]",None,0,0,0,0,,,,,0,0,0,0,0,31,31,31,,,,,,,,,None,None,0,169.69157149991952,None,169.69157149991952,170.69157200003974,170.67489810008556,171.67490019998513,0,0,169.69157149991952,None,,,8,F,1,R,CJM,2021_Oct_02_1956,WASABI Nback,2020.2.10,59.985771378417475,
0,1,6,"[0.2, 0]",1,0,0,0,0,,,,,0,0,0,0,0,32,32,32,,,,,,,,,None,None,0,171.69158049998805,None,171.69158049998805,172.69159139995463,172.6749029001221,173.67491520009935,0,1,171.69158049998805,None,,,8,F,1,R,CJM,2021_Oct_02_1956,WASABI Nback,2020.2.10,59.985771378417475,
0,1,2,"[0, 0.2]",None,0,0,0,0,,,,,0,0,0,0,0,33,33,33,,,,,,,,,None,None,0,173.69157549994998,None,173.69157549994998,174.69159960001707,174.67491029994562,175.67493250011466,0,1,173.69157549994998,None,,,8,F,1,R,CJM,2021_Oct_02_1956,WASABI Nback,2020.2.10,59.985771378417475,
0,1,5,"[0, 0]",None,0,0,0,0,,,,,0,0,0,0,0,34,34,34,,,,,,,,,None,None,0,175.69161149999127,None,175.69161149999127,176.69160260003991,176.67495210003108,177.67493820004165,0,1,175.69161149999127,None,,,8,F,1,R,CJM,2021_Oct_02_1956,WASABI Nback,2020.2.10,59.985771378417475,
0,1,4,"[-0.2, 0]",None,0,0,0,0,,,,,0,0,0,0,0,35,35,35,,,,,,,,,None,None,0,177.69163549994119,None,177.69163549994119,178.69161440012977,178.67495250003412,179.67495990009047,0,1,177.69163549994119,None,,,8,F,1,R,CJM,2021_Oct_02_1956,WASABI Nback,2020.2.10,59.985771378417475,
0,1,4,"[-0.2, 0]",None,0,0,0,0,,,,,0,0,0,0,0,36,36,36,,,,,,,,,None,None,0,179.691619399935,None,179.691619399935,180.69164930004627,180.67497880011797,181.67497160006315,0,1,179.691619399935,None,,,8,F,1,R,CJM,2021_Oct_02_1956,WASABI Nback,2020.2.10,59.985771378417475,
0,1,7,"[-0.2, -0.2]",None,0,0,0,0,,,,,0,0,0,0,0,37,37,37,,,,,,,,,None,None,0,181.69163900008425,None,181.69163900008425,182.69164109998383,182.6749865000602,183.67498890007846,0,1,181.69163900008425,None,,,8,F,1,R,CJM,2021_Oct_02_1956,WASABI Nback,2020.2.10,59.985771378417475,
0,1,4,"[-0.2, 0]",1,0,0,0,0,,,,,0,0,0,0,0,38,38,38,,,,,,,,,None,None,0,183.6916756001301,None,183.6916756001301,184.69168430007994,184.67450390011072,185.6750004000496,0,1,183.6916756001301,None,,,8,F,1,R,CJM,2021_Oct_02_1956,WASABI Nback,2020.2.10,59.985771378417475,
0,1,3,"[0.2, 0.2]",None,0,0,0,0,,,,,0,0,0,0,0,39,39,39,,,,,,,,,None,None,0,185.6916680999566,None,185.6916680999566,186.6916946999263,186.6750038000755,187.67501839995384,0,1,185.6916680999566,None,,,8,F,1,R,CJM,2021_Oct_02_1956,WASABI Nback,2020.2.10,59.985771378417475,
0,1,5,"[0, 0]",None,0,0,0,0,,,,,0,0,0,0,0,40,40,40,,,,,,,,,None,None,0,187.6915848001372,None,187.6915848001372,188.69168970012106,188.67502290010452,189.6750302000437,0,1,187.6915848001372,None,,,8,F,1,R,CJM,2021_Oct_02_1956,WASABI Nback,2020.2.10,59.985771378417475,
0,1,3,"[0.2, 0.2]",1,0,0,0,0,,,,,0,0,0,0,0,41,41,41,,,,,,,,,None,None,0,189.69171510008164,None,189.69171510008164,190.69170309999026,190.67504919995554,191.6750535001047,0,1,189.69171510008164,None,,,8,F,1,R,CJM,2021_Oct_02_1956,WASABI Nback,2020.2.10,59.985771378417475,
0,1,1,"[-0.2, 0.2]",None,0,0,0,0,,,,,0,0,0,0,0,42,42,42,,,,,,,,,None,None,0,191.69171610008925,None,191.69171610008925,192.6917413000483,192.67505259998143,193.67507170001045,0,1,191.69171610008925,None,,,8,F,1,R,CJM,2021_Oct_02_1956,WASABI Nback,2020.2.10,59.985771378417475,
0,1,9,"[0.2, -0.2]",None,0,0,0,0,,,,,0,0,0,0,0,43,43,43,,,,,,,,,None,None,0,193.69173750001937,None,193.69173750001937,194.69175640004687,194.675086800009,195.6750702999998,0,1,193.69173750001937,None,,,8,F,1,R,CJM,2021_Oct_02_1956,WASABI Nback,2020.2.10,59.985771378417475,
0,1,9,"[0.2, -0.2]",None,0,0,0,0,,,,,0,0,0,0,0,44,44,44,,,,,,,,,None,None,0,195.69176549999975,None,195.69176549999975,196.6917616999708,196.675086800009,197.6750871001277,0,1,195.69176549999975,None,,,8,F,1,R,CJM,2021_Oct_02_1956,WASABI Nback,2020.2.10,59.985771378417475,
0,1,8,"[0, -0.2]",None,0,0,0,0,,,,,0,0,0,0,0,45,45,45,,,,,,,,,None,None,0,197.69177690008655,None,197.69177690008655,198.69175720005296,198.67511159996502,199.67511459998786,0,1,197.69177690008655,None,,,8,F,1,R,CJM,2021_Oct_02_1956,WASABI Nback,2020.2.10,59.985771378417475,
0,1,6,"[0.2, 0]",None,0,0,0,0,,,,,0,0,0,0,0,46,46,46,,,,,,,,,None,None,0,199.691795400111,None,199.691795400111,200.69177630008198,200.67515809996985,201.67513490002602,0,1,199.691795400111,None,,,8,F,1,R,CJM,2021_Oct_02_1956,WASABI Nback,2020.2.10,59.985771378417475,
0,1,3,"[0.2, 0.2]",None,0,0,0,0,,,,,0,0,0,0,0,47,47,47,,,,,,,,,None,None,0,201.69180659996346,None,201.69180659996346,202.69182449998334,202.6751395999454,203.6751337000169,0,1,201.69180659996346,None,,,8,F,1,R,CJM,2021_Oct_02_1956,WASABI Nback,2020.2.10,59.985771378417475,
0,1,6,"[0.2, 0]",1,0,0,0,0,,,,,0,0,0,0,0,48,48,48,,,,,,,,,None,None,0,203.6918059999589,None,203.6918059999589,204.6918303000275,204.6751403999515,205.675162400119,0,1,203.6918059999589,None,,,8,F,1,R,CJM,2021_Oct_02_1956,WASABI Nback,2020.2.10,59.985771378417475,
0,1,5,"[0, 0]",None,0,0,0,0,,,,,0,0,0,0,0,49,49,49,,,,,,,,,None,None,0,205.69183319993317,None,205.69183319993317,206.6918236000929,206.675169599941,207.67517499998212,0,1,205.69183319993317,None,,,8,F,1,R,CJM,2021_Oct_02_1956,WASABI Nback,2020.2.10,59.985771378417475,
0,1,7,"[-0.2, -0.2]",None,0,0,0,0,,,,,0,0,0,0,0,50,50,50,,,,,,,,,None,None,0,207.69185500009917,None,207.69185500009917,208.69184940005653,208.67518340004608,209.6751822999213,0,1,207.69185500009917,None,,,8,F,1,R,CJM,2021_Oct_02_1956,WASABI Nback,2020.2.10,59.985771378417475,
0,1,5,"[0, 0]",1,0,0,0,0,,,,,0,0,0,0,0,51,51,51,,,,,,,,,None,None,0,209.69186830008402,None,209.69186830008402,210.6918741001282,210.6751945000142,211.6752021999564,0,1,209.69186830008402,None,,,8,F,1,R,CJM,2021_Oct_02_1956,WASABI Nback,2020.2.10,59.985771378417475,
0,1,1,"[-0.2, 0.2]",None,0,0,0,0,,,,,0,0,0,0,0,52,52,52,,,,,,,,,None,None,0,211.6918536000885,None,211.6918536000885,212.69187199999578,212.67521010013297,213.6752196000889,0,1,211.6918536000885,None,,,8,F,1,R,CJM,2021_Oct_02_1956,WASABI Nback,2020.2.10,59.985771378417475,
0,1,7,"[-0.2, -0.2]",None,0,0,0,0,,,,,0,0,0,0,0,53,53,53,,,,,,,,,None,None,0,213.6918995999731,None,213.6918995999731,214.69190190010704,214.67522000009194,215.67522719991393,0,0,213.6918995999731,None,,,8,F,1,R,CJM,2021_Oct_02_1956,WASABI Nback,2020.2.10,59.985771378417475,
0,1,9,"[0.2, -0.2]",None,0,0,0,0,,,,,0,0,0,0,0,54,54,54,,,,,,,,,None,None,0,215.69189530005679,None,215.69189530005679,216.6918999000918,216.67524560005404,217.67525260010734,0,1,215.69189530005679,None,,,8,F,1,R,CJM,2021_Oct_02_1956,WASABI Nback,2020.2.10,59.985771378417475,
0,1,3,"[0.2, 0.2]",None,0,0,0,0,,,,,0,0,0,0,0,55,55,55,,,,,,,,,None,None,0,217.69192250003107,None,217.69192250003107,218.69191640010104,218.67524760006927,219.67525899992324,0,1,217.69192250003107,None,,,8,F,1,R,CJM,2021_Oct_02_1956,WASABI Nback,2020.2.10,59.985771378417475,
0,1,9,"[0.2, -0.2]",1,0,0,0,0,,,,,0,0,0,0,0,56,56,56,,,,,,,,,None,None,0,219.69193310011178,None,219.69193310011178,220.69194329995662,220.67527709994465,221.67527220002376,0,1,219.69193310011178,None,,,8,F,1,R,CJM,2021_Oct_02_1956,WASABI Nback,2020.2.10,59.985771378417475,
0,1,6,"[0.2, 0]",None,0,0,0,0,,,,,0,0,0,0,0,57,57,57,,,,,,,,,None,None,0,221.69193110009655,None,221.69193110009655,222.69178460002877,222.67528670001775,223.6752889000345,0,1,221.69193110009655,None,,,8,F,1,R,CJM,2021_Oct_02_1956,WASABI Nback,2020.2.10,59.985771378417475,
0,1,2,"[0, 0.2]",None,0,0,0,0,,,,,0,0,0,0,0,58,58,58,,,,,,,,,None,None,0,223.69197280006483,None,223.69197280006483,224.69196210009977,224.675298999995,225.67530760006048,0,1,223.69197280006483,None,,,8,F,1,R,CJM,2021_Oct_02_1956,WASABI Nback,2020.2.10,59.985771378417475,
0,1,5,"[0, 0]",None,0,0,0,0,,,,,0,0,0,0,0,59,59,59,,,,,,,,,None,None,0,225.69197300006635,None,225.69197300006635,226.69199170009233,226.67531029996462,227.6753144999966,0,1,225.69197300006635,None,,,8,F,1,R,CJM,2021_Oct_02_1956,WASABI Nback,2020.2.10,59.985771378417475,
0,1,5,"[0, 0]",None,0,0,0,0,,,,,0,0,0,0,0,60,60,60,,,,,,,,,None,None,0,227.69197820010595,None,227.69197820010595,228.69199740001932,228.67533789994195,229.67534329998307,0,1,227.69197820010595,None,,,8,F,1,R,CJM,2021_Oct_02_1956,WASABI Nback,2020.2.10,59.985771378417475,
0,1,2,"[0, 0.2]",None,0,0,0,0,,,,,0,0,0,0,0,61,61,61,,,,,,,,,None,None,0,229.69201739993878,None,229.69201739993878,230.69200180005282,230.67534780013375,231.67536310013384,0,0,229.69201739993878,None,,,8,F,1,R,CJM,2021_Oct_02_1956,WASABI Nback,2020.2.10,59.985771378417475,
0,1,6,"[0.2, 0]",None,0,0,0,0,,,,,0,0,0,0,0,62,62,62,,,,,,,,,None,None,0,231.69201590004377,None,231.69201590004377,232.6920364999678,232.6753593001049,233.67535990010947,0,1,231.69201590004377,None,,,8,F,1,R,CJM,2021_Oct_02_1956,WASABI Nback,2020.2.10,59.985771378417475,
0,1,9,"[0.2, -0.2]",None,0,0,0,0,,,,,0,0,0,0,0,63,63,63,,,,,,,,,None,None,0,233.69204510003328,None,233.69204510003328,234.6920583001338,234.67527349991724,235.67538499995135,0,1,233.69204510003328,None,,,8,F,1,R,CJM,2021_Oct_02_1956,WASABI Nback,2020.2.10,59.985771378417475,
0,1,3,"[0.2, 0.2]",None,0,0,0,0,,,,,0,0,0,0,0,64,64,64,,,,,,,,,None,None,0,235.69205780001357,None,235.69205780001357,236.6920567001216,236.67541810008697,237.67540589999408,0,1,235.69205780001357,None,,,8,F,1,R,CJM,2021_Oct_02_1956,WASABI Nback,2020.2.10,59.985771378417475,
0,1,9,"[0.2, -0.2]",1,0,0,0,0,,,,,0,0,0,0,0,65,65,65,,,,,,,,,None,None,0,237.6921246999409,None,237.6921246999409,238.69206889998168,238.6754100001417,239.67541950009763,0,1,237.6921246999409,None,,,8,F,1,R,CJM,2021_Oct_02_1956,WASABI Nback,2020.2.10,59.985771378417475,
0,1,7,"[-0.2, -0.2]",None,0,0,0,0,,,,,0,0,0,0,0,66,66,66,,,,,,,,,None,None,0,239.69207140011713,None,239.69207140011713,240.69208339997567,240.67543469998054,241.67542310012504,0,1,239.69207140011713,None,,,8,F,1,R,CJM,2021_Oct_02_1956,WASABI Nback,2020.2.10,59.985771378417475,
0,1,1,"[-0.2, 0.2]",None,0,0,0,0,,,,,0,0,0,0,0,67,67,67,,,,,,,,,None,None,0,241.69211039994843,None,241.69211039994843,242.69209260004573,242.67543970001861,243.67545789992437,0,1,241.69211039994843,None,,,8,F,1,R,CJM,2021_Oct_02_1956,WASABI Nback,2020.2.10,59.985771378417475,
0,1,5,"[0, 0]",None,0,0,0,0,,,,,0,0,0,0,0,68,68,68,,,,,,,,,None,None,0,243.69211740000173,None,243.69211740000173,244.69212620006874,244.67546040005982,245.6754616999533,0,1,243.69211740000173,None,,,8,F,1,R,CJM,2021_Oct_02_1956,WASABI Nback,2020.2.10,59.985771378417475,
0,1,7,"[-0.2, -0.2]",None,0,0,0,0,,,,,0,0,0,0,0,69,69,69,,,,,,,,,None,None,0,245.69211679999717,None,245.69211679999717,246.69213089998811,246.67546760011464,247.6754835001193,0,1,245.69211679999717,None,,,8,F,1,R,CJM,2021_Oct_02_1956,WASABI Nback,2020.2.10,59.985771378417475,
0,1,5,"[0, 0]",1,0,0,0,0,,,,,0,0,0,0,0,70,70,70,,,,,,,,,None,None,0,247.6921546999365,None,247.6921546999365,248.69215869996697,248.67548440000974,249.67548630014062,0,1,247.6921546999365,None,,,8,F,1,R,CJM,2021_Oct_02_1956,WASABI Nback,2020.2.10,59.985771378417475,
0,1,6,"[0.2, 0]",None,0,0,0,0,,,,,0,0,0,0,0,71,71,71,,,,,,,,,None,None,0,249.6921461999882,None,249.6921461999882,250.69214950012974,250.6755313000176,251.67551960004494,0,1,249.6921461999882,None,,,8,F,1,R,CJM,2021_Oct_02_1956,WASABI Nback,2020.2.10,59.985771378417475,
0,1,3,"[0.2, 0.2]",None,0,0,0,0,,,,,0,0,0,0,0,72,72,72,,,,,,,,,None,None,0,251.69216049998067,None,251.69216049998067,252.69217980001122,252.67551490012556,253.6755224999506,0,1,251.69216049998067,None,,,8,F,1,R,CJM,2021_Oct_02_1956,WASABI Nback,2020.2.10,59.985771378417475,
0,1,6,"[0.2, 0]",1,0,0,0,0,,,,,0,0,0,0,0,73,73,73,,,,,,,,,None,None,0,253.69219839992002,None,253.69219839992002,254.69221100001596,254.67553220014088,255.6755286999978,0,1,253.69219839992002,None,,,8,F,1,R,CJM,2021_Oct_02_1956,WASABI Nback,2020.2.10,59.985771378417475,
0,1,8,"[0, -0.2]",None,0,0,0,0,,,,,0,0,0,0,0,74,74,74,,,,,,,,,None,None,0,255.6922065000981,None,255.6922065000981,256.6922218000982,256.675550899934,257.67555040004663,0,1,255.6922065000981,None,,,8,F,1,R,CJM,2021_Oct_02_1956,WASABI Nback,2020.2.10,59.985771378417475,
0,1,9,"[0.2, -0.2]",None,0,0,0,0,,,,,0,0,0,0,0,75,75,75,,,,,,,,,None,None,0,257.6922124000266,None,257.6922124000266,258.6922184000723,258.67555500008166,259.67557390010916,0,1,257.6922124000266,None,,,8,F,1,R,CJM,2021_Oct_02_1956,WASABI Nback,2020.2.10,59.985771378417475,
0,1,9,"[0.2, -0.2]",None,0,0,0,0,,,,,0,0,0,0,0,76,76,76,,,,,,,,,None,None,0,259.6922490999568,None,259.6922490999568,260.69224949995987,260.67557520000264,261.67558809998445,0,1,259.6922490999568,None,,,8,F,1,R,CJM,2021_Oct_02_1956,WASABI Nback,2020.2.10,59.985771378417475,
0,1,1,"[-0.2, 0.2]",None,0,0,0,0,,,,,0,0,0,0,0,77,77,77,,,,,,,,,None,None,0,261.6922454999294,None,261.6922454999294,262.6922504999675,262.6755935999099,263.6755981000606,0,1,261.6922454999294,None,,,8,F,1,R,CJM,2021_Oct_02_1956,WASABI Nback,2020.2.10,59.985771378417475,
0,1,3,"[0.2, 0.2]",None,0,0,0,0,,,,,0,0,0,0,0,78,78,78,,,,,,,,,None,None,0,263.69219959992915,None,263.69219959992915,264.6922641999554,264.6755777001381,265.6756206001155,0,1,263.69219959992915,None,,,8,F,1,R,CJM,2021_Oct_02_1956,WASABI Nback,2020.2.10,59.985771378417475,
0,1,5,"[0, 0]",None,0,0,0,0,,,,,0,0,0,0,0,79,79,79,,,,,,,,,None,None,0,265.69228890002705,None,265.69228890002705,266.6922756000422,266.6756293999497,267.67562770005316,0,1,265.69228890002705,None,,,8,F,1,R,CJM,2021_Oct_02_1956,WASABI Nback,2020.2.10,59.985771378417475,
0,1,3,"[0.2, 0.2]",1,0,0,0,0,,,,,0,0,0,0,0,80,80,80,,,,,,,,,None,None,0,267.6922867000103,None,267.6922867000103,268.6923130999785,268.6756412999239,269.6756418000441,0,1,267.6922867000103,None,,,8,F,1,R,CJM,2021_Oct_02_1956,WASABI Nback,2020.2.10,59.985771378417475,
0,1,4,"[-0.2, 0]",None,0,0,0,0,,,,,0,0,0,0,0,81,81,81,,,,,,,,,None,None,0,269.69231970002875,None,269.69231970002875,270.6923269000836,270.6756666000001,271.67566650011577,0,1,269.69231970002875,None,,,8,F,1,R,CJM,2021_Oct_02_1956,WASABI Nback,2020.2.10,59.985771378417475,
0,1,7,"[-0.2, -0.2]",None,0,0,0,0,,,,,0,0,0,0,0,82,82,82,,,,,,,,,None,None,0,271.69232979998924,None,271.69232979998924,272.6923207999207,272.67567189992405,273.67567549995147,0,1,271.69232979998924,None,,,8,F,1,R,CJM,2021_Oct_02_1956,WASABI Nback,2020.2.10,59.985771378417475,
0,1,4,"[-0.2, 0]",1,0,0,0,0,,,,,0,0,0,0,0,83,83,83,,,,,,,,,None,None,0,273.69233090011403,None,273.69233090011403,274.69235830008984,274.67568750004284,275.6756993001327,0,1,273.69233090011403,None,,,8,F,1,R,CJM,2021_Oct_02_1956,WASABI Nback,2020.2.10,59.985771378417475,
0,1,4,"[-0.2, 0]",None,0,0,0,0,,,,,0,0,0,0,0,84,84,84,,,,,,,,,None,None,0,275.6923662000336,None,275.6923662000336,276.692371299956,276.6756953999866,277.6757120999973,0,1,275.6923662000336,None,,,8,F,1,R,CJM,2021_Oct_02_1956,WASABI Nback,2020.2.10,59.985771378417475,
0,1,5,"[0, 0]",None,0,0,0,0,,,,,0,0,0,0,0,85,85,85,,,,,,,,,None,None,0,277.69238590006717,None,277.69238590006717,278.6923704999499,278.6757211999502,279.6757227999624,0,1,277.69238590006717,None,,,8,F,1,R,CJM,2021_Oct_02_1956,WASABI Nback,2020.2.10,59.985771378417475,
0,1,2,"[0, 0.2]",None,0,0,0,0,,,,,0,0,0,0,0,86,86,86,,,,,,,,,None,None,0,279.692400299944,None,279.692400299944,280.69238750007935,280.67573429993354,281.6757428001147,0,1,279.692400299944,None,,,8,F,1,R,CJM,2021_Oct_02_1956,WASABI Nback,2020.2.10,59.985771378417475,
0,1,6,"[0.2, 0]",None,0,0,0,0,,,,,0,0,0,0,0,87,87,87,,,,,,,,,None,None,0,281.69241830008104,None,281.69241830008104,282.6924231001176,282.6757583001163,283.6757571999915,0,1,281.69241830008104,None,,,8,F,1,R,CJM,2021_Oct_02_1956,WASABI Nback,2020.2.10,59.985771378417475,
0,1,7,"[-0.2, -0.2]",None,0,0,0,0,,,,,0,0,0,0,0,88,88,88,,,,,,,,,None,None,0,283.6923211000394,None,283.6923211000394,284.6924394001253,284.67575759999454,285.6757728001103,0,1,283.6923211000394,None,,,8,F,1,R,CJM,2021_Oct_02_1956,WASABI Nback,2020.2.10,59.985771378417475,
0,1,6,"[0.2, 0]",1,0,0,0,0,,,,,0,0,0,0,0,89,89,89,,,,,,,,,None,None,0,285.6924396001268,None,285.6924396001268,286.6923468001187,286.67577830003574,287.67579150013626,0,1,285.6924396001268,None,,,8,F,1,R,CJM,2021_Oct_02_1956,WASABI Nback,2020.2.10,59.985771378417475,
0,1,6,"[0.2, 0]",None,0,0,0,0,,,,,0,0,0,0,0,90,90,90,,,,,,,,,None,None,0,287.69244060013443,None,287.69244060013443,288.69246280007064,288.6757893001195,289.67580320010893,0,1,287.69244060013443,None,,,8,F,1,R,CJM,2021_Oct_02_1956,WASABI Nback,2020.2.10,59.985771378417475,
0,1,7,"[-0.2, -0.2]",None,0,0,0,0,,,,,0,0,0,0,0,91,91,91,,,,,,,,,None,None,0,289.69247259991243,None,289.69247259991243,290.6924785000738,290.67579940008,291.67582709994167,0,0,289.69247259991243,None,,,8,F,1,R,CJM,2021_Oct_02_1956,WASABI Nback,2020.2.10,59.985771378417475,
0,1,6,"[0.2, 0]",1,0,0,0,0,,,,,0,0,0,0,0,92,92,92,,,,,,,,,None,None,0,291.69247539993376,None,291.69247539993376,292.6924811999779,292.6758252000436,293.67583490000106,0,0,291.69247539993376,None,,,8,F,1,R,CJM,2021_Oct_02_1956,WASABI Nback,2020.2.10,59.985771378417475,
0,1,2,"[0, 0.2]",None,0,0,0,0,,,,,0,0,0,0,0,93,93,93,,,,,,,,,None,None,0,293.69248860003427,None,293.69248860003427,294.6925121000968,294.67584059992805,295.6758457000833,0,1,293.69248860003427,None,,,8,F,1,R,CJM,2021_Oct_02_1956,WASABI Nback,2020.2.10,59.985771378417475,
0,1,5,"[0, 0]",None,0,0,0,0,,,,,0,0,0,0,0,94,94,94,,,,,,,,,None,None,0,295.69253060012124,None,295.69253060012124,296.69254399999045,296.6758874000516,297.6758731000591,0,1,295.69253060012124,None,,,8,F,1,R,CJM,2021_Oct_02_1956,WASABI Nback,2020.2.10,59.985771378417475,
0,1,4,"[-0.2, 0]",None,0,0,0,0,,,,,0,0,0,0,0,95,95,95,,,,,,,,,None,None,0,297.69251840002835,None,297.69251840002835,298.6925512999296,298.67585150012746,299.6758755999617,0,1,297.69251840002835,None,,,8,F,1,R,CJM,2021_Oct_02_1956,WASABI Nback,2020.2.10,59.985771378417475,
0,1,4,"[-0.2, 0]",None,0,0,0,0,,,,,0,0,0,0,0,96,96,96,,,,,,,,,None,None,0,299.6925270999782,None,299.6925270999782,300.69253810006194,300.6758805999998,301.6758890999481,0,1,299.6925270999782,None,,,8,F,1,R,CJM,2021_Oct_02_1956,WASABI Nback,2020.2.10,59.985771378417475,
0,1,7,"[-0.2, -0.2]",None,0,0,0,0,,,,,0,0,0,0,0,97,97,97,,,,,,,,,None,None,0,301.6925607000012,None,301.6925607000012,302.6925486000255,302.67590430006385,303.6759015000425,0,1,301.6925607000012,None,,,8,F,1,R,CJM,2021_Oct_02_1956,WASABI Nback,2020.2.10,59.985771378417475,
0,1,4,"[-0.2, 0]",1,0,0,0,0,,,,,0,0,0,0,0,98,98,98,,,,,,,,,None,None,0,303.6925775001291,None,303.6925775001291,304.6925713000819,304.67591780005023,305.67592040007,0,0,303.6925775001291,None,,,8,F,1,R,CJM,2021_Oct_02_1956,WASABI Nback,2020.2.10,59.985771378417475,
0,1,3,"[0.2, 0.2]",None,0,0,0,0,,,,,0,0,0,0,0,99,99,99,,,,,,,,,None,None,0,305.6926033999771,None,305.6926033999771,306.6926083001308,306.6759361999575,307.67594700003974,0,1,305.6926033999771,None,,,8,F,1,R,CJM,2021_Oct_02_1956,WASABI Nback,2020.2.10,59.985771378417475,
0,1,5,"[0, 0]",None,0,0,0,0,,,,,0,0,0,0,0,100,100,100,,,,,,,,,None,None,0,307.69261560007,None,307.69261560007,308.6926186000928,308.67594130011275,309.6759611000307,0,1,307.69261560007,None,,,8,F,1,R,CJM,2021_Oct_02_1956,WASABI Nback,2020.2.10,59.985771378417475,
0,1,3,"[0.2, 0.2]",1,0,0,0,0,,,,,0,0,0,0,0,101,101,101,,,,,,,,,None,None,0,309.69262890005484,None,309.69262890005484,310.69264769996516,310.67596059991047,311.67596670007333,0,1,309.69262890005484,None,,,8,F,1,R,CJM,2021_Oct_02_1956,WASABI Nback,2020.2.10,59.985771378417475,
0,1,1,"[-0.2, 0.2]",None,0,0,0,0,,,,,0,0,0,0,0,102,102,102,,,,,,,,,None,None,0,311.6926372000016,None,311.6926372000016,312.69264800008386,312.6759711999912,313.67597929993644,0,1,311.6926372000016,None,,,8,F,1,R,CJM,2021_Oct_02_1956,WASABI Nback,2020.2.10,59.985771378417475,
0,1,9,"[0.2, -0.2]",None,0,0,0,0,,,,,0,0,0,0,0,103,103,103,,,,,,,,,None,None,0,313.6926631000824,None,313.6926631000824,314.69272510008886,314.6759913000278,315.67598529998213,0,1,313.6926631000824,None,,,8,F,1,R,CJM,2021_Oct_02_1956,WASABI Nback,2020.2.10,59.985771378417475,
0,1,9,"[0.2, -0.2]",None,0,0,0,0,,,,,0,0,0,0,0,104,104,104,,,,,,,,,None,None,0,315.6926689001266,None,315.6926689001266,316.6926814999897,316.6759983000811,317.6760038000066,0,1,315.6926689001266,None,,,8,F,1,R,CJM,2021_Oct_02_1956,WASABI Nback,2020.2.10,59.985771378417475,
0,1,8,"[0, -0.2]",None,0,0,0,0,,,,,0,0,0,0,0,105,105,105,,,,,,,,,None,None,0,317.69268710003234,None,317.69268710003234,318.6926889999304,318.6760273000691,319.6760261999443,0,1,317.69268710003234,None,,,8,F,1,R,CJM,2021_Oct_02_1956,WASABI Nback,2020.2.10,59.985771378417475,
0,1,6,"[0.2, 0]",None,0,0,0,0,,,,,0,0,0,0,0,106,106,106,,,,,,,,,None,None,0,319.6927157000173,None,319.6927157000173,320.6927142001223,320.67603540001437,321.67604709998704,0,1,319.6927157000173,None,,,8,F,1,R,CJM,2021_Oct_02_1956,WASABI Nback,2020.2.10,59.985771378417475,
0,1,3,"[0.2, 0.2]",None,0,0,0,0,,,,,0,0,0,0,0,107,107,107,,,,,,,,,None,None,0,321.69272479997016,None,321.69272479997016,322.6927344999276,322.67605330003425,323.67604469996877,0,1,321.69272479997016,None,,,8,F,1,R,CJM,2021_Oct_02_1956,WASABI Nback,2020.2.10,59.985771378417475,
0,1,6,"[0.2, 0]",1,0,0,0,0,,,,,0,0,0,0,0,108,108,108,,,,,,,,,None,None,0,323.6927352999337,None,323.6927352999337,324.6927430999931,324.676074200077,325.6760750999674,0,1,323.6927352999337,None,,,8,F,1,R,CJM,2021_Oct_02_1956,WASABI Nback,2020.2.10,59.985771378417475,
0,1,5,"[0, 0]",None,0,0,0,0,,,,,0,0,0,0,0,109,109,109,,,,,,,,,None,None,0,325.6927342999261,None,325.6927342999261,326.692759900121,326.67607349995524,327.67608950007707,0,1,325.6927342999261,None,,,8,F,1,R,CJM,2021_Oct_02_1956,WASABI Nback,2020.2.10,59.985771378417475,
0,1,7,"[-0.2, -0.2]",None,0,0,0,0,,,,,0,0,0,0,0,110,110,110,,,,,,,,,None,None,0,327.69276929995976,None,327.69276929995976,328.6927543000784,328.6760980000254,329.6761024000589,0,1,327.69276929995976,None,,,8,F,1,R,CJM,2021_Oct_02_1956,WASABI Nback,2020.2.10,59.985771378417475,
0,1,5,"[0, 0]",1,0,0,0,0,,,,,0,0,0,0,0,111,111,111,,,,,,,,,None,None,0,329.69276909995824,None,329.69276909995824,330.6927920000162,330.67611330002546,331.6761177999433,0,1,329.69276909995824,None,,,8,F,1,R,CJM,2021_Oct_02_1956,WASABI Nback,2020.2.10,59.985771378417475,
0,1,1,"[-0.2, 0.2]",None,0,0,0,0,,,,,0,0,0,0,0,112,112,112,,,,,,,,,None,None,0,331.6927752001211,None,331.6927752001211,332.6927845000755,332.676128400024,333.67613480007276,0,1,331.6927752001211,None,,,8,F,1,R,CJM,2021_Oct_02_1956,WASABI Nback,2020.2.10,59.985771378417475,
0,1,7,"[-0.2, -0.2]",None,0,0,0,0,,,,,0,0,0,0,0,113,113,113,,,,,,,,,None,None,0,333.6928151000757,None,333.6928151000757,334.6928032001015,334.6761360000819,335.67619269993156,0,0,333.6928151000757,None,,,8,F,1,R,CJM,2021_Oct_02_1956,WASABI Nback,2020.2.10,59.985771378417475,
0,1,9,"[0.2, -0.2]",None,0,0,0,0,,,,,0,0,0,0,0,114,114,114,,,,,,,,,None,None,0,335.692822500132,None,335.692822500132,336.6928393000271,336.6762582999654,337.6761566000059,0,1,335.692822500132,None,,,8,F,1,R,CJM,2021_Oct_02_1956,WASABI Nback,2020.2.10,59.985771378417475,
0,1,3,"[0.2, 0.2]",None,0,0,0,0,,,,,0,0,0,0,0,115,115,115,,,,,,,,,None,None,0,337.6928477999754,None,337.6928477999754,338.69284359994344,338.676161600044,339.6761837999802,0,1,337.6928477999754,None,,,8,F,1,R,CJM,2021_Oct_02_1956,WASABI Nback,2020.2.10,59.985771378417475,
0,1,9,"[0.2, -0.2]",1,0,0,0,0,,,,,0,0,0,0,0,116,116,116,,,,,,,,,None,None,0,339.6928638999816,None,339.6928638999816,340.69284990010783,340.67619100003503,341.676184900105,0,1,339.6928638999816,None,,,8,F,1,R,CJM,2021_Oct_02_1956,WASABI Nback,2020.2.10,59.985771378417475,
0,1,6,"[0.2, 0]",None,0,0,0,0,,,,,0,0,0,0,0,117,117,117,,,,,,,,,None,None,0,341.692873199936,None,341.692873199936,342.6927591001149,342.67620310001075,343.6762155999895,0,1,341.692873199936,None,,,8,F,1,R,CJM,2021_Oct_02_1956,WASABI Nback,2020.2.10,59.985771378417475,
0,1,2,"[0, 0.2]",None,0,0,0,0,,,,,0,0,0,0,0,118,118,118,,,,,,,,,None,None,0,343.6928749999497,None,343.6928749999497,344.6928942000959,344.6762101999484,345.6762282999698,0,1,343.6928749999497,None,,,8,F,1,R,CJM,2021_Oct_02_1956,WASABI Nback,2020.2.10,59.985771378417475,
0,1,5,"[0, 0]",None,0,0,0,0,,,,,0,0,0,0,0,119,119,119,,,,,,,,,None,None,0,345.6927885999903,None,345.6927885999903,346.6929155001417,346.6762276000809,347.67624190007336,0,1,345.6927885999903,None,,,8,F,1,R,CJM,2021_Oct_02_1956,WASABI Nback,2020.2.10,59.985771378417475,
1,0,,,,0,1,1,1,0,0,0,0,,,,,,,,,,,,,,,,,,,,,,,,,,,,,,447.06034740014,None,8,F,1,R,CJM,2021_Oct_02_1956,WASABI Nback,2020.2.10,59.985771378417475,
