	SID	date	sex	session	handedness	scanner	onset	duration	repetition	rating	body_site	keys	temperature	conditionrt	mouseclick	biopac_channel	condition	rt	value
0	2574	2023_Feb_06_2055	m	1	r	MS MH	2.774963999632746	4.999272530898452								19	Instructions		
1	2574	2023_Feb_06_2055	m	1	r	MS MH	8.52143989969045	2.001810300629586								6	Cue		
2	2574	2023_Feb_06_2055	m	1	r	MS MH	10.537783899810165	8.002280559856445								7	Pre-Jitter		
3	2574	2023_Feb_06_2055	m	1	r	MS MH	18.590247499756515	15.014259839896113			Left Arm		48.0			13	Heat-Stimulation		
4	2574	2023_Feb_06_2055	m	1	r	MS MH	33.67853059992194	7.0045932601206005								8	Mid-Jitter		
5	2574	2023_Feb_06_2055	m	1	r	MS MH	40.70186170004308	5.008038320578635								20	PainBinary	1.7501091002486646	1.0
6	2574	2023_Feb_06_2055	m	1	r	MS MH	45.73589609982446	5.006818320136517								21	IntensityRating		41.111111111111114
7	2574	2023_Feb_06_2055	m	1	r	MS MH	50.765074299648404	4.998450220096856								22	ToleranceRating	3.6030143997631967	-1.0
8	2574	2023_Feb_06_2055	m	1	r	MS MH	55.769666499923915	7.006052059587091								9	Post-Q-Jitter		
9	2574	2023_Feb_06_2055	m	1	r	MS MH	63.46740029985085	2.0109720206819475								6	Cue		
10	2574	2023_Feb_06_2055	m	1	r	MS MH	65.4832591000013	7.9957516603171825								7	Pre-Jitter		
11	2574	2023_Feb_06_2055	m	1	r	MS MH	73.52381209982559	15.014862939715385			Left Arm		47.5			13	Heat-Stimulation		
12	2574	2023_Feb_06_2055	m	1	r	MS MH	88.61010669963434	7.009201260283589								8	Mid-Jitter		
13	2574	2023_Feb_06_2055	m	1	r	MS MH	95.63547630002722	5.008585620205849								20	PainBinary	1.4169812998734415	1.0
14	2574	2023_Feb_06_2055	m	1	r	MS MH	100.66761010000482	5.011175520252436								21	IntensityRating		36.97530864197531
15	2574	2023_Feb_06_2055	m	1	r	MS MH	105.69911029981449	4.998136919923127								22	ToleranceRating	2.467177700251341	-1.0
16	2574	2023_Feb_06_2055	m	1	r	MS MH	110.7036721999757	7.0058165602386								9	Post-Q-Jitter		
17	2574	2023_Feb_06_2055	m	1	r	MS MH	119.27067969972268	2.0057315407320857								6	Cue		
18	2574	2023_Feb_06_2055	m	1	r	MS MH	121.28422469971702	5.9948593601584435								7	Pre-Jitter		
19	2574	2023_Feb_06_2055	m	1	r	MS MH	127.35684299981222	15.016529660206288			Left Arm		47.0			13	Heat-Stimulation		
20	2574	2023_Feb_06_2055	m	1	r	MS MH	142.44187669968233	9.01338446047157								8	Mid-Jitter		
21	2574	2023_Feb_06_2055	m	1	r	MS MH	151.47011550003663	5.007093419786543								20	PainBinary	1.567322500050068	1.0
22	2574	2023_Feb_06_2055	m	1	r	MS MH	156.5012456998229	5.011720519978553								21	IntensityRating		36.358024691358025
23	2574	2023_Feb_06_2055	m	1	r	MS MH	161.53214349970222	4.999828020110726								22	ToleranceRating	1.6503971000202	-1.0
24	2574	2023_Feb_06_2055	m	1	r	MS MH	166.5376099999994	9.005682060495019								9	Post-Q-Jitter		
25	2574	2023_Feb_06_2055	m	1	r	MS MH	177.2459146999754	2.006444781087339								6	Cue		
26	2574	2023_Feb_06_2055	m	1	r	MS MH	179.25051179993898	7.996794359758496								7	Pre-Jitter		
27	2574	2023_Feb_06_2055	m	1	r	MS MH	187.2873431998305	15.006695179734379			Left Arm		46.5			13	Heat-Stimulation		
28	2574	2023_Feb_06_2055	m	1	r	MS MH	202.3782994998619	7.008338859770447								8	Mid-Jitter		
29	2574	2023_Feb_06_2055	m	1	r	MS MH	209.4035526998341	5.007970520295203								20	PainBinary	1.4167349003255367	1.0
30	2574	2023_Feb_06_2055	m	1	r	MS MH	214.4351141997613	5.011614920105785								21	IntensityRating	3.6335150999948382	34.444444444444436
31	2574	2023_Feb_06_2055	m	1	r	MS MH	219.46706469962373	4.997795519884676								22	ToleranceRating	3.1338033000938594	-1.0
32	2574	2023_Feb_06_2055	m	1	r	MS MH	224.47081469977275	7.007035359740257								9	Post-Q-Jitter		
33	2574	2023_Feb_06_2055	m	1	r	MS MH	233.05706529971212	2.0018519004806876								6	Cue		
34	2574	2023_Feb_06_2055	m	1	r	MS MH	235.06782939983532	7.996596259064972								7	Pre-Jitter		
35	2574	2023_Feb_06_2055	m	1	r	MS MH	243.1357894996181	14.994274300057441			Left Arm		46.0			13	Heat-Stimulation		
36	2574	2023_Feb_06_2055	m	1	r	MS MH	258.2101448997855	9.012483960017562								8	Mid-Jitter		
37	2574	2023_Feb_06_2055	m	1	r	MS MH	267.23769839992747	5.0074966205284								20	PainBinary	1.3667355002835393	1.0
38	2574	2023_Feb_06_2055	m	1	r	MS MH	272.2686723996885	5.01228162040934								21	IntensityRating	3.500099199824035	34.01234567901235
39	2574	2023_Feb_06_2055	m	1	r	MS MH	277.30068119987845	4.998375620227307								22	ToleranceRating	2.9503432996571064	1.0
40	2574	2023_Feb_06_2055	m	1	r	MS MH	282.304757299833	9.007025660015643								9	Post-Q-Jitter		
41	2574	2023_Feb_06_2055	m	1	r	MS MH	291.9811363997869	2.0046076606959105								6	Cue		
42	2574	2023_Feb_06_2055	m	1	r	MS MH	293.9859142997302	5.994888359680772								7	Pre-Jitter		
43	2574	2023_Feb_06_2055	m	1	r	MS MH	300.0346244997345	14.997744539752603			Left Arm		46.0			13	Heat-Stimulation		
44	2574	2023_Feb_06_2055	m	1	r	MS MH	315.1095930999145	7.014705260284245								8	Mid-Jitter		
45	2574	2023_Feb_06_2055	m	1	r	MS MH	322.13872519973665	5.006538220215589								20	PainBinary	1.9501336999237537	1.0
46	2574	2023_Feb_06_2055	m	1	r	MS MH	327.16985229961574	5.011047820094973								21	IntensityRating	2.633371400181204	32.59259259259259
47	2574	2023_Feb_06_2055	m	1	r	MS MH	332.20001729996875	5.000831620302051								22	ToleranceRating	1.0836942000314593	1.0
48	2574	2023_Feb_06_2055	m	1	r	MS MH	337.20560109987855	7.006422859616578								9	Post-Q-Jitter		
49	2574	2023_Feb_06_2055	m	1	r	MS MH	345.8325449996628	2.003200580831617								6	Cue		
50	2574	2023_Feb_06_2055	m	1	r	MS MH	347.8361741998233	7.9954803599976								7	Pre-Jitter		
51	2574	2023_Feb_06_2055	m	1	r	MS MH	355.89681569999084	15.007778300438076			Left Arm		46.0			13	Heat-Stimulation		
52	2574	2023_Feb_06_2055	m	1	r	MS MH	370.9807169996202	9.006872959900647								8	Mid-Jitter		
53	2574	2023_Feb_06_2055	m	1	r	MS MH	380.00503099989146	5.008414119947702								20	PainBinary	1.1528489999473095	1.0
54	2574	2023_Feb_06_2055	m	1	r	MS MH	385.03767209965736	5.009970020037144								21	IntensityRating	3.433577600400895	33.20987654320987
55	2574	2023_Feb_06_2055	m	1	r	MS MH	390.0676017999649	5.00019071996212								22	ToleranceRating	3.383679499849677	1.0
56	2574	2023_Feb_06_2055	m	1	r	MS MH	395.0730097000487	9.006106060463935								9	Post-Q-Jitter		
57	2574	2023_Feb_06_2055	m	1	r	MS MH	404.1122192000039	10.511314880102873								26	ComfortRating	10.483775000087917	4.1975308641975175
58	2574	2023_Feb_06_2055	m	1	r	MS MH	414.6433395999484	6.36585397971794								24	ValenceRating	6.333460499998182	84.07407407407406
59	2574	2023_Feb_06_2055	m	1	r	MS MH	421.01948909973726	5.063720120117068								26	IntensityRating	5.018993699923158	93.76543209876543
60	2574	2023_Feb_06_2055	m	1	r	MS MH	426.1050057997927	5.959525220096111								27	AvoidanceRating	5.933512500021607	90.49382716049382
61	2574	2023_Feb_06_2055	m	1	r	MS MH	432.0842299996875	4.651205420028418								28	RelaxationRating	4.633810099679977	87.22222222222223
62	2574	2023_Feb_06_2055	m	1	r	MS MH	436.75490659987554	4.993272020015866								29	AttentionRating	4.966778999660164	93.45679012345678
63	2574	2023_Feb_06_2055	m	1	r	MS MH	441.7682599998079	4.383271419908851								30	BoredomRating	4.367087499704212	9.19753086419753
64	2574	2023_Feb_06_2055	m	1	r	MS MH	446.1694016000256	3.731080919969827								31	AlertnessRating	3.717604000121355	0.49382716049382225
65	2574	2023_Feb_06_2055	m	1	r	MS MH	449.91959629999474	8.66423151968047								32	PosThxRating	8.636748800054193	-0.617283950617292
66	2574	2023_Feb_06_2055	m	1	r	MS MH	458.60280179977417	1.7312370198778808								33	NegThxRating	1.7179829003289342	0.0
67	2574	2023_Feb_06_2055	m	1	r	MS MH	460.35268909996375	3.5981573201715946								34	SelfRating	3.583760099951178	0.3703703703703809
68	2574	2023_Feb_06_2055	m	1	r	MS MH	463.9686308000237	4.083005120046437								35	OtherRating	4.067046400159597	0.0
69	2574	2023_Feb_06_2055	m	1	r	MS MH	468.0699336999096	3.047108920291066								32	ImageryRating	3.0168318999931216	0.0
70	2574	2023_Feb_06_2055	m	1	r	MS MH	471.1388152996078	5.6094432207755744								37	PresentRating	5.583468300290406	100.0
