	SID	date	sex	session	handedness	scanner	onset	duration	repetition	rating	body_site	keys	temperature	conditionrt	mouseclick	biopac_channel	condition	rt	value
0	2543	2023_Jan_22_1010	f	1	r	MS MH	2.774418200016953	5.004193797358312								19	Instructions		
1	2543	2023_Jan_22_1010	f	1	r	MS MH	9.248776799999177	2.012944259797223								6	Cue		
2	2543	2023_Jan_22_1010	f	1	r	MS MH	11.268755000084639	5.994409040082246								7	Pre-Jitter		
3	2543	2023_Jan_22_1010	f	1	r	MS MH	17.307638700003736	15.016745359869674			Chest		48.0			17	Heat-Stimulation		
4	2543	2023_Jan_22_1010	f	1	r	MS MH	32.39670460007619	9.005505539942533								8	Mid-Jitter		
5	2543	2023_Jan_22_1010	f	1	r	MS MH	41.41995680006221	5.009361580014229								20	PainBinary	1.4667781998869032	1.0
6	2543	2023_Jan_22_1010	f	1	r	MS MH	46.45218800008297	5.011678879964165								21	IntensityRating	2.7166211999719962	44.81481481481482
7	2543	2023_Jan_22_1010	f	1	r	MS MH	51.482659200089984	5.000833079917356								22	ToleranceRating	0.883618599968031	-1.0
8	2543	2023_Jan_22_1010	f	1	r	MS MH	56.48789970006328	9.007192539982498								9	Post-Q-Jitter		
9	2543	2023_Jan_22_1010	f	1	r	MS MH	66.1685848000925	1.993751139845699								6	Cue		
10	2543	2023_Jan_22_1010	f	1	r	MS MH	68.16833730007056	7.996511140023358								7	Pre-Jitter		
11	2543	2023_Jan_22_1010	f	1	r	MS MH	76.22401650005486	15.001885059988126			Chest		47.5			17	Heat-Stimulation		
12	2543	2023_Jan_22_1010	f	1	r	MS MH	91.31263340008445	5.008078439976089								8	Mid-Jitter		
13	2543	2023_Jan_22_1010	f	1	r	MS MH	96.33836140006315	5.006970180082135								20	PainBinary	1.3999948999844491	1.0
14	2543	2023_Jan_22_1010	f	1	r	MS MH	101.36974310001824	5.01097787998151								21	IntensityRating	4.749983999994583	38.76543209876544
15	2543	2023_Jan_22_1010	f	1	r	MS MH	106.40034600009676	4.999848279985599								22	ToleranceRating	3.4837074000388384	-1.0
16	2543	2023_Jan_22_1010	f	1	r	MS MH	111.40503540006466	5.007291340036318								9	Post-Q-Jitter		
17	2543	2023_Jan_22_1010	f	1	r	MS MH	117.85860630008392	2.0121991196647286								6	Cue		
18	2543	2023_Jan_22_1010	f	1	r	MS MH	119.86849740007892	5.9972448400221765								7	Pre-Jitter		
19	2543	2023_Jan_22_1010	f	1	r	MS MH	125.89591900003143	15.009153519989923			Chest		47.0			17	Heat-Stimulation		
20	2543	2023_Jan_22_1010	f	1	r	MS MH	140.9773395000957	5.013040540041402								8	Mid-Jitter		
21	2543	2023_Jan_22_1010	f	1	r	MS MH	146.00506480003241	5.007922780117951								20	PainBinary	1.4333273000083864	1.0
22	2543	2023_Jan_22_1010	f	1	r	MS MH	151.03703210002277	5.010776779963635								21	IntensityRating	2.900139599922113	32.839506172839506
23	2543	2023_Jan_22_1010	f	1	r	MS MH	156.06738880008925	5.000156279886141								22	ToleranceRating	0.8004814999876544	1.0
24	2543	2023_Jan_22_1010	f	1	r	MS MH	161.0730198000092	5.005722439964302								9	Post-Q-Jitter		
25	2543	2023_Jan_22_1010	f	1	r	MS MH	166.73607970005833	2.0108775998232886								6	Cue		
26	2543	2023_Jan_22_1010	f	1	r	MS MH	168.7520533000352	3.9978114400291815								7	Pre-Jitter		
27	2543	2023_Jan_22_1010	f	1	r	MS MH	172.81033920007758	15.014541199896485			Chest		47.0			17	Heat-Stimulation		
28	2543	2023_Jan_22_1010	f	1	r	MS MH	187.89341190003324	5.015130540123209								8	Mid-Jitter		
29	2543	2023_Jan_22_1010	f	1	r	MS MH	192.92218710004818	5.007947679958306								20	PainBinary	1.2832657999824733	1.0
30	2543	2023_Jan_22_1010	f	1	r	MS MH	197.9535286000464	5.01204957999289								21	IntensityRating	4.316699199960567	29.074074074074076
31	2543	2023_Jan_22_1010	f	1	r	MS MH	202.9838374000974	5.0015326800057665								22	ToleranceRating	1.3669496999355033	1.0
32	2543	2023_Jan_22_1010	f	1	r	MS MH	207.98979930009227	5.006445139995776								9	Post-Q-Jitter		
33	2543	2023_Jan_22_1010	f	1	r	MS MH	213.6542397000594	2.0088291998254135								6	Cue		
34	2543	2023_Jan_22_1010	f	1	r	MS MH	215.66944590001367	7.997295739944093								7	Pre-Jitter		
35	2543	2023_Jan_22_1010	f	1	r	MS MH	223.718734000111	14.998820060049184			Chest		47.0			17	Heat-Stimulation		
36	2543	2023_Jan_22_1010	f	1	r	MS MH	238.7955972000491	9.01180184003897								8	Mid-Jitter		
37	2543	2023_Jan_22_1010	f	1	r	MS MH	247.82188240007963	5.009564679930918								20	PainBinary	2.366695999982767	1.0
38	2543	2023_Jan_22_1010	f	1	r	MS MH	252.853652000078	5.012893280014396								21	IntensityRating	4.333330899942666	28.209876543209877
39	2543	2023_Jan_22_1010	f	1	r	MS MH	257.89034390007146	5.006307479925454								22	ToleranceRating	1.151564099942334	1.0
40	2543	2023_Jan_22_1010	f	1	r	MS MH	262.90715540002566	9.00620284001343								9	Post-Q-Jitter		
41	2543	2023_Jan_22_1010	f	1	r	MS MH	273.3339164000936	1.9981741396477446								6	Cue		
42	2543	2023_Jan_22_1010	f	1	r	MS MH	275.33727190003265	7.9961955399485305								7	Pre-Jitter		
43	2543	2023_Jan_22_1010	f	1	r	MS MH	283.39582630002405	15.012436700053513			Chest		47.0			17	Heat-Stimulation		
44	2543	2023_Jan_22_1010	f	1	r	MS MH	298.4821699000895	9.006672340095975								8	Mid-Jitter		
45	2543	2023_Jan_22_1010	f	1	r	MS MH	307.5060760000488	5.0091479800175875								20	PainBinary	1.6666158000007272	1.0
46	2543	2023_Jan_22_1010	f	1	r	MS MH	312.53878400009125	5.010445179999806								21	IntensityRating	2.852637500036508	32.96296296296297
47	2543	2023_Jan_22_1010	f	1	r	MS MH	317.5685544000007	5.001095580053516								22	ToleranceRating	1.450268300017342	1.0
48	2543	2023_Jan_22_1010	f	1	r	MS MH	322.5744452000363	9.006147240055725								9	Post-Q-Jitter		
49	2543	2023_Jan_22_1010	f	1	r	MS MH	332.22967180004343	2.010375799960457								6	Cue		
50	2543	2023_Jan_22_1010	f	1	r	MS MH	334.2374508000212	3.997016239911318								7	Pre-Jitter		
51	2543	2023_Jan_22_1010	f	1	r	MS MH	338.27014380006585	14.998344319988973			Chest		47.0			17	Heat-Stimulation		
52	2543	2023_Jan_22_1010	f	1	r	MS MH	353.3464384000981	5.012378840008751								8	Mid-Jitter		
53	2543	2023_Jan_22_1010	f	1	r	MS MH	358.373027499998	5.009554980089888								20	PainBinary	1.4332801999989897	1.0
54	2543	2023_Jan_22_1010	f	1	r	MS MH	363.404426000081	4.996891879942268								21	IntensityRating	4.053788700024597	33.641975308641975
55	2543	2023_Jan_22_1010	f	1	r	MS MH	368.4191902000457	5.000804880051874								22	ToleranceRating	1.485809300094843	1.0
56	2543	2023_Jan_22_1010	f	1	r	MS MH	373.42500210006256	5.006063439999707								9	Post-Q-Jitter		
57	2543	2023_Jan_22_1010	f	1	r	MS MH	378.46344570000656	5.69595542002935								26	ComfortRating	5.667027999996208	15.06172839506172
58	2543	2023_Jan_22_1010	f	1	r	MS MH	384.17671490006614	4.152877079905011								24	ValenceRating	4.133331599994563	65.06172839506172
59	2543	2023_Jan_22_1010	f	1	r	MS MH	388.35321260010824	3.566609480069019								26	IntensityRating	3.5503453999990597	78.33333333333333
60	2543	2023_Jan_22_1010	f	1	r	MS MH	391.9388835000573	6.028699179994874								27	AvoidanceRating	6.000011500087567	48.02469135802468
61	2543	2023_Jan_22_1010	f	1	r	MS MH	397.9852446001023	4.119405779871158								28	RelaxationRating	4.100326400017366	85.80246913580248
62	2543	2023_Jan_22_1010	f	1	r	MS MH	402.12169749999885	4.363269780064002								29	AttentionRating	4.336256299982779	45.370370370370374
63	2543	2023_Jan_22_1010	f	1	r	MS MH	406.5018579000607	2.7863418799825013								30	BoredomRating	2.7670501999091357	67.09876543209877
64	2543	2023_Jan_22_1010	f	1	r	MS MH	409.3033900000155	3.2500057799043134								31	AlertnessRating	3.2336704999906942	-63.82716049382716
65	2543	2023_Jan_22_1010	f	1	r	MS MH	412.57071780005936	7.082131079980172								32	PosThxRating	7.067030999925919	14.320987654320987
66	2543	2023_Jan_22_1010	f	1	r	MS MH	419.67066689999774	4.699035780038685								33	NegThxRating	4.68369829992298	-10.864197530864189
67	2543	2023_Jan_22_1010	f	1	r	MS MH	424.38678310008254	2.7168797799386084								34	SelfRating	2.7003425000002608	63.08641975308643
68	2543	2023_Jan_22_1010	f	1	r	MS MH	427.12022490007803	2.9500300800427794								35	OtherRating	2.933697700034827	-73.33333333333334
69	2543	2023_Jan_22_1010	f	1	r	MS MH	430.08777820004616	5.848334879963659								32	ImageryRating	5.833691200008616	44.44444444444443
70	2543	2023_Jan_22_1010	f	1	r	MS MH	435.95562650007196	4.512769380002283								37	PresentRating	4.48337479995098	-86.41975308641975
