	SID	day	sex	session	handedness	scanner	onset	duration	value	body_site	skin_site	temperature	condition	keys	rt	phase	biopac_channel
0	2599	3	m	3	r	MS JD			29.259259259259238	Chest	2	48.5	Threat		3.6836857000598684	Placebo	
1	2599	3	m	3	r	MS JD			29.938271604938272	Chest	2	48.5	Stress		2.283747600042261	Placebo	
2	2599	3	m	3	r	MS JD			34.444444444444436	Chest	2	48.5	PainAnxiety		1.9358408000553027	Placebo	
3	2599	3	m	3	r	MS JD			25.925925925925924	Chest	2	48.5	OtherAnxiety		1.7169888999778777	Placebo	
4	2599	3	m	3	r	MS JD			58.82716049382716	Chest	2	48.5	PainConfidence		2.0524231999879703	Placebo	
5	2599	3	m	3	r	MS JD	2.774932299973443	5.010581539827399		Chest	2	48.5	Instructions			Placebo	19
6	2599	3	m	3	r	MS JD	8.424173199920915	5.016391399665736	19.259259259259256	Chest	2	48.5	Expectancy		3.933558299904689	Placebo	51
7	2599	3	m	3	r	MS JD	13.817369799944572	1.9968141998397186		Chest	2	48.5	Cue			Placebo	6
8	2599	3	m	3	r	MS JD	15.819818199961446	8.008756750030443		Chest	2	48.5	Pre-Jitter			Placebo	7
9	2599	3	m	3	r	MS JD	23.86261419998482	15.006723149796017		Chest	2	48.5	Placebo Heat 			Placebo	17
10	2599	3	m	3	r	MS JD	38.86732659989502	6.997495449963026		Chest	2	48.5	Mid-Jitter			Placebo	8
11	2599	3	m	3	r	MS JD	45.88620359997731	5.0098652999149635	1.0	Chest	2	48.5	PainBinary		1.6666379000525922	Placebo	20
12	2599	3	m	3	r	MS JD	50.91774499998428	5.0135391999501735	15.308641975308642	Chest	2	48.5	IntensityRating		1.9668547000037506	Placebo	21
13	2599	3	m	3	r	MS JD	55.93747030000668	7.00752555008512		Chest	2	48.5	Post-Q-Jitter			Placebo	9
14	2599	3	m	3	r	MS JD	63.132077199989	5.001738699851558	16.296296296296298	Chest	2	48.5	Expectancy		2.6669816999929026	Placebo	51
15	2599	3	m	3	r	MS JD	68.5032976999646	2.009348949883133		Chest	2	48.5	Cue			Placebo	6
16	2599	3	m	3	r	MS JD	70.52099230000749	8.00747994997073		Chest	2	48.5	Pre-Jitter			Placebo	7
17	2599	3	m	3	r	MS JD	78.5738207999384	15.002046650042757		Chest	2	48.5	Placebo Heat 			Placebo	17
18	2599	3	m	3	r	MS JD	93.58528349990956	6.995951549848542		Chest	2	48.5	Mid-Jitter			Placebo	8
19	2599	3	m	3	r	MS JD	100.6032837999519	5.010082799941301	1.0	Chest	2	48.5	PainBinary		1.1333077000454068	Placebo	20
20	2599	3	m	3	r	MS JD	105.63551789999474	5.0123775999527425	19.320987654320987	Chest	2	48.5	IntensityRating		2.9334560999413952	Placebo	21
21	2599	3	m	3	r	MS JD	110.65441339998506	7.0080412501702085		Chest	2	48.5	Post-Q-Jitter			Placebo	9
22	2599	3	m	3	r	MS JD	118.29455039999448	5.01116084959358	19.38271604938272	Chest	2	48.5	Expectancy		3.000273899990134	Placebo	51
23	2599	3	m	3	r	MS JD	123.67553010000847	2.015943599748425		Chest	2	48.5	Cue			Placebo	6
24	2599	3	m	3	r	MS JD	125.68768129998352	6.0084455501055345		Chest	2	48.5	Pre-Jitter			Placebo	7
25	2599	3	m	3	r	MS JD	131.74075729993638	15.00250944995787		Chest	2	48.5	Placebo Heat 			Placebo	17
26	2599	3	m	3	r	MS JD	146.7522904999787	8.996330550056882		Chest	2	48.5	Mid-Jitter			Placebo	8
27	2599	3	m	3	r	MS JD	155.77096209989395	5.009126199991442	1.0	Chest	2	48.5	PainBinary		0.9666996999876574	Placebo	20
28	2599	3	m	3	r	MS JD	160.80273170000874	5.012346500065178	24.012345679012345	Chest	2	48.5	IntensityRating		3.2666565999388695	Placebo	21
29	2599	3	m	3	r	MS JD	165.82165429997258	9.007970349979587		Chest	2	48.5	Post-Q-Jitter			Placebo	9
30	2599	3	m	3	r	MS JD	175.40511009993497	5.007766849827021	23.641975308641975	Chest	2	48.5	Expectancy		2.8665990999434143	Placebo	51
31	2599	3	m	3	r	MS JD	180.80290269991383	2.012288299854845		Chest	2	48.5	Cue			Placebo	6
32	2599	3	m	3	r	MS JD	182.8220453999238	4.007463950081728		Chest	2	48.5	Pre-Jitter			Placebo	7
33	2599	3	m	3	r	MS JD	186.8910947999684	15.002872899989597		Chest	2	48.5	Placebo Heat 			Placebo	17
34	2599	3	m	3	r	MS JD	201.9029139999766	4.9961122499080375		Chest	2	48.5	Mid-Jitter			Placebo	8
35	2599	3	m	3	r	MS JD	206.9208762999624	5.010304900002666	1.0	Chest	2	48.5	PainBinary		1.0666420999914408	Placebo	20
36	2599	3	m	3	r	MS JD	211.9529676999664	4.996208700002171	24.629629629629633	Chest	2	48.5	IntensityRating		2.684461300028488	Placebo	21
37	2599	3	m	3	r	MS JD	216.95560349989682	5.007689349818975		Chest	2	48.5	Post-Q-Jitter			Placebo	9
38	2599	3	m	3	r	MS JD	222.55969429994002	5.016162849846296	23.51851851851852	Chest	2	48.5	Expectancy		3.4003012999892235	Placebo	51
39	2599	3	m	3	r	MS JD	227.94012869999278	2.005417849868536		Chest	2	48.5	Cue			Placebo	6
40	2599	3	m	3	r	MS JD	229.95549689990003	4.008124949876219		Chest	2	48.5	Pre-Jitter			Placebo	7
41	2599	3	m	3	r	MS JD	233.999718499952	15.00319695007056		Chest	2	48.5	Placebo Heat 			Placebo	17
42	2599	3	m	3	r	MS JD	249.00313979992643	4.996544849942438		Chest	2	48.5	Mid-Jitter			Placebo	8
43	2599	3	m	3	r	MS JD	254.02113149990328	5.010674800025299	1.0	Chest	2	48.5	PainBinary		1.2351228999905288	Placebo	20
44	2599	3	m	3	r	MS JD	259.05279549991246	4.997428099974059	22.71604938271605	Chest	2	48.5	IntensityRating		2.3675656999694183	Placebo	21
45	2599	3	m	3	r	MS JD	264.05590029992163	5.007981850067154		Chest	2	48.5	Post-Q-Jitter			Placebo	9
46	2599	3	m	3	r	MS JD	269.25125909992494	5.000652299961075	25.308641975308642	Chest	2	48.5	Expectancy		1.766944699920714	Placebo	51
47	2599	3	m	3	r	MS JD	274.62445439992007	2.004287849762477		Chest	2	48.5	Cue			Placebo	6
48	2599	3	m	3	r	MS JD	276.63942329993006	6.007868649903685		Chest	2	48.5	Pre-Jitter			Placebo	7
49	2599	3	m	3	r	MS JD	282.6886161000002	15.009680550079793		Chest	2	48.5	Placebo Heat 			Placebo	17
50	2599	3	m	3	r	MS JD	297.7028860999271	8.998053550021723		Chest	2	48.5	Mid-Jitter			Placebo	8
51	2599	3	m	3	r	MS JD	306.722794399946	5.0083590999711305	1.0	Chest	2	48.5	PainBinary		1.0334424000466242	Placebo	20
52	2599	3	m	3	r	MS JD	311.75382929993793	5.013026200002059	26.04938271604938	Chest	2	48.5	IntensityRating		3.616819499991834	Placebo	21
53	2599	3	m	3	r	MS JD	316.77263299992774	9.00887885002885		Chest	2	48.5	Post-Q-Jitter			Placebo	9
54	2599	3	m	3	r	MS JD	325.81217069993727	4.196713750017807	-14.320987654320987	Chest	2	48.5	ComfortRating		4.152301199967042	Placebo	26
55	2599	3	m	3	r	MS JD	330.0252911999123	1.9872200000099838	45.30864197530864	Chest	2	48.5	ValenceRating		1.9666688001016155	Placebo	24
56	2599	3	m	3	r	MS JD	332.03588340000715	2.932756199850701	43.7037037037037	Chest	2	48.5	IntensityRating		2.9170026999199763	Placebo	26
57	2599	3	m	3	r	MS JD	334.9873792999424	1.946483499952592	52.83950617283952	Chest	2	48.5	AvoidanceRating		1.916687099961564	Placebo	27
58	2599	3	m	3	r	MS JD	336.94981319992803	1.8383319000713527	38.02469135802469	Chest	2	48.5	RelaxationRating		1.8169836000306532	Placebo	28
59	2599	3	m	3	r	MS JD	338.80522569990717	3.160905000055209	21.790123456790123	Chest	2	48.5	AttentionRating		3.133326799958013	Placebo	29
60	2599	3	m	3	r	MS JD	341.9840807999717	1.4698598000686616	26.419753086419757	Chest	2	48.5	BoredomRating		1.4503052999498323	Placebo	30
61	2599	3	m	3	r	MS JD	343.4689486999996	1.7668186998926103	-20.24691358024691	Chest	2	48.5	AlertnessRating		1.7503001999575645	Placebo	31
62	2599	3	m	3	r	MS JD	345.2533724999521	2.0813435000600293	-53.7037037037037	Chest	2	48.5	PosThxRating		2.0675386999500915	Placebo	32
63	2599	3	m	3	r	MS JD	347.35364769992884	1.7475001000566408	62.96296296296299	Chest	2	48.5	NegThxRating		1.7341330000199378	Placebo	33
64	2599	3	m	3	r	MS JD	349.1182267999975	2.0683720998931676	51.97530864197532	Chest	2	48.5	SelfRating		2.0503048999235034	Placebo	34
65	2599	3	m	3	r	MS JD	351.20290679996833	1.0657782000489533	29.259259259259238	Chest	2	48.5	OtherRating		1.0503780000144616	Placebo	35
66	2599	3	m	3	r	MS JD	352.2863587999018	1.3487932999851182	25.925925925925924	Chest	2	48.5	ImageryRating		1.333641100092791	Placebo	32
67	2599	3	m	3	r	MS JD	353.6546924998984	2.078767400002107	-50.0	Chest	2	48.5	PresentRating		2.050033599953167	Placebo	37
