	SID	day	sex	session	handedness	scanner	onset	duration	value	body_site	skin_site	temperature	condition	keys	rt	phase	biopac_channel
0	2599	3	m	3	r	MS JD			18.888888888888886	Chest	3	48.5	Threat		4.500346599961631	Control	
1	2599	3	m	3	r	MS JD			25.864197530864196	Chest	3	48.5	Stress		3.386778000043705	Control	
2	2599	3	m	3	r	MS JD			41.54320987654321	Chest	3	48.5	PainAnxiety		3.467026900034398	Control	
3	2599	3	m	3	r	MS JD			24.629629629629633	Chest	3	48.5	OtherAnxiety		3.6503562999423593	Control	
4	2599	3	m	3	r	MS JD			34.75308641975308	Chest	3	48.5	PainConfidence		2.417000300018117	Control	
5	2599	3	m	3	r	MS JD	2.774931199965067	5.013022794853896		Chest	3	48.5	Instructions			Control	19
6	2599	3	m	3	r	MS JD	8.054001900018193	5.007177249994129	18.641975308641975	Chest	3	48.5	Expectancy		3.2001543999649584	Control	51
7	2599	3	m	3	r	MS JD	13.45388649997767	2.007444799761288		Chest	3	48.5	Cue			Control	6
8	2599	3	m	3	r	MS JD	15.474354599951766	4.016596699948423		Chest	3	48.5	Pre-Jitter			Control	7
9	2599	3	m	3	r	MS JD	19.54601339995861	15.006771249813028		Chest	3	48.5	Control Heat 			Control	17
10	2599	3	m	3	r	MS JD	34.55226689996198	8.99450904992409		Chest	3	48.5	Mid-Jitter			Control	8
11	2599	3	m	3	r	MS JD	43.57132570003159	5.0065640999237075	1.0	Chest	3	48.5	PainBinary		1.850080500007607	Control	20
12	2599	3	m	3	r	MS JD	48.60118540003896	4.996945199905895	17.098765432098766	Chest	3	48.5	IntensityRating		3.054255999973975	Control	21
13	2599	3	m	3	r	MS JD	53.60422700003255	9.007636550115421		Chest	3	48.5	Post-Q-Jitter			Control	9
14	2599	3	m	3	r	MS JD	62.77524380001705	5.015748249948956	18.827160493827158	Chest	3	48.5	Expectancy		2.602492699981667	Control	51
15	2599	3	m	3	r	MS JD	68.17524340003729	2.0157570498995483		Chest	3	48.5	Cue			Control	6
16	2599	3	m	3	r	MS JD	70.18749989999924	6.008035850012675		Chest	3	48.5	Pre-Jitter			Control	7
17	2599	3	m	3	r	MS JD	76.26345890003722	15.00635064987		Chest	3	48.5	Control Heat 			Control	17
18	2599	3	m	3	r	MS JD	91.26810950005893	4.997166949906386		Chest	3	48.5	Mid-Jitter			Control	8
19	2599	3	m	3	r	MS JD	96.2883584999945	5.006740999990143	1.0	Chest	3	48.5	PainBinary		1.3502167999977246	Control	20
20	2599	3	m	3	r	MS JD	101.31897560006473	5.012323100003414	17.222222222222225	Chest	3	48.5	IntensityRating		4.783354700077325	Control	21
21	2599	3	m	3	r	MS JD	106.33775980002247	5.008188250125386		Chest	3	48.5	Post-Q-Jitter			Control	9
22	2599	3	m	3	r	MS JD	111.99325870000757	5.01394599978812	18.950617283950617	Chest	3	48.5	Expectancy			Control	51
23	2599	3	m	3	r	MS JD	117.39690940000582	2.006652249954641		Chest	3	48.5	Cue			Control	6
24	2599	3	m	3	r	MS JD	119.40494749997742	8.007430749945343		Chest	3	48.5	Pre-Jitter			Control	7
25	2599	3	m	3	r	MS JD	127.47078430000693	15.009294899995439		Chest	3	48.5	Control Heat 			Control	17
26	2599	3	m	3	r	MS JD	142.48593169997912	4.995845250086859		Chest	3	48.5	Mid-Jitter			Control	8
27	2599	3	m	3	r	MS JD	147.5041561999824	5.009495300007984	1.0	Chest	3	48.5	PainBinary		1.2000104999169707	Control	20
28	2599	3	m	3	r	MS JD	152.53638720000163	5.011907900101505	18.703703703703702	Chest	3	48.5	IntensityRating			Control	21
29	2599	3	m	3	r	MS JD	157.55545840004925	5.007061450043693		Chest	3	48.5	Post-Q-Jitter			Control	9
30	2599	3	m	3	r	MS JD	163.13508779997937	4.9978139497106895	18.641975308641975	Chest	3	48.5	Expectancy		2.6505088000558317	Control	51
31	2599	3	m	3	r	MS JD	168.50183900003321	1.9977973499335349		Chest	3	48.5	Cue			Control	6
32	2599	3	m	3	r	MS JD	170.5057181000011	6.006808049976826		Chest	3	48.5	Pre-Jitter			Control	7
33	2599	3	m	3	r	MS JD	176.54658149997704	15.008610649849288		Chest	3	48.5	Control Heat 			Control	17
34	2599	3	m	3	r	MS JD	191.55302170000505	8.995983949978836		Chest	3	48.5	Mid-Jitter			Control	8
35	2599	3	m	3	r	MS JD	200.57184620003682	5.008472099900246	1.0	Chest	3	48.5	PainBinary		1.483310699928552	Control	20
36	2599	3	m	3	r	MS JD	205.60440790001303	5.010096700047143	15.0	Chest	3	48.5	IntensityRating		3.118338899919763	Control	21
37	2599	3	m	3	r	MS JD	210.62265080004	9.00704604992643		Chest	3	48.5	Post-Q-Jitter			Control	9
38	2599	3	m	3	r	MS JD	220.17918750003446	5.010675099794753	14.567901234567904	Chest	3	48.5	Expectancy		3.983712700079195	Control	51
39	2599	3	m	3	r	MS JD	225.5585041999584	2.0021668497938663		Chest	3	48.5	Cue			Control	6
40	2599	3	m	3	r	MS JD	227.5730532000307	8.00654985010624		Chest	3	48.5	Pre-Jitter			Control	7
41	2599	3	m	3	r	MS JD	235.61223820003215	15.011746649863198		Chest	3	48.5	Control Heat 			Control	17
42	2599	3	m	3	r	MS JD	250.62112450005952	6.994189550052397		Chest	3	48.5	Mid-Jitter			Control	8
43	2599	3	m	3	r	MS JD	257.63936230004765	5.007842399994843	1.0	Chest	3	48.5	PainBinary		1.0999870999949053	Control	20
44	2599	3	m	3	r	MS JD	262.67098279995844	5.011258400045335	17.222222222222225	Chest	3	48.5	IntensityRating		3.2666840000310913	Control	21
45	2599	3	m	3	r	MS JD	267.68948459997773	7.007707949960604		Chest	3	48.5	Post-Q-Jitter			Control	9
46	2599	3	m	3	r	MS JD	274.8773247000063	5.015534099889919	17.962962962962962	Chest	3	48.5	Expectancy		3.1531940000131726	Control	51
47	2599	3	m	3	r	MS JD	280.26580389996525	2.005275899777189		Chest	3	48.5	Cue			Control	6
48	2599	3	m	3	r	MS JD	282.27363369998056	6.006392550072633		Chest	3	48.5	Pre-Jitter			Control	7
49	2599	3	m	3	r	MS JD	288.3199240999529	14.997364250011742		Chest	3	48.5	Control Heat 			Control	17
50	2599	3	m	3	r	MS JD	303.3213362999959	6.994760350091383		Chest	3	48.5	Mid-Jitter			Control	8
51	2599	3	m	3	r	MS JD	310.3399814000586	5.007605600054376	1.0	Chest	3	48.5	PainBinary		1.2499539999989793	Control	20
52	2599	3	m	3	r	MS JD	315.37146769999526	5.011514900019392	20.12345679012346	Chest	3	48.5	IntensityRating			Control	21
53	2599	3	m	3	r	MS JD	320.390629200032	7.006531349965371		Chest	3	48.5	Post-Q-Jitter			Control	9
54	2599	3	m	3	r	MS JD	327.4287849999964	2.7970719499280676	11.604938271604937	Chest	3	48.5	ComfortRating		2.7669884000206366	Control	26
55	2599	3	m	3	r	MS JD	330.2440110000316	2.399989750003442	25.246913580246915	Chest	3	48.5	ValenceRating		2.366997400065884	Control	24
56	2599	3	m	3	r	MS JD	332.653981499956	2.296756300027482	17.34567901234568	Chest	3	48.5	IntensityRating		2.2666596999624744	Control	26
57	2599	3	m	3	r	MS JD	334.9727340999525	1.959264700068161	22.962962962962962	Chest	3	48.5	AvoidanceRating		1.9332875000545755	Control	27
58	2599	3	m	3	r	MS JD	336.95099120005034	2.1528353998437524	54.93827160493827	Chest	3	48.5	RelaxationRating		2.1337188000325114	Control	28
59	2599	3	m	3	r	MS JD	339.1224943000125	3.243201999925077	70.06172839506173	Chest	3	48.5	AttentionRating		3.2167028000112623	Control	29
60	2599	3	m	3	r	MS JD	342.38480220001657	2.2686318999622017	28.271604938271604	Chest	3	48.5	BoredomRating		2.2358825999544933	Control	30
61	2599	3	m	3	r	MS JD	344.6697390000336	3.6988183999201283	16.790123456790113	Chest	3	48.5	AlertnessRating		3.6837043000850827	Control	31
62	2599	3	m	3	r	MS JD	348.3869401999982	3.914496700046584	-7.53086419753086	Chest	3	48.5	PosThxRating		3.901100300019607	Control	32
63	2599	3	m	3	r	MS JD	352.3207479000557	1.0802528999047354	0.0	Chest	3	48.5	NegThxRating		1.0670829999726266	Control	33
64	2599	3	m	3	r	MS JD	353.42041520006023	4.8143181999912485	19.012345679012356	Chest	3	48.5	SelfRating		4.786593300057575	Control	34
65	2599	3	m	3	r	MS JD	358.2525823999895	2.233358999947086	-25.061728395061735	Chest	3	48.5	OtherRating		2.2169881999725476	Control	35
66	2599	3	m	3	r	MS JD	360.50401889998466	3.6972431999165565	23.209876543209873	Chest	3	48.5	ImageryRating		3.652196600101888	Control	32
67	2599	3	m	3	r	MS JD	364.222940800013	2.4261194000719115	75.30864197530863	Chest	3	48.5	PresentRating		2.3999704000307247	Control	37
