RestT1,TaskT1,square,location,corrAns,counterbalancer.thisRepN,counterbalancer.thisTrialN,counterbalancer.thisN,counterbalancer.thisIndex,RestT1Loop.thisRepN,RestT1Loop.thisTrialN,RestT1Loop.thisN,RestT1Loop.thisIndex,TaskT1Loop.thisRepN,TaskT1Loop.thisTrialN,TaskT1Loop.thisN,TaskT1Loop.thisIndex,trials_2.thisRepN,trials_2.thisTrialN,trials_2.thisN,trials_2.thisIndex,fixation_1.started,fixation_1.stopped,NbackInstructions.started,NbackInstructions.stopped,NbackStart.keys,NbackStart.rt,NbackStart.started,NbackStart.stopped,fixation_2.started,fixation_2.stopped,response_2.x,response_2.y,response_2.leftButton,grid_lines_2.started,grid_lines_2.stopped,target_square_2.started,target_square_2.stopped,fixation_3.started,fixation_3.stopped,response_2.click,response_2.corr,response_2.started,response_2.stopped,subject number,gender,session,handedness,scanner,date,expName,psychopyVersion,frameRate,
1,0,,,,0,0,0,0,0,0,0,0,,,,,,,,,46.080730099987704,None,,,,,,,,,,,,,,,,,,,,,,5,m,22,r,MH,2022_Feb_25_1418,WASABI Nback,2020.2.10,59.984835829765245,
0,1,,,,0,1,1,1,,,,,0,0,0,0,,,,,,,331.86636980000185,None,space,25.701313300000038,331.86636980000185,None,,,,,,,,,,,,,,,,5,m,22,r,MH,2022_Feb_25_1418,WASABI Nback,2020.2.10,59.984835829765245,
0,1,5,"[0, 0]",None,0,1,1,1,,,,,0,0,0,0,0,0,0,0,,,,,,,,,None,None,None,None,[],None,None,None,None,None,None,[],[],None,None,5,m,22,r,MH,2022_Feb_25_1418,WASABI Nback,2020.2.10,59.984835829765245,
0,1,2,"[0, 0.2]",None,0,1,1,1,,,,,0,0,0,0,0,1,1,1,,,,,,,,,,,None,None,0,361.9166083000018,None,361.9166083000018,None,None,None,0,1,361.9166083000018,None,5,m,22,r,MH,2022_Feb_25_1418,WASABI Nback,2020.2.10,59.984835829765245,
0,1,6,"[0.2, 0]",None,0,1,1,1,,,,,0,0,0,0,0,2,2,2,,,,,,,,,,,None,None,0,362.6166256000288,None,362.6166256000288,363.6166140999994,363.5999863999896,364.5999524000217,0,1,362.6166256000288,None,5,m,22,r,MH,2022_Feb_25_1418,WASABI Nback,2020.2.10,59.984835829765245,
0,1,9,"[0.2, -0.2]",None,0,1,1,1,,,,,0,0,0,0,0,3,3,3,,,,,,,,,,,None,None,0,364.6166315000155,None,364.6166315000155,365.616629199998,365.599965100002,366.59997590002604,0,1,364.6166315000155,None,5,m,22,r,MH,2022_Feb_25_1418,WASABI Nback,2020.2.10,59.984835829765245,
0,1,3,"[0.2, 0.2]",None,0,1,1,1,,,,,0,0,0,0,0,4,4,4,,,,,,,,,,,None,None,0,366.61663340002997,None,366.61663340002997,367.61663420003606,367.5999723999994,368.59999860002426,0,1,366.61663340002997,None,5,m,22,r,MH,2022_Feb_25_1418,WASABI Nback,2020.2.10,59.984835829765245,
0,1,9,"[0.2, -0.2]",1,0,1,1,1,,,,,0,0,0,0,0,5,5,5,,,,,,,,,,,None,None,0,368.6166496000369,None,368.6166496000369,369.6166598999989,369.60000100004254,370.59999810002046,0,1,368.6166496000369,None,5,m,22,r,MH,2022_Feb_25_1418,WASABI Nback,2020.2.10,59.984835829765245,
0,1,7,"[-0.2, -0.2]",None,0,1,1,1,,,,,0,0,0,0,0,6,6,6,,,,,,,,,,,None,None,0,370.6167238000198,None,370.6167238000198,371.6166579000419,371.6000101999962,372.60001260001445,0,1,370.6167238000198,None,5,m,22,r,MH,2022_Feb_25_1418,WASABI Nback,2020.2.10,59.984835829765245,
0,1,1,"[-0.2, 0.2]",None,0,1,1,1,,,,,0,0,0,0,0,7,7,7,,,,,,,,,,,None,None,0,372.616683500004,None,372.616683500004,373.61668129998725,373.6000205000164,374.60005300003104,0,1,372.616683500004,None,5,m,22,r,MH,2022_Feb_25_1418,WASABI Nback,2020.2.10,59.984835829765245,
0,1,5,"[0, 0]",None,0,1,1,1,,,,,0,0,0,0,0,8,8,8,,,,,,,,,,,None,None,0,374.61668420000933,None,374.61668420000933,375.6167052999954,375.60003800003324,376.60005320003256,0,1,374.61668420000933,None,5,m,22,r,MH,2022_Feb_25_1418,WASABI Nback,2020.2.10,59.984835829765245,
0,1,7,"[-0.2, -0.2]",None,0,1,1,1,,,,,0,0,0,0,0,9,9,9,,,,,,,,,,,None,None,0,376.61671000003116,None,376.61671000003116,377.6167259000358,377.6000616000383,378.6000638999976,0,1,376.61671000003116,None,5,m,22,r,MH,2022_Feb_25_1418,WASABI Nback,2020.2.10,59.984835829765245,
0,1,5,"[0, 0]",1,0,1,1,1,,,,,0,0,0,0,0,10,10,10,,,,,,,,,,,None,None,0,378.6167309000157,None,378.6167309000157,379.61672789999284,379.6000694000395,380.60009309998713,0,1,378.6167309000157,None,5,m,22,r,MH,2022_Feb_25_1418,WASABI Nback,2020.2.10,59.984835829765245,
0,1,6,"[0.2, 0]",None,0,1,1,1,,,,,0,0,0,0,0,11,11,11,,,,,,,,,,,None,None,0,380.6167504999903,None,380.6167504999903,381.6167490000371,381.6000821000198,382.6001004000427,0,1,380.6167504999903,None,5,m,22,r,MH,2022_Feb_25_1418,WASABI Nback,2020.2.10,59.984835829765245,
0,1,3,"[0.2, 0.2]",None,0,1,1,1,,,,,0,0,0,0,0,12,12,12,,,,,,,,,,,None,None,0,382.61675059999106,None,382.61675059999106,383.61676020000596,383.60011629998917,384.6001188000082,0,1,382.61675059999106,None,5,m,22,r,MH,2022_Feb_25_1418,WASABI Nback,2020.2.10,59.984835829765245,
0,1,6,"[0.2, 0]",1,0,1,1,1,,,,,0,0,0,0,0,13,13,13,,,,,,,,,,,None,None,0,384.61676410003565,None,384.61676410003565,385.61678969999775,385.60011400002986,386.600142100011,0,1,384.61676410003565,None,5,m,22,r,MH,2022_Feb_25_1418,WASABI Nback,2020.2.10,59.984835829765245,
0,1,8,"[0, -0.2]",None,0,1,1,1,,,,,0,0,0,0,0,14,14,14,,,,,,,,,,,None,None,0,386.61679200001527,None,386.61679200001527,387.6167922000168,387.60013259999687,388.6001367000281,0,1,386.61679200001527,None,5,m,22,r,MH,2022_Feb_25_1418,WASABI Nback,2020.2.10,59.984835829765245,
0,1,9,"[0.2, -0.2]",None,0,1,1,1,,,,,0,0,0,0,0,15,15,15,,,,,,,,,,,None,None,0,388.61681660002796,None,388.61681660002796,389.6168136000051,389.60014250001404,390.6001613000408,0,1,388.61681660002796,None,5,m,22,r,MH,2022_Feb_25_1418,WASABI Nback,2020.2.10,59.984835829765245,
0,1,9,"[0.2, -0.2]",None,0,1,1,1,,,,,0,0,0,0,0,16,16,16,,,,,,,,,,,None,None,0,390.61681889998727,None,390.61681889998727,391.6168242000276,391.60016500001075,392.60018700000364,0,1,390.61681889998727,None,5,m,22,r,MH,2022_Feb_25_1418,WASABI Nback,2020.2.10,59.984835829765245,
0,1,1,"[-0.2, 0.2]",None,0,1,1,1,,,,,0,0,0,0,0,17,17,17,,,,,,,,,,,None,None,0,392.61674309999216,None,392.61674309999216,393.61684850003803,393.60008380003273,394.60018720000517,0,1,392.61674309999216,None,5,m,22,r,MH,2022_Feb_25_1418,WASABI Nback,2020.2.10,59.984835829765245,
0,1,3,"[0.2, 0.2]",None,0,1,1,1,,,,,0,0,0,0,0,18,18,18,,,,,,,,,,,None,None,0,394.6168661999982,None,394.6168661999982,395.6168503999943,395.6001935999957,396.6001879000105,0,1,394.6168661999982,None,5,m,22,r,MH,2022_Feb_25_1418,WASABI Nback,2020.2.10,59.984835829765245,
0,1,5,"[0, 0]",None,0,1,1,1,,,,,0,0,0,0,0,19,19,19,,,,,,,,,,,None,None,0,396.61685930000385,None,396.61685930000385,397.61688149999827,397.60021230002167,398.6002128000255,0,1,396.61685930000385,None,5,m,22,r,MH,2022_Feb_25_1418,WASABI Nback,2020.2.10,59.984835829765245,
0,1,3,"[0.2, 0.2]",1,0,1,1,1,,,,,0,0,0,0,0,20,20,20,,,,,,,,,,,None,None,0,398.616885800031,None,398.616885800031,399.61688849999337,399.6002190000145,400.6002321999986,0,1,398.616885800031,None,5,m,22,r,MH,2022_Feb_25_1418,WASABI Nback,2020.2.10,59.984835829765245,
0,1,4,"[-0.2, 0]",None,0,1,1,1,,,,,0,0,0,0,0,21,21,21,,,,,,,,,,,None,None,0,400.6169103999855,None,400.6169103999855,401.6169145000167,401.60022630001185,402.6002329000039,0,1,400.6169103999855,None,5,m,22,r,MH,2022_Feb_25_1418,WASABI Nback,2020.2.10,59.984835829765245,
0,1,7,"[-0.2, -0.2]",None,0,1,1,1,,,,,0,0,0,0,0,22,22,22,,,,,,,,,,,None,None,0,402.6169373000157,None,402.6169373000157,403.6169366000104,403.6002560000052,404.60025920002954,0,1,402.6169373000157,None,5,m,22,r,MH,2022_Feb_25_1418,WASABI Nback,2020.2.10,59.984835829765245,
0,1,4,"[-0.2, 0]",1,0,1,1,1,,,,,0,0,0,0,0,23,23,23,,,,,,,,,,,None,None,0,404.6169330000412,None,404.6169330000412,405.61694030003855,405.60026540001854,406.60027940000873,0,1,404.6169330000412,None,5,m,22,r,MH,2022_Feb_25_1418,WASABI Nback,2020.2.10,59.984835829765245,
0,1,4,"[-0.2, 0]",None,0,1,1,1,,,,,0,0,0,0,0,24,24,24,,,,,,,,,,,None,None,0,406.61695940000936,None,406.61695940000936,407.61695480003254,407.60027729999274,408.60029560001567,0,1,406.61695940000936,None,5,m,22,r,MH,2022_Feb_25_1418,WASABI Nback,2020.2.10,59.984835829765245,
0,1,5,"[0, 0]",None,0,1,1,1,,,,,0,0,0,0,0,25,25,25,,,,,,,,,,,None,None,0,408.6169624000322,None,408.6169624000322,409.61697959998855,409.60029000003124,410.60029570001643,0,1,408.6169624000322,None,5,m,22,r,MH,2022_Feb_25_1418,WASABI Nback,2020.2.10,59.984835829765245,
0,1,2,"[0, 0.2]",None,0,1,1,1,,,,,0,0,0,0,0,26,26,26,,,,,,,,,,,None,None,0,410.6169844000251,None,410.6169844000251,411.61698819999583,411.6003190000192,412.6003203000291,0,1,410.6169844000251,None,5,m,22,r,MH,2022_Feb_25_1418,WASABI Nback,2020.2.10,59.984835829765245,
0,1,6,"[0.2, 0]",None,0,1,1,1,,,,,0,0,0,0,0,27,27,27,,,,,,,,,,,None,None,0,412.6170079000294,None,412.6170079000294,413.61700440000277,413.600333600014,414.60033960000146,0,1,412.6170079000294,None,5,m,22,r,MH,2022_Feb_25_1418,WASABI Nback,2020.2.10,59.984835829765245,
0,1,7,"[-0.2, -0.2]",None,0,1,1,1,,,,,0,0,0,0,0,28,28,28,,,,,,,,,,,None,None,0,414.6170163000352,None,414.6170163000352,415.6170610000263,415.60033550002845,416.60038339998573,0,1,414.6170163000352,None,5,m,22,r,MH,2022_Feb_25_1418,WASABI Nback,2020.2.10,59.984835829765245,
0,1,6,"[0.2, 0]",1,0,1,1,1,,,,,0,0,0,0,0,29,29,29,,,,,,,,,,,None,None,0,416.61702900001546,None,416.61702900001546,417.6170390000334,417.6002660000231,418.6003600000404,0,1,416.61702900001546,None,5,m,22,r,MH,2022_Feb_25_1418,WASABI Nback,2020.2.10,59.984835829765245,
0,1,6,"[0.2, 0]",None,0,1,1,1,,,,,0,0,0,0,0,30,30,30,,,,,,,,,,,None,None,0,418.617035400006,None,418.617035400006,419.61693120002747,419.60037130001,420.60038650000934,0,1,418.617035400006,None,5,m,22,r,MH,2022_Feb_25_1418,WASABI Nback,2020.2.10,59.984835829765245,
0,1,7,"[-0.2, -0.2]",None,0,1,1,1,,,,,0,0,0,0,0,31,31,31,,,,,,,,,,,None,None,0,420.6170617000316,None,420.6170617000316,421.61706160003087,421.60038230003556,422.6003909999854,0,1,420.6170617000316,None,5,m,22,r,MH,2022_Feb_25_1418,WASABI Nback,2020.2.10,59.984835829765245,
0,1,6,"[0.2, 0]",1,0,1,1,1,,,,,0,0,0,0,0,32,32,32,,,,,,,,,,,None,None,0,422.6170734000043,None,422.6170734000043,423.61709940002766,423.60041160002584,424.6003330000094,0,1,422.6170734000043,None,5,m,22,r,MH,2022_Feb_25_1418,WASABI Nback,2020.2.10,59.984835829765245,
0,1,2,"[0, 0.2]",None,0,1,1,1,,,,,0,0,0,0,0,33,33,33,,,,,,,,,,,None,None,0,424.6169627000345,None,424.6169627000345,425.6170985000208,425.6004615999991,426.60043039999437,0,1,424.6169627000345,None,5,m,22,r,MH,2022_Feb_25_1418,WASABI Nback,2020.2.10,59.984835829765245,
0,1,5,"[0, 0]",None,0,1,1,1,,,,,0,0,0,0,0,34,34,34,,,,,,,,,,,None,None,0,426.6171164000407,None,426.6171164000407,427.6171036000014,427.6004332000157,428.60044569999445,0,1,426.6171164000407,None,5,m,22,r,MH,2022_Feb_25_1418,WASABI Nback,2020.2.10,59.984835829765245,
0,1,4,"[-0.2, 0]",None,0,1,1,1,,,,,0,0,0,0,0,35,35,35,,,,,,,,,,,None,None,0,428.6171221000259,None,428.6171221000259,429.6171408999944,429.60044360003667,430.600465000025,0,1,428.6171221000259,None,5,m,22,r,MH,2022_Feb_25_1418,WASABI Nback,2020.2.10,59.984835829765245,
0,1,4,"[-0.2, 0]",None,0,1,1,1,,,,,0,0,0,0,0,36,36,36,,,,,,,,,,,None,None,0,430.6171300000278,None,430.6171300000278,431.6171430000104,431.60047050000867,432.60048840002855,0,1,430.6171300000278,None,5,m,22,r,MH,2022_Feb_25_1418,WASABI Nback,2020.2.10,59.984835829765245,
0,1,7,"[-0.2, -0.2]",None,0,1,1,1,,,,,0,0,0,0,0,37,37,37,,,,,,,,,,,None,None,0,432.6171458000317,None,432.6171458000317,433.61716750002233,433.6004885000293,434.60049640003126,0,1,432.6171458000317,None,5,m,22,r,MH,2022_Feb_25_1418,WASABI Nback,2020.2.10,59.984835829765245,
0,1,4,"[-0.2, 0]",1,0,1,1,1,,,,,0,0,0,0,0,38,38,38,,,,,,,,,,,None,None,0,434.6171683000284,None,434.6171683000284,435.6171660000109,435.6005065999925,436.60050520004006,0,1,434.6171683000284,None,5,m,22,r,MH,2022_Feb_25_1418,WASABI Nback,2020.2.10,59.984835829765245,
0,1,3,"[0.2, 0.2]",None,0,1,1,1,,,,,0,0,0,0,0,39,39,39,,,,,,,,,,,None,None,0,436.6171911000274,None,436.6171911000274,437.61719489999814,437.60050810000394,438.60051690001274,0,1,436.6171911000274,None,5,m,22,r,MH,2022_Feb_25_1418,WASABI Nback,2020.2.10,59.984835829765245,
0,1,5,"[0, 0]",None,0,1,1,1,,,,,0,0,0,0,0,40,40,40,,,,,,,,,,,None,None,0,438.6171939999913,None,438.6171939999913,439.6171984000248,439.6005418000277,440.6006011000136,0,1,438.6171939999913,None,5,m,22,r,MH,2022_Feb_25_1418,WASABI Nback,2020.2.10,59.984835829765245,
0,1,3,"[0.2, 0.2]",1,0,1,1,1,,,,,0,0,0,0,0,41,41,41,,,,,,,,,,,None,None,0,440.61721330002183,None,440.61721330002183,441.617298200028,441.60055929998634,442.60054740001215,0,1,440.61721330002183,None,5,m,22,r,MH,2022_Feb_25_1418,WASABI Nback,2020.2.10,59.984835829765245,
0,1,1,"[-0.2, 0.2]",None,0,1,1,1,,,,,0,0,0,0,0,42,42,42,,,,,,,,,,,None,None,0,442.61726920004,None,442.61726920004,443.61723830003757,443.6005612000008,444.60056160000386,0,1,442.61726920004,None,5,m,22,r,MH,2022_Feb_25_1418,WASABI Nback,2020.2.10,59.984835829765245,
0,1,9,"[0.2, -0.2]",None,0,1,1,1,,,,,0,0,0,0,0,43,43,43,,,,,,,,,,,None,None,0,444.6172353000147,None,444.6172353000147,445.61724330001744,445.60058570001274,446.6005967000383,0,1,444.6172353000147,None,5,m,22,r,MH,2022_Feb_25_1418,WASABI Nback,2020.2.10,59.984835829765245,
0,1,9,"[0.2, -0.2]",None,0,1,1,1,,,,,0,0,0,0,0,44,44,44,,,,,,,,,,,None,None,0,446.61726160004037,None,446.61726160004037,447.61726239998825,447.6006064999965,448.6006101000239,0,1,446.61726160004037,None,5,m,22,r,MH,2022_Feb_25_1418,WASABI Nback,2020.2.10,59.984835829765245,
0,1,8,"[0, -0.2]",None,0,1,1,1,,,,,0,0,0,0,0,45,45,45,,,,,,,,,,,None,None,0,448.61727720004274,None,448.61727720004274,449.617316799995,449.6006094000186,450.60061359999236,0,1,448.61727720004274,None,5,m,22,r,MH,2022_Feb_25_1418,WASABI Nback,2020.2.10,59.984835829765245,
0,1,6,"[0.2, 0]",None,0,1,1,1,,,,,0,0,0,0,0,46,46,46,,,,,,,,,,,None,None,0,450.6172827000264,None,450.6172827000264,451.6172987000318,451.60063510003965,452.6006369999959,0,1,450.6172827000264,None,5,m,22,r,MH,2022_Feb_25_1418,WASABI Nback,2020.2.10,59.984835829765245,
0,1,3,"[0.2, 0.2]",None,0,1,1,1,,,,,0,0,0,0,0,47,47,47,,,,,,,,,,,None,None,0,452.6173068000353,None,452.6173068000353,453.6173045000178,453.60070499998983,454.60065320000285,0,1,452.6173068000353,None,5,m,22,r,MH,2022_Feb_25_1418,WASABI Nback,2020.2.10,59.984835829765245,
0,1,6,"[0.2, 0]",1,0,1,1,1,,,,,0,0,0,0,0,48,48,48,,,,,,,,,,,None,None,0,454.6173235999886,None,454.6173235999886,455.61733099998673,455.6006614000071,456.60017819999484,0,1,454.6173235999886,None,5,m,22,r,MH,2022_Feb_25_1418,WASABI Nback,2020.2.10,59.984835829765245,
0,1,5,"[0, 0]",None,0,1,1,1,,,,,0,0,0,0,0,49,49,49,,,,,,,,,,,None,None,0,456.6173396999948,None,456.6173396999948,457.617345900042,457.600675099995,458.6006497000344,0,1,456.6173396999948,None,5,m,22,r,MH,2022_Feb_25_1418,WASABI Nback,2020.2.10,59.984835829765245,
0,1,7,"[-0.2, -0.2]",None,0,1,1,1,,,,,0,0,0,0,0,50,50,50,,,,,,,,,,,None,None,0,458.61742570000933,None,458.61742570000933,459.6173494000104,459.6006860000198,460.6007030000328,0,1,458.61742570000933,None,5,m,22,r,MH,2022_Feb_25_1418,WASABI Nback,2020.2.10,59.984835829765245,
0,1,5,"[0, 0]",1,0,1,1,1,,,,,0,0,0,0,0,51,51,51,,,,,,,,,,,None,None,0,460.61740909999935,None,460.61740909999935,461.6173591000261,461.60069540003315,462.6007178000291,0,1,460.61740909999935,None,5,m,22,r,MH,2022_Feb_25_1418,WASABI Nback,2020.2.10,59.984835829765245,
0,1,1,"[-0.2, 0.2]",None,0,1,1,1,,,,,0,0,0,0,0,52,52,52,,,,,,,,,,,None,None,0,462.61738070001593,None,462.61738070001593,463.6173989000381,463.6007275999873,464.6007248000242,0,1,462.61738070001593,None,5,m,22,r,MH,2022_Feb_25_1418,WASABI Nback,2020.2.10,59.984835829765245,
0,1,7,"[-0.2, -0.2]",None,0,1,1,1,,,,,0,0,0,0,0,53,53,53,,,,,,,,,,,None,None,0,464.61738190002507,None,464.61738190002507,465.61739880003734,465.60072980000405,466.6007155000116,0,1,464.61738190002507,None,5,m,22,r,MH,2022_Feb_25_1418,WASABI Nback,2020.2.10,59.984835829765245,
0,1,9,"[0.2, -0.2]",None,0,1,1,1,,,,,0,0,0,0,0,54,54,54,,,,,,,,,,,None,None,0,466.61742409999715,None,466.61742409999715,467.6174137000344,467.6007428999874,468.6007468000171,0,1,466.61742409999715,None,5,m,22,r,MH,2022_Feb_25_1418,WASABI Nback,2020.2.10,59.984835829765245,
0,1,3,"[0.2, 0.2]",None,0,1,1,1,,,,,0,0,0,0,0,55,55,55,,,,,,,,,,,None,None,0,468.61742309998954,None,468.61742309998954,469.61744070000714,469.60077319998527,470.60077640000964,0,1,468.61742309998954,None,5,m,22,r,MH,2022_Feb_25_1418,WASABI Nback,2020.2.10,59.984835829765245,
0,1,9,"[0.2, -0.2]",1,0,1,1,1,,,,,0,0,0,0,0,56,56,56,,,,,,,,,,,None,None,0,470.61744250002084,None,470.61744250002084,471.6174445000361,471.60080970003037,472.6008026000345,0,1,470.61744250002084,None,5,m,22,r,MH,2022_Feb_25_1418,WASABI Nback,2020.2.10,59.984835829765245,
0,1,6,"[0.2, 0]",None,0,1,1,1,,,,,0,0,0,0,0,57,57,57,,,,,,,,,,,None,None,0,472.6174680000404,None,472.6174680000404,473.6174694999936,473.60079210001277,474.6008119999897,0,1,472.6174680000404,None,5,m,22,r,MH,2022_Feb_25_1418,WASABI Nback,2020.2.10,59.984835829765245,
0,1,2,"[0, 0.2]",None,0,1,1,1,,,,,0,0,0,0,0,58,58,58,,,,,,,,,,,None,None,0,474.6175438000355,None,474.6175438000355,475.6174858000013,475.6008083000197,476.60081410000566,0,1,474.6175438000355,None,5,m,22,r,MH,2022_Feb_25_1418,WASABI Nback,2020.2.10,59.984835829765245,
0,1,5,"[0, 0]",None,0,1,1,1,,,,,0,0,0,0,0,59,59,59,,,,,,,,,,,None,None,0,476.61748389998684,None,476.61748389998684,477.617498000036,477.6008357999963,478.60085909999907,0,1,476.61748389998684,None,5,m,22,r,MH,2022_Feb_25_1418,WASABI Nback,2020.2.10,59.984835829765245,
0,1,5,"[0, 0]",None,0,1,1,1,,,,,0,0,0,0,0,60,60,60,,,,,,,,,,,None,None,0,478.6175047000288,None,478.6175047000288,479.61751130002085,479.6008474000264,480.6008212000015,0,0,478.6175047000288,None,5,m,22,r,MH,2022_Feb_25_1418,WASABI Nback,2020.2.10,59.984835829765245,
0,1,2,"[0, 0.2]",None,0,1,1,1,,,,,0,0,0,0,0,61,61,61,,,,,,,,,,,None,None,0,480.6175239000004,None,480.6175239000004,481.617535700032,481.6008509999956,482.60086850001244,0,1,480.6175239000004,None,5,m,22,r,MH,2022_Feb_25_1418,WASABI Nback,2020.2.10,59.984835829765245,
0,1,6,"[0.2, 0]",None,0,1,1,1,,,,,0,0,0,0,0,62,62,62,,,,,,,,,,,None,None,0,482.6175446000416,None,482.6175446000416,483.6175432000309,483.60086050000973,484.60087600001134,0,1,482.6175446000416,None,5,m,22,r,MH,2022_Feb_25_1418,WASABI Nback,2020.2.10,59.984835829765245,
0,1,9,"[0.2, -0.2]",None,0,1,1,1,,,,,0,0,0,0,0,63,63,63,,,,,,,,,,,None,None,0,484.6175660000299,None,484.6175660000299,485.6175490000169,485.60089100000914,486.60092930000974,0,1,484.6175660000299,None,5,m,22,r,MH,2022_Feb_25_1418,WASABI Nback,2020.2.10,59.984835829765245,
0,1,3,"[0.2, 0.2]",None,0,1,1,1,,,,,0,0,0,0,0,64,64,64,,,,,,,,,,,None,None,0,486.6175723000197,None,486.6175723000197,487.61758190003457,487.6009010000271,488.6009183000424,0,1,486.6175723000197,None,5,m,22,r,MH,2022_Feb_25_1418,WASABI Nback,2020.2.10,59.984835829765245,
0,1,9,"[0.2, -0.2]",1,0,1,1,1,,,,,0,0,0,0,0,65,65,65,,,,,,,,,,,None,None,0,488.6176390000037,None,488.6176390000037,489.6175960000255,489.6009159000241,490.60093340004096,0,1,488.6176390000037,None,5,m,22,r,MH,2022_Feb_25_1418,WASABI Nback,2020.2.10,59.984835829765245,
0,1,7,"[-0.2, -0.2]",None,0,1,1,1,,,,,0,0,0,0,0,66,66,66,,,,,,,,,,,None,None,0,490.6176073999959,None,490.6176073999959,491.61763910000445,491.6009315000265,492.60095180000644,0,1,490.6176073999959,None,5,m,22,r,MH,2022_Feb_25_1418,WASABI Nback,2020.2.10,59.984835829765245,
0,1,1,"[-0.2, 0.2]",None,0,1,1,1,,,,,0,0,0,0,0,67,67,67,,,,,,,,,,,None,None,0,492.6176162000047,None,492.6176162000047,493.6176191000268,493.60092950001126,494.60098520002794,0,1,492.6176162000047,None,5,m,22,r,MH,2022_Feb_25_1418,WASABI Nback,2020.2.10,59.984835829765245,
0,1,5,"[0, 0]",None,0,1,1,1,,,,,0,0,0,0,0,68,68,68,,,,,,,,,,,None,None,0,494.61763600003906,None,494.61763600003906,495.61763779999455,495.6009723999887,496.6009805999929,0,1,494.61763600003906,None,5,m,22,r,MH,2022_Feb_25_1418,WASABI Nback,2020.2.10,59.984835829765245,
0,1,7,"[-0.2, -0.2]",None,0,1,1,1,,,,,0,0,0,0,0,69,69,69,,,,,,,,,,,None,None,0,496.6176434000372,None,496.6176434000372,497.61764509999193,497.60099599999376,498.60096700000577,0,1,496.6176434000372,None,5,m,22,r,MH,2022_Feb_25_1418,WASABI Nback,2020.2.10,59.984835829765245,
0,1,5,"[0, 0]",1,0,1,1,1,,,,,0,0,0,0,0,70,70,70,,,,,,,,,,,None,None,0,498.6176623000065,None,498.6176623000065,499.61766029999126,499.6010065000155,500.6010313000297,0,1,498.6176623000065,None,5,m,22,r,MH,2022_Feb_25_1418,WASABI Nback,2020.2.10,59.984835829765245,
0,1,6,"[0.2, 0]",None,0,1,1,1,,,,,0,0,0,0,0,71,71,71,,,,,,,,,,,None,None,0,500.61768180003855,None,500.61768180003855,501.61769730004016,501.6010205000057,502.6010343999951,0,1,500.61768180003855,None,5,m,22,r,MH,2022_Feb_25_1418,WASABI Nback,2020.2.10,59.984835829765245,
0,1,3,"[0.2, 0.2]",None,0,1,1,1,,,,,0,0,0,0,0,72,72,72,,,,,,,,,,,None,None,0,502.61768800002756,None,502.61768800002756,503.6177101000212,503.60103870002786,504.6010541000287,0,1,502.61768800002756,None,5,m,22,r,MH,2022_Feb_25_1418,WASABI Nback,2020.2.10,59.984835829765245,
0,1,6,"[0.2, 0]",1,0,1,1,1,,,,,0,0,0,0,0,73,73,73,,,,,,,,,,,None,None,0,504.61770900001284,None,504.61770900001284,505.6177316000103,505.6010531000211,506.6010583000025,0,1,504.61770900001284,None,5,m,22,r,MH,2022_Feb_25_1418,WASABI Nback,2020.2.10,59.984835829765245,
0,1,8,"[0, -0.2]",None,0,1,1,1,,,,,0,0,0,0,0,74,74,74,,,,,,,,,,,None,None,0,506.6177286999882,None,506.6177286999882,507.61773100000573,507.60106720001204,508.60108089999994,0,1,506.6177286999882,None,5,m,22,r,MH,2022_Feb_25_1418,WASABI Nback,2020.2.10,59.984835829765245,
0,1,9,"[0.2, -0.2]",None,0,1,1,1,,,,,0,0,0,0,0,75,75,75,,,,,,,,,,,None,None,0,508.61773739999626,None,508.61773739999626,509.6177538000047,509.60109740000917,510.60109559999546,0,1,508.61773739999626,None,5,m,22,r,MH,2022_Feb_25_1418,WASABI Nback,2020.2.10,59.984835829765245,
0,1,9,"[0.2, -0.2]",None,0,1,1,1,,,,,0,0,0,0,0,76,76,76,,,,,,,,,,,None,None,0,510.61778299999423,None,510.61778299999423,511.6177744999877,511.6010991000221,512.6011233000318,0,1,510.61778299999423,None,5,m,22,r,MH,2022_Feb_25_1418,WASABI Nback,2020.2.10,59.984835829765245,
0,1,1,"[-0.2, 0.2]",None,0,1,1,1,,,,,0,0,0,0,0,77,77,77,,,,,,,,,,,None,None,0,512.617777300009,None,512.617777300009,513.617772800033,513.6011118000024,514.6011231000302,0,1,512.617777300009,None,5,m,22,r,MH,2022_Feb_25_1418,WASABI Nback,2020.2.10,59.984835829765245,
0,1,3,"[0.2, 0.2]",None,0,1,1,1,,,,,0,0,0,0,0,78,78,78,,,,,,,,,,,None,None,0,514.617781100038,None,514.617781100038,515.6177845000057,515.6011441000155,516.6011401000433,0,1,514.617781100038,None,5,m,22,r,MH,2022_Feb_25_1418,WASABI Nback,2020.2.10,59.984835829765245,
0,1,5,"[0, 0]",None,0,1,1,1,,,,,0,0,0,0,0,79,79,79,,,,,,,,,,,None,None,0,516.6177970999852,None,516.6177970999852,517.6178053999902,517.6011481999885,518.6012081000372,0,1,516.6177970999852,None,5,m,22,r,MH,2022_Feb_25_1418,WASABI Nback,2020.2.10,59.984835829765245,
0,1,3,"[0.2, 0.2]",1,0,1,1,1,,,,,0,0,0,0,0,80,80,80,,,,,,,,,,,None,None,0,518.6178213999956,None,518.6178213999956,519.6178297000006,519.6011675000191,520.6011677000206,0,1,518.6178213999956,None,5,m,22,r,MH,2022_Feb_25_1418,WASABI Nback,2020.2.10,59.984835829765245,
0,1,4,"[-0.2, 0]",None,0,1,1,1,,,,,0,0,0,0,0,81,81,81,,,,,,,,,,,None,None,0,520.6178394000162,None,520.6178394000162,521.617845700006,521.6011926000356,522.6011826000176,0,1,520.6178394000162,None,5,m,22,r,MH,2022_Feb_25_1418,WASABI Nback,2020.2.10,59.984835829765245,
0,1,7,"[-0.2, -0.2]",None,0,1,1,1,,,,,0,0,0,0,0,82,82,82,,,,,,,,,,,None,None,0,522.617850300041,None,522.617850300041,523.6178548000171,523.6011913000257,524.601202299993,0,1,522.617850300041,None,5,m,22,r,MH,2022_Feb_25_1418,WASABI Nback,2020.2.10,59.984835829765245,
0,1,4,"[-0.2, 0]",1,0,1,1,1,,,,,0,0,0,0,0,83,83,83,,,,,,,,,,,None,None,0,524.6178690000088,None,524.6178690000088,525.6178662999882,525.6012134000193,526.6012116000056,0,1,524.6178690000088,None,5,m,22,r,MH,2022_Feb_25_1418,WASABI Nback,2020.2.10,59.984835829765245,
0,1,4,"[-0.2, 0]",None,0,1,1,1,,,,,0,0,0,0,0,84,84,84,,,,,,,,,,,None,None,0,526.6178871000302,None,526.6178871000302,527.6178024000255,527.6012201000121,528.6012315000407,0,1,526.6178871000302,None,5,m,22,r,MH,2022_Feb_25_1418,WASABI Nback,2020.2.10,59.984835829765245,
0,1,5,"[0, 0]",None,0,1,1,1,,,,,0,0,0,0,0,85,85,85,,,,,,,,,,,None,None,0,528.6178896999918,None,528.6178896999918,529.6179055999964,529.601243800018,530.6012338,0,1,528.6178896999918,None,5,m,22,r,MH,2022_Feb_25_1418,WASABI Nback,2020.2.10,59.984835829765245,
0,1,2,"[0, 0.2]",None,0,1,1,1,,,,,0,0,0,0,0,86,86,86,,,,,,,,,,,None,None,0,530.6179267000407,None,530.6179267000407,531.6179129999946,531.6012509000138,532.6012614000356,0,1,530.6179267000407,None,5,m,22,r,MH,2022_Feb_25_1418,WASABI Nback,2020.2.10,59.984835829765245,
0,1,6,"[0.2, 0]",None,0,1,1,1,,,,,0,0,0,0,0,87,87,87,,,,,,,,,,,None,None,0,532.617931500019,None,532.617931500019,533.6179388000164,533.6012668000185,534.6012785999919,0,1,532.617931500019,None,5,m,22,r,MH,2022_Feb_25_1418,WASABI Nback,2020.2.10,59.984835829765245,
0,1,7,"[-0.2, -0.2]",None,0,1,1,1,,,,,0,0,0,0,0,88,88,88,,,,,,,,,,,None,None,0,534.6179397000233,None,534.6179397000233,535.617954300018,535.6012900000205,536.6012881000061,0,1,534.6179397000233,None,5,m,22,r,MH,2022_Feb_25_1418,WASABI Nback,2020.2.10,59.984835829765245,
0,1,6,"[0.2, 0]",1,0,1,1,1,,,,,0,0,0,0,0,89,89,89,,,,,,,,,,,None,None,0,536.6179562000325,None,536.6179562000325,537.6179736999911,537.601289800019,538.6013082000427,0,1,536.6179562000325,None,5,m,22,r,MH,2022_Feb_25_1418,WASABI Nback,2020.2.10,59.984835829765245,
0,1,6,"[0.2, 0]",None,0,1,1,1,,,,,0,0,0,0,0,90,90,90,,,,,,,,,,,None,None,0,538.6179902000003,None,538.6179902000003,539.618018899986,539.6013070000336,540.6013260000036,0,1,538.6179902000003,None,5,m,22,r,MH,2022_Feb_25_1418,WASABI Nback,2020.2.10,59.984835829765245,
0,1,7,"[-0.2, -0.2]",None,0,1,1,1,,,,,0,0,0,0,0,91,91,91,,,,,,,,,,,None,None,0,540.6179952000384,None,540.6179952000384,541.618000300019,541.6013365000254,542.6013278000173,0,1,540.6179952000384,None,5,m,22,r,MH,2022_Feb_25_1418,WASABI Nback,2020.2.10,59.984835829765245,
0,1,6,"[0.2, 0]",1,0,1,1,1,,,,,0,0,0,0,0,92,92,92,,,,,,,,,,,None,None,0,542.6180094000301,None,542.6180094000301,543.618020599999,543.6013391999877,544.6013578000129,0,1,542.6180094000301,None,5,m,22,r,MH,2022_Feb_25_1418,WASABI Nback,2020.2.10,59.984835829765245,
0,1,2,"[0, 0.2]",None,0,1,1,1,,,,,0,0,0,0,0,93,93,93,,,,,,,,,,,None,None,0,544.6180330000352,None,544.6180330000352,545.6180344999884,545.6012650000048,546.6013605000335,0,1,544.6180330000352,None,5,m,22,r,MH,2022_Feb_25_1418,WASABI Nback,2020.2.10,59.984835829765245,
0,1,5,"[0, 0]",None,0,1,1,1,,,,,0,0,0,0,0,94,94,94,,,,,,,,,,,None,None,0,546.6180404000334,None,546.6180404000334,547.6180594000034,547.6013830000302,548.601387600007,0,1,546.6180404000334,None,5,m,22,r,MH,2022_Feb_25_1418,WASABI Nback,2020.2.10,59.984835829765245,
0,1,4,"[-0.2, 0]",None,0,1,1,1,,,,,0,0,0,0,0,95,95,95,,,,,,,,,,,None,None,0,548.6180553000304,None,548.6180553000304,549.6180617000209,549.6013948000036,550.6013939999975,0,1,548.6180553000304,None,5,m,22,r,MH,2022_Feb_25_1418,WASABI Nback,2020.2.10,59.984835829765245,
0,1,4,"[-0.2, 0]",None,0,1,1,1,,,,,0,0,0,0,0,96,96,96,,,,,,,,,,,None,None,0,550.6180844000191,None,550.6180844000191,551.6180815999978,551.601408699993,552.6014076999854,0,1,550.6180844000191,None,5,m,22,r,MH,2022_Feb_25_1418,WASABI Nback,2020.2.10,59.984835829765245,
0,1,7,"[-0.2, -0.2]",None,0,1,1,1,,,,,0,0,0,0,0,97,97,97,,,,,,,,,,,None,None,0,552.6180190999876,None,552.6180190999876,553.6180921000196,553.6014176000026,554.6014313999913,0,1,552.6180190999876,None,5,m,22,r,MH,2022_Feb_25_1418,WASABI Nback,2020.2.10,59.984835829765245,
0,1,4,"[-0.2, 0]",1,0,1,1,1,,,,,0,0,0,0,0,98,98,98,,,,,,,,,,,None,None,0,554.6181083000265,None,554.6181083000265,555.6181076000212,555.601439399994,556.6014458999853,0,1,554.6181083000265,None,5,m,22,r,MH,2022_Feb_25_1418,WASABI Nback,2020.2.10,59.984835829765245,
0,1,3,"[0.2, 0.2]",None,0,1,1,1,,,,,0,0,0,0,0,99,99,99,,,,,,,,,,,None,None,0,556.618112600001,None,556.618112600001,557.6181283000042,557.6014567000093,558.6014729000162,0,1,556.618112600001,None,5,m,22,r,MH,2022_Feb_25_1418,WASABI Nback,2020.2.10,59.984835829765245,
0,1,5,"[0, 0]",None,0,1,1,1,,,,,0,0,0,0,0,100,100,100,,,,,,,,,,,None,None,0,558.6181461000233,None,558.6181461000233,559.6181336999871,559.6014604000375,560.6014715000056,0,1,558.6181461000233,None,5,m,22,r,MH,2022_Feb_25_1418,WASABI Nback,2020.2.10,59.984835829765245,
0,1,3,"[0.2, 0.2]",1,0,1,1,1,,,,,0,0,0,0,0,101,101,101,,,,,,,,,,,None,None,0,560.6181488999864,None,560.6181488999864,561.6181668000063,561.6014970000251,562.6015027000103,0,1,560.6181488999864,None,5,m,22,r,MH,2022_Feb_25_1418,WASABI Nback,2020.2.10,59.984835829765245,
0,1,1,"[-0.2, 0.2]",None,0,1,1,1,,,,,0,0,0,0,0,102,102,102,,,,,,,,,,,None,None,0,562.6181618000264,None,562.6181618000264,563.618175200012,563.601504100021,564.6015205000294,0,1,562.6181618000264,None,5,m,22,r,MH,2022_Feb_25_1418,WASABI Nback,2020.2.10,59.984835829765245,
0,1,9,"[0.2, -0.2]",None,0,1,1,1,,,,,0,0,0,0,0,103,103,103,,,,,,,,,,,None,None,0,564.6181928000296,None,564.6181928000296,565.6181811999995,565.6015263000154,566.6015287000337,0,1,564.6181928000296,None,5,m,22,r,MH,2022_Feb_25_1418,WASABI Nback,2020.2.10,59.984835829765245,
0,1,9,"[0.2, -0.2]",None,0,1,1,1,,,,,0,0,0,0,0,104,104,104,,,,,,,,,,,None,None,0,566.6182048000046,None,566.6182048000046,567.618206300016,567.6010417999933,568.6015518000349,0,0,566.6182048000046,None,5,m,22,r,MH,2022_Feb_25_1418,WASABI Nback,2020.2.10,59.984835829765245,
0,1,8,"[0, -0.2]",None,0,1,1,1,,,,,0,0,0,0,0,105,105,105,,,,,,,,,,,None,None,0,568.6181535000214,None,568.6181535000214,569.6182784000412,569.6015544999973,570.6015649000183,0,1,568.6181535000214,None,5,m,22,r,MH,2022_Feb_25_1418,WASABI Nback,2020.2.10,59.984835829765245,
0,1,6,"[0.2, 0]",None,0,1,1,1,,,,,0,0,0,0,0,106,106,106,,,,,,,,,,,None,None,0,570.6182360000093,None,570.6182360000093,571.6182425000006,571.601554199995,572.6015771999955,0,1,570.6182360000093,None,5,m,22,r,MH,2022_Feb_25_1418,WASABI Nback,2020.2.10,59.984835829765245,
0,1,3,"[0.2, 0.2]",None,0,1,1,1,,,,,0,0,0,0,0,107,107,107,,,,,,,,,,,None,None,0,572.6182498999988,None,572.6182498999988,573.6182526000193,573.6014825000311,574.6015855000005,0,1,572.6182498999988,None,5,m,22,r,MH,2022_Feb_25_1418,WASABI Nback,2020.2.10,59.984835829765245,
0,1,6,"[0.2, 0]",1,0,1,1,1,,,,,0,0,0,0,0,108,108,108,,,,,,,,,,,None,None,0,574.6182742000092,None,574.6182742000092,575.6182579000015,575.601618900022,576.601604400028,0,1,574.6182742000092,None,5,m,22,r,MH,2022_Feb_25_1418,WASABI Nback,2020.2.10,59.984835829765245,
0,1,5,"[0, 0]",None,0,1,1,1,,,,,0,0,0,0,0,109,109,109,,,,,,,,,,,None,None,0,576.6182690000278,None,576.6182690000278,577.6182773000328,577.6016055000364,578.6016313,0,1,576.6182690000278,None,5,m,22,r,MH,2022_Feb_25_1418,WASABI Nback,2020.2.10,59.984835829765245,
0,1,7,"[-0.2, -0.2]",None,0,1,1,1,,,,,0,0,0,0,0,110,110,110,,,,,,,,,,,None,None,0,578.6182946999907,None,578.6182946999907,579.6182974000112,579.6016290000407,580.6016419000225,0,1,578.6182946999907,None,5,m,22,r,MH,2022_Feb_25_1418,WASABI Nback,2020.2.10,59.984835829765245,
0,1,5,"[0, 0]",1,0,1,1,1,,,,,0,0,0,0,0,111,111,111,,,,,,,,,,,None,None,0,580.6183001000318,None,580.6183001000318,581.6183153000311,581.6016471000039,582.6016406000126,0,1,580.6183001000318,None,5,m,22,r,MH,2022_Feb_25_1418,WASABI Nback,2020.2.10,59.984835829765245,
0,1,1,"[-0.2, 0.2]",None,0,1,1,1,,,,,0,0,0,0,0,112,112,112,,,,,,,,,,,None,None,0,582.6182254999876,None,582.6182254999876,583.618321100017,583.6017695000046,584.6016682999907,0,1,582.6182254999876,None,5,m,22,r,MH,2022_Feb_25_1418,WASABI Nback,2020.2.10,59.984835829765245,
0,1,7,"[-0.2, -0.2]",None,0,1,1,1,,,,,0,0,0,0,0,113,113,113,,,,,,,,,,,None,None,0,584.6183383000316,None,584.6183383000316,585.6183339999989,585.6016799000208,586.6016745000379,0,1,584.6183383000316,None,5,m,22,r,MH,2022_Feb_25_1418,WASABI Nback,2020.2.10,59.984835829765245,
0,1,9,"[0.2, -0.2]",None,0,1,1,1,,,,,0,0,0,0,0,114,114,114,,,,,,,,,,,None,None,0,586.6183590000146,None,586.6183590000146,587.6183592000161,587.601695600024,588.6017067999928,0,1,586.6183590000146,None,5,m,22,r,MH,2022_Feb_25_1418,WASABI Nback,2020.2.10,59.984835829765245,
0,1,3,"[0.2, 0.2]",None,0,1,1,1,,,,,0,0,0,0,0,115,115,115,,,,,,,,,,,None,None,0,588.6183597000199,None,588.6183597000199,589.6183918000315,589.6017096000141,590.6017159000039,0,1,588.6183597000199,None,5,m,22,r,MH,2022_Feb_25_1418,WASABI Nback,2020.2.10,59.984835829765245,
0,1,9,"[0.2, -0.2]",1,0,1,1,1,,,,,0,0,0,0,0,116,116,116,,,,,,,,,,,None,None,0,590.6183942999924,None,590.6183942999924,591.6183936999878,591.6017186000245,592.6017245000112,0,1,590.6183942999924,None,5,m,22,r,MH,2022_Feb_25_1418,WASABI Nback,2020.2.10,59.984835829765245,
0,1,6,"[0.2, 0]",None,0,1,1,1,,,,,0,0,0,0,0,117,117,117,,,,,,,,,,,None,None,0,592.6183929000399,None,592.6183929000399,593.618406500027,593.6017563000205,594.601768499997,0,1,592.6183929000399,None,5,m,22,r,MH,2022_Feb_25_1418,WASABI Nback,2020.2.10,59.984835829765245,
0,1,2,"[0, 0.2]",None,0,1,1,1,,,,,0,0,0,0,0,118,118,118,,,,,,,,,,,None,None,0,594.6184083000408,None,594.6184083000408,595.6184179999982,595.6017528999946,596.6017770000035,0,1,594.6184083000408,None,5,m,22,r,MH,2022_Feb_25_1418,WASABI Nback,2020.2.10,59.984835829765245,
0,1,5,"[0, 0]",None,0,1,1,1,,,,,0,0,0,0,0,119,119,119,,,,,,,,,,,None,None,0,596.6184321999899,None,596.6184321999899,597.6184379000333,597.6017787000164,598.6017796000233,0,1,596.6184321999899,None,5,m,22,r,MH,2022_Feb_25_1418,WASABI Nback,2020.2.10,59.984835829765245,
