square,location,corrAns,trials_2.thisRepN,trials_2.thisTrialN,trials_2.thisN,trials_2.thisIndex,fixation_1.started,fixation_1.stopped,response_2.x,response_2.y,response_2.leftButton,grid_lines_2.started,grid_lines_2.stopped,target_square_2.started,target_square_2.stopped,fixation_3.started,fixation_3.stopped,response_2.click,response_2.corr,response_2.started,response_2.stopped,ScoreReportText.started,ScoreReportText.stopped,ScoreReportResponse.keys,ScoreReportResponse.started,ScoreReportResponse.stopped,BodySiteInstructionText.started,BodySiteImg.started,BodySiteImg.stopped,BodySiteInstructionRead.keys,BodySiteInstructionRead.rt,BodySiteInstructionRead.started,BodySiteInstructionRead.stopped,response_2.rt_left,response_2.rt_right,fixation_rest.started,fixation_rest.stopped,IntensityRating.response,IntensityRating.rt,IntensityRating.started,IntensityRating.stopped,subject number,gender,distractMap first- or second-half (1 or 2),session,handedness,scanner,bodysite1 temp,bodysite2 temp,date,psychopyVersion,expName,frameRate,body_site_order,
6,"[0.2, 0]",None,0,0,0,0,161.13109370000893,None,None,None,"[0, 0, 0]",162.147808299982,None,162.147808299982,163.14776809999603,163.13110400000005,164.13111339998432,"[0, 0, 0]",1,162.147808299982,None,,,,,,,,,,,,,,,,,,,,,5,m,3.1,29,r,MH IN,49,49,2022_Jul_15_1629,2020.2.10,distractmap,59.98814634280907,"['Right Face', 'Left Face', 'Right Face', 'Left Face']",
7,"[-0.2, -0.2]",None,0,1,1,1,,,None,None,"[0, 0, 0]",164.1477770000056,166.14782220000052,164.1477770000056,165.14779469999485,165.1311810000043,166.1311224999954,"[0, 0, 0]",1,164.1477770000056,166.14782220000052,,,,,,,,,,,,,,,,,,,,,5,m,3.1,29,r,MH IN,49,49,2022_Jul_15_1629,2020.2.10,distractmap,59.98814634280907,"['Right Face', 'Left Face', 'Right Face', 'Left Face']",
6,"[0.2, 0]",1,0,2,2,2,,,None,None,"[0, 0, 0]",166.16447950000293,168.1644782999938,166.16447950000293,167.16447759998846,167.14781960000983,168.14782670000568,"[0, 0, 0]",1,166.16447950000293,168.1644782999938,,,,,,,,,,,,,,,,,,,,,5,m,3.1,29,r,MH IN,49,49,2022_Jul_15_1629,2020.2.10,distractmap,59.98814634280907,"['Right Face', 'Left Face', 'Right Face', 'Left Face']",
2,"[0, 0.2]",0,0,3,3,3,,,None,None,"[0, 0, 0]",168.18113889999222,170.18115920000128,168.18113889999222,169.18116229999578,169.16448849998415,170.16449339999235,"[0, 0, 0]",1,168.18113889999222,170.18115920000128,,,,,,,,,,,,,,,,,,,,,5,m,3.1,29,r,MH IN,49,49,2022_Jul_15_1629,2020.2.10,distractmap,59.98814634280907,"['Right Face', 'Left Face', 'Right Face', 'Left Face']",
5,"[0, 0]",0,0,4,4,4,,,None,None,"[0, 0, 0]",170.19779659999767,172.19784770000842,170.19779659999767,171.19784939999226,171.18118670000695,172.18118869999307,"[0, 0, 0]",1,170.19779659999767,172.19784770000842,,,,,,,,,,,,,,,,,,,,,5,m,3.1,29,r,MH IN,49,49,2022_Jul_15_1629,2020.2.10,distractmap,59.98814634280907,"['Right Face', 'Left Face', 'Right Face', 'Left Face']",
4,"[-0.2, 0]",0,0,5,5,5,,,None,None,"[0, 0, 0]",172.21452049998334,174.21453009999823,172.21452049998334,173.2145276000083,173.19786310000927,174.1978700000036,"[0, 0, 0]",1,172.21452049998334,174.21453009999823,,,,,,,,,,,,,,,,,,,,,5,m,3.1,29,r,MH IN,49,49,2022_Jul_15_1629,2020.2.10,distractmap,59.98814634280907,"['Right Face', 'Left Face', 'Right Face', 'Left Face']",
4,"[-0.2, 0]",0,0,6,6,6,,,None,None,"[0, 0, 0]",174.2312077000097,176.23122200000216,174.2312077000097,175.23120750000817,175.21452849998605,176.21455489998334,"[0, 0, 0]",1,174.2312077000097,176.23122200000216,,,,,,,,,,,,,,,,,,,,,5,m,3.1,29,r,MH IN,49,49,2022_Jul_15_1629,2020.2.10,distractmap,59.98814634280907,"['Right Face', 'Left Face', 'Right Face', 'Left Face']",
7,"[-0.2, -0.2]",0,0,7,7,7,,,None,None,"[0, 0, 0]",176.2479011999967,178.24801179999486,176.2479011999967,177.24790759998723,177.2312208999938,178.23122799998964,"[0, 0, 0]",1,176.2479011999967,178.24801179999486,,,,,,,,,,,,,,,,,,,,,5,m,3.1,29,r,MH IN,49,49,2022_Jul_15_1629,2020.2.10,distractmap,59.98814634280907,"['Right Face', 'Left Face', 'Right Face', 'Left Face']",
4,"[-0.2, 0]",1,0,8,8,8,,,None,None,"[0, 0, 0]",178.26456069998676,180.26457679999294,178.26456069998676,179.26457239998854,179.24792789999628,180.2479219000088,"[0, 0, 0]",1,178.26456069998676,180.26457679999294,,,,,,,,,,,,,,,,,,,,,5,m,3.1,29,r,MH IN,49,49,2022_Jul_15_1629,2020.2.10,distractmap,59.98814634280907,"['Right Face', 'Left Face', 'Right Face', 'Left Face']",
3,"[0.2, 0.2]",0,0,9,9,9,,,None,None,"[0, 0, 0]",180.2812372999906,182.28126509999856,180.2812372999906,181.2812619000033,181.26448670000536,182.26459829998203,"[0, 0, 0]",1,180.2812372999906,182.28126509999856,,,,,,,,,,,,,,,,,,,,,5,m,3.1,29,r,MH IN,49,49,2022_Jul_15_1629,2020.2.10,distractmap,59.98814634280907,"['Right Face', 'Left Face', 'Right Face', 'Left Face']",
5,"[0, 0]",0,0,10,10,10,,,None,None,"[0, 0, 0]",182.29793790000258,184.29794699998456,182.29793790000258,183.29794650000986,183.2812835999939,184.28128659998765,"[0, 0, 0]",1,182.29793790000258,184.29794699998456,,,,,,,,,,,,,,,,,,,,,5,m,3.1,29,r,MH IN,49,49,2022_Jul_15_1629,2020.2.10,distractmap,59.98814634280907,"['Right Face', 'Left Face', 'Right Face', 'Left Face']",
3,"[0.2, 0.2]",1,0,11,11,11,,,None,None,"[0, 0, 0]",184.31460899999365,186.31462819999433,184.31460899999365,185.31463519998943,185.29796589998296,186.29795899998862,"[0, 0, 0]",1,184.31460899999365,186.31462819999433,,,,,,,,,,,,,,,,,,,,,5,m,3.1,29,r,MH IN,49,49,2022_Jul_15_1629,2020.2.10,distractmap,59.98814634280907,"['Right Face', 'Left Face', 'Right Face', 'Left Face']",
1,"[-0.2, 0.2]",0,0,12,12,12,,,None,None,"[0, 0, 0]",186.33129400000325,188.33122319998802,186.33129400000325,187.33131710000453,187.3146443000005,188.3146662999934,"[0, 0, 0]",1,186.33129400000325,188.33122319998802,,,,,,,,,,,,,,,,,,,,,5,m,3.1,29,r,MH IN,49,49,2022_Jul_15_1629,2020.2.10,distractmap,59.98814634280907,"['Right Face', 'Left Face', 'Right Face', 'Left Face']",
9,"[0.2, -0.2]",0,0,13,13,13,,,None,None,"[0, 0, 0]",188.34799300000304,190.34798570000567,188.34799300000304,189.34799350000685,189.3313354999991,190.33134319999954,"[0, 0, 0]",1,188.34799300000304,190.34798570000567,,,,,,,,,,,,,,,,,,,,,5,m,3.1,29,r,MH IN,49,49,2022_Jul_15_1629,2020.2.10,distractmap,59.98814634280907,"['Right Face', 'Left Face', 'Right Face', 'Left Face']",
9,"[0.2, -0.2]",0,0,14,14,14,,,None,None,"[0, 0, 0]",190.36468219998642,192.36468679999234,190.36468219998642,191.36467750000884,191.34800769999856,192.34801759998663,"[0, 0, 0]",1,190.36468219998642,192.36468679999234,,,,,,,,,,,,,,,,,,,,,5,m,3.1,29,r,MH IN,49,49,2022_Jul_15_1629,2020.2.10,distractmap,59.98814634280907,"['Right Face', 'Left Face', 'Right Face', 'Left Face']",
8,"[0, -0.2]",0,0,15,15,15,,,None,None,"[0, 0, 0]",192.3813639,194.3813770999841,192.3813639,193.38136860000668,193.36469839999336,194.364711000002,"[0, 0, 0]",1,192.3813639,194.3813770999841,,,,,,,,,,,,,,,,,,,,,5,m,3.1,29,r,MH IN,49,49,2022_Jul_15_1629,2020.2.10,distractmap,59.98814634280907,"['Right Face', 'Left Face', 'Right Face', 'Left Face']",
6,"[0.2, 0]",0,0,16,16,16,,,None,None,"[0, 0, 0]",194.3980423999892,196.39805059999344,194.3980423999892,195.398033400008,195.38138929998968,196.3814016999968,"[0, 0, 0]",1,194.3980423999892,196.39805059999344,,,,,,,,,,,,,,,,,,,,,5,m,3.1,29,r,MH IN,49,49,2022_Jul_15_1629,2020.2.10,distractmap,59.98814634280907,"['Right Face', 'Left Face', 'Right Face', 'Left Face']",
3,"[0.2, 0.2]",0,0,17,17,17,,,None,None,"[0, 0, 0]",196.41473950000363,198.41473940000287,196.41473950000363,197.41475399999763,197.39805759998853,198.39805940000224,"[0, 0, 0]",1,196.41473950000363,198.41473940000287,,,,,,,,,,,,,,,,,,,,,5,m,3.1,29,r,MH IN,49,49,2022_Jul_15_1629,2020.2.10,distractmap,59.98814634280907,"['Right Face', 'Left Face', 'Right Face', 'Left Face']",
6,"[0.2, 0]",1,0,18,18,18,,,None,None,"[0, 0, 0]",198.43141019999166,200.4314356999821,198.43141019999166,199.43142219999572,199.41475940000964,200.41477470000973,"[0, 0, 0]",0,198.43141019999166,200.4314356999821,,,,,,,,,,,,,,,,,,,,,5,m,3.1,29,r,MH IN,49,49,2022_Jul_15_1629,2020.2.10,distractmap,59.98814634280907,"['Right Face', 'Left Face', 'Right Face', 'Left Face']",
5,"[0, 0]",0,0,19,19,19,,,None,None,"[0, 0, 0]",200.44809049999458,202.4480870999978,200.44809049999458,201.44808850000845,201.43143890000647,202.43144549999852,"[0, 0, 0]",1,200.44809049999458,202.4480870999978,,,,,,,,,,,,,,,,,,,,,5,m,3.1,29,r,MH IN,49,49,2022_Jul_15_1629,2020.2.10,distractmap,59.98814634280907,"['Right Face', 'Left Face', 'Right Face', 'Left Face']",
7,"[-0.2, -0.2]",0,0,20,20,20,,,None,None,"[0, 0, 0]",202.4647779999941,204.46478609999758,202.4647779999941,203.4647862999991,203.44811179998214,204.4481020999956,"[0, 0, 0]",1,202.4647779999941,204.46478609999758,,,,,,,,,,,,,,,,,,,,,5,m,3.1,29,r,MH IN,49,49,2022_Jul_15_1629,2020.2.10,distractmap,59.98814634280907,"['Right Face', 'Left Face', 'Right Face', 'Left Face']",
5,"[0, 0]",1,0,21,21,21,,,None,None,"[0, 0, 0]",204.4814674000081,206.48147219998646,204.4814674000081,205.48147020000033,205.46478169999318,206.46479619998718,"[0, 0, 0]",1,204.4814674000081,206.48147219998646,,,,,,,,,,,,,,,,,,,,,5,m,3.1,29,r,MH IN,49,49,2022_Jul_15_1629,2020.2.10,distractmap,59.98814634280907,"['Right Face', 'Left Face', 'Right Face', 'Left Face']",
1,"[-0.2, 0.2]",0,0,22,22,22,,,None,None,"[0, 0, 0]",206.49812229999225,208.49814809998497,206.49812229999225,207.4981465000019,207.48148180000135,208.48148779998883,"[0, 0, 0]",1,206.49812229999225,208.49814809998497,,,,,,,,,,,,,,,,,,,,,5,m,3.1,29,r,MH IN,49,49,2022_Jul_15_1629,2020.2.10,distractmap,59.98814634280907,"['Right Face', 'Left Face', 'Right Face', 'Left Face']",
7,"[-0.2, -0.2]",0,0,23,23,23,,,None,None,"[0, 0, 0]",208.51482819998637,210.51484769998933,208.51482819998637,209.5148337999999,209.49821099999826,210.4981640999904,"[0, 0, 0]",1,208.51482819998637,210.51484769998933,,,,,,,,,,,,,,,,,,,,,5,m,3.1,29,r,MH IN,49,49,2022_Jul_15_1629,2020.2.10,distractmap,59.98814634280907,"['Right Face', 'Left Face', 'Right Face', 'Left Face']",
9,"[0.2, -0.2]",0,0,24,24,24,,,None,None,"[0, 0, 0]",210.53148989999318,212.5315200999903,210.53148989999318,211.5315117999853,211.51485179999145,212.51484809999238,"[0, 0, 0]",1,210.53148989999318,212.5315200999903,,,,,,,,,,,,,,,,,,,,,5,m,3.1,29,r,MH IN,49,49,2022_Jul_15_1629,2020.2.10,distractmap,59.98814634280907,"['Right Face', 'Left Face', 'Right Face', 'Left Face']",
3,"[0.2, 0.2]",0,0,25,25,25,,,None,None,"[0, 0, 0]",212.5481877999846,214.54818859999068,212.5481877999846,213.54813969999668,213.5315174999996,214.5315327999997,"[0, 0, 0]",1,212.5481877999846,214.54818859999068,,,,,,,,,,,,,,,,,,,,,5,m,3.1,29,r,MH IN,49,49,2022_Jul_15_1629,2020.2.10,distractmap,59.98814634280907,"['Right Face', 'Left Face', 'Right Face', 'Left Face']",
9,"[0.2, -0.2]",1,0,26,26,26,,,None,None,"[0, 0, 0]",214.56488449999597,216.56487939998624,214.56488449999597,215.56488550000358,215.5482084999967,216.5482081999944,"[0, 0, 0]",1,214.56488449999597,216.56487939998624,,,,,,,,,,,,,,,,,,,,,5,m,3.1,29,r,MH IN,49,49,2022_Jul_15_1629,2020.2.10,distractmap,59.98814634280907,"['Right Face', 'Left Face', 'Right Face', 'Left Face']",
6,"[0.2, 0]",0,0,27,27,27,,,None,None,"[0, 0, 0]",216.5815647999989,218.58156900000176,216.5815647999989,217.58154349998222,217.5648821000068,218.56490490000579,"[0, 0, 0]",1,216.5815647999989,218.58156900000176,,,,,,,,,,,,,,,,,,,,,5,m,3.1,29,r,MH IN,49,49,2022_Jul_15_1629,2020.2.10,distractmap,59.98814634280907,"['Right Face', 'Left Face', 'Right Face', 'Left Face']",
2,"[0, 0.2]",0,0,28,28,28,,,None,None,"[0, 0, 0]",218.5982274999842,220.59825479998835,218.5982274999842,219.598238400009,219.58157619999838,220.58158989998628,"[0, 0, 0]",1,218.5982274999842,220.59825479998835,,,,,,,,,,,,,,,,,,,,,5,m,3.1,29,r,MH IN,49,49,2022_Jul_15_1629,2020.2.10,distractmap,59.98814634280907,"['Right Face', 'Left Face', 'Right Face', 'Left Face']",
5,"[0, 0]",0,0,29,29,29,,,None,None,"[0, 0, 0]",220.61491979999118,222.61492920000455,220.61491979999118,221.61492849999922,221.59824990000925,222.59827369998675,"[0, 0, 0]",1,220.61491979999118,222.61492920000455,,,,,,,,,,,,,,,,,,,,,5,m,3.1,29,r,MH IN,49,49,2022_Jul_15_1629,2020.2.10,distractmap,59.98814634280907,"['Right Face', 'Left Face', 'Right Face', 'Left Face']",
,,,,,,,,,,,,,,,,,,,,,,222.63160200000857,None,space,222.63160200000857,None,,,,,,,,,,,,,,,,5,m,3.1,29,r,MH IN,49,49,2022_Jul_15_1629,2020.2.10,distractmap,59.98814634280907,"['Right Face', 'Left Face', 'Right Face', 'Left Face']",
3,"[0.2, 0.2]",None,0,0,0,0,352.7993494999828,None,None,None,"[0, 0, 0]",357.7993820999982,359.79939820000436,357.7993820999982,358.79940779999015,358.78275280000526,359.78278000000864,"[0, 0, 0]",1,357.7993820999982,359.79939820000436,,,,,,247.76538729999447,247.76538729999447,None,space,83.65746069999295,247.76538729999447,None,,,,,,,,,5,m,3.1,29,r,MH IN,49,49,2022_Jul_15_1629,2020.2.10,distractmap,59.98814634280907,"['Right Face', 'Left Face', 'Right Face', 'Left Face']",
3,"[0.2, 0.2]",None,0,1,1,1,,,None,None,"[0, 0, 0]",359.81608170000254,361.8160995999933,359.81608170000254,360.8160830999841,360.79941839998355,361.79941809998127,"[0, 0, 0]",1,359.81608170000254,361.8160995999933,,,,,,,,,,,,,,,,,,,,,5,m,3.1,29,r,MH IN,49,49,2022_Jul_15_1629,2020.2.10,distractmap,59.98814634280907,"['Right Face', 'Left Face', 'Right Face', 'Left Face']",
5,"[0, 0]",0,0,2,2,2,,,None,None,"[0, 0, 0]",361.83277909999015,363.8327212999866,361.83277909999015,362.83278189998236,362.8161082000006,363.81610440000077,"[0, 0, 0]",1,361.83277909999015,363.8327212999866,,,,,,,,,,,,,,,,,,,,,5,m,3.1,29,r,MH IN,49,49,2022_Jul_15_1629,2020.2.10,distractmap,59.98814634280907,"['Right Face', 'Left Face', 'Right Face', 'Left Face']",
1,"[-0.2, 0.2]",0,0,3,3,3,,,None,None,"[0, 0, 0]",363.8494265000045,365.8494425000099,363.8494265000045,364.849455699994,364.832797399984,365.8327951999963,"[0, 0, 0]",1,363.8494265000045,365.8494425000099,,,,,,,,,,,,,,,,,,,,,5,m,3.1,29,r,MH IN,49,49,2022_Jul_15_1629,2020.2.10,distractmap,59.98814634280907,"['Right Face', 'Left Face', 'Right Face', 'Left Face']",
5,"[0, 0]",1,0,4,4,4,,,None,None,"[0, 0, 0]",365.86611989999074,367.8661318999948,365.86611989999074,366.8661269999866,366.84946999998647,367.8494709999941,"[0, 0, 0]",1,365.86611989999074,367.8661318999948,,,,,,,,,,,,,,,,,,,,,5,m,3.1,29,r,MH IN,49,49,2022_Jul_15_1629,2020.2.10,distractmap,59.98814634280907,"['Right Face', 'Left Face', 'Right Face', 'Left Face']",
8,"[0, -0.2]",0,0,5,5,5,,,None,None,"[0, 0, 1]",367.8828179999837,369.8828344999929,367.8828179999837,368.88282040000195,368.8661584999936,369.8661590999982,"[0, 0, 1]",1,367.8828179999837,369.8828344999929,,,,,,,,,,,,,0.0,0.5668856999836862,,,,,,,5,m,3.1,29,r,MH IN,49,49,2022_Jul_15_1629,2020.2.10,distractmap,59.98814634280907,"['Right Face', 'Left Face', 'Right Face', 'Left Face']",
5,"[0, 0]",1,0,6,6,6,,,None,None,"[0, 0, 0]",369.89948239998193,371.8995207999833,369.89948239998193,370.89949559999513,370.882844799984,371.88284549998934,"[0, 0, 0]",1,369.89948239998193,371.8995207999833,,,,,,,,,,,,,,,,,,,,,5,m,3.1,29,r,MH IN,49,49,2022_Jul_15_1629,2020.2.10,distractmap,59.98814634280907,"['Right Face', 'Left Face', 'Right Face', 'Left Face']",
7,"[-0.2, -0.2]",0,0,7,7,7,,,None,None,"[0, 0, 0]",371.9161724000005,373.9161923000065,371.9161724000005,372.91619379998883,372.89952760000597,373.8995396999817,"[0, 0, 0]",0,371.9161724000005,373.9161923000065,,,,,,,,,,,,,,,,,,,,,5,m,3.1,29,r,MH IN,49,49,2022_Jul_15_1629,2020.2.10,distractmap,59.98814634280907,"['Right Face', 'Left Face', 'Right Face', 'Left Face']",
5,"[0, 0]",1,0,8,8,8,,,None,None,"[0, 0, 0]",373.9328508999897,375.9328800000076,373.9328508999897,374.9328783999954,374.91620669999975,375.9161998000054,"[0, 0, 0]",1,373.9328508999897,375.9328800000076,,,,,,,,,,,,,,,,,,,,,5,m,3.1,29,r,MH IN,49,49,2022_Jul_15_1629,2020.2.10,distractmap,59.98814634280907,"['Right Face', 'Left Face', 'Right Face', 'Left Face']",
7,"[-0.2, -0.2]",1,0,9,9,9,,,None,None,"[0, 0, 0]",375.9495796999836,377.9495437000005,375.9495796999836,376.949557999993,376.93288159999065,377.9329034999828,"[0, 0, 0]",0,375.9495796999836,377.9495437000005,,,,,,,,,,,,,,,,,,,,,5,m,3.1,29,r,MH IN,49,49,2022_Jul_15_1629,2020.2.10,distractmap,59.98814634280907,"['Right Face', 'Left Face', 'Right Face', 'Left Face']",
,,,,,,,,,,,,,,,,,,,,,,377.9828859999834,None,,,,,,,,,,,,,,,,,,,5,m,3.1,29,r,MH IN,49,49,2022_Jul_15_1629,2020.2.10,distractmap,59.98814634280907,"['Right Face', 'Left Face', 'Right Face', 'Left Face']",
6,"[0.2, 0]",None,0,0,0,0,389.9996669999964,None,None,None,"[0, 0, 0]",392.99968089998583,394.999696999992,392.99968089998583,393.9996974999958,393.9996974999958,394.999696999992,"[0, 0, 0]",1,392.99968089998583,394.999696999992,,,,,,,,,,,,,,,,,,,,,5,m,3.1,29,r,MH IN,49,49,2022_Jul_15_1629,2020.2.10,distractmap,59.98814634280907,"['Right Face', 'Left Face', 'Right Face', 'Left Face']",
1,"[-0.2, 0.2]",None,0,1,1,1,,,None,None,"[0, 0, 0]",395.01636169999256,397.0163787000056,395.01636169999256,396.01637930001016,395.999716899998,396.99972120000166,"[0, 0, 0]",1,395.01636169999256,397.0163787000056,,,,,,,,,,,,,,,,,,,,,5,m,3.1,29,r,MH IN,49,49,2022_Jul_15_1629,2020.2.10,distractmap,59.98814634280907,"['Right Face', 'Left Face', 'Right Face', 'Left Face']",
6,"[0.2, 0]",1,0,2,2,2,,,None,None,"[0, 0, 0]",397.03305959998397,399.03306919999886,397.03305959998397,398.03307289999793,398.01641159999417,399.01639669999713,"[0, 0, 0]",1,397.03305959998397,399.03306919999886,,,,,,,,,,,,,,,,,,,,,5,m,3.1,29,r,MH IN,49,49,2022_Jul_15_1629,2020.2.10,distractmap,59.98814634280907,"['Right Face', 'Left Face', 'Right Face', 'Left Face']",
4,"[-0.2, 0]",0,0,3,3,3,,,None,None,"[0, 0, 0]",399.04974729998503,401.04976689998875,399.04974729998503,400.0497775999829,400.03307979999227,401.0330774000031,"[0, 0, 0]",1,399.04974729998503,401.04976689998875,,,,,,,,,,,,,,,,,,,,,5,m,3.1,29,r,MH IN,49,49,2022_Jul_15_1629,2020.2.10,distractmap,59.98814634280907,"['Right Face', 'Left Face', 'Right Face', 'Left Face']",
1,"[-0.2, 0.2]",0,0,4,4,4,,,None,None,"[0, 0, 0]",401.0664230999828,403.0664409000019,401.0664230999828,402.0664190000098,402.049781299982,403.0496615000011,"[0, 0, 0]",1,401.0664230999828,403.0664409000019,,,,,,,,,,,,,,,,,,,,,5,m,3.1,29,r,MH IN,49,49,2022_Jul_15_1629,2020.2.10,distractmap,59.98814634280907,"['Right Face', 'Left Face', 'Right Face', 'Left Face']",
8,"[0, -0.2]",0,0,5,5,5,,,None,None,"[0, 0, 0]",403.0830991999828,405.0831242999993,403.0830991999828,404.08311259999755,404.06645479999133,405.0664419999812,"[0, 0, 0]",1,403.0830991999828,405.0831242999993,,,,,,,,,,,,,,,,,,,,,5,m,3.1,29,r,MH IN,49,49,2022_Jul_15_1629,2020.2.10,distractmap,59.98814634280907,"['Right Face', 'Left Face', 'Right Face', 'Left Face']",
1,"[-0.2, 0.2]",1,0,6,6,6,,,None,None,"[0, 0, 0]",405.0996779999987,407.09982090000995,405.0996779999987,406.09980560000986,406.0831244000001,407.08315630001016,"[0, 0, 0]",1,405.0996779999987,407.09982090000995,,,,,,,,,,,,,,,,,,,,,5,m,3.1,29,r,MH IN,49,49,2022_Jul_15_1629,2020.2.10,distractmap,59.98814634280907,"['Right Face', 'Left Face', 'Right Face', 'Left Face']",
8,"[0, -0.2]",1,0,7,7,7,,,None,None,"[0, 0, 0]",407.1164620000054,409.1164792999916,407.1164620000054,408.1164889000065,408.09980490000453,409.09983950000606,"[0, 0, 0]",1,407.1164620000054,409.1164792999916,,,,,,,,,,,,,,,,,,,,,5,m,3.1,29,r,MH IN,49,49,2022_Jul_15_1629,2020.2.10,distractmap,59.98814634280907,"['Right Face', 'Left Face', 'Right Face', 'Left Face']",
1,"[-0.2, 0.2]",1,0,8,8,8,,,None,None,"[0, 0, 0]",409.1331455000036,411.133173899987,409.1331455000036,410.13317280000774,410.11648930000956,411.1165085999819,"[0, 0, 0]",1,409.1331455000036,411.133173899987,,,,,,,,,,,,,,,,,,,,,5,m,3.1,29,r,MH IN,49,49,2022_Jul_15_1629,2020.2.10,distractmap,59.98814634280907,"['Right Face', 'Left Face', 'Right Face', 'Left Face']",
6,"[0.2, 0]",0,0,9,9,9,,,None,None,"[0, 0, 0]",411.1498340999824,413.14986010000575,411.1498340999824,412.1498561000044,412.133172700007,413.1331845000095,"[0, 0, 0]",1,411.1498340999824,413.14986010000575,,,,,,,,,,,,,,,,,,,,,5,m,3.1,29,r,MH IN,49,49,2022_Jul_15_1629,2020.2.10,distractmap,59.98814634280907,"['Right Face', 'Left Face', 'Right Face', 'Left Face']",
,,,,,,,,,,,,,,,,,,,,,,413.18317730000126,None,,,,,,,,,,,,,,,,,,,5,m,3.1,29,r,MH IN,49,49,2022_Jul_15_1629,2020.2.10,distractmap,59.98814634280907,"['Right Face', 'Left Face', 'Right Face', 'Left Face']",
7,"[-0.2, -0.2]",None,0,0,0,0,421.1999356999877,None,None,None,"[0, 0, 0]",428.1999913000036,430.19999639998423,428.1999913000036,429.2000021999993,429.1833149000013,430.18333959998563,"[0, 0, 0]",1,428.1999913000036,430.19999639998423,,,,,,,,,,,,,,,,,,,,,5,m,3.1,29,r,MH IN,49,49,2022_Jul_15_1629,2020.2.10,distractmap,59.98814634280907,"['Right Face', 'Left Face', 'Right Face', 'Left Face']",
7,"[-0.2, -0.2]",None,0,1,1,1,,,None,None,"[0, 0, 0]",430.216674299998,432.2166734999919,430.216674299998,431.21666380000534,431.2000875000085,432.2000274999882,"[0, 0, 0]",1,430.216674299998,432.2166734999919,,,,,,,,,,,,,,,,,,,,,5,m,3.1,29,r,MH IN,49,49,2022_Jul_15_1629,2020.2.10,distractmap,59.98814634280907,"['Right Face', 'Left Face', 'Right Face', 'Left Face']",
7,"[-0.2, -0.2]",1,0,2,2,2,,,None,None,"[0, 0, 0]",432.2333551000047,434.2333667000057,432.2333551000047,433.2333692999964,433.2167002999922,434.2167047999974,"[0, 0, 0]",1,432.2333551000047,434.2333667000057,,,,,,,,,,,,,,,,,,,,,5,m,3.1,29,r,MH IN,49,49,2022_Jul_15_1629,2020.2.10,distractmap,59.98814634280907,"['Right Face', 'Left Face', 'Right Face', 'Left Face']",
5,"[0, 0]",0,0,3,3,3,,,None,None,"[0, 0, 0]",434.2500167999824,436.2500504000054,434.2500167999824,435.2500575000013,435.2333707000071,436.2333790999837,"[0, 0, 0]",1,434.2500167999824,436.2500504000054,,,,,,,,,,,,,,,,,,,,,5,m,3.1,29,r,MH IN,49,49,2022_Jul_15_1629,2020.2.10,distractmap,59.98814634280907,"['Right Face', 'Left Face', 'Right Face', 'Left Face']",
1,"[-0.2, 0.2]",0,0,4,4,4,,,None,None,"[0, 0, 0]",436.26671100000385,438.2667242999887,436.26671100000385,437.26673609999125,437.25005080000847,438.250055099983,"[0, 0, 0]",1,436.26671100000385,438.2667242999887,,,,,,,,,,,,,,,,,,,,,5,m,3.1,29,r,MH IN,49,49,2022_Jul_15_1629,2020.2.10,distractmap,59.98814634280907,"['Right Face', 'Left Face', 'Right Face', 'Left Face']",
6,"[0.2, 0]",0,0,5,5,5,,,None,None,"[0, 0, 0]",438.28340610000305,440.28341639999417,438.28340610000305,439.2834199999925,439.2667439999932,440.26676020000014,"[0, 0, 0]",1,438.28340610000305,440.28341639999417,,,,,,,,,,,,,,,,,,,,,5,m,3.1,29,r,MH IN,49,49,2022_Jul_15_1629,2020.2.10,distractmap,59.98814634280907,"['Right Face', 'Left Face', 'Right Face', 'Left Face']",
1,"[-0.2, 0.2]",1,0,6,6,6,,,None,None,"[0, 0, 0]",440.30008980000275,442.3001052000036,440.30008980000275,441.3000947999826,441.283431799995,442.2834257000068,"[0, 0, 0]",1,440.30008980000275,442.3001052000036,,,,,,,,,,,,,,,,,,,,,5,m,3.1,29,r,MH IN,49,49,2022_Jul_15_1629,2020.2.10,distractmap,59.98814634280907,"['Right Face', 'Left Face', 'Right Face', 'Left Face']",
7,"[-0.2, -0.2]",0,0,7,7,7,,,None,None,"[0, 0, 1]",442.3167742000078,444.31678459999966,442.3167742000078,443.3167824999837,443.3000999999931,444.3001265999919,"[0, 0, 1]",1,442.3167742000078,444.31678459999966,,,,,,,,,,,,,0.0,0.5002251999976579,,,,,,,5,m,3.1,29,r,MH IN,49,49,2022_Jul_15_1629,2020.2.10,distractmap,59.98814634280907,"['Right Face', 'Left Face', 'Right Face', 'Left Face']",
6,"[0.2, 0]",0,0,8,8,8,,,None,None,"[0, 0, 0]",444.3334455000004,446.33346009999514,444.3334455000004,445.3334630999889,445.31679499999154,446.31680739999865,"[0, 0, 0]",1,444.3334455000004,446.33346009999514,,,,,,,,,,,,,,,,,,,,,5,m,3.1,29,r,MH IN,49,49,2022_Jul_15_1629,2020.2.10,distractmap,59.98814634280907,"['Right Face', 'Left Face', 'Right Face', 'Left Face']",
7,"[-0.2, -0.2]",1,0,9,9,9,,,None,None,"[0, 0, 0]",446.3501304000092,448.350142899988,446.3501304000092,447.3501329999999,447.33347039998625,448.3334969999851,"[0, 0, 0]",1,446.3501304000092,448.350142899988,,,,,,,,,,,,,,,,,,,,,5,m,3.1,29,r,MH IN,49,49,2022_Jul_15_1629,2020.2.10,distractmap,59.98814634280907,"['Right Face', 'Left Face', 'Right Face', 'Left Face']",
,,,,,,,,,,,,,,,,,,,,,,448.36673310000333,None,,,,,,,,,,,,,,,,,,,5,m,3.1,29,r,MH IN,49,49,2022_Jul_15_1629,2020.2.10,distractmap,59.98814634280907,"['Right Face', 'Left Face', 'Right Face', 'Left Face']",
,,,,,,,478.3837307000067,None,,,,,,,,,,,,,,,,,,,,,,,,,,,,458.38357060001,None,19.62962962962963,427.58401070002583,,,5,m,3.1,29,r,MH IN,49,49,2022_Jul_15_1629,2020.2.10,distractmap,59.98814634280907,"['Right Face', 'Left Face', 'Right Face', 'Left Face']",
,,,,,,,513.4006952999916,None,,,,,,,,,,,,,,,,,,,,,,,,,,,,493.4005207000009,None,16.913580246913583,461.8823136999854,0.014682999986689538,5.012237299990375,5,m,3.1,29,r,MH IN,49,49,2022_Jul_15_1629,2020.2.10,distractmap,59.98814634280907,"['Right Face', 'Left Face', 'Right Face', 'Left Face']",
,,,,,,,548.417664699984,None,,,,,,,,,,,,,,,,,,,,,,,,,,,,528.4174963999831,None,13.209876543209878,495.25133490000735,0.01666680001653731,5.016124599991599,5,m,3.1,29,r,MH IN,49,49,2022_Jul_15_1629,2020.2.10,distractmap,59.98814634280907,"['Right Face', 'Left Face', 'Right Face', 'Left Face']",
4,"[-0.2, 0]",None,0,0,0,0,561.6677758999867,None,None,None,"[0, 0, 0]",568.4511657999828,570.4511794999999,568.4511657999828,569.4511861999927,569.4345143999963,570.4345198000083,"[0, 0, 0]",1,568.4511657999828,570.4511794999999,,,,,,,,,,,,,,,,,,,0.01461159999598749,5.012093199999072,5,m,3.1,29,r,MH IN,49,49,2022_Jul_15_1629,2020.2.10,distractmap,59.98814634280907,"['Right Face', 'Left Face', 'Right Face', 'Left Face']",
5,"[0, 0]",None,0,1,1,1,,,None,None,"[0, 0, 0]",570.4678682000085,572.4678887999908,570.4678682000085,571.467862599995,571.4511876000033,572.4512077999825,"[0, 0, 0]",1,570.4678682000085,572.4678887999908,,,,,,,,,,,,,,,,,,,,,5,m,3.1,29,r,MH IN,49,49,2022_Jul_15_1629,2020.2.10,distractmap,59.98814634280907,"['Right Face', 'Left Face', 'Right Face', 'Left Face']",
6,"[0.2, 0]",0,0,2,2,2,,,None,None,"[0, 0, 0]",572.484541199985,574.4845450999856,572.484541199985,573.4845457999909,573.4678948000073,574.4679015000002,"[0, 0, 0]",1,572.484541199985,574.4845450999856,,,,,,,,,,,,,,,,,,,,,5,m,3.1,29,r,MH IN,49,49,2022_Jul_15_1629,2020.2.10,distractmap,59.98814634280907,"['Right Face', 'Left Face', 'Right Face', 'Left Face']",
1,"[-0.2, 0.2]",0,0,3,3,3,,,None,None,"[0, 0, 0]",574.5012044000032,576.5012357000087,574.5012044000032,575.5012418999977,575.4845587000018,576.4845708000066,"[0, 0, 0]",1,574.5012044000032,576.5012357000087,,,,,,,,,,,,,,,,,,,,,5,m,3.1,29,r,MH IN,49,49,2022_Jul_15_1629,2020.2.10,distractmap,59.98814634280907,"['Right Face', 'Left Face', 'Right Face', 'Left Face']",
6,"[0.2, 0]",1,0,4,4,4,,,None,None,"[0, 0, 0]",576.5515336999961,None,576.5515336999961,577.5512583999953,577.5345886999858,None,"[0, 0, 0]",1,576.5515336999961,None,,,,,,,,,,,,,,,,,,,,,5,m,3.1,29,r,MH IN,49,49,2022_Jul_15_1629,2020.2.10,distractmap,59.98814634280907,"['Right Face', 'Left Face', 'Right Face', 'Left Face']",
1,"[-0.2, 0.2]",1,0,5,5,5,,,None,None,"[0, 0, 0]",578.5345958999824,580.5346004999883,578.5345958999824,579.5345894999919,579.5179365999938,580.517949000001,"[0, 0, 0]",1,578.5345958999824,580.5346004999883,,,,,,,,,,,,,,,,,,,,,5,m,3.1,29,r,MH IN,49,49,2022_Jul_15_1629,2020.2.10,distractmap,59.98814634280907,"['Right Face', 'Left Face', 'Right Face', 'Left Face']",
2,"[0, 0.2]",0,0,6,6,6,,,None,None,"[0, 0, 0]",580.5512689999887,582.5512847999926,580.5512689999887,581.5513037999917,581.5346186000097,582.5346374000073,"[0, 0, 0]",1,580.5512689999887,582.5512847999926,,,,,,,,,,,,,,,,,,,,,5,m,3.1,29,r,MH IN,49,49,2022_Jul_15_1629,2020.2.10,distractmap,59.98814634280907,"['Right Face', 'Left Face', 'Right Face', 'Left Face']",
3,"[0.2, 0.2]",0,0,7,7,7,,,None,None,"[0, 0, 0]",582.5679808999994,584.5679735000012,582.5679808999994,583.5679757999897,583.5513055000047,584.5513107999868,"[0, 0, 0]",1,582.5679808999994,584.5679735000012,,,,,,,,,,,,,,,,,,,,,5,m,3.1,29,r,MH IN,49,49,2022_Jul_15_1629,2020.2.10,distractmap,59.98814634280907,"['Right Face', 'Left Face', 'Right Face', 'Left Face']",
6,"[0.2, 0]",0,0,8,8,8,,,None,None,"[0, 0, 0]",584.5846553999872,586.584643899987,584.5846553999872,585.5846588999848,585.5679910999897,586.5680043000029,"[0, 0, 0]",1,584.5846553999872,586.584643899987,,,,,,,,,,,,,,,,,,,,,5,m,3.1,29,r,MH IN,49,49,2022_Jul_15_1629,2020.2.10,distractmap,59.98814634280907,"['Right Face', 'Left Face', 'Right Face', 'Left Face']",
3,"[0.2, 0.2]",1,0,9,9,9,,,None,None,"[0, 0, 0]",586.6013206999924,588.6013385999831,586.6013206999924,587.601342399983,587.5846747999894,588.584677899984,"[0, 0, 0]",1,586.6013206999924,588.6013385999831,,,,,,,,,,,,,,,,,,,,,5,m,3.1,29,r,MH IN,49,49,2022_Jul_15_1629,2020.2.10,distractmap,59.98814634280907,"['Right Face', 'Left Face', 'Right Face', 'Left Face']",
,,,,,,,,,,,,,,,,,,,,,,588.6180066000088,None,,,,,,,,,,,,,,,,,,,5,m,3.1,29,r,MH IN,49,49,2022_Jul_15_1629,2020.2.10,distractmap,59.98814634280907,"['Right Face', 'Left Face', 'Right Face', 'Left Face']",
,,,,,,,,,,,,,,,,,,,,,,,,,,,,,,,,,,,,,,13.271604938271606,536.6028805000242,,,5,m,3.1,29,r,MH IN,49,49,2022_Jul_15_1629,2020.2.10,distractmap,59.98814634280907,"['Right Face', 'Left Face', 'Right Face', 'Left Face']",
2,"[0, 0.2]",None,0,0,0,0,603.8681425999966,None,None,None,"[0, 0, 0]",608.651509599993,610.651518300001,608.651509599993,609.6515187000041,609.6348742999835,610.6348741999827,"[0, 0, 0]",1,608.651509599993,610.651518300001,,,,,,,,,,,,,,,,,,,0.013413999986369163,5.009680799994385,5,m,3.1,29,r,MH IN,49,49,2022_Jul_15_1629,2020.2.10,distractmap,59.98814634280907,"['Right Face', 'Left Face', 'Right Face', 'Left Face']",
5,"[0, 0]",None,0,1,1,1,,,None,None,"[0, 0, 0]",610.6681985000032,612.6682121999911,610.6681985000032,611.6681955999811,611.6515000000072,612.6515609000053,"[0, 0, 0]",1,610.6681985000032,612.6682121999911,,,,,,,,,,,,,,,,,,,,,5,m,3.1,29,r,MH IN,49,49,2022_Jul_15_1629,2020.2.10,distractmap,59.98814634280907,"['Right Face', 'Left Face', 'Right Face', 'Left Face']",
6,"[0.2, 0]",0,0,2,2,2,,,None,None,"[0, 0, 0]",612.6848829000082,614.6849209000065,612.6848829000082,613.6849120999977,613.6683151999896,614.6682272999897,"[0, 0, 0]",1,612.6848829000082,614.6849209000065,,,,,,,,,,,,,,,,,,,,,5,m,3.1,29,r,MH IN,49,49,2022_Jul_15_1629,2020.2.10,distractmap,59.98814634280907,"['Right Face', 'Left Face', 'Right Face', 'Left Face']",
1,"[-0.2, 0.2]",0,0,3,3,3,,,None,None,"[0, 0, 0]",614.7015636999859,616.7015943999868,614.7015636999859,615.7015661000041,615.6849191999936,616.6849287000077,"[0, 0, 0]",1,614.7015636999859,616.7015943999868,,,,,,,,,,,,,,,,,,,,,5,m,3.1,29,r,MH IN,49,49,2022_Jul_15_1629,2020.2.10,distractmap,59.98814634280907,"['Right Face', 'Left Face', 'Right Face', 'Left Face']",
6,"[0.2, 0]",1,0,4,4,4,,,None,None,"[0, 0, 0]",616.7513176999928,None,616.7513176999928,617.7515841999848,617.7349431999901,None,"[0, 0, 0]",1,616.7513176999928,None,,,,,,,,,,,,,,,,,,,,,5,m,3.1,29,r,MH IN,49,49,2022_Jul_15_1629,2020.2.10,distractmap,59.98814634280907,"['Right Face', 'Left Face', 'Right Face', 'Left Face']",
6,"[0.2, 0]",0,0,5,5,5,,,None,None,"[0, 0, 0]",618.7349507999897,620.734953200008,618.7349507999897,619.734952800005,619.7182799000002,620.7182859999884,"[0, 0, 0]",1,618.7349507999897,620.734953200008,,,,,,,,,,,,,,,,,,,,,5,m,3.1,29,r,MH IN,49,49,2022_Jul_15_1629,2020.2.10,distractmap,59.98814634280907,"['Right Face', 'Left Face', 'Right Face', 'Left Face']",
9,"[0.2, -0.2]",0,0,6,6,6,,,None,None,"[0, 0, 0]",620.7516112999874,622.7516283000004,620.7516112999874,621.7516208000015,621.7349774999893,622.7349783999962,"[0, 0, 0]",1,620.7516112999874,622.7516283000004,,,,,,,,,,,,,,,,,,,,,5,m,3.1,29,r,MH IN,49,49,2022_Jul_15_1629,2020.2.10,distractmap,59.98814634280907,"['Right Face', 'Left Face', 'Right Face', 'Left Face']",
6,"[0.2, 0]",1,0,7,7,7,,,None,None,"[0, 0, 0]",622.7683050000051,624.7683144999901,622.7683050000051,623.7683102999872,623.7515949000081,624.7516444000066,"[0, 0, 0]",1,622.7683050000051,624.7683144999901,,,,,,,,,,,,,,,,,,,,,5,m,3.1,29,r,MH IN,49,49,2022_Jul_15_1629,2020.2.10,distractmap,59.98814634280907,"['Right Face', 'Left Face', 'Right Face', 'Left Face']",
3,"[0.2, 0.2]",0,0,8,8,8,,,None,None,"[0, 0, 0]",624.784986099985,626.7850109999999,624.784986099985,625.7850073000009,625.7683316000039,626.7683483999863,"[0, 0, 0]",1,624.784986099985,626.7850109999999,,,,,,,,,,,,,,,,,,,,,5,m,3.1,29,r,MH IN,49,49,2022_Jul_15_1629,2020.2.10,distractmap,59.98814634280907,"['Right Face', 'Left Face', 'Right Face', 'Left Face']",
9,"[0.2, -0.2]",0,0,9,9,9,,,None,None,"[0, 0, 0]",626.8016681000008,628.8016785999935,626.8016681000008,627.8016840000055,627.7850112000015,628.7850131999876,"[0, 0, 0]",1,626.8016681000008,628.8016785999935,,,,,,,,,,,,,,,,,,,,,5,m,3.1,29,r,MH IN,49,49,2022_Jul_15_1629,2020.2.10,distractmap,59.98814634280907,"['Right Face', 'Left Face', 'Right Face', 'Left Face']",
,,,,,,,,,,,,,,,,,,,,,,628.81827660001,None,,,,,,,,,,,,,,,,,,,5,m,3.1,29,r,MH IN,49,49,2022_Jul_15_1629,2020.2.10,distractmap,59.98814634280907,"['Right Face', 'Left Face', 'Right Face', 'Left Face']",
,,,,,,,,,,,,,,,,,,,,,,,,,,,,,,,,,,,,,,17.160493827160494,575.219475800026,,,5,m,3.1,29,r,MH IN,49,49,2022_Jul_15_1629,2020.2.10,distractmap,59.98814634280907,"['Right Face', 'Left Face', 'Right Face', 'Left Face']",
3,"[0.2, 0.2]",None,0,0,0,0,642.0517859999964,None,None,None,"[0, 0, 0]",648.8517384000006,None,648.8517384000006,649.8518878000032,649.8352414999972,650.8352226999996,"[0, 0, 0]",1,648.8517384000006,None,,,,,,,,,,,,,,,,,,,0.013821499975165352,5.010476999974344,5,m,3.1,29,r,MH IN,49,49,2022_Jul_15_1629,2020.2.10,distractmap,59.98814634280907,"['Right Face', 'Left Face', 'Right Face', 'Left Face']",
9,"[0.2, -0.2]",None,0,1,1,1,,,None,None,"[0, 0, 0]",650.851880400005,652.8518990000011,650.851880400005,651.8518897999893,651.8352221999958,652.8352171999868,"[0, 0, 0]",1,650.851880400005,652.8518990000011,,,,,,,,,,,,,,,,,,,,,5,m,3.1,29,r,MH IN,49,49,2022_Jul_15_1629,2020.2.10,distractmap,59.98814634280907,"['Right Face', 'Left Face', 'Right Face', 'Left Face']",
3,"[0.2, 0.2]",1,0,2,2,2,,,None,None,"[0, 0, 0]",652.8685534999822,654.8685662999924,652.8685534999822,653.8686484000064,653.8519035000063,654.8519241999893,"[0, 0, 0]",1,652.8685534999822,654.8685662999924,,,,,,,,,,,,,,,,,,,,,5,m,3.1,29,r,MH IN,49,49,2022_Jul_15_1629,2020.2.10,distractmap,59.98814634280907,"['Right Face', 'Left Face', 'Right Face', 'Left Face']",
7,"[-0.2, -0.2]",0,0,3,3,3,,,None,None,"[0, 0, 0]",654.8852457999892,656.8852507999982,654.8852457999892,655.8852597000077,655.8686068000097,656.8685990000085,"[0, 0, 0]",1,654.8852457999892,656.8852507999982,,,,,,,,,,,,,,,,,,,,,5,m,3.1,29,r,MH IN,49,49,2022_Jul_15_1629,2020.2.10,distractmap,59.98814634280907,"['Right Face', 'Left Face', 'Right Face', 'Left Face']",
8,"[0, -0.2]",0,0,4,4,4,,,None,None,"[0, 0, 0]",656.9185539000027,None,656.9185539000027,657.9185308000015,657.901944399986,658.9019594999845,"[0, 0, 0]",1,656.9185539000027,None,,,,,,,,,,,,,,,,,,,,,5,m,3.1,29,r,MH IN,49,49,2022_Jul_15_1629,2020.2.10,distractmap,59.98814634280907,"['Right Face', 'Left Face', 'Right Face', 'Left Face']",
4,"[-0.2, 0]",0,0,5,5,5,,,None,None,"[0, 0, 0]",658.9186224000005,660.918655299989,658.9186224000005,659.9186195000075,659.9019599999883,660.9019681999926,"[0, 0, 0]",1,658.9186224000005,660.918655299989,,,,,,,,,,,,,,,,,,,,,5,m,3.1,29,r,MH IN,49,49,2022_Jul_15_1629,2020.2.10,distractmap,59.98814634280907,"['Right Face', 'Left Face', 'Right Face', 'Left Face']",
4,"[-0.2, 0]",0,0,6,6,6,,,None,None,"[0, 0, 0]",660.9352810999844,662.935314900009,660.9352810999844,661.9353068000055,661.9186803000048,662.9186695999815,"[0, 0, 0]",1,660.9352810999844,662.935314900009,,,,,,,,,,,,,,,,,,,,,5,m,3.1,29,r,MH IN,49,49,2022_Jul_15_1629,2020.2.10,distractmap,59.98814634280907,"['Right Face', 'Left Face', 'Right Face', 'Left Face']",
1,"[-0.2, 0.2]",0,0,7,7,7,,,None,None,"[0, 0, 0]",662.9519835999818,664.9519978000026,662.9519835999818,663.951985599997,663.9353291000007,664.9353205999942,"[0, 0, 0]",1,662.9519835999818,664.9519978000026,,,,,,,,,,,,,,,,,,,,,5,m,3.1,29,r,MH IN,49,49,2022_Jul_15_1629,2020.2.10,distractmap,59.98814634280907,"['Right Face', 'Left Face', 'Right Face', 'Left Face']",
4,"[-0.2, 0]",1,0,8,8,8,,,None,None,"[0, 0, 0]",664.9686637999839,666.968667899986,664.9686637999839,665.9686736000003,665.9520126999996,666.9520060000068,"[0, 0, 0]",1,664.9686637999839,666.968667899986,,,,,,,,,,,,,,,,,,,,,5,m,3.1,29,r,MH IN,49,49,2022_Jul_15_1629,2020.2.10,distractmap,59.98814634280907,"['Right Face', 'Left Face', 'Right Face', 'Left Face']",
8,"[0, -0.2]",0,0,9,9,9,,,None,None,"[0, 0, 0]",666.985386299988,668.985354000004,666.985386299988,667.9852608999936,667.9686924999987,668.9686907999858,"[0, 0, 0]",1,666.985386299988,668.985354000004,,,,,,,,,,,,,,,,,,,,,5,m,3.1,29,r,MH IN,49,49,2022_Jul_15_1629,2020.2.10,distractmap,59.98814634280907,"['Right Face', 'Left Face', 'Right Face', 'Left Face']",
,,,,,,,,,,,,,,,,,,,,,,669.002064500004,None,,,,,,,,,,,,,,,,,,,5,m,3.1,29,r,MH IN,49,49,2022_Jul_15_1629,2020.2.10,distractmap,59.98814634280907,"['Right Face', 'Left Face', 'Right Face', 'Left Face']",
,,,,,,,,,,,,,,,,,,,,,,,,,,,,,,,,,,,,,,16.296296296296298,616.7037964999909,,,5,m,3.1,29,r,MH IN,49,49,2022_Jul_15_1629,2020.2.10,distractmap,59.98814634280907,"['Right Face', 'Left Face', 'Right Face', 'Left Face']",
,,,,,,,794.019776400004,None,,,,,,,,,,,,,,,,,,,,,,,,,,,,774.0196104999923,None,13.33333333333333,740.6534294000012,0.01318490001722239,5.009144200012088,5,m,3.1,29,r,MH IN,49,49,2022_Jul_15_1629,2020.2.10,distractmap,59.98814634280907,"['Right Face', 'Left Face', 'Right Face', 'Left Face']",
,,,,,,,829.0367937999836,None,,,,,,,,,,,,,,,,,,,,,,,,,,,,809.0365832000098,None,0.0,777.7366191000037,0.014612500002840534,5.011991299979854,5,m,3.1,29,r,MH IN,49,49,2022_Jul_15_1629,2020.2.10,distractmap,59.98814634280907,"['Right Face', 'Left Face', 'Right Face', 'Left Face']",
,,,,,,,864.0537221999839,None,,,,,,,,,,,,,,,,,,,,,,,,,,,,844.0535400999943,None,11.481481481481486,813.9520300000149,0.015097299998160452,5.013086299994029,5,m,3.1,29,r,MH IN,49,49,2022_Jul_15_1629,2020.2.10,distractmap,59.98814634280907,"['Right Face', 'Left Face', 'Right Face', 'Left Face']",
2,"[0, 0.2]",None,0,0,0,0,881.3541011000052,None,None,None,"[0, 0, 0]",884.070559099986,886.0705711999908,884.070559099986,885.0705632999889,885.0539064999903,886.0539093999832,"[0, 0, 0]",1,884.070559099986,886.0705711999908,,,,,,,,,,,,,,,,,,,0.016652899998007342,5.016168900008779,5,m,3.1,29,r,MH IN,49,49,2022_Jul_15_1629,2020.2.10,distractmap,59.98814634280907,"['Right Face', 'Left Face', 'Right Face', 'Left Face']",
5,"[0, 0]",None,0,1,1,1,,,None,None,"[0, 0, 0]",886.0872409000003,888.0872481999977,886.0872409000003,887.0872502999846,887.0705737000098,888.0705891999824,"[0, 0, 0]",1,886.0872409000003,888.0872481999977,,,,,,,,,,,,,,,,,,,,,5,m,3.1,29,r,MH IN,49,49,2022_Jul_15_1629,2020.2.10,distractmap,59.98814634280907,"['Right Face', 'Left Face', 'Right Face', 'Left Face']",
3,"[0.2, 0.2]",0,0,2,2,2,,,None,None,"[0, 0, 0]",888.1039181000087,890.1039290000044,888.1039181000087,889.1039351999934,889.0872653999832,890.0872788999986,"[0, 0, 0]",1,888.1039181000087,890.1039290000044,,,,,,,,,,,,,,,,,,,,,5,m,3.1,29,r,MH IN,49,49,2022_Jul_15_1629,2020.2.10,distractmap,59.98814634280907,"['Right Face', 'Left Face', 'Right Face', 'Left Face']",
5,"[0, 0]",1,0,3,3,3,,,None,None,"[0, 0, 0]",890.1206013000046,892.1206213999831,890.1206013000046,891.1206109999912,891.1039490999829,892.1039678000088,"[0, 0, 0]",1,890.1206013000046,892.1206213999831,,,,,,,,,,,,,,,,,,,,,5,m,3.1,29,r,MH IN,49,49,2022_Jul_15_1629,2020.2.10,distractmap,59.98814634280907,"['Right Face', 'Left Face', 'Right Face', 'Left Face']",
2,"[0, 0.2]",0,0,4,4,4,,,None,None,"[0, 0, 0]",892.1709225999948,None,892.1709225999948,893.170626200008,893.1539585999853,None,"[0, 0, 0]",1,892.1709225999948,None,,,,,,,,,,,,,,,,,,,,,5,m,3.1,29,r,MH IN,49,49,2022_Jul_15_1629,2020.2.10,distractmap,59.98814634280907,"['Right Face', 'Left Face', 'Right Face', 'Left Face']",
8,"[0, -0.2]",0,0,5,5,5,,,None,None,"[0, 0, 0]",894.1539829999965,896.1540007999865,894.1539829999965,895.1540202999895,895.1373234000057,896.1373280999833,"[0, 0, 0]",1,894.1539829999965,896.1540007999865,,,,,,,,,,,,,,,,,,,,,5,m,3.1,29,r,MH IN,49,49,2022_Jul_15_1629,2020.2.10,distractmap,59.98814634280907,"['Right Face', 'Left Face', 'Right Face', 'Left Face']",
4,"[-0.2, 0]",0,0,6,6,6,,,None,None,"[0, 0, 0]",896.1706608999812,898.1706711000006,896.1706608999812,897.1706699999922,897.154010600003,898.1540109000052,"[0, 0, 0]",1,896.1706608999812,898.1706711000006,,,,,,,,,,,,,,,,,,,,,5,m,3.1,29,r,MH IN,49,49,2022_Jul_15_1629,2020.2.10,distractmap,59.98814634280907,"['Right Face', 'Left Face', 'Right Face', 'Left Face']",
8,"[0, -0.2]",1,0,7,7,7,,,None,None,"[0, 0, 0]",898.187356999988,900.1873488999845,898.187356999988,899.1873627000023,899.1706799000094,900.1707067000098,"[0, 0, 0]",1,898.187356999988,900.1873488999845,,,,,,,,,,,,,,,,,,,,,5,m,3.1,29,r,MH IN,49,49,2022_Jul_15_1629,2020.2.10,distractmap,59.98814634280907,"['Right Face', 'Left Face', 'Right Face', 'Left Face']",
7,"[-0.2, -0.2]",0,0,8,8,8,,,None,None,"[0, 0, 0]",900.2040398999816,902.2040386000008,900.2040398999816,901.2040428000037,901.1873822000052,902.1873817000014,"[0, 0, 0]",1,900.2040398999816,902.2040386000008,,,,,,,,,,,,,,,,,,,,,5,m,3.1,29,r,MH IN,49,49,2022_Jul_15_1629,2020.2.10,distractmap,59.98814634280907,"['Right Face', 'Left Face', 'Right Face', 'Left Face']",
8,"[0, -0.2]",1,0,9,9,9,,,None,None,"[0, 0, 0]",902.2207164999854,904.2207200999837,902.2207164999854,903.2207217999967,903.2040669999842,904.2040704999818,"[0, 0, 0]",1,902.2207164999854,904.2207200999837,,,,,,,,,,,,,,,,,,,,,5,m,3.1,29,r,MH IN,49,49,2022_Jul_15_1629,2020.2.10,distractmap,59.98814634280907,"['Right Face', 'Left Face', 'Right Face', 'Left Face']",
,,,,,,,,,,,,,,,,,,,,,,904.2874025999918,None,,,,,,,,,,,,,,,,,,,5,m,3.1,29,r,MH IN,49,49,2022_Jul_15_1629,2020.2.10,distractmap,59.98814634280907,"['Right Face', 'Left Face', 'Right Face', 'Left Face']",
,,,,,,,,,,,,,,,,,,,,,,,,,,,,,,,,,,,,,,16.358024691358022,851.3055355000251,,,5,m,3.1,29,r,MH IN,49,49,2022_Jul_15_1629,2020.2.10,distractmap,59.98814634280907,"['Right Face', 'Left Face', 'Right Face', 'Left Face']",
2,"[0, 0.2]",None,0,0,0,0,919.5377533999854,None,None,None,"[0, 0, 0]",924.3209132000047,926.3209302999894,924.3209132000047,925.3209187999892,925.3042631999997,926.3042518000002,"[0, 0, 0]",1,924.3209132000047,926.3209302999894,,,,,,,,,,,,,,,,,,,0.013468299963278696,5.009804599976633,5,m,3.1,29,r,MH IN,49,49,2022_Jul_15_1629,2020.2.10,distractmap,59.98814634280907,"['Right Face', 'Left Face', 'Right Face', 'Left Face']",
2,"[0, 0.2]",None,0,1,1,1,,,None,None,"[0, 0, 0]",926.3375857000065,928.3376042000018,926.3375857000065,927.337606999994,927.3209409999836,928.3209500999947,"[0, 0, 0]",1,926.3375857000065,928.3376042000018,,,,,,,,,,,,,,,,,,,,,5,m,3.1,29,r,MH IN,49,49,2022_Jul_15_1629,2020.2.10,distractmap,59.98814634280907,"['Right Face', 'Left Face', 'Right Face', 'Left Face']",
2,"[0, 0.2]",1,0,2,2,2,,,None,None,"[0, 0, 0]",928.3542698000092,930.3542914999998,928.3542698000092,929.3542813999811,929.3376279000076,930.3376221999933,"[0, 0, 0]",1,928.3542698000092,930.3542914999998,,,,,,,,,,,,,,,,,,,,,5,m,3.1,29,r,MH IN,49,49,2022_Jul_15_1629,2020.2.10,distractmap,59.98814634280907,"['Right Face', 'Left Face', 'Right Face', 'Left Face']",
8,"[0, -0.2]",0,0,3,3,3,,,None,None,"[0, 0, 0]",930.3709498999815,932.3709871000028,930.3709498999815,931.3709657999862,931.3542404999898,932.3543044999824,"[0, 0, 0]",1,930.3709498999815,932.3709871000028,,,,,,,,,,,,,,,,,,,,,5,m,3.1,29,r,MH IN,49,49,2022_Jul_15_1629,2020.2.10,distractmap,59.98814634280907,"['Right Face', 'Left Face', 'Right Face', 'Left Face']",
2,"[0, 0.2]",1,0,4,4,4,,,None,None,"[0, 0, 0]",932.4379482000077,None,932.4379482000077,933.4376542999817,933.4209834999929,None,"[0, 0, 0]",1,932.4379482000077,None,,,,,,,,,,,,,,,,,,,,,5,m,3.1,29,r,MH IN,49,49,2022_Jul_15_1629,2020.2.10,distractmap,59.98814634280907,"['Right Face', 'Left Face', 'Right Face', 'Left Face']",
5,"[0, 0]",0,0,5,5,5,,,None,None,"[0, 0, 0]",934.4043205000053,936.4043384999968,934.4043205000053,935.4043302999926,935.3876689999888,936.3876834999828,"[0, 0, 0]",1,934.4043205000053,936.4043384999968,,,,,,,,,,,,,,,,,,,,,5,m,3.1,29,r,MH IN,49,49,2022_Jul_15_1629,2020.2.10,distractmap,59.98814634280907,"['Right Face', 'Left Face', 'Right Face', 'Left Face']",
1,"[-0.2, 0.2]",0,0,6,6,6,,,None,None,"[0, 0, 0]",936.4209461999999,938.4210269000032,936.4209461999999,937.4210472999839,937.4043598999851,938.4043632999819,"[0, 0, 0]",1,936.4209461999999,938.4210269000032,,,,,,,,,,,,,,,,,,,,,5,m,3.1,29,r,MH IN,49,49,2022_Jul_15_1629,2020.2.10,distractmap,59.98814634280907,"['Right Face', 'Left Face', 'Right Face', 'Left Face']",
1,"[-0.2, 0.2]",0,0,7,7,7,,,None,None,"[0, 0, 0]",938.437688999984,940.4377212999971,938.437688999984,939.4379711000074,939.4213679000095,940.4210575000034,"[0, 0, 0]",1,938.437688999984,940.4377212999971,,,,,,,,,,,,,,,,,,,,,5,m,3.1,29,r,MH IN,49,49,2022_Jul_15_1629,2020.2.10,distractmap,59.98814634280907,"['Right Face', 'Left Face', 'Right Face', 'Left Face']",
6,"[0.2, 0]",0,0,8,8,8,,,None,None,"[0, 0, 0]",940.4543747999996,942.4543943000026,940.4543747999996,941.4543969999941,941.4377156999835,942.4377268000098,"[0, 0, 0]",1,940.4543747999996,942.4543943000026,,,,,,,,,,,,,,,,,,,,,5,m,3.1,29,r,MH IN,49,49,2022_Jul_15_1629,2020.2.10,distractmap,59.98814634280907,"['Right Face', 'Left Face', 'Right Face', 'Left Face']",
1,"[-0.2, 0.2]",1,0,9,9,9,,,None,None,"[0, 0, 0]",942.4710747000063,944.4710835999867,942.4710747000063,943.4710864000081,943.4544104000088,944.4544299999834,"[0, 0, 0]",1,942.4710747000063,944.4710835999867,,,,,,,,,,,,,,,,,,,,,5,m,3.1,29,r,MH IN,49,49,2022_Jul_15_1629,2020.2.10,distractmap,59.98814634280907,"['Right Face', 'Left Face', 'Right Face', 'Left Face']",
,,,,,,,,,,,,,,,,,,,,,,944.4877108999935,None,,,,,,,,,,,,,,,,,,,5,m,3.1,29,r,MH IN,49,49,2022_Jul_15_1629,2020.2.10,distractmap,59.98814634280907,"['Right Face', 'Left Face', 'Right Face', 'Left Face']",
,,,,,,,,,,,,,,,,,,,,,,,,,,,,,,,,,,,,,,16.666666666666664,890.5396536999906,,,5,m,3.1,29,r,MH IN,49,49,2022_Jul_15_1629,2020.2.10,distractmap,59.98814634280907,"['Right Face', 'Left Face', 'Right Face', 'Left Face']",
3,"[0.2, 0.2]",None,0,0,0,0,957.7374676000036,None,None,None,"[0, 0, 0]",964.5212744000019,966.521270199999,964.5212744000019,965.5212648999877,965.5045938999974,966.5046007999917,"[0, 0, 0]",1,964.5212744000019,966.521270199999,,,,,,,,,,,,,,,,,,,0.013028700021095574,5.008852600003593,5,m,3.1,29,r,MH IN,49,49,2022_Jul_15_1629,2020.2.10,distractmap,59.98814634280907,"['Right Face', 'Left Face', 'Right Face', 'Left Face']",
3,"[0.2, 0.2]",None,0,1,1,1,,,None,None,"[0, 0, 0]",966.5379492999928,968.5379506000027,966.5379492999928,967.5379433000053,967.5212658999953,968.5212981000077,"[0, 0, 0]",1,966.5379492999928,968.5379506000027,,,,,,,,,,,,,,,,,,,,,5,m,3.1,29,r,MH IN,49,49,2022_Jul_15_1629,2020.2.10,distractmap,59.98814634280907,"['Right Face', 'Left Face', 'Right Face', 'Left Face']",
5,"[0, 0]",0,0,2,2,2,,,None,None,"[0, 0, 0]",968.5546207999869,970.5546878000023,968.5546207999869,969.5546305000025,969.5379773000022,970.5379750999855,"[0, 0, 0]",1,968.5546207999869,970.5546878000023,,,,,,,,,,,,,,,,,,,,,5,m,3.1,29,r,MH IN,49,49,2022_Jul_15_1629,2020.2.10,distractmap,59.98814634280907,"['Right Face', 'Left Face', 'Right Face', 'Left Face']",
1,"[-0.2, 0.2]",0,0,3,3,3,,,None,None,"[0, 0, 0]",970.5713103000016,972.5713180000021,970.5713103000016,971.5713268999825,971.5546488999971,972.5546576000052,"[0, 0, 0]",1,970.5713103000016,972.5713180000021,,,,,,,,,,,,,,,,,,,,,5,m,3.1,29,r,MH IN,49,49,2022_Jul_15_1629,2020.2.10,distractmap,59.98814634280907,"['Right Face', 'Left Face', 'Right Face', 'Left Face']",
5,"[0, 0]",1,0,4,4,4,,,None,None,"[0, 0, 0]",972.6216246999975,None,972.6216246999975,973.6213435999816,973.6046653999947,None,"[0, 0, 0]",1,972.6216246999975,None,,,,,,,,,,,,,,,,,,,,,5,m,3.1,29,r,MH IN,49,49,2022_Jul_15_1629,2020.2.10,distractmap,59.98814634280907,"['Right Face', 'Left Face', 'Right Face', 'Left Face']",
8,"[0, -0.2]",0,0,5,5,5,,,None,None,"[0, 0, 0]",974.6046827999817,976.6047144999902,974.6046827999817,975.6046757999866,975.5880361000018,976.5880330000073,"[0, 0, 0]",1,974.6046827999817,976.6047144999902,,,,,,,,,,,,,,,,,,,,,5,m,3.1,29,r,MH IN,49,49,2022_Jul_15_1629,2020.2.10,distractmap,59.98814634280907,"['Right Face', 'Left Face', 'Right Face', 'Left Face']",
5,"[0, 0]",1,0,6,6,6,,,None,None,"[0, 0, 0]",976.6213745999848,978.6213825999876,976.6213745999848,977.6213652000006,977.6047132000094,978.6047122000018,"[0, 0, 0]",1,976.6213745999848,978.6213825999876,,,,,,,,,,,,,,,,,,,,,5,m,3.1,29,r,MH IN,49,49,2022_Jul_15_1629,2020.2.10,distractmap,59.98814634280907,"['Right Face', 'Left Face', 'Right Face', 'Left Face']",
7,"[-0.2, -0.2]",0,0,7,7,7,,,None,None,"[0, 0, 0]",978.6380572000053,980.6380774999852,978.6380572000053,979.6380553999916,979.621393599984,980.6214016999875,"[0, 0, 0]",1,978.6380572000053,980.6380774999852,,,,,,,,,,,,,,,,,,,,,5,m,3.1,29,r,MH IN,49,49,2022_Jul_15_1629,2020.2.10,distractmap,59.98814634280907,"['Right Face', 'Left Face', 'Right Face', 'Left Face']",
5,"[0, 0]",1,0,8,8,8,,,None,None,"[0, 0, 0]",980.6547319999954,982.6547407000035,980.6547319999954,981.6547333000053,981.6380965999851,982.6379908999952,"[0, 0, 0]",1,980.6547319999954,982.6547407000035,,,,,,,,,,,,,,,,,,,,,5,m,3.1,29,r,MH IN,49,49,2022_Jul_15_1629,2020.2.10,distractmap,59.98814634280907,"['Right Face', 'Left Face', 'Right Face', 'Left Face']",
7,"[-0.2, -0.2]",1,0,9,9,9,,,None,None,"[0, 0, 0]",982.6714258999855,984.6714313999983,982.6714258999855,983.6714326000074,983.6547675000038,984.6547633000009,"[0, 0, 0]",0,982.6714258999855,984.6714313999983,,,,,,,,,,,,,,,,,,,,,5,m,3.1,29,r,MH IN,49,49,2022_Jul_15_1629,2020.2.10,distractmap,59.98814634280907,"['Right Face', 'Left Face', 'Right Face', 'Left Face']",
,,,,,,,,,,,,,,,,,,,,,,984.6881916999992,None,,,,,,,,,,,,,,,,,,,5,m,3.1,29,r,MH IN,49,49,2022_Jul_15_1629,2020.2.10,distractmap,59.98814634280907,"['Right Face', 'Left Face', 'Right Face', 'Left Face']",
,,,,,,,,,,,,,,,,,,,,,,,,,,,,,,,,,,,,,,15.185185185185182,935.0234268000058,,,5,m,3.1,29,r,MH IN,49,49,2022_Jul_15_1629,2020.2.10,distractmap,59.98814634280907,"['Right Face', 'Left Face', 'Right Face', 'Left Face']",
6,"[0.2, 0]",None,0,0,0,0,1185.773190100008,None,None,None,"[0, 0, 0]",1190.773243100004,1192.7732661000045,1190.773243100004,1191.773247300007,1191.756576499989,1192.7565802999889,"[0, 0, 0]",1,1190.773243100004,1192.7732661000045,,,,,,1043.42194130001,1043.42194130001,None,space,122.40123089999543,1043.42194130001,None,,,,,,,0.012981299980310723,5.008874199993443,5,m,3.1,29,r,MH IN,49,49,2022_Jul_15_1629,2020.2.10,distractmap,59.98814634280907,"['Right Face', 'Left Face', 'Right Face', 'Left Face']",
1,"[-0.2, 0.2]",None,0,1,1,1,,,None,None,"[0, 0, 0]",1192.7899200999818,1194.789945800003,1192.7899200999818,1193.789962699986,1193.7732780000078,1194.7732880999974,"[0, 0, 0]",1,1192.7899200999818,1194.789945800003,,,,,,,,,,,,,,,,,,,,,5,m,3.1,29,r,MH IN,49,49,2022_Jul_15_1629,2020.2.10,distractmap,59.98814634280907,"['Right Face', 'Left Face', 'Right Face', 'Left Face']",
6,"[0.2, 0]",1,0,2,2,2,,,None,None,"[0, 0, 0]",1194.806592399982,1196.8066255000012,1194.806592399982,1195.8066228999814,1195.7899633999914,1196.7899696000095,"[0, 0, 0]",1,1194.806592399982,1196.8066255000012,,,,,,,,,,,,,,,,,,,,,5,m,3.1,29,r,MH IN,49,49,2022_Jul_15_1629,2020.2.10,distractmap,59.98814634280907,"['Right Face', 'Left Face', 'Right Face', 'Left Face']",
4,"[-0.2, 0]",0,0,3,3,3,,,None,None,"[0, 0, 0]",1196.8232994999853,1198.8233207000012,1196.8232994999853,1197.8233233999927,1197.8066226000083,1198.806632199994,"[0, 0, 0]",1,1196.8232994999853,1198.8233207000012,,,,,,,,,,,,,,,,,,,,,5,m,3.1,29,r,MH IN,49,49,2022_Jul_15_1629,2020.2.10,distractmap,59.98814634280907,"['Right Face', 'Left Face', 'Right Face', 'Left Face']",
1,"[-0.2, 0.2]",0,0,4,4,4,,,None,None,"[0, 0, 0]",1198.8399805999943,1200.8400367999857,1198.8399805999943,1199.8399968000012,1199.8233312999946,1200.8233214000065,"[0, 0, 0]",1,1198.8399805999943,1200.8400367999857,,,,,,,,,,,,,,,,,,,,,5,m,3.1,29,r,MH IN,49,49,2022_Jul_15_1629,2020.2.10,distractmap,59.98814634280907,"['Right Face', 'Left Face', 'Right Face', 'Left Face']",
8,"[0, -0.2]",0,0,5,5,5,,,None,None,"[0, 0, 0]",1200.8566547000082,1202.8566668999847,1200.8566547000082,1201.8566620000056,1201.8400077999977,1202.8400245000084,"[0, 0, 0]",1,1200.8566547000082,1202.8566668999847,,,,,,,,,,,,,,,,,,,,,5,m,3.1,29,r,MH IN,49,49,2022_Jul_15_1629,2020.2.10,distractmap,59.98814634280907,"['Right Face', 'Left Face', 'Right Face', 'Left Face']",
1,"[-0.2, 0.2]",1,0,6,6,6,,,None,None,"[0, 0, 0]",1202.8733586999879,1204.873367799999,1202.8733586999879,1203.8733550999896,1203.8566786999872,1204.856687099993,"[0, 0, 0]",1,1202.8733586999879,1204.873367799999,,,,,,,,,,,,,,,,,,,,,5,m,3.1,29,r,MH IN,49,49,2022_Jul_15_1629,2020.2.10,distractmap,59.98814634280907,"['Right Face', 'Left Face', 'Right Face', 'Left Face']",
8,"[0, -0.2]",1,0,7,7,7,,,None,None,"[0, 0, 0]",1204.890041000006,1206.8900376000092,1204.890041000006,1205.8900358999963,1205.8733838000044,1206.8733852999867,"[0, 0, 0]",1,1204.890041000006,1206.8900376000092,,,,,,,,,,,,,,,,,,,,,5,m,3.1,29,r,MH IN,49,49,2022_Jul_15_1629,2020.2.10,distractmap,59.98814634280907,"['Right Face', 'Left Face', 'Right Face', 'Left Face']",
1,"[-0.2, 0.2]",1,0,8,8,8,,,None,None,"[0, 0, 0]",1206.9067259999865,1208.9067208000051,1206.9067259999865,1207.906712099997,1207.8900565000076,1208.8899611000088,"[0, 0, 0]",1,1206.9067259999865,1208.9067208000051,,,,,,,,,,,,,,,,,,,,,5,m,3.1,29,r,MH IN,49,49,2022_Jul_15_1629,2020.2.10,distractmap,59.98814634280907,"['Right Face', 'Left Face', 'Right Face', 'Left Face']",
6,"[0.2, 0]",0,0,9,9,9,,,None,None,"[0, 0, 0]",1208.9234004000027,1210.9234139999899,1208.9234004000027,1209.9234026999911,1209.9067467999994,1210.9067357000022,"[0, 0, 0]",1,1208.9234004000027,1210.9234139999899,,,,,,,,,,,,,,,,,,,,,5,m,3.1,29,r,MH IN,49,49,2022_Jul_15_1629,2020.2.10,distractmap,59.98814634280907,"['Right Face', 'Left Face', 'Right Face', 'Left Face']",
,,,,,,,,,,,,,,,,,,,,,,1210.9399903999874,None,,,,,,,,,,,,,,,,,,,5,m,3.1,29,r,MH IN,49,49,2022_Jul_15_1629,2020.2.10,distractmap,59.98814634280907,"['Right Face', 'Left Face', 'Right Face', 'Left Face']",
7,"[-0.2, -0.2]",None,0,0,0,0,1220.9568350999907,None,None,None,"[0, 0, 0]",1225.9568741999974,1227.9568970999971,1225.9568741999974,1226.9568795000087,1226.9402303999814,1227.9402408000024,"[0, 0, 0]",1,1225.9568741999974,1227.9568970999971,,,,,,,,,,,,,,,,,,,,,5,m,3.1,29,r,MH IN,49,49,2022_Jul_15_1629,2020.2.10,distractmap,59.98814634280907,"['Right Face', 'Left Face', 'Right Face', 'Left Face']",
7,"[-0.2, -0.2]",None,0,1,1,1,,,None,None,"[0, 0, 0]",1227.9735672999814,1229.9735793999862,1227.9735672999814,1228.9735724999919,1228.9569057000044,1229.956908799999,"[0, 0, 0]",1,1227.9735672999814,1229.9735793999862,,,,,,,,,,,,,,,,,,,,,5,m,3.1,29,r,MH IN,49,49,2022_Jul_15_1629,2020.2.10,distractmap,59.98814634280907,"['Right Face', 'Left Face', 'Right Face', 'Left Face']",
7,"[-0.2, -0.2]",1,0,2,2,2,,,None,None,"[0, 0, 0]",1229.9902647999988,1231.9902699000086,1229.9902647999988,1230.9902586000098,1230.9734940000053,1231.9735866999836,"[0, 0, 0]",1,1229.9902647999988,1231.9902699000086,,,,,,,,,,,,,,,,,,,,,5,m,3.1,29,r,MH IN,49,49,2022_Jul_15_1629,2020.2.10,distractmap,59.98814634280907,"['Right Face', 'Left Face', 'Right Face', 'Left Face']",
5,"[0, 0]",0,0,3,3,3,,,None,None,"[0, 0, 0]",1232.0069294999994,1234.006942499982,1232.0069294999994,1233.006945000001,1232.9902938999876,1233.990286699991,"[0, 0, 0]",1,1232.0069294999994,1234.006942499982,,,,,,,,,,,,,,,,,,,,,5,m,3.1,29,r,MH IN,49,49,2022_Jul_15_1629,2020.2.10,distractmap,59.98814634280907,"['Right Face', 'Left Face', 'Right Face', 'Left Face']",
1,"[-0.2, 0.2]",0,0,4,4,4,,,None,None,"[0, 0, 0]",1234.0236071999825,1236.0236299999815,1234.0236071999825,1235.0235955999815,1235.0069609000057,1236.006957799982,"[0, 0, 0]",1,1234.0236071999825,1236.0236299999815,,,,,,,,,,,,,,,,,,,,,5,m,3.1,29,r,MH IN,49,49,2022_Jul_15_1629,2020.2.10,distractmap,59.98814634280907,"['Right Face', 'Left Face', 'Right Face', 'Left Face']",
6,"[0.2, 0]",0,0,5,5,5,,,None,None,"[0, 0, 0]",1236.0397822000086,1238.0403777000029,1236.0397822000086,1237.040316300001,1237.0236346999882,1238.0236429999932,"[0, 0, 0]",1,1236.0397822000086,1238.0403777000029,,,,,,,,,,,,,,,,,,,,,5,m,3.1,29,r,MH IN,49,49,2022_Jul_15_1629,2020.2.10,distractmap,59.98814634280907,"['Right Face', 'Left Face', 'Right Face', 'Left Face']",
1,"[-0.2, 0.2]",1,0,6,6,6,,,None,None,"[0, 0, 0]",1238.057041699998,1240.0569963000016,1238.057041699998,1239.0570069999958,1239.040361899999,1240.0403559999831,"[0, 0, 0]",1,1238.057041699998,1240.0569963000016,,,,,,,,,,,,,,,,,,,,,5,m,3.1,29,r,MH IN,49,49,2022_Jul_15_1629,2020.2.10,distractmap,59.98814634280907,"['Right Face', 'Left Face', 'Right Face', 'Left Face']",
7,"[-0.2, -0.2]",0,0,7,7,7,,,None,None,"[0, 0, 0]",1240.0736935999885,1242.0736835999996,1240.0736935999885,1241.0736700999842,1241.0570080000034,1242.057012300007,"[0, 0, 0]",1,1240.0736935999885,1242.0736835999996,,,,,,,,,,,,,,,,,,,,,5,m,3.1,29,r,MH IN,49,49,2022_Jul_15_1629,2020.2.10,distractmap,59.98814634280907,"['Right Face', 'Left Face', 'Right Face', 'Left Face']",
6,"[0.2, 0]",0,0,8,8,8,,,None,None,"[0, 0, 0]",1242.0903634999995,1244.0902537000075,1242.0903634999995,1243.090377399989,1243.0736948999984,1244.0737063999986,"[0, 0, 0]",1,1242.0903634999995,1244.0902537000075,,,,,,,,,,,,,,,,,,,,,5,m,3.1,29,r,MH IN,49,49,2022_Jul_15_1629,2020.2.10,distractmap,59.98814634280907,"['Right Face', 'Left Face', 'Right Face', 'Left Face']",
7,"[-0.2, -0.2]",1,0,9,9,9,,,None,None,"[0, 0, 0]",1244.1070408000087,1246.1070486999815,1244.1070408000087,1245.1070416999864,1245.0903845999856,1246.0903824999987,"[0, 0, 0]",1,1244.1070408000087,1246.1070486999815,,,,,,,,,,,,,,,,,,,,,5,m,3.1,29,r,MH IN,49,49,2022_Jul_15_1629,2020.2.10,distractmap,59.98814634280907,"['Right Face', 'Left Face', 'Right Face', 'Left Face']",
,,,,,,,,,,,,,,,,,,,,,,1246.1237609999953,None,,,,,,,,,,,,,,,,,,,5,m,3.1,29,r,MH IN,49,49,2022_Jul_15_1629,2020.2.10,distractmap,59.98814634280907,"['Right Face', 'Left Face', 'Right Face', 'Left Face']",
4,"[-0.2, 0]",None,0,0,0,0,1254.1404621999827,None,None,None,"[0, 0, 0]",1261.1405293999997,None,1261.1405293999997,1262.140533800004,1262.123861,1263.1239080000087,"[0, 0, 0]",1,1261.1405293999997,None,,,,,,,,,,,,,,,,,,,,,5,m,3.1,29,r,MH IN,49,49,2022_Jul_15_1629,2020.2.10,distractmap,59.98814634280907,"['Right Face', 'Left Face', 'Right Face', 'Left Face']",
5,"[0, 0]",None,0,1,1,1,,,None,None,"[0, 0, 0]",1263.1405400999938,1265.140561200009,1263.1405400999938,1264.140557000006,1264.1238852000097,1265.1238807000045,"[0, 0, 0]",1,1263.1405400999938,1265.140561200009,,,,,,,,,,,,,,,,,,,,,5,m,3.1,29,r,MH IN,49,49,2022_Jul_15_1629,2020.2.10,distractmap,59.98814634280907,"['Right Face', 'Left Face', 'Right Face', 'Left Face']",
6,"[0.2, 0]",0,0,2,2,2,,,None,None,"[0, 0, 0]",1265.157236900006,1267.1572401000012,1265.157236900006,1266.1572315999947,1266.1405870000017,1267.1405787999975,"[0, 0, 0]",1,1265.157236900006,1267.1572401000012,,,,,,,,,,,,,,,,,,,,,5,m,3.1,29,r,MH IN,49,49,2022_Jul_15_1629,2020.2.10,distractmap,59.98814634280907,"['Right Face', 'Left Face', 'Right Face', 'Left Face']",
1,"[-0.2, 0.2]",0,0,3,3,3,,,None,None,"[0, 0, 0]",1267.173947800009,1269.1739326999814,1267.173947800009,1268.173913000006,1268.1572411000088,1269.1571426999872,"[0, 0, 0]",1,1267.173947800009,1269.1739326999814,,,,,,,,,,,,,,,,,,,,,5,m,3.1,29,r,MH IN,49,49,2022_Jul_15_1629,2020.2.10,distractmap,59.98814634280907,"['Right Face', 'Left Face', 'Right Face', 'Left Face']",
6,"[0.2, 0]",1,0,4,4,4,,,None,None,"[0, 0, 0]",1269.1905886000022,1271.1906216999923,1269.1905886000022,1270.190613099985,1270.1739388999995,1271.1739896000072,"[0, 0, 0]",1,1269.1905886000022,1271.1906216999923,,,,,,,,,,,,,,,,,,,,,5,m,3.1,29,r,MH IN,49,49,2022_Jul_15_1629,2020.2.10,distractmap,59.98814634280907,"['Right Face', 'Left Face', 'Right Face', 'Left Face']",
1,"[-0.2, 0.2]",1,0,5,5,5,,,None,None,"[0, 0, 0]",1271.2072894999874,1273.2073734999867,1271.2072894999874,1272.2072815999854,1272.190623500006,1273.1906241999823,"[0, 0, 0]",1,1271.2072894999874,1273.2073734999867,,,,,,,,,,,,,,,,,,,,,5,m,3.1,29,r,MH IN,49,49,2022_Jul_15_1629,2020.2.10,distractmap,59.98814634280907,"['Right Face', 'Left Face', 'Right Face', 'Left Face']",
2,"[0, 0.2]",0,0,6,6,6,,,None,None,"[0, 0, 0]",1273.2239528000064,1275.2239666999958,1273.2239528000064,1274.2239699999918,1274.2073126999894,1275.2073226000066,"[0, 0, 0]",1,1273.2239528000064,1275.2239666999958,,,,,,,,,,,,,,,,,,,,,5,m,3.1,29,r,MH IN,49,49,2022_Jul_15_1629,2020.2.10,distractmap,59.98814634280907,"['Right Face', 'Left Face', 'Right Face', 'Left Face']",
3,"[0.2, 0.2]",0,0,7,7,7,,,None,None,"[0, 0, 0]",1275.2406499999925,1277.240664299985,1275.2406499999925,1276.2406491999864,1276.2239809999883,1277.223989799997,"[0, 0, 0]",1,1275.2406499999925,1277.240664299985,,,,,,,,,,,,,,,,,,,,,5,m,3.1,29,r,MH IN,49,49,2022_Jul_15_1629,2020.2.10,distractmap,59.98814634280907,"['Right Face', 'Left Face', 'Right Face', 'Left Face']",
6,"[0.2, 0]",0,0,8,8,8,,,None,None,"[0, 0, 0]",1277.2573315000045,1279.2573467000038,1277.2573315000045,1278.2573436000093,1278.2406603999843,1279.2406735999975,"[0, 0, 0]",1,1277.2573315000045,1279.2573467000038,,,,,,,,,,,,,,,,,,,,,5,m,3.1,29,r,MH IN,49,49,2022_Jul_15_1629,2020.2.10,distractmap,59.98814634280907,"['Right Face', 'Left Face', 'Right Face', 'Left Face']",
3,"[0.2, 0.2]",1,0,9,9,9,,,None,None,"[0, 0, 0]",1279.2740121000097,1281.2740198999818,1279.2740121000097,1280.2740161999827,1280.2573522999883,1281.2573653,"[0, 0, 0]",1,1279.2740121000097,1281.2740198999818,,,,,,,,,,,,,,,,,,,,,5,m,3.1,29,r,MH IN,49,49,2022_Jul_15_1629,2020.2.10,distractmap,59.98814634280907,"['Right Face', 'Left Face', 'Right Face', 'Left Face']",
,,,,,,,,,,,,,,,,,,,,,,1281.2906875000044,None,,,,,,,,,,,,,,,,,,,5,m,3.1,29,r,MH IN,49,49,2022_Jul_15_1629,2020.2.10,distractmap,59.98814634280907,"['Right Face', 'Left Face', 'Right Face', 'Left Face']",
2,"[0, 0.2]",None,0,0,0,0,1289.5904755000083,None,None,None,"[0, 0, 0]",1296.307487699989,1298.3075081999996,1296.307487699989,1297.3074990999885,1297.2908447000082,1298.2908401000022,"[0, 0, 0]",1,1296.307487699989,1298.3075081999996,,,,,,,,,,,,,,,,,,,,,5,m,3.1,29,r,MH IN,49,49,2022_Jul_15_1629,2020.2.10,distractmap,59.98814634280907,"['Right Face', 'Left Face', 'Right Face', 'Left Face']",
5,"[0, 0]",None,0,1,1,1,,,None,None,"[0, 0, 0]",1298.3242145999975,1300.3241969000082,1298.3242145999975,1299.3242104999954,1299.3075179999869,1300.307520900009,"[0, 0, 0]",1,1298.3242145999975,1300.3241969000082,,,,,,,,,,,,,,,,,,,,,5,m,3.1,29,r,MH IN,49,49,2022_Jul_15_1629,2020.2.10,distractmap,59.98814634280907,"['Right Face', 'Left Face', 'Right Face', 'Left Face']",
6,"[0.2, 0]",0,0,2,2,2,,,None,None,"[0, 0, 0]",1300.340870199987,1302.3408829999971,1300.340870199987,1301.340868600004,1301.3242265000008,1302.3242275000084,"[0, 0, 0]",1,1300.340870199987,1302.3408829999971,,,,,,,,,,,,,,,,,,,,,5,m,3.1,29,r,MH IN,49,49,2022_Jul_15_1629,2020.2.10,distractmap,59.98814634280907,"['Right Face', 'Left Face', 'Right Face', 'Left Face']",
1,"[-0.2, 0.2]",0,0,3,3,3,,,None,None,"[0, 0, 0]",1302.357551299996,1304.3575618999894,1302.357551299996,1303.3575990999816,1303.3408963999827,1304.3409084999876,"[0, 0, 0]",1,1302.357551299996,1304.3575618999894,,,,,,,,,,,,,,,,,,,,,5,m,3.1,29,r,MH IN,49,49,2022_Jul_15_1629,2020.2.10,distractmap,59.98814634280907,"['Right Face', 'Left Face', 'Right Face', 'Left Face']",
6,"[0.2, 0]",1,0,4,4,4,,,None,None,"[0, 0, 0]",1304.4078601000074,None,1304.4078601000074,1305.4075699999812,1305.3908992999932,None,"[0, 0, 0]",1,1304.4078601000074,None,,,,,,,,,,,,,,,,,,,,,5,m,3.1,29,r,MH IN,49,49,2022_Jul_15_1629,2020.2.10,distractmap,59.98814634280907,"['Right Face', 'Left Face', 'Right Face', 'Left Face']",
6,"[0.2, 0]",0,0,5,5,5,,,None,None,"[0, 0, 0]",1306.3909083000035,1308.3909247999836,1306.3909083000035,1307.3909314000048,1307.374246099993,1308.3742877999903,"[0, 0, 0]",1,1306.3909083000035,1308.3909247999836,,,,,,,,,,,,,,,,,,,,,5,m,3.1,29,r,MH IN,49,49,2022_Jul_15_1629,2020.2.10,distractmap,59.98814634280907,"['Right Face', 'Left Face', 'Right Face', 'Left Face']",
9,"[0.2, -0.2]",0,0,6,6,6,,,None,None,"[0, 0, 0]",1308.4075994000013,1310.4076156000083,1308.4075994000013,1309.4076058999926,1309.3909398999822,1310.390949499997,"[0, 0, 0]",1,1308.4075994000013,1310.4076156000083,,,,,,,,,,,,,,,,,,,,,5,m,3.1,29,r,MH IN,49,49,2022_Jul_15_1629,2020.2.10,distractmap,59.98814634280907,"['Right Face', 'Left Face', 'Right Face', 'Left Face']",
6,"[0.2, 0]",1,0,7,7,7,,,None,None,"[0, 0, 0]",1310.4243025000033,1312.4243033000093,1310.4243025000033,1311.4245684999914,1311.4079167000018,1312.4076419000048,"[0, 0, 0]",1,1310.4243025000033,1312.4243033000093,,,,,,,,,,,,,,,,,,,,,5,m,3.1,29,r,MH IN,49,49,2022_Jul_15_1629,2020.2.10,distractmap,59.98814634280907,"['Right Face', 'Left Face', 'Right Face', 'Left Face']",
3,"[0.2, 0.2]",0,0,8,8,8,,,None,None,"[0, 0, 0]",1312.4409651999886,1314.4410013000015,1312.4409651999886,1313.4409851999953,1313.424319999991,1314.424331599992,"[0, 0, 0]",1,1312.4409651999886,1314.4410013000015,,,,,,,,,,,,,,,,,,,,,5,m,3.1,29,r,MH IN,49,49,2022_Jul_15_1629,2020.2.10,distractmap,59.98814634280907,"['Right Face', 'Left Face', 'Right Face', 'Left Face']",
9,"[0.2, -0.2]",0,0,9,9,9,,,None,None,"[0, 0, 0]",1314.4576471000037,1316.4576645999914,1314.4576471000037,1315.4576602999878,1315.4410177999816,1316.4410191999923,"[0, 0, 0]",1,1314.4576471000037,1316.4576645999914,,,,,,,,,,,,,,,,,,,,,5,m,3.1,29,r,MH IN,49,49,2022_Jul_15_1629,2020.2.10,distractmap,59.98814634280907,"['Right Face', 'Left Face', 'Right Face', 'Left Face']",
,,,,,,,,,,,,,,,,,,,,,,1316.4741740000027,None,,,,,,,,,,,,,,,,,,,5,m,3.1,29,r,MH IN,49,49,2022_Jul_15_1629,2020.2.10,distractmap,59.98814634280907,"['Right Face', 'Left Face', 'Right Face', 'Left Face']",
,,,,,,,,,,,,,,,,,,,,,,,,,,,,,,,,,,,,,,23.580246913580247,1263.5256873999897,,,5,m,3.1,29,r,MH IN,49,49,2022_Jul_15_1629,2020.2.10,distractmap,59.98814634280907,"['Right Face', 'Left Face', 'Right Face', 'Left Face']",
3,"[0.2, 0.2]",None,0,0,0,0,1331.691212500009,None,None,None,"[0, 0, 0]",1336.5078445999825,1338.5078685999906,1336.5078445999825,1337.507855200005,1337.4912089999998,1338.4912202999985,"[0, 0, 0]",1,1336.5078445999825,1338.5078685999906,,,,,,,,,,,,,,,,,,,0.013596100005088374,5.010089500021422,5,m,3.1,29,r,MH IN,49,49,2022_Jul_15_1629,2020.2.10,distractmap,59.98814634280907,"['Right Face', 'Left Face', 'Right Face', 'Left Face']",
9,"[0.2, -0.2]",None,0,1,1,1,,,None,None,"[0, 0, 0]",1338.5245292999898,1340.5245550999825,1338.5245292999898,1339.5245443999884,1339.5078746000072,1340.5078806999954,"[0, 0, 0]",1,1338.5245292999898,1340.5245550999825,,,,,,,,,,,,,,,,,,,,,5,m,3.1,29,r,MH IN,49,49,2022_Jul_15_1629,2020.2.10,distractmap,59.98814634280907,"['Right Face', 'Left Face', 'Right Face', 'Left Face']",
3,"[0.2, 0.2]",1,0,2,2,2,,,None,None,"[0, 0, 0]",1340.5412356999877,1342.5412329999963,1340.5412356999877,1341.541246000008,1341.524551599985,1342.524572800001,"[0, 0, 0]",1,1340.5412356999877,1342.5412329999963,,,,,,,,,,,,,,,,,,,,,5,m,3.1,29,r,MH IN,49,49,2022_Jul_15_1629,2020.2.10,distractmap,59.98814634280907,"['Right Face', 'Left Face', 'Right Face', 'Left Face']",
7,"[-0.2, -0.2]",0,0,3,3,3,,,None,None,"[0, 0, 0]",1342.557901799999,1344.5579114999855,1342.557901799999,1343.5579174000013,1343.5412402999937,1344.5412611000065,"[0, 0, 0]",1,1342.557901799999,1344.5579114999855,,,,,,,,,,,,,,,,,,,,,5,m,3.1,29,r,MH IN,49,49,2022_Jul_15_1629,2020.2.10,distractmap,59.98814634280907,"['Right Face', 'Left Face', 'Right Face', 'Left Face']",
8,"[0, -0.2]",0,0,4,4,4,,,None,None,"[0, 0, 0]",1344.6247094999999,None,1344.6247094999999,1345.6246040999831,1345.6079230000032,None,"[0, 0, 0]",1,1344.6247094999999,None,,,,,,,,,,,,,,,,,,,,,5,m,3.1,29,r,MH IN,49,49,2022_Jul_15_1629,2020.2.10,distractmap,59.98814634280907,"['Right Face', 'Left Face', 'Right Face', 'Left Face']",
4,"[-0.2, 0]",0,0,5,5,5,,,None,None,"[0, 0, 0]",1346.5912935000088,1348.5912951999926,1346.5912935000088,1347.5912988999917,1347.5746089000022,1348.5746224999893,"[0, 0, 0]",1,1346.5912935000088,1348.5912951999926,,,,,,,,,,,,,,,,,,,,,5,m,3.1,29,r,MH IN,49,49,2022_Jul_15_1629,2020.2.10,distractmap,59.98814634280907,"['Right Face', 'Left Face', 'Right Face', 'Left Face']",
4,"[-0.2, 0]",0,0,6,6,6,,,None,None,"[0, 0, 0]",1348.6079555999895,1350.6079734000086,1348.6079555999895,1349.607969899982,1349.591312799981,1350.5913233000028,"[0, 0, 0]",1,1348.6079555999895,1350.6079734000086,,,,,,,,,,,,,,,,,,,,,5,m,3.1,29,r,MH IN,49,49,2022_Jul_15_1629,2020.2.10,distractmap,59.98814634280907,"['Right Face', 'Left Face', 'Right Face', 'Left Face']",
1,"[-0.2, 0.2]",0,0,7,7,7,,,None,None,"[0, 0, 0]",1350.62465350001,1352.624660100002,1350.62465350001,1351.624656400003,1351.6079926000093,1352.6079999000067,"[0, 0, 0]",1,1350.62465350001,1352.624660100002,,,,,,,,,,,,,,,,,,,,,5,m,3.1,29,r,MH IN,49,49,2022_Jul_15_1629,2020.2.10,distractmap,59.98814634280907,"['Right Face', 'Left Face', 'Right Face', 'Left Face']",
4,"[-0.2, 0]",1,0,8,8,8,,,None,None,"[0, 0, 0]",1352.6413300999848,1354.6413615999918,1352.6413300999848,1353.641345799988,1353.6246805999835,1354.624680799985,"[0, 0, 0]",1,1352.6413300999848,1354.6413615999918,,,,,,,,,,,,,,,,,,,,,5,m,3.1,29,r,MH IN,49,49,2022_Jul_15_1629,2020.2.10,distractmap,59.98814634280907,"['Right Face', 'Left Face', 'Right Face', 'Left Face']",
8,"[0, -0.2]",0,0,9,9,9,,,None,None,"[0, 0, 0]",1354.658006999991,1356.6579855000018,1354.658006999991,1355.6580119999999,1355.641358599998,1356.6413699999976,"[0, 0, 0]",1,1354.658006999991,1356.6579855000018,,,,,,,,,,,,,,,,,,,,,5,m,3.1,29,r,MH IN,49,49,2022_Jul_15_1629,2020.2.10,distractmap,59.98814634280907,"['Right Face', 'Left Face', 'Right Face', 'Left Face']",
,,,,,,,,,,,,,,,,,,,,,,1356.67468679999,None,,,,,,,,,,,,,,,,,,,5,m,3.1,29,r,MH IN,49,49,2022_Jul_15_1629,2020.2.10,distractmap,59.98814634280907,"['Right Face', 'Left Face', 'Right Face', 'Left Face']",
,,,,,,,,,,,,,,,,,,,,,,,,,,,,,,,,,,,,,,13.086419753086421,1304.6099014999927,,,5,m,3.1,29,r,MH IN,49,49,2022_Jul_15_1629,2020.2.10,distractmap,59.98814634280907,"['Right Face', 'Left Face', 'Right Face', 'Left Face']",
2,"[0, 0.2]",None,0,0,0,0,1371.9085525999835,None,None,None,"[0, 0, 0]",1376.7081267999893,1378.7082368999836,1376.7081267999893,1377.7082384999958,1377.6915516000008,1378.6915604000096,"[0, 0, 0]",1,1376.7081267999893,1378.7082368999836,,,,,,,,,,,,,,,,,,,0.013093999994453043,5.009043900005054,5,m,3.1,29,r,MH IN,49,49,2022_Jul_15_1629,2020.2.10,distractmap,59.98814634280907,"['Right Face', 'Left Face', 'Right Face', 'Left Face']",
5,"[0, 0]",None,0,1,1,1,,,None,None,"[0, 0, 0]",1378.7248964000028,1380.7249164000095,1378.7248964000028,1379.7249012999819,1379.7082341999921,1380.708251700009,"[0, 0, 0]",1,1378.7248964000028,1380.7249164000095,,,,,,,,,,,,,,,,,,,,,5,m,3.1,29,r,MH IN,49,49,2022_Jul_15_1629,2020.2.10,distractmap,59.98814634280907,"['Right Face', 'Left Face', 'Right Face', 'Left Face']",
3,"[0.2, 0.2]",0,0,2,2,2,,,None,None,"[0, 0, 0]",1380.7415749999927,1382.741588999983,1380.7415749999927,1381.741575299995,1381.7249272000045,1382.724915800005,"[0, 0, 0]",1,1380.7415749999927,1382.741588999983,,,,,,,,,,,,,,,,,,,,,5,m,3.1,29,r,MH IN,49,49,2022_Jul_15_1629,2020.2.10,distractmap,59.98814634280907,"['Right Face', 'Left Face', 'Right Face', 'Left Face']",
5,"[0, 0]",1,0,3,3,3,,,None,None,"[0, 0, 0]",1382.7582602000039,1384.758290400001,1382.7582602000039,1383.7582776999916,1383.7415907999966,1384.7416163999878,"[0, 0, 0]",1,1382.7582602000039,1384.758290400001,,,,,,,,,,,,,,,,,,,,,5,m,3.1,29,r,MH IN,49,49,2022_Jul_15_1629,2020.2.10,distractmap,59.98814634280907,"['Right Face', 'Left Face', 'Right Face', 'Left Face']",
2,"[0, 0.2]",0,0,4,4,4,,,None,None,"[0, 0, 0]",1384.808287199994,None,1384.808287199994,1385.8082827999897,1385.7916219999897,None,"[0, 0, 0]",1,1384.808287199994,None,,,,,,,,,,,,,,,,,,,,,5,m,3.1,29,r,MH IN,49,49,2022_Jul_15_1629,2020.2.10,distractmap,59.98814634280907,"['Right Face', 'Left Face', 'Right Face', 'Left Face']",
8,"[0, -0.2]",0,0,5,5,5,,,None,None,"[0, 0, 0]",1386.7916270999995,1388.7916502000007,1386.7916270999995,1387.7916425000003,1387.774966900004,1388.774976399989,"[0, 0, 0]",1,1386.7916270999995,1388.7916502000007,,,,,,,,,,,,,,,,,,,,,5,m,3.1,29,r,MH IN,49,49,2022_Jul_15_1629,2020.2.10,distractmap,59.98814634280907,"['Right Face', 'Left Face', 'Right Face', 'Left Face']",
4,"[-0.2, 0]",0,0,6,6,6,,,None,None,"[0, 0, 0]",1388.8083276999823,1390.8082132999843,1388.8083276999823,1389.808317099989,1389.7916630999825,1390.7916569999943,"[0, 0, 0]",1,1388.8083276999823,1390.8082132999843,,,,,,,,,,,,,,,,,,,,,5,m,3.1,29,r,MH IN,49,49,2022_Jul_15_1629,2020.2.10,distractmap,59.98814634280907,"['Right Face', 'Left Face', 'Right Face', 'Left Face']",
8,"[0, -0.2]",1,0,7,7,7,,,None,None,"[0, 0, 0]",1390.824990299996,1392.8250127999927,1390.824990299996,1391.825008499989,1391.8083549999865,1392.8083641999983,"[0, 0, 0]",1,1390.824990299996,1392.8250127999927,,,,,,,,,,,,,,,,,,,,,5,m,3.1,29,r,MH IN,49,49,2022_Jul_15_1629,2020.2.10,distractmap,59.98814634280907,"['Right Face', 'Left Face', 'Right Face', 'Left Face']",
7,"[-0.2, -0.2]",0,0,8,8,8,,,None,None,"[0, 0, 0]",1392.8416894999973,1394.8416984000069,1392.8416894999973,1393.8416894999973,1393.8250303999812,1394.8250372000039,"[0, 0, 0]",1,1392.8416894999973,1394.8416984000069,,,,,,,,,,,,,,,,,,,,,5,m,3.1,29,r,MH IN,49,49,2022_Jul_15_1629,2020.2.10,distractmap,59.98814634280907,"['Right Face', 'Left Face', 'Right Face', 'Left Face']",
8,"[0, -0.2]",1,0,9,9,9,,,None,None,"[0, 0, 0]",1394.8583683999896,1396.8583969000028,1394.8583683999896,1395.8583759999892,1395.8417285000032,1396.8417150999885,"[0, 0, 0]",1,1394.8583683999896,1396.8583969000028,,,,,,,,,,,,,,,,,,,,,5,m,3.1,29,r,MH IN,49,49,2022_Jul_15_1629,2020.2.10,distractmap,59.98814634280907,"['Right Face', 'Left Face', 'Right Face', 'Left Face']",
,,,,,,,,,,,,,,,,,,,,,,1396.875002099987,None,,,,,,,,,,,,,,,,,,,5,m,3.1,29,r,MH IN,49,49,2022_Jul_15_1629,2020.2.10,distractmap,59.98814634280907,"['Right Face', 'Left Face', 'Right Face', 'Left Face']",
,,,,,,,,,,,,,,,,,,,,,,,,,,,,,,,,,,,,,,17.839506172839506,1346.7267747999867,,,5,m,3.1,29,r,MH IN,49,49,2022_Jul_15_1629,2020.2.10,distractmap,59.98814634280907,"['Right Face', 'Left Face', 'Right Face', 'Left Face']",
,,,,,,,1521.8928308000031,None,,,,,,,,,,,,,,,,,,,,,,,,,,,,1501.8926519000088,None,17.469135802469136,1471.4924207000295,0.013264200009871274,5.00933120000991,5,m,3.1,29,r,MH IN,49,49,2022_Jul_15_1629,2020.2.10,distractmap,59.98814634280907,"['Right Face', 'Left Face', 'Right Face', 'Left Face']",
,,,,,,,1556.9098059000098,None,,,,,,,,,,,,,,,,,,,,,,,,,,,,1536.9096151999838,None,16.17283950617284,1502.6926239000459,0.015380999975604936,5.013779799977783,5,m,3.1,29,r,MH IN,49,49,2022_Jul_15_1629,2020.2.10,distractmap,59.98814634280907,"['Right Face', 'Left Face', 'Right Face', 'Left Face']",
,,,,,,,1591.9267855999933,None,,,,,,,,,,,,,,,,,,,,,,,,,,,,1571.9265973999863,None,11.975308641975307,1541.841769700026,0.015462699957424775,5.01379609995638,5,m,3.1,29,r,MH IN,49,49,2022_Jul_15_1629,2020.2.10,distractmap,59.98814634280907,"['Right Face', 'Left Face', 'Right Face', 'Left Face']",
2,"[0, 0.2]",None,0,0,0,0,1609.1770263999933,None,None,None,"[0, 0, 0]",1611.9603069000004,None,1611.9603069000004,1612.9603145,1612.9436303999973,1613.9436552999832,"[0, 0, 0]",1,1611.9603069000004,None,,,,,,,,,,,,,,,,,,,0.016665899980580434,5.01619079997181,5,m,3.1,29,r,MH IN,49,49,2022_Jul_15_1629,2020.2.10,distractmap,59.98814634280907,"['Right Face', 'Left Face', 'Right Face', 'Left Face']",
2,"[0, 0.2]",None,0,1,1,1,,,None,None,"[0, 0, 0]",1613.9603223000013,1615.9603554999921,1613.9603223000013,1614.9603304000048,1614.943661199999,1615.9436638999905,"[0, 0, 0]",1,1613.9603223000013,1615.9603554999921,,,,,,,,,,,,,,,,,,,,,5,m,3.1,29,r,MH IN,49,49,2022_Jul_15_1629,2020.2.10,distractmap,59.98814634280907,"['Right Face', 'Left Face', 'Right Face', 'Left Face']",
2,"[0, 0.2]",1,0,2,2,2,,,None,None,"[0, 0, 0]",1615.977008899994,1617.9770127999946,1615.977008899994,1616.9770007999905,1616.9604045999877,1617.9603663999878,"[0, 0, 0]",1,1615.977008899994,1617.9770127999946,,,,,,,,,,,,,,,,,,,,,5,m,3.1,29,r,MH IN,49,49,2022_Jul_15_1629,2020.2.10,distractmap,59.98814634280907,"['Right Face', 'Left Face', 'Right Face', 'Left Face']",
8,"[0, -0.2]",0,0,3,3,3,,,None,None,"[0, 0, 0]",1617.9936887999938,1619.9936987999827,1617.9936887999938,1618.9937000999926,1618.9770310999884,1619.9770272999885,"[0, 0, 0]",1,1617.9936887999938,1619.9936987999827,,,,,,,,,,,,,,,,,,,,,5,m,3.1,29,r,MH IN,49,49,2022_Jul_15_1629,2020.2.10,distractmap,59.98814634280907,"['Right Face', 'Left Face', 'Right Face', 'Left Face']",
2,"[0, 0.2]",1,0,4,4,4,,,None,None,"[0, 0, 0]",1620.0603634,None,1620.0603634,1621.0603929999925,1621.0437141000002,None,"[0, 0, 0]",1,1620.0603634,None,,,,,,,,,,,,,,,,,,,,,5,m,3.1,29,r,MH IN,49,49,2022_Jul_15_1629,2020.2.10,distractmap,59.98814634280907,"['Right Face', 'Left Face', 'Right Face', 'Left Face']",
5,"[0, 0]",0,0,5,5,5,,,None,None,"[0, 0, 0]",1622.0270503000065,1624.027071199991,1622.0270503000065,1623.0270582000085,1623.0103965000017,1624.0104109999957,"[0, 0, 0]",1,1622.0270503000065,1624.027071199991,,,,,,,,,,,,,,,,,,,,,5,m,3.1,29,r,MH IN,49,49,2022_Jul_15_1629,2020.2.10,distractmap,59.98814634280907,"['Right Face', 'Left Face', 'Right Face', 'Left Face']",
1,"[-0.2, 0.2]",0,0,6,6,6,,,None,None,"[0, 0, 0]",1624.0437809999858,1626.0437525000016,1624.0437809999858,1625.0437415000051,1625.0270681999973,1626.0270780999854,"[0, 0, 0]",1,1624.0437809999858,1626.0437525000016,,,,,,,,,,,,,,,,,,,,,5,m,3.1,29,r,MH IN,49,49,2022_Jul_15_1629,2020.2.10,distractmap,59.98814634280907,"['Right Face', 'Left Face', 'Right Face', 'Left Face']",
1,"[-0.2, 0.2]",0,0,7,7,7,,,None,None,"[0, 0, 0]",1626.060417700006,1628.0604399000003,1626.060417700006,1627.0604274999932,1627.0437665999925,1628.0437629999942,"[0, 0, 0]",1,1626.060417700006,1628.0604399000003,,,,,,,,,,,,,,,,,,,,,5,m,3.1,29,r,MH IN,49,49,2022_Jul_15_1629,2020.2.10,distractmap,59.98814634280907,"['Right Face', 'Left Face', 'Right Face', 'Left Face']",
6,"[0.2, 0]",0,0,8,8,8,,,None,None,"[0, 0, 0]",1628.0771122000006,1630.0771147999913,1628.0771122000006,1629.077104099997,1629.0604614999902,1630.0604564999812,"[0, 0, 0]",1,1628.0771122000006,1630.0771147999913,,,,,,,,,,,,,,,,,,,,,5,m,3.1,29,r,MH IN,49,49,2022_Jul_15_1629,2020.2.10,distractmap,59.98814634280907,"['Right Face', 'Left Face', 'Right Face', 'Left Face']",
1,"[-0.2, 0.2]",1,0,9,9,9,,,None,None,"[0, 0, 0]",1630.093787299993,1632.0938130999857,1630.093787299993,1631.0937930000073,1631.0771401000093,1632.0771448999876,"[0, 0, 0]",1,1630.093787299993,1632.0938130999857,,,,,,,,,,,,,,,,,,,,,5,m,3.1,29,r,MH IN,49,49,2022_Jul_15_1629,2020.2.10,distractmap,59.98814634280907,"['Right Face', 'Left Face', 'Right Face', 'Left Face']",
,,,,,,,,,,,,,,,,,,,,,,1632.1104705999896,None,,,,,,,,,,,,,,,,,,,5,m,3.1,29,r,MH IN,49,49,2022_Jul_15_1629,2020.2.10,distractmap,59.98814634280907,"['Right Face', 'Left Face', 'Right Face', 'Left Face']",
,,,,,,,,,,,,,,,,,,,,,,,,,,,,,,,,,,,,,,18.950617283950617,1578.8122189000424,,,5,m,3.1,29,r,MH IN,49,49,2022_Jul_15_1629,2020.2.10,distractmap,59.98814634280907,"['Right Face', 'Left Face', 'Right Face', 'Left Face']",
3,"[0.2, 0.2]",None,0,0,0,0,1647.3431325999845,None,None,None,"[0, 0, 0]",1652.1273266999924,1654.1273394000018,1652.1273266999924,1653.1273418999917,1653.1106754000066,1654.1106788000034,"[0, 0, 0]",1,1652.1273266999924,1654.1273394000018,,,,,,,,,,,,,,,,,,,0.013178499968489632,5.009213699988322,5,m,3.1,29,r,MH IN,49,49,2022_Jul_15_1629,2020.2.10,distractmap,59.98814634280907,"['Right Face', 'Left Face', 'Right Face', 'Left Face']",
3,"[0.2, 0.2]",None,0,1,1,1,,,None,None,"[0, 0, 0]",1654.1440002000018,1656.1440139999904,1654.1440002000018,1655.144009199983,1655.1273624000023,1656.1273684999906,"[0, 0, 0]",1,1654.1440002000018,1656.1440139999904,,,,,,,,,,,,,,,,,,,,,5,m,3.1,29,r,MH IN,49,49,2022_Jul_15_1629,2020.2.10,distractmap,59.98814634280907,"['Right Face', 'Left Face', 'Right Face', 'Left Face']",
5,"[0, 0]",0,0,2,2,2,,,None,None,"[0, 0, 0]",1656.1606881000043,1658.160705199989,1656.1606881000043,1657.1607017999922,1657.1440460000013,1658.1440383000008,"[0, 0, 0]",1,1656.1606881000043,1658.160705199989,,,,,,,,,,,,,,,,,,,,,5,m,3.1,29,r,MH IN,49,49,2022_Jul_15_1629,2020.2.10,distractmap,59.98814634280907,"['Right Face', 'Left Face', 'Right Face', 'Left Face']",
1,"[-0.2, 0.2]",0,0,3,3,3,,,None,None,"[0, 0, 0]",1658.1773720000056,1660.1773958999838,1658.1773720000056,1659.1773810999875,1659.1607300000032,1660.1607249999943,"[0, 0, 0]",1,1658.1773720000056,1660.1773958999838,,,,,,,,,,,,,,,,,,,,,5,m,3.1,29,r,MH IN,49,49,2022_Jul_15_1629,2020.2.10,distractmap,59.98814634280907,"['Right Face', 'Left Face', 'Right Face', 'Left Face']",
5,"[0, 0]",1,0,4,4,4,,,None,None,"[0, 0, 0]",1660.244227999996,None,1660.244227999996,1661.244076700008,1661.2274023999926,None,"[0, 0, 0]",1,1660.244227999996,None,,,,,,,,,,,,,,,,,,,,,5,m,3.1,29,r,MH IN,49,49,2022_Jul_15_1629,2020.2.10,distractmap,59.98814634280907,"['Right Face', 'Left Face', 'Right Face', 'Left Face']",
8,"[0, -0.2]",0,0,5,5,5,,,None,None,"[0, 0, 0]",1662.2107420999964,1664.2107588000072,1662.2107420999964,1663.2107505000022,1663.1940850999963,1664.194097700005,"[0, 0, 0]",1,1662.2107420999964,1664.2107588000072,,,,,,,,,,,,,,,,,,,,,5,m,3.1,29,r,MH IN,49,49,2022_Jul_15_1629,2020.2.10,distractmap,59.98814634280907,"['Right Face', 'Left Face', 'Right Face', 'Left Face']",
5,"[0, 0]",1,0,6,6,6,,,None,None,"[0, 0, 0]",1664.2274395999848,1666.2274583999824,1664.2274395999848,1665.2274529999995,1665.2107688999968,1666.2107825999847,"[0, 0, 0]",1,1664.2274395999848,1666.2274583999824,,,,,,,,,,,,,,,,,,,,,5,m,3.1,29,r,MH IN,49,49,2022_Jul_15_1629,2020.2.10,distractmap,59.98814634280907,"['Right Face', 'Left Face', 'Right Face', 'Left Face']",
7,"[-0.2, -0.2]",0,0,7,7,7,,,None,None,"[0, 0, 0]",1666.2441203999915,1668.2441202999908,1666.2441203999915,1667.2441263000073,1667.2274551999872,1668.2274782999884,"[0, 0, 0]",1,1666.2441203999915,1668.2441202999908,,,,,,,,,,,,,,,,,,,,,5,m,3.1,29,r,MH IN,49,49,2022_Jul_15_1629,2020.2.10,distractmap,59.98814634280907,"['Right Face', 'Left Face', 'Right Face', 'Left Face']",
5,"[0, 0]",1,0,8,8,8,,,None,None,"[0, 0, 0]",1668.2607911000086,1670.2608173000044,1668.2607911000086,1669.2608129,1669.244142999989,1670.2441386999853,"[0, 0, 0]",1,1668.2607911000086,1670.2608173000044,,,,,,,,,,,,,,,,,,,,,5,m,3.1,29,r,MH IN,49,49,2022_Jul_15_1629,2020.2.10,distractmap,59.98814634280907,"['Right Face', 'Left Face', 'Right Face', 'Left Face']",
7,"[-0.2, -0.2]",1,0,9,9,9,,,None,None,"[0, 0, 0]",1670.2774901000084,1672.27750679999,1670.2774901000084,1671.2775029999902,1671.2608270999917,1672.2608282,"[0, 0, 0]",1,1670.2774901000084,1672.27750679999,,,,,,,,,,,,,,,,,,,,,5,m,3.1,29,r,MH IN,49,49,2022_Jul_15_1629,2020.2.10,distractmap,59.98814634280907,"['Right Face', 'Left Face', 'Right Face', 'Left Face']",
,,,,,,,,,,,,,,,,,,,,,,1672.2941696000053,None,,,,,,,,,,,,,,,,,,,5,m,3.1,29,r,MH IN,49,49,2022_Jul_15_1629,2020.2.10,distractmap,59.98814634280907,"['Right Face', 'Left Face', 'Right Face', 'Left Face']",
,,,,,,,,,,,,,,,,,,,,,,,,,,,,,,,,,,,,,,18.51851851851852,1621.796078400017,,,5,m,3.1,29,r,MH IN,49,49,2022_Jul_15_1629,2020.2.10,distractmap,59.98814634280907,"['Right Face', 'Left Face', 'Right Face', 'Left Face']",
6,"[0.2, 0]",None,0,0,0,0,1689.527840900002,None,None,None,"[0, 0, 0]",1692.327672399988,1694.3276957999915,1692.327672399988,1693.3276386999933,1693.3110179000068,1694.3110298999818,"[0, 0, 0]",1,1692.327672399988,1694.3276957999915,,,,,,,,,,,,,,,,,,,0.013043399987509474,5.008954999997513,5,m,3.1,29,r,MH IN,49,49,2022_Jul_15_1629,2020.2.10,distractmap,59.98814634280907,"['Right Face', 'Left Face', 'Right Face', 'Left Face']",
1,"[-0.2, 0.2]",None,0,1,1,1,,,None,None,"[0, 0, 0]",1694.3443822999834,1696.3443765999982,1694.3443822999834,1695.3443937999837,1695.3276980000082,1696.3277185999905,"[0, 0, 0]",1,1694.3443822999834,1696.3443765999982,,,,,,,,,,,,,,,,,,,,,5,m,3.1,29,r,MH IN,49,49,2022_Jul_15_1629,2020.2.10,distractmap,59.98814634280907,"['Right Face', 'Left Face', 'Right Face', 'Left Face']",
6,"[0.2, 0]",1,0,2,2,2,,,None,None,"[0, 0, 0]",1696.3610445999948,1698.3610528999998,1696.3610445999948,1697.3610494000022,1697.3444037000008,1698.3444142999942,"[0, 0, 0]",1,1696.3610445999948,1698.3610528999998,,,,,,,,,,,,,,,,,,,,,5,m,3.1,29,r,MH IN,49,49,2022_Jul_15_1629,2020.2.10,distractmap,59.98814634280907,"['Right Face', 'Left Face', 'Right Face', 'Left Face']",
4,"[-0.2, 0]",0,0,3,3,3,,,None,None,"[0, 0, 0]",1698.37772769999,1700.3777395999932,1698.37772769999,1699.3777486000035,1699.3610826999939,1700.3610938999918,"[0, 0, 0]",1,1698.37772769999,1700.3777395999932,,,,,,,,,,,,,,,,,,,,,5,m,3.1,29,r,MH IN,49,49,2022_Jul_15_1629,2020.2.10,distractmap,59.98814634280907,"['Right Face', 'Left Face', 'Right Face', 'Left Face']",
1,"[-0.2, 0.2]",0,0,4,4,4,,,None,None,"[0, 0, 0]",1700.411345200002,None,1700.411345200002,1701.4110855000035,1701.3944336999848,1702.3944421999913,"[0, 0, 0]",1,1700.411345200002,None,,,,,,,,,,,,,,,,,,,,,5,m,3.1,29,r,MH IN,49,49,2022_Jul_15_1629,2020.2.10,distractmap,59.98814634280907,"['Right Face', 'Left Face', 'Right Face', 'Left Face']",
8,"[0, -0.2]",0,0,5,5,5,,,None,None,"[0, 0, 0]",1702.411089900008,1704.4111252999865,1702.411089900008,1703.4111169999815,1703.3944557000068,1704.394456000009,"[0, 0, 0]",1,1702.411089900008,1704.4111252999865,,,,,,,,,,,,,,,,,,,,,5,m,3.1,29,r,MH IN,49,49,2022_Jul_15_1629,2020.2.10,distractmap,59.98814634280907,"['Right Face', 'Left Face', 'Right Face', 'Left Face']",
1,"[-0.2, 0.2]",1,0,6,6,6,,,None,None,"[0, 0, 0]",1704.427782099985,1706.4277944999922,1704.427782099985,1705.4277886000054,1705.4111219999904,1706.4111434000079,"[0, 0, 0]",1,1704.427782099985,1706.4277944999922,,,,,,,,,,,,,,,,,,,,,5,m,3.1,29,r,MH IN,49,49,2022_Jul_15_1629,2020.2.10,distractmap,59.98814634280907,"['Right Face', 'Left Face', 'Right Face', 'Left Face']",
8,"[0, -0.2]",1,0,7,7,7,,,None,None,"[0, 0, 0]",1706.4444663999893,1708.4445029000053,1706.4444663999893,1707.444492199982,1707.4278110000014,1708.4278469999845,"[0, 0, 0]",1,1706.4444663999893,1708.4445029000053,,,,,,,,,,,,,,,,,,,,,5,m,3.1,29,r,MH IN,49,49,2022_Jul_15_1629,2020.2.10,distractmap,59.98814634280907,"['Right Face', 'Left Face', 'Right Face', 'Left Face']",
1,"[-0.2, 0.2]",1,0,8,8,8,,,None,None,"[0, 0, 0]",1708.4611535999866,1710.461177899997,1708.4611535999866,1709.46116050001,1709.4445040999854,1710.4445057999983,"[0, 0, 0]",1,1708.4611535999866,1710.461177899997,,,,,,,,,,,,,,,,,,,,,5,m,3.1,29,r,MH IN,49,49,2022_Jul_15_1629,2020.2.10,distractmap,59.98814634280907,"['Right Face', 'Left Face', 'Right Face', 'Left Face']",
6,"[0.2, 0]",0,0,9,9,9,,,None,None,"[0, 0, 0]",1710.4778412999876,1712.477857299993,1710.4778412999876,1711.4778524999856,1711.4611780999985,1712.4611979000038,"[0, 0, 0]",1,1710.4778412999876,1712.477857299993,,,,,,,,,,,,,,,,,,,,,5,m,3.1,29,r,MH IN,49,49,2022_Jul_15_1629,2020.2.10,distractmap,59.98814634280907,"['Right Face', 'Left Face', 'Right Face', 'Left Face']",
,,,,,,,,,,,,,,,,,,,,,,1712.4945264999988,None,,,,,,,,,,,,,,,,,,,5,m,3.1,29,r,MH IN,49,49,2022_Jul_15_1629,2020.2.10,distractmap,59.98814634280907,"['Right Face', 'Left Face', 'Right Face', 'Left Face']",
,,,,,,,,,,,,,,,,,,,,,,,,,,,,,,,,,,,,,,16.666666666666664,1660.9299900000042,,,5,m,3.1,29,r,MH IN,49,49,2022_Jul_15_1629,2020.2.10,distractmap,59.98814634280907,"['Right Face', 'Left Face', 'Right Face', 'Left Face']",
,,,,,,,1747.5115098000097,None,,,,,,,,,,,,,,,,,,,,,,,,,,,,1727.5113384999859,None,19.320987654320987,1696.4764772000199,0.012836899986723438,5.0085111999942455,5,m,3.1,29,r,MH IN,49,49,2022_Jul_15_1629,2020.2.10,distractmap,59.98814634280907,"['Right Face', 'Left Face', 'Right Face', 'Left Face']",
,,,,,,,1782.5285037999856,None,,,,,,,,,,,,,,,,,,,,,,,,,,,,1762.5283126999857,None,15.123456790123457,1733.576791200001,0.016667499992763624,5.0161613000091165,5,m,3.1,29,r,MH IN,49,49,2022_Jul_15_1629,2020.2.10,distractmap,59.98814634280907,"['Right Face', 'Left Face', 'Right Face', 'Left Face']",
,,,,,,,1817.5454659000097,None,,,,,,,,,,,,,,,,,,,,,,,,,,,,1797.545194699982,None,14.444444444444446,1769.1441030999995,0.01667089998954907,5.016167999972822,5,m,3.1,29,r,MH IN,49,49,2022_Jul_15_1629,2020.2.10,distractmap,59.98814634280907,"['Right Face', 'Left Face', 'Right Face', 'Left Face']",
7,"[-0.2, -0.2]",None,0,0,0,0,2008.5641713000077,None,None,None,"[0, 0, 0]",2013.280565699999,2015.2806096999848,2013.280565699999,2014.280585600005,2014.2639061000082,2015.2639054000028,"[0, 0, 0]",1,2013.280565699999,2015.2806096999848,,,,,,1865.5459060999856,1865.5459060999856,None,space,123.66972049998003,1865.5459060999856,None,,,,,,,0.016426899994257838,5.015866800007643,5,m,3.1,29,r,MH IN,49,49,2022_Jul_15_1629,2020.2.10,distractmap,59.98814634280907,"['Right Face', 'Left Face', 'Right Face', 'Left Face']",
7,"[-0.2, -0.2]",None,0,1,1,1,,,None,None,"[0, 0, 0]",2015.297241799999,2017.2973186000017,2015.297241799999,2016.2972619000066,2016.2806629999832,2017.2805944999855,"[0, 0, 0]",1,2015.297241799999,2017.2973186000017,,,,,,,,,,,,,,,,,,,,,5,m,3.1,29,r,MH IN,49,49,2022_Jul_15_1629,2020.2.10,distractmap,59.98814634280907,"['Right Face', 'Left Face', 'Right Face', 'Left Face']",
7,"[-0.2, -0.2]",1,0,2,2,2,,,None,None,"[0, 0, 0]",2017.3139359999914,2019.3139530000044,2017.3139359999914,2018.3139492000046,2018.297271599993,2019.2972855999833,"[0, 0, 0]",1,2017.3139359999914,2019.3139530000044,,,,,,,,,,,,,,,,,,,,,5,m,3.1,29,r,MH IN,49,49,2022_Jul_15_1629,2020.2.10,distractmap,59.98814634280907,"['Right Face', 'Left Face', 'Right Face', 'Left Face']",
5,"[0, 0]",0,0,3,3,3,,,None,None,"[0, 0, 0]",2019.3306287000014,2021.3306357999973,2019.3306287000014,2020.3306531999842,2020.3139491000038,2021.3139673999976,"[0, 0, 0]",1,2019.3306287000014,2021.3306357999973,,,,,,,,,,,,,,,,,,,,,5,m,3.1,29,r,MH IN,49,49,2022_Jul_15_1629,2020.2.10,distractmap,59.98814634280907,"['Right Face', 'Left Face', 'Right Face', 'Left Face']",
1,"[-0.2, 0.2]",0,0,4,4,4,,,None,None,"[0, 0, 0]",2021.3975493999897,None,2021.3975493999897,2022.3973126999917,2022.3806468999828,None,"[0, 0, 0]",1,2021.3975493999897,None,,,,,,,,,,,,,,,,,,,,,5,m,3.1,29,r,MH IN,49,49,2022_Jul_15_1629,2020.2.10,distractmap,59.98814634280907,"['Right Face', 'Left Face', 'Right Face', 'Left Face']",
6,"[0.2, 0]",0,0,5,5,5,,,None,None,"[0, 0, 0]",2023.3640012999822,2025.3640065999934,2023.3640012999822,2024.3639813000045,2024.3473370999855,2025.3473349999986,"[0, 0, 0]",1,2023.3640012999822,2025.3640065999934,,,,,,,,,,,,,,,,,,,,,5,m,3.1,29,r,MH IN,49,49,2022_Jul_15_1629,2020.2.10,distractmap,59.98814634280907,"['Right Face', 'Left Face', 'Right Face', 'Left Face']",
1,"[-0.2, 0.2]",1,0,6,6,6,,,None,None,"[0, 0, 0]",2025.3806715999963,2027.380683299998,2025.3806715999963,2026.3806945999968,2026.3640033999982,2027.364010099991,"[0, 0, 0]",1,2025.3806715999963,2027.380683299998,,,,,,,,,,,,,,,,,,,,,5,m,3.1,29,r,MH IN,49,49,2022_Jul_15_1629,2020.2.10,distractmap,59.98814634280907,"['Right Face', 'Left Face', 'Right Face', 'Left Face']",
7,"[-0.2, -0.2]",0,0,7,7,7,,,None,None,"[0, 0, 0]",2027.3973471999925,2029.3973710999999,2027.3973471999925,2028.3973710999999,2028.3806906999962,2029.3805898999854,"[0, 0, 0]",1,2027.3973471999925,2029.3973710999999,,,,,,,,,,,,,,,,,,,,,5,m,3.1,29,r,MH IN,49,49,2022_Jul_15_1629,2020.2.10,distractmap,59.98814634280907,"['Right Face', 'Left Face', 'Right Face', 'Left Face']",
6,"[0.2, 0]",0,0,8,8,8,,,None,None,"[0, 0, 0]",2029.414033100009,2031.4140604999848,2029.414033100009,2030.4140423999925,2030.3973841999832,2031.3973924999882,"[0, 0, 0]",1,2029.414033100009,2031.4140604999848,,,,,,,,,,,,,,,,,,,,,5,m,3.1,29,r,MH IN,49,49,2022_Jul_15_1629,2020.2.10,distractmap,59.98814634280907,"['Right Face', 'Left Face', 'Right Face', 'Left Face']",
7,"[-0.2, -0.2]",1,0,9,9,9,,,None,None,"[0, 0, 0]",2031.430613500008,2033.430750200001,2031.430613500008,2032.4307317000057,2032.4140753000102,2033.414069099992,"[0, 0, 0]",1,2031.430613500008,2033.430750200001,,,,,,,,,,,,,,,,,,,,,5,m,3.1,29,r,MH IN,49,49,2022_Jul_15_1629,2020.2.10,distractmap,59.98814634280907,"['Right Face', 'Left Face', 'Right Face', 'Left Face']",
,,,,,,,,,,,,,,,,,,,,,,2033.4473304999992,None,,,,,,,,,,,,,,,,,,,5,m,3.1,29,r,MH IN,49,49,2022_Jul_15_1629,2020.2.10,distractmap,59.98814634280907,"['Right Face', 'Left Face', 'Right Face', 'Left Face']",
,,,,,,,,,,,,,,,,,,,,,,,,,,,,,,,,,,,,,,20.74074074074074,1978.5159590999829,,,5,m,3.1,29,r,MH IN,49,49,2022_Jul_15_1629,2020.2.10,distractmap,59.98814634280907,"['Right Face', 'Left Face', 'Right Face', 'Left Face']",
4,"[-0.2, 0]",None,0,0,0,0,2047.3809209000028,None,None,None,"[0, 0, 0]",2053.4809607999923,2055.4809507000027,2053.4809607999923,2054.4809329999844,2054.464269499993,2055.46426529999,"[0, 0, 0]",1,2053.4809607999923,2055.4809507000027,,,,,,,,,,,,,,,,,,,0.013057000003755093,5.009004599996842,5,m,3.1,29,r,MH IN,49,49,2022_Jul_15_1629,2020.2.10,distractmap,59.98814634280907,"['Right Face', 'Left Face', 'Right Face', 'Left Face']",
5,"[0, 0]",None,0,1,1,1,,,None,None,"[0, 0, 0]",2055.4976053999853,2057.4976360999863,2055.4976053999853,2056.497638300003,2056.480958,2057.480953799997,"[0, 0, 0]",1,2055.4976053999853,2057.4976360999863,,,,,,,,,,,,,,,,,,,,,5,m,3.1,29,r,MH IN,49,49,2022_Jul_15_1629,2020.2.10,distractmap,59.98814634280907,"['Right Face', 'Left Face', 'Right Face', 'Left Face']",
6,"[0.2, 0]",0,0,2,2,2,,,None,None,"[0, 0, 0]",2057.514282499993,2059.5143001999822,2057.514282499993,2058.5142044000095,2058.497645399999,2059.497657300002,"[0, 0, 0]",1,2057.514282499993,2059.5143001999822,,,,,,,,,,,,,,,,,,,,,5,m,3.1,29,r,MH IN,49,49,2022_Jul_15_1629,2020.2.10,distractmap,59.98814634280907,"['Right Face', 'Left Face', 'Right Face', 'Left Face']",
1,"[-0.2, 0.2]",0,0,3,3,3,,,None,None,"[0, 0, 0]",2059.53097230001,2061.5309940000006,2059.53097230001,2060.530974699999,2060.5143316999893,2061.5143342000083,"[0, 0, 0]",1,2059.53097230001,2061.5309940000006,,,,,,,,,,,,,,,,,,,,,5,m,3.1,29,r,MH IN,49,49,2022_Jul_15_1629,2020.2.10,distractmap,59.98814634280907,"['Right Face', 'Left Face', 'Right Face', 'Left Face']",
6,"[0.2, 0]",1,0,4,4,4,,,None,None,"[0, 0, 0]",2061.597957699996,None,2061.597957699996,2062.597681799991,2062.5810158000095,None,"[0, 0, 0]",1,2061.597957699996,None,,,,,,,,,,,,,,,,,,,,,5,m,3.1,29,r,MH IN,49,49,2022_Jul_15_1629,2020.2.10,distractmap,59.98814634280907,"['Right Face', 'Left Face', 'Right Face', 'Left Face']",
1,"[-0.2, 0.2]",1,0,5,5,5,,,None,None,"[0, 0, 0]",2063.5643295999907,2065.564366699982,2063.5643295999907,2064.5643494999968,2064.547701100004,2065.547710199986,"[0, 0, 0]",1,2063.5643295999907,2065.564366699982,,,,,,,,,,,,,,,,,,,,,5,m,3.1,29,r,MH IN,49,49,2022_Jul_15_1629,2020.2.10,distractmap,59.98814634280907,"['Right Face', 'Left Face', 'Right Face', 'Left Face']",
2,"[0, 0.2]",0,0,6,6,6,,,None,None,"[0, 0, 0]",2065.5810573000053,2067.581049100001,2065.5810573000053,2066.581040399993,2066.564367999992,2067.564391199994,"[0, 0, 0]",1,2065.5810573000053,2067.581049100001,,,,,,,,,,,,,,,,,,,,,5,m,3.1,29,r,MH IN,49,49,2022_Jul_15_1629,2020.2.10,distractmap,59.98814634280907,"['Right Face', 'Left Face', 'Right Face', 'Left Face']",
3,"[0.2, 0.2]",0,0,7,7,7,,,None,None,"[0, 0, 0]",2067.5977121999895,2069.597630400007,2067.5977121999895,2068.5977338000084,2068.5810505999834,2069.581058699987,"[0, 0, 0]",1,2067.5977121999895,2069.597630400007,,,,,,,,,,,,,,,,,,,,,5,m,3.1,29,r,MH IN,49,49,2022_Jul_15_1629,2020.2.10,distractmap,59.98814634280907,"['Right Face', 'Left Face', 'Right Face', 'Left Face']",
6,"[0.2, 0]",0,0,8,8,8,,,None,None,"[0, 0, 0]",2069.6144105999847,2071.61441010001,2069.6144105999847,2070.61441129999,2070.5977386999875,2071.597756300005,"[0, 0, 0]",1,2069.6144105999847,2071.61441010001,,,,,,,,,,,,,,,,,,,,,5,m,3.1,29,r,MH IN,49,49,2022_Jul_15_1629,2020.2.10,distractmap,59.98814634280907,"['Right Face', 'Left Face', 'Right Face', 'Left Face']",
3,"[0.2, 0.2]",1,0,9,9,9,,,None,None,"[0, 0, 0]",2071.6310901999823,2073.6311078,2071.6310901999823,2072.6310776000028,2072.6144753999833,2073.6144363000058,"[0, 0, 0]",1,2071.6310901999823,2073.6311078,,,,,,,,,,,,,,,,,,,,,5,m,3.1,29,r,MH IN,49,49,2022_Jul_15_1629,2020.2.10,distractmap,59.98814634280907,"['Right Face', 'Left Face', 'Right Face', 'Left Face']",
,,,,,,,,,,,,,,,,,,,,,,2073.6476858999813,None,,,,,,,,,,,,,,,,,,,5,m,3.1,29,r,MH IN,49,49,2022_Jul_15_1629,2020.2.10,distractmap,59.98814634280907,"['Right Face', 'Left Face', 'Right Face', 'Left Face']",
,,,,,,,,,,,,,,,,,,,,,,,,,,,,,,,,,,,,,,19.012345679012345,2019.1323193999997,,,5,m,3.1,29,r,MH IN,49,49,2022_Jul_15_1629,2020.2.10,distractmap,59.98814634280907,"['Right Face', 'Left Face', 'Right Face', 'Left Face']",
2,"[0, 0.2]",None,0,0,0,0,2086.897915599984,None,None,None,"[0, 0, 0]",2093.681285700004,2095.68129529999,2093.681285700004,2094.681282799982,2094.6646404000057,2095.6646300999855,"[0, 0, 0]",1,2093.681285700004,2095.68129529999,,,,,,,,,,,,,,,,,,,0.013727899990044534,5.010247599973809,5,m,3.1,29,r,MH IN,49,49,2022_Jul_15_1629,2020.2.10,distractmap,59.98814634280907,"['Right Face', 'Left Face', 'Right Face', 'Left Face']",
5,"[0, 0]",None,0,1,1,1,,,None,None,"[0, 0, 0]",2095.6979702999815,2097.698010299995,2095.6979702999815,2096.6979831999924,2096.681303499994,2097.681334699999,"[0, 0, 0]",1,2095.6979702999815,2097.698010299995,,,,,,,,,,,,,,,,,,,,,5,m,3.1,29,r,MH IN,49,49,2022_Jul_15_1629,2020.2.10,distractmap,59.98814634280907,"['Right Face', 'Left Face', 'Right Face', 'Left Face']",
6,"[0.2, 0]",0,0,2,2,2,,,None,None,"[0, 0, 0]",2097.7146517999936,2099.7146659999853,2097.7146517999936,2098.714666499989,2098.697999900003,2099.698010699998,"[0, 0, 0]",1,2097.7146517999936,2099.7146659999853,,,,,,,,,,,,,,,,,,,,,5,m,3.1,29,r,MH IN,49,49,2022_Jul_15_1629,2020.2.10,distractmap,59.98814634280907,"['Right Face', 'Left Face', 'Right Face', 'Left Face']",
1,"[-0.2, 0.2]",0,0,3,3,3,,,None,None,"[0, 0, 0]",2099.731342999992,2101.731362899998,2099.731342999992,2100.731346399989,2100.7146782999916,2101.714700599987,"[0, 0, 0]",1,2099.731342999992,2101.731362899998,,,,,,,,,,,,,,,,,,,,,5,m,3.1,29,r,MH IN,49,49,2022_Jul_15_1629,2020.2.10,distractmap,59.98814634280907,"['Right Face', 'Left Face', 'Right Face', 'Left Face']",
6,"[0.2, 0]",1,0,4,4,4,,,None,None,"[0, 0, 0]",2101.7808510999894,None,2101.7808510999894,2102.7813596999913,2102.7813596999913,None,"[0, 0, 0]",1,2101.7808510999894,None,,,,,,,,,,,,,,,,,,,,,5,m,3.1,29,r,MH IN,49,49,2022_Jul_15_1629,2020.2.10,distractmap,59.98814634280907,"['Right Face', 'Left Face', 'Right Face', 'Left Face']",
6,"[0.2, 0]",0,0,5,5,5,,,None,None,"[0, 0, 0]",2103.764711399999,2105.7647386000026,2103.764711399999,2104.764715600002,2104.748057799996,2105.7480551000044,"[0, 0, 0]",1,2103.764711399999,2105.7647386000026,,,,,,,,,,,,,,,,,,,,,5,m,3.1,29,r,MH IN,49,49,2022_Jul_15_1629,2020.2.10,distractmap,59.98814634280907,"['Right Face', 'Left Face', 'Right Face', 'Left Face']",
