	SID	date	sex	session	handedness	scanner	onset	duration	repetition	rating	body_site	keys	temperature	conditionrt	mouseclick	biopac_channel	condition	rt	value
0	2568	2023_Feb_03_1135	F	01	R	SP	2.7745296999346465	5.0102851670235395								19	Instructions		
1	2568	2023_Feb_03_1135	F	01	R	SP	8.420230400050059	2.0144332002382725								6	Cue		
2	2568	2023_Feb_03_1135	F	01	R	SP	10.43187339999713	6.008363060187548								7	Pre-Jitter		
3	2568	2023_Feb_03_1135	F	01	R	SP	16.467279499862343	15.004435220034793			Left Leg		48.0			15	Heat-Stimulation		
4	2568	2023_Feb_03_1135	F	01	R	SP	31.558775499928743	5.00493866042234								8	Mid-Jitter		
5	2568	2023_Feb_03_1135	F	01	R	SP	36.58457059995271	5.003531820140779								20	PainBinary	1.9669727999716997	1.0
6	2568	2023_Feb_03_1135	F	01	R	SP	41.613963699899614	5.011595020070672								21	IntensityRating		51.54320987654321
7	2568	2023_Feb_03_1135	F	01	R	SP	46.64585780003108	4.997850519837812								22	ToleranceRating	3.2503945999778807	-1.0
8	2568	2023_Feb_03_1135	F	01	R	SP	51.65004380000755	5.006243760231882								9	Post-Q-Jitter		
9	2568	2023_Feb_03_1135	F	01	R	SP	57.339919300051406	2.0093571201432496								6	Cue		
10	2568	2023_Feb_03_1135	F	01	R	SP	59.346704999916255	5.996406360063702								7	Pre-Jitter		
11	2568	2023_Feb_03_1135	F	01	R	SP	65.38757129991427	15.014928039861843			Left Leg		47.5			15	Heat-Stimulation		
12	2568	2023_Feb_03_1135	F	01	R	SP	80.4742662999779	9.008402060251683								8	Mid-Jitter		
13	2568	2023_Feb_03_1135	F	01	R	SP	89.50072999997064	5.00559722003527								20	PainBinary	2.1169097998645157	1.0
14	2568	2023_Feb_03_1135	F	01	R	SP	94.53153879987076	5.01078921998851								21	IntensityRating	3.800085199996829	32.839506172839506
15	2568	2023_Feb_03_1135	F	01	R	SP	99.56322479993105	4.997554220026359								22	ToleranceRating	1.5504252999089658	1.0
16	2568	2023_Feb_03_1135	F	01	R	SP	104.56735079991631	9.006092360243201								9	Post-Q-Jitter		
17	2568	2023_Feb_03_1135	F	01	R	SP	114.22900140006095	1.999015400186181								6	Cue		
18	2568	2023_Feb_03_1135	F	01	R	SP	116.22978379996493	5.998082859907299								7	Pre-Jitter		
19	2568	2023_Feb_03_1135	F	01	R	SP	122.24756859987974	14.996076019946486			Left Leg		47.5			15	Heat-Stimulation		
20	2568	2023_Feb_03_1135	F	01	R	SP	137.32308929995634	5.011847760295495								8	Mid-Jitter		
21	2568	2023_Feb_03_1135	F	01	R	SP	142.35101049998775	5.006136419950053								20	PainBinary	1.21687260014005	1.0
22	2568	2023_Feb_03_1135	F	01	R	SP	147.38276709988713	5.009423020295799								21	IntensityRating	3.1835234998725355	27.77777777777778
23	2568	2023_Feb_03_1135	F	01	R	SP	152.4125192000065	5.00001002009958								22	ToleranceRating	1.433853100053966	1.0
24	2568	2023_Feb_03_1135	F	01	R	SP	157.41800329997204	5.005829059984535								9	Post-Q-Jitter		
25	2568	2023_Feb_03_1135	F	01	R	SP	163.0816257998813	2.0114992004819214								6	Cue		
26	2568	2023_Feb_03_1135	F	01	R	SP	165.09722170000896	3.99754526023753								7	Pre-Jitter		
27	2568	2023_Feb_03_1135	F	01	R	SP	169.14185849996284	15.008445039857179			Left Leg		47.5			15	Heat-Stimulation		
28	2568	2023_Feb_03_1135	F	01	R	SP	184.2247430998832	7.009563360363245								8	Mid-Jitter		
29	2568	2023_Feb_03_1135	F	01	R	SP	191.25010750000365	5.008983019739389								20	PainBinary	1.635485399980098	1.0
30	2568	2023_Feb_03_1135	F	01	R	SP	196.28149560000747	4.996285219909623								21	IntensityRating	2.8012049000244588	30.185185185185187
31	2568	2023_Feb_03_1135	F	01	R	SP	201.29728819988668	4.998136020032689								22	ToleranceRating	1.167024299968034	1.0
32	2568	2023_Feb_03_1135	F	01	R	SP	206.30168929998763	7.006137960124761								9	Post-Q-Jitter		
33	2568	2023_Feb_03_1135	F	01	R	SP	213.96425189985894	2.013932400383055								6	Cue		
34	2568	2023_Feb_03_1135	F	01	R	SP	215.9811700999271	5.9973663601558656								7	Pre-Jitter		
35	2568	2023_Feb_03_1135	F	01	R	SP	222.0405379999429	15.012133500073105			Left Leg		47.5			15	Heat-Stimulation		
36	2568	2023_Feb_03_1135	F	01	R	SP	237.12433849996887	5.011415760265663								8	Mid-Jitter		
37	2568	2023_Feb_03_1135	F	01	R	SP	242.15147190005518	5.007316820090637								20	PainBinary	1.1502121998928487	1.0
38	2568	2023_Feb_03_1135	F	01	R	SP	247.18290119990706	5.011155319865793								21	IntensityRating	2.9003099999390543	37.03703703703704
39	2568	2023_Feb_03_1135	F	01	R	SP	252.21326879994012	5.0005187201313674								22	ToleranceRating	1.2337099998258054	1.0
40	2568	2023_Feb_03_1135	F	01	R	SP	257.2186960000545	5.006527760066092								9	Post-Q-Jitter		
41	2568	2023_Feb_03_1135	F	01	R	SP	263.84156670002267	2.0095882806926966								6	Cue		
42	2568	2023_Feb_03_1135	F	01	R	SP	265.84885549987666	7.996389560168609								7	Pre-Jitter		
43	2568	2023_Feb_03_1135	F	01	R	SP	273.90763269993477	15.012417600024492			Left Leg		47.5			15	Heat-Stimulation		
44	2568	2023_Feb_03_1135	F	01	R	SP	288.99025699985214	7.014072060352191								8	Mid-Jitter		
45	2568	2023_Feb_03_1135	F	01	R	SP	296.02009020000696	5.0045315199531615								20	PainBinary	1.5502942998427898	1.0
46	2568	2023_Feb_03_1135	F	01	R	SP	301.04926649993286	5.012940319953486								21	IntensityRating	2.7334203999489546	37.098765432098766
47	2568	2023_Feb_03_1135	F	01	R	SP	306.0822997998912	4.99696871987544								22	ToleranceRating	1.9671527000609785	1.0
48	2568	2023_Feb_03_1135	F	01	R	SP	311.0865138999652	7.005326859885827								9	Post-Q-Jitter		
49	2568	2023_Feb_03_1135	F	01	R	SP	319.5637135999277	1.9998877404723316								6	Cue		
50	2568	2023_Feb_03_1135	F	01	R	SP	321.56555169983767	5.997486160136759								7	Pre-Jitter		
51	2568	2023_Feb_03_1135	F	01	R	SP	327.6035486999899	15.00502267992124			Left Leg		47.5			15	Heat-Stimulation		
52	2568	2023_Feb_03_1135	F	01	R	SP	342.6947214999236	7.006189560052007								8	Mid-Jitter		
53	2568	2023_Feb_03_1135	F	01	R	SP	349.7206406998448	5.004512719810009								20	PainBinary	1.5668738998938352	1.0
54	2568	2023_Feb_03_1135	F	01	R	SP	354.7507495000027	5.011092720087618								21	IntensityRating	2.6185624001082033	36.66666666666667
55	2568	2023_Feb_03_1135	F	01	R	SP	359.782625899883	4.9974496201612055								22	ToleranceRating	2.8170928999315947	1.0
56	2568	2023_Feb_03_1135	F	01	R	SP	364.7868665999267	7.0057511599734426								9	Post-Q-Jitter		
57	2568	2023_Feb_03_1135	F	01	R	SP	371.8255101998802	8.478685880312696								26	ComfortRating	8.450459700077772	8.76543209876543
58	2568	2023_Feb_03_1135	F	01	R	SP	380.3224510999862	3.4850128199905157								24	ValenceRating	3.4668397998902947	54.99999999999999
59	2568	2023_Feb_03_1135	F	01	R	SP	383.8328821999021	3.947568319970742								26	IntensityRating	3.9167013000696898	55.06172839506173
60	2568	2023_Feb_03_1135	F	01	R	SP	387.8008552000392	4.6450175198260695								27	AvoidanceRating	4.616805299883708	-36.172839506172835
61	2568	2023_Feb_03_1135	F	01	R	SP	392.4635216000024	5.753108320059255								28	RelaxationRating	5.733744299970567	53.333333333333336
62	2568	2023_Feb_03_1135	F	01	R	SP	398.23601599992253	4.174867619993165								29	AttentionRating	4.1501680999062955	42.96296296296296
63	2568	2023_Feb_03_1135	F	01	R	SP	402.43099599983543	2.81829901994206								30	BoredomRating	2.8003795000258833	55.18518518518518
64	2568	2023_Feb_03_1135	F	01	R	SP	405.26557149994187	4.9159316199366								31	AlertnessRating	4.900559999980032	14.320987654320987
65	2568	2023_Feb_03_1135	F	01	R	SP	410.1991012999788	4.215666619827971								32	PosThxRating	4.200434400001541	-24.81481481481481
66	2568	2023_Feb_03_1135	F	01	R	SP	414.4331514998339	2.964294020086527								33	NegThxRating	2.9357595001347363	10.123456790123456
67	2568	2023_Feb_03_1135	F	01	R	SP	417.41511069983244	3.0170840199571103								34	SelfRating	3.0003737998194993	-20.370370370370367
68	2568	2023_Feb_03_1135	F	01	R	SP	420.4489702999126	5.782794119790196								35	OtherRating	5.767282700166106	16.66666666666667
69	2568	2023_Feb_03_1135	F	01	R	SP	426.2523447999265	3.4761910198722035								32	ImageryRating	3.45027850009501	-21.851851851851848
70	2568	2023_Feb_03_1135	F	01	R	SP	429.75167609984055	5.260887120151892								37	PresentRating	5.233475200133398	-31.11111111111113
