	SID	date	sex	session	handedness	scanner	onset	duration	repetition	rating	body_site	keys	temperature	conditionrt	mouseclick	biopac_channel	condition	rt	value
0	2568	2023_Feb_03_1135	F	01	R	SP	2.7742316001094878	4.999640367459506								19	Instructions		
1	2568	2023_Feb_03_1135	F	01	R	SP	8.444944400107488	2.00459186010994								6	Cue		
2	2568	2023_Feb_03_1135	F	01	R	SP	10.450991899939254	7.993085559923202								7	Pre-Jitter		
3	2568	2023_Feb_03_1135	F	01	R	SP	18.491480400087312	15.012267240090296			Abdomen		48.0			18	Heat-Stimulation		
4	2568	2023_Feb_03_1135	F	01	R	SP	33.57728149998002	5.007520760176703								8	Mid-Jitter		
5	2568	2023_Feb_03_1135	F	01	R	SP	38.60103200003505	5.010159819852561								20	PainBinary	3.3001247998327017	1.0
6	2568	2023_Feb_03_1135	F	01	R	SP	43.63363600010052	5.011749319732189								21	IntensityRating	2.4501173000317067	42.160493827160494
7	2568	2023_Feb_03_1135	F	01	R	SP	48.66444370010868	5.00023352005519								22	ToleranceRating	2.18384509999305	1.0
8	2568	2023_Feb_03_1135	F	01	R	SP	53.66919229994528	5.007533360039815								9	Post-Q-Jitter		
9	2568	2023_Feb_03_1135	F	01	R	SP	59.31419389997609	2.00042144022882								6	Cue		
10	2568	2023_Feb_03_1135	F	01	R	SP	61.316034000134096	5.997264960082248								7	Pre-Jitter		
11	2568	2023_Feb_03_1135	F	01	R	SP	67.3474045000039	15.001452679978684			Abdomen		48.5			18	Heat-Stimulation		
12	2568	2023_Feb_03_1135	F	01	R	SP	82.4245426999405	9.014104560017586								8	Mid-Jitter		
13	2568	2023_Feb_03_1135	F	01	R	SP	91.45197880011983	5.009399720001966								20	PainBinary	1.6000383999198675	1.0
14	2568	2023_Feb_03_1135	F	01	R	SP	96.4844873000402	5.011139320209622								21	IntensityRating	2.8835503000300378	39.32098765432099
15	2568	2023_Feb_03_1135	F	01	R	SP	101.51499160006642	5.000218519940972								22	ToleranceRating	1.4019089001230896	1.0
16	2568	2023_Feb_03_1135	F	01	R	SP	106.51998029998504	9.007036260329187								9	Post-Q-Jitter		
17	2568	2023_Feb_03_1135	F	01	R	SP	116.17493250011466	2.0134510002098978								6	Cue		
18	2568	2023_Feb_03_1135	F	01	R	SP	118.18303760001436	7.997871660161763								7	Pre-Jitter		
19	2568	2023_Feb_03_1135	F	01	R	SP	126.21410019998439	15.002623180160299			Abdomen		48.5			18	Heat-Stimulation		
20	2568	2023_Feb_03_1135	F	01	R	SP	141.2942924001254	5.009084060089663								8	Mid-Jitter		
21	2568	2023_Feb_03_1135	F	01	R	SP	146.31976620014757	5.00830551981926								20	PainBinary	1.5334306999575347	1.0
22	2568	2023_Feb_03_1135	F	01	R	SP	151.35086850007065	5.012868320103735								21	IntensityRating	2.2833973998203874	41.23456790123456
23	2568	2023_Feb_03_1135	F	01	R	SP	156.38229879993014	5.00012231990695								22	ToleranceRating	1.9170666998252273	1.0
24	2568	2023_Feb_03_1135	F	01	R	SP	161.38753290008754	5.006441759876907								9	Post-Q-Jitter		
25	2568	2023_Feb_03_1135	F	01	R	SP	167.7924526000861	2.0122168008238077								6	Cue		
26	2568	2023_Feb_03_1135	F	01	R	SP	169.8014338000212	3.9954360600095242								7	Pre-Jitter		
27	2568	2023_Feb_03_1135	F	01	R	SP	173.84046100010164	15.000960979843512			Abdomen		48.5			18	Heat-Stimulation		
28	2568	2023_Feb_03_1135	F	01	R	SP	188.92772309994325	7.009958360111341								8	Mid-Jitter		
29	2568	2023_Feb_03_1135	F	01	R	SP	195.95271029998548	5.010089019779116								20	PainBinary	1.5667300000786781	1.0
30	2568	2023_Feb_03_1135	F	01	R	SP	200.98545040003955	5.011385319987312								21	IntensityRating	2.9667814997956157	40.24691358024692
31	2568	2023_Feb_03_1135	F	01	R	SP	206.01578989997506	5.000817819964141								22	ToleranceRating	1.233760999981314	1.0
32	2568	2023_Feb_03_1135	F	01	R	SP	211.02128059999086	7.006640660343692								9	Post-Q-Jitter		
33	2568	2023_Feb_03_1135	F	01	R	SP	219.7410367000848	2.0158721406478435								6	Cue		
34	2568	2023_Feb_03_1135	F	01	R	SP	221.75105229998007	7.9973120600916445								7	Pre-Jitter		
35	2568	2023_Feb_03_1135	F	01	R	SP	229.80197050003335	14.995684440014884			Abdomen		48.5			18	Heat-Stimulation		
36	2568	2023_Feb_03_1135	F	01	R	SP	244.87960819993168	9.007307860068977								8	Mid-Jitter		
37	2568	2023_Feb_03_1135	F	01	R	SP	253.90454780007713	5.007628120016307								20	PainBinary	1.2000846001319587	1.0
38	2568	2023_Feb_03_1135	F	01	R	SP	258.93523079995066	5.013049820205197								21	IntensityRating	2.6834285999648273	45.49382716049382
39	2568	2023_Feb_03_1135	F	01	R	SP	263.96687340014614	4.999890819890425								22	ToleranceRating	1.700425200164318	1.0
40	2568	2023_Feb_03_1135	F	01	R	SP	268.97138580004685	9.00765285990201								9	Post-Q-Jitter		
41	2568	2023_Feb_03_1135	F	01	R	SP	279.4046386999544	2.0068197606597096								6	Cue		
42	2568	2023_Feb_03_1135	F	01	R	SP	281.41916780010797	3.995603360235691								7	Pre-Jitter		
43	2568	2023_Feb_03_1135	F	01	R	SP	285.4509719000198	14.9988770801574			Abdomen		48.5			18	Heat-Stimulation		
44	2568	2023_Feb_03_1135	F	01	R	SP	300.52702650008723	7.013632060261443								8	Mid-Jitter		
45	2568	2023_Feb_03_1135	F	01	R	SP	307.55554790003225	5.0067619199398905								20	PainBinary	1.100172100123018	1.0
46	2568	2023_Feb_03_1135	F	01	R	SP	312.58619790012017	5.012237819842994								21	IntensityRating	1.2501177999656647	49.691358024691354
47	2568	2023_Feb_03_1135	F	01	R	SP	317.6165660000406	5.001583019737154								22	ToleranceRating	1.4504537000320852	1.0
48	2568	2023_Feb_03_1135	F	01	R	SP	322.62210940010846	7.007305360166356								9	Post-Q-Jitter		
49	2568	2023_Feb_03_1135	F	01	R	SP	330.27931080013514	2.0091660001780838								6	Cue		
50	2568	2023_Feb_03_1135	F	01	R	SP	332.28593489993364	7.996548959985375								7	Pre-Jitter		
51	2568	2023_Feb_03_1135	F	01	R	SP	340.33539410005324	14.997833139961585			Abdomen		48.5			18	Heat-Stimulation		
52	2568	2023_Feb_03_1135	F	01	R	SP	355.4129167001229	9.009672260144725								8	Mid-Jitter		
53	2568	2023_Feb_03_1135	F	01	R	SP	364.43836949998513	5.008968420093879								20	PainBinary	1.2668523001484573	1.0
54	2568	2023_Feb_03_1135	F	01	R	SP	369.47099689999595	5.010512720094994								21	IntensityRating	1.2001703998539597	50.0
55	2568	2023_Feb_03_1135	F	01	R	SP	374.5009483001195	5.000703919911757								22	ToleranceRating	1.5336911999620497	1.0
56	2568	2023_Feb_03_1135	F	01	R	SP	379.50634360010736	9.006707160267979								9	Post-Q-Jitter		
57	2568	2023_Feb_03_1135	F	01	R	SP	388.5453916999977	5.845539279980585								26	ComfortRating	5.8171704998239875	-9.753086419753089
58	2568	2023_Feb_03_1135	F	01	R	SP	394.40801180014387	3.5537017199676484								24	ValenceRating	3.5188545999117196	62.160493827160494
59	2568	2023_Feb_03_1135	F	01	R	SP	397.984229600057	3.384668319951743								26	IntensityRating	3.367034000111744	43.7037037037037
60	2568	2023_Feb_03_1135	F	01	R	SP	401.38632540008985	3.7805711198598146								27	AvoidanceRating	3.750103499973193	37.65432098765433
61	2568	2023_Feb_03_1135	F	01	R	SP	405.1832163000945	3.5535457199439406								28	RelaxationRating	3.5337300999090075	38.20987654320988
62	2568	2023_Feb_03_1135	F	01	R	SP	408.75339259998873	5.663260220084339								29	AttentionRating	5.63341539981775	54.567901234567906
63	2568	2023_Feb_03_1135	F	01	R	SP	414.43325000000186	3.5036078200209886								30	BoredomRating	3.48369439993985	41.66666666666667
64	2568	2023_Feb_03_1135	F	01	R	SP	417.95236340002157	3.5321614199783653								31	AlertnessRating	3.517095699906349	-16.790123456790113
65	2568	2023_Feb_03_1135	F	01	R	SP	421.50205489993095	2.6995511199347675								32	PosThxRating	2.6837595000397414	-25.18518518518519
66	2568	2023_Feb_03_1135	F	01	R	SP	424.21911860001273	2.5821591201238334								33	NegThxRating	2.5670953998342156	27.777777777777786
67	2568	2023_Feb_03_1135	F	01	R	SP	426.818883900065	3.3660233200062066								34	SelfRating	3.35043690004386	12.098765432098773
68	2568	2023_Feb_03_1135	F	01	R	SP	430.20146260014735	3.6342594197485596								35	OtherRating	3.617071800166741	13.456790123456798
69	2568	2023_Feb_03_1135	F	01	R	SP	433.85241960012354	3.8324197200126946								32	ImageryRating	3.802913499996066	-28.888888888888886
70	2568	2023_Feb_03_1135	F	01	R	SP	437.7040828000754	4.095825919881463								37	PresentRating	4.066766800126061	17.777777777777786
