	SID	date	sex	session	handedness	scanner	onset	duration	repetition	rating	body_site	keys	temperature	conditionrt	mouseclick	biopac_channel	condition	rt	value
0	2568	2023_Feb_03_1135	F	01	R	SP	2.774510799907148	5.0060433484613895								19	Instructions		
1	2568	2023_Feb_03_1135	F	01	R	SP	8.657425299985334	2.0054615803528577								6	Cue		
2	2568	2023_Feb_03_1135	F	01	R	SP	10.67141449986957	7.994953660061583								7	Pre-Jitter		
3	2568	2023_Feb_03_1135	F	01	R	SP	18.7291886000894	15.012917899992317			Right Leg		48.0			16	Heat-Stimulation		
4	2568	2023_Feb_03_1135	F	01	R	SP	33.81531389988959	9.007569360081106								8	Mid-Jitter		
5	2568	2023_Feb_03_1135	F	01	R	SP	42.83912579994649	5.010156319942325								20	PainBinary	1.1667553998995572	1.0
6	2568	2023_Feb_03_1135	F	01	R	SP	47.87654189998284	5.002094220137224								21	IntensityRating	1.633345799986273	50.18518518518519
7	2568	2023_Feb_03_1135	F	01	R	SP	52.902507399907336	5.000277120154351								22	ToleranceRating	1.9837720000650734	1.0
8	2568	2023_Feb_03_1135	F	01	R	SP	57.90804490004666	9.006009560078382								9	Post-Q-Jitter		
9	2568	2023_Feb_03_1135	F	01	R	SP	67.55743289995007	2.0068562403321266								6	Cue		
10	2568	2023_Feb_03_1135	F	01	R	SP	69.57080810004845	5.9973542601801455								7	Pre-Jitter		
11	2568	2023_Feb_03_1135	F	01	R	SP	75.61653860006481	15.006110739894211			Right Leg		48.5			16	Heat-Stimulation		
12	2568	2023_Feb_03_1135	F	01	R	SP	90.6979012999218	7.010240560164675								8	Mid-Jitter		
13	2568	2023_Feb_03_1135	F	01	R	SP	97.72397610009648	5.008240820141509								20	PainBinary	1.7667167000472546	1.0
14	2568	2023_Feb_03_1135	F	01	R	SP	102.75569500005804	5.01158211985603								21	IntensityRating	3.9002405998762697	53.333333333333336
15	2568	2023_Feb_03_1135	F	01	R	SP	107.78641529986635	5.000283719738945								22	ToleranceRating	1.2670134999789298	-1.0
16	2568	2023_Feb_03_1135	F	01	R	SP	112.79182949988171	7.006274459883571								9	Post-Q-Jitter		
17	2568	2023_Feb_03_1135	F	01	R	SP	120.44794879993424	2.0102716002147645								6	Cue		
18	2568	2023_Feb_03_1135	F	01	R	SP	122.45550070004538	5.995663260109723								7	Pre-Jitter		
19	2568	2023_Feb_03_1135	F	01	R	SP	128.51059439987876	15.002316839993			Right Leg		48.0			16	Heat-Stimulation		
20	2568	2023_Feb_03_1135	F	01	R	SP	143.5976269999519	7.011888060020283								8	Mid-Jitter		
21	2568	2023_Feb_03_1135	F	01	R	SP	150.62382710003294	5.009665619814768								20	PainBinary	1.116827999940142	1.0
22	2568	2023_Feb_03_1135	F	01	R	SP	155.65636999998242	5.011341620003805								21	IntensityRating	2.4334786999970675	54.75308641975308
23	2568	2023_Feb_03_1135	F	01	R	SP	160.6864271000959	5.001353719970211								22	ToleranceRating	2.8337477000895888	1.0
24	2568	2023_Feb_03_1135	F	01	R	SP	165.6921757000964	7.006649059941992								9	Post-Q-Jitter		
25	2568	2023_Feb_03_1135	F	01	R	SP	173.3632783999201	2.01400876021944								6	Cue		
26	2568	2023_Feb_03_1135	F	01	R	SP	175.37199710006826	5.997196560027078								7	Pre-Jitter		
27	2568	2023_Feb_03_1135	F	01	R	SP	181.46347409998998	15.014347719959915			Right Leg		48.0			16	Heat-Stimulation		
28	2568	2023_Feb_03_1135	F	01	R	SP	196.55334570002742	5.001525160158053								8	Mid-Jitter		
29	2568	2023_Feb_03_1135	F	01	R	SP	201.5748344999738	5.008741319878027								20	PainBinary	1.2859014000277966	1.0
30	2568	2023_Feb_03_1135	F	01	R	SP	206.60727429995313	5.010626119794324								21	IntensityRating	2.3691101998556405	58.76543209876544
31	2568	2023_Feb_03_1135	F	01	R	SP	211.63816850003786	4.998935819836333								22	ToleranceRating	1.3504641999024898	-1.0
32	2568	2023_Feb_03_1135	F	01	R	SP	216.6426486999262	5.006765460129827								9	Post-Q-Jitter		
33	2568	2023_Feb_03_1135	F	01	R	SP	222.30602440005168	2.0128894003573805								6	Cue		
34	2568	2023_Feb_03_1135	F	01	R	SP	224.3221954999026	7.997807060368359								7	Pre-Jitter		
35	2568	2023_Feb_03_1135	F	01	R	SP	232.3608289998956	15.00416278024204			Right Leg		47.5			16	Heat-Stimulation		
36	2568	2023_Feb_03_1135	F	01	R	SP	247.45067879999988	5.007959560025483								8	Mid-Jitter		
37	2568	2023_Feb_03_1135	F	01	R	SP	252.47578900004737	5.0078563201241195								20	PainBinary	1.1333651999011636	1.0
38	2568	2023_Feb_03_1135	F	01	R	SP	257.5068502998911	5.012514119967818								21	IntensityRating	2.4186543999239802	60.18518518518518
39	2568	2023_Feb_03_1135	F	01	R	SP	262.5380360998679	5.000248619820923								22	ToleranceRating	2.7172660001087934	-1.0
40	2568	2023_Feb_03_1135	F	01	R	SP	267.5437060999684	5.005692160222679								9	Post-Q-Jitter		
41	2568	2023_Feb_03_1135	F	01	R	SP	273.1805000999011	2.01502134045586								6	Cue		
42	2568	2023_Feb_03_1135	F	01	R	SP	275.18940769997425	3.9976639600936323								7	Pre-Jitter		
43	2568	2023_Feb_03_1135	F	01	R	SP	279.21195910009556	15.002720719901845			Right Leg		47.0			16	Heat-Stimulation		
44	2568	2023_Feb_03_1135	F	01	R	SP	294.2986538000405	9.012969360221177								8	Mid-Jitter		
45	2568	2023_Feb_03_1135	F	01	R	SP	303.32541569997557	5.00967431999743								20	PainBinary	1.2500779998954386	1.0
46	2568	2023_Feb_03_1135	F	01	R	SP	308.3578782998957	5.011579220183194								21	IntensityRating	2.569290699902922	56.91358024691359
47	2568	2023_Feb_03_1135	F	01	R	SP	313.38788080005907	5.001688819844276								22	ToleranceRating	2.0170160001143813	1.0
48	2568	2023_Feb_03_1135	F	01	R	SP	318.39360999991186	9.006982460152358								9	Post-Q-Jitter		
49	2568	2023_Feb_03_1135	F	01	R	SP	328.0274888998829	2.0055282805114985								6	Cue		
50	2568	2023_Feb_03_1135	F	01	R	SP	330.04027660004795	5.997162760002539								7	Pre-Jitter		
51	2568	2023_Feb_03_1135	F	01	R	SP	336.0892850998789	14.99934673984535			Right Leg		47.0			16	Heat-Stimulation		
52	2568	2023_Feb_03_1135	F	01	R	SP	351.1658298999537	5.013150660088286								8	Mid-Jitter		
53	2568	2023_Feb_03_1135	F	01	R	SP	356.19487409992144	5.005260719917715								20	PainBinary	1.7506067000795156	1.0
54	2568	2023_Feb_03_1135	F	01	R	SP	361.22495849989355	5.011850520037115								21	IntensityRating	2.3501210000831634	45.67901234567901
55	2568	2023_Feb_03_1135	F	01	R	SP	366.2555309999734	5.000768819823861								22	ToleranceRating	1.2170373999979347	1.0
56	2568	2023_Feb_03_1135	F	01	R	SP	371.2612974999938	5.006059760227799								9	Post-Q-Jitter		
57	2568	2023_Feb_03_1135	F	01	R	SP	376.30033089988865	7.094853080110624								26	ComfortRating	7.067092000041157	-8.024691358024697
58	2568	2023_Feb_03_1135	F	01	R	SP	383.4123072999064	3.9709968199022114								24	ValenceRating	3.9501462001353502	61.91358024691358
59	2568	2023_Feb_03_1135	F	01	R	SP	387.40655689989217	3.33257071999833								26	IntensityRating	3.3175194999203086	68.45679012345678
60	2568	2023_Feb_03_1135	F	01	R	SP	390.7586602999363	3.3451036198530346								27	AvoidanceRating	3.31682309997268	35.18518518518519
61	2568	2023_Feb_03_1135	F	01	R	SP	394.1211907998659	2.903438220033422								28	RelaxationRating	2.883929400006309	40.06172839506172
62	2568	2023_Feb_03_1135	F	01	R	SP	397.0416745999828	3.4125229199416935								29	AttentionRating	3.383394999895245	64.69135802469135
63	2568	2023_Feb_03_1135	F	01	R	SP	400.4713520000223	2.6865604198537767								30	BoredomRating	2.6670794000383466	50.18518518518519
64	2568	2023_Feb_03_1135	F	01	R	SP	403.1736564000603	2.78200281993486								31	AlertnessRating	2.7526640999130905	13.95061728395062
65	2568	2023_Feb_03_1135	F	01	R	SP	405.9737841000315	2.59851911989972								32	PosThxRating	2.583869199967012	-21.48148148148148
66	2568	2023_Feb_03_1135	F	01	R	SP	408.59042920009233	3.531949320109561								33	NegThxRating	3.5170745998620987	38.148148148148124
67	2568	2023_Feb_03_1135	F	01	R	SP	412.13987120008096	3.5664634199347347								34	SelfRating	3.5505201001651585	35.06172839506175
68	2568	2023_Feb_03_1135	F	01	R	SP	415.7226249000523	2.1010413200128824								35	OtherRating	2.0838337000459433	-37.53086419753087
69	2568	2023_Feb_03_1135	F	01	R	SP	417.84140640008263	5.0635543200187385								32	ImageryRating	5.050523000070825	-40.61728395061729
70	2568	2023_Feb_03_1135	F	01	R	SP	422.9253960000351	4.179042320000008								37	PresentRating	4.150198299903423	49.25925925925927
