	SID	date	gender	session	handedness	scanner	onset	duration	repetition	rating	body_site	keys	temperature	conditionrt	mouseclick	biopac_channel	condition	rt	value
0	9999	2022_Sep_07_1607	m	1	r	MS	2.786138600000413	5.017681039993477								198	Instructions		
1	9999	2022_Sep_07_1607	m	1	r	MS	7.955850099999225	2.032443379997858								8	Cue		
2	9999	2022_Sep_07_1607	m	1	r	MS	10.005064699998911	8.008982039995317								9	Pre-Jitter		
3	9999	2022_Sep_07_1607	m	1	r	MS	18.020324199998868	20.004540759997326								22	Heat-Stimulation		
4	9999	2022_Sep_07_1607	m	1	r	MS	38.04398510000101	5.003341759995237								10	Mid-Jitter		
5	9999	2022_Sep_07_1607	m	1	r	MS	43.09901230000105	5.002851919998648								42	PainBinary		1.0
6	9999	2022_Sep_07_1607	m	1	r	MS	48.168234000000666	5.007982800001628								40	IntensityRating	4.957638199997746	48.27160493827161
7	9999	2022_Sep_07_1607	m	1	r	MS	53.21542390000104	5.006810339997173								40	ToleranceRating	1.5632556000018667	42.530864197530875
8	9999	2022_Sep_07_1607	m	1	r	MS	58.248449300001084	4.996865959998104								11	Post-Q-Jitter		
9	9999	2022_Sep_07_1607	m	1	r	MS	63.39926059999925	2.0212075999988883								8	Cue		
10	9999	2022_Sep_07_1607	m	1	r	MS	65.43508139999904	8.007878659998823								9	Pre-Jitter		
11	9999	2022_Sep_07_1607	m	1	r	MS	73.46110849999968	19.99838135999744								22	Heat-Stimulation		
12	9999	2022_Sep_07_1607	m	1	r	MS	93.48384060000171	6.997330059999513								10	Mid-Jitter		
13	9999	2022_Sep_07_1607	m	1	r	MS	100.54098819999854	5.0073332200008736								42	PainBinary		0.0
14	9999	2022_Sep_07_1607	m	1	r	MS	105.59408489999987	5.012027220000164								40	IntensityRating		50.0
15	9999	2022_Sep_07_1607	m	1	r	MS	110.63040940000064	5.0162457400001585								40	ToleranceRating		50.0
16	9999	2022_Sep_07_1607	m	1	r	MS	115.66827249999915	6.994610059999104								11	Post-Q-Jitter		
17	9999	2022_Sep_07_1607	m	1	r	MS	122.82694579999952	2.018189099995652								8	Cue		
18	9999	2022_Sep_07_1607	m	1	r	MS	124.87223280000035	4.0057833600003505								9	Pre-Jitter		
19	9999	2022_Sep_07_1607	m	1	r	MS	128.89685699999973	20.002394259998255								22	Heat-Stimulation		
20	9999	2022_Sep_07_1607	m	1	r	MS	148.92186829999991	4.998527659998217								10	Mid-Jitter		
21	9999	2022_Sep_07_1607	m	1	r	MS	153.97805879999942	5.012075720002031								42	PainBinary		0.0
22	9999	2022_Sep_07_1607	m	1	r	MS	159.03344840000136	5.012077819996193								40	IntensityRating		50.0
23	9999	2022_Sep_07_1607	m	1	r	MS	164.07062850000148	5.014480639994872								40	ToleranceRating		50.0
24	9999	2022_Sep_07_1607	m	1	r	MS	169.107058900001	4.997405459998845								11	Post-Q-Jitter		
25	9999	2022_Sep_07_1607	m	1	r	MS	174.2558640999996	2.025638200000685								8	Cue		
26	9999	2022_Sep_07_1607	m	1	r	MS	176.2931658999987	8.009338359999674								9	Pre-Jitter		
27	9999	2022_Sep_07_1607	m	1	r	MS	184.32131730000037	19.995775560000766								22	Heat-Stimulation		
28	9999	2022_Sep_07_1607	m	1	r	MS	204.3405285000008	5.00346055999762								10	Mid-Jitter		
29	9999	2022_Sep_07_1607	m	1	r	MS	209.3975156000015	5.015234019996569								42	PainBinary		0.0
30	9999	2022_Sep_07_1607	m	1	r	MS	214.45344459999978	5.014061220001167								40	IntensityRating		50.0
31	9999	2022_Sep_07_1607	m	1	r	MS	219.4925919999987	5.012787539999408								40	ToleranceRating		50.0
32	9999	2022_Sep_07_1607	m	1	r	MS	224.5272412000013	4.999247859999741								11	Post-Q-Jitter		
33	9999	2022_Sep_07_1607	m	1	r	MS	229.68938889999845	2.017491099999461								8	Cue		
34	9999	2022_Sep_07_1607	m	1	r	MS	231.7297374000009	6.0133093600015854								9	Pre-Jitter		
35	9999	2022_Sep_07_1607	m	1	r	MS	237.75763519999964	20.001796060001652								22	Heat-Stimulation		
36	9999	2022_Sep_07_1607	m	1	r	MS	257.7810682999989	8.997826560000249								10	Mid-Jitter		
37	9999	2022_Sep_07_1607	m	1	r	MS	266.8367631000001	5.008897119994799								42	PainBinary		0.0
38	9999	2022_Sep_07_1607	m	1	r	MS	271.91385850000006	5.015529400003288								40	IntensityRating		50.0
39	9999	2022_Sep_07_1607	m	1	r	MS	276.9639395000013	5.008940339997935								40	ToleranceRating		50.0
40	9999	2022_Sep_07_1607	m	1	r	MS	281.99808109999867	8.993106459998671								11	Post-Q-Jitter		
41	9999	2022_Sep_07_1607	m	1	r	MS	291.14802979999877	2.0157857999984117								8	Cue		
42	9999	2022_Sep_07_1607	m	1	r	MS	293.1801712000015	8.00980055999753								9	Pre-Jitter		
43	9999	2022_Sep_07_1607	m	1	r	MS	301.20810340000025	19.996605859996635								22	Heat-Stimulation		
44	9999	2022_Sep_07_1607	m	1	r	MS	321.2490609000015	7.0089373199989495								10	Mid-Jitter		
45	9999	2022_Sep_07_1607	m	1	r	MS	328.3039165000009	5.006784119999793								42	PainBinary		0.0
46	9999	2022_Sep_07_1607	m	1	r	MS	333.35804949999874	5.009382619995449								40	IntensityRating		50.0
47	9999	2022_Sep_07_1607	m	1	r	MS	338.39634170000136	5.009737639997184								40	ToleranceRating		50.0
48	9999	2022_Sep_07_1607	m	1	r	MS	343.4306227999987	6.995323360002658								11	Post-Q-Jitter		
49	9999	2022_Sep_07_1607	m	1	r	MS	350.5861412000013	2.0086183000021265								8	Cue		
50	9999	2022_Sep_07_1607	m	1	r	MS	352.61584980000043	6.0091191600004095								9	Pre-Jitter		
51	9999	2022_Sep_07_1607	m	1	r	MS	358.64416469999924	19.99676325999826								22	Heat-Stimulation		
52	9999	2022_Sep_07_1607	m	1	r	MS	378.66576089999944	4.99953725999876								10	Mid-Jitter		
53	9999	2022_Sep_07_1607	m	1	r	MS	383.7443397999996	5.001482400006353								42	PainBinary		0.0
54	9999	2022_Sep_07_1607	m	1	r	MS	388.7959327999997	5.00927331999992								40	IntensityRating		50.0
55	9999	2022_Sep_07_1607	m	1	r	MS	393.8333205000017	5.011217740000575								40	ToleranceRating		50.0
56	9999	2022_Sep_07_1607	m	1	r	MS	398.87605659999826	5.014672640001663								11	Post-Q-Jitter		
57	9999	2022_Sep_07_1607	m	1	r	MS	403.94764710000163	5.013370400003623								41	ComfortRating		10.987654320987644
58	9999	2022_Sep_07_1607	m	1	r	MS	409.0482531000016	5.022677760003717								39	ValenceRating		70.8641975308642
59	9999	2022_Sep_07_1607	m	1	r	MS	414.1033313000007	5.004647140001907								41	IntensityRating		50.0
60	9999	2022_Sep_07_1607	m	1	r	MS	419.15787310000087	5.02036981999845								200	AvoidanceRating		0.0
61	9999	2022_Sep_07_1607	m	1	r	MS	424.229234800001	5.002122319998307								201	RelaxationRating		0.0
62	9999	2022_Sep_07_1607	m	1	r	MS	429.28270749999865	5.020176019996143								202	AttentionRating		0.0
63	9999	2022_Sep_07_1607	m	1	r	MS	434.3423819000018	5.009047319999809								203	BoredomRating		0.0
64	9999	2022_Sep_07_1607	m	1	r	MS	439.39049779999914	5.004599219999363								204	AlertnessRating		0.0
65	9999	2022_Sep_07_1607	m	1	r	MS	444.43347169999834	5.010374219997175								205	PosThxRating		0.0
66	9999	2022_Sep_07_1607	m	1	r	MS	449.48064220000015	5.007736520001345								206	NegThxRating		0.0
67	9999	2022_Sep_07_1607	m	1	r	MS	454.5257308	5.009349719995953								207	SelfRating		0.0
68	9999	2022_Sep_07_1607	m	1	r	MS	459.5758195999988	5.017641619997448								208	OtherRating		0.0
69	9999	2022_Sep_07_1607	m	1	r	MS	464.6377151000015	5.018791119997331								205	ImageryRating		0.0
70	9999	2022_Sep_07_1607	m	1	r	MS	469.70240900000135	5.015280119998351								210	PresentRating		0.0
