RestT1,TaskT1,square,location,corrAns,counterbalancer.thisRepN,counterbalancer.thisTrialN,counterbalancer.thisN,counterbalancer.thisIndex,RestT1Loop.thisRepN,RestT1Loop.thisTrialN,RestT1Loop.thisN,RestT1Loop.thisIndex,TaskT1Loop.thisRepN,TaskT1Loop.thisTrialN,TaskT1Loop.thisN,TaskT1Loop.thisIndex,trials_2.thisRepN,trials_2.thisTrialN,trials_2.thisN,trials_2.thisIndex,NbackInstructions.started,NbackInstructions.stopped,NbackStart.keys,NbackStart.rt,NbackStart.started,NbackStart.stopped,fixation_2.started,fixation_2.stopped,grid_lines_2.started,grid_lines_2.stopped,target_square_2.started,target_square_2.stopped,fixation_3.started,fixation_3.stopped,response_2.click,response_2.corr,response_2.rt,response_2.started,response_2.stopped,fixation_1.started,fixation_1.stopped,subject number,gender,session,handedness,scanner,date,expName,psychopyVersion,frameRate,
0,1,,,,0,0,0,0,,,,,0,0,0,0,,,,,33.91869299998507,None,space,51.77750670001842,33.91869299998507,None,,,,,,,,,,,,,,,,2,m,5,r,CIB,2021_May_25_1140,WASABI Nback,2020.2.10,59.98544748946163,
0,1,5,"[0, 0]",None,0,0,0,0,,,,,0,0,0,0,0,0,0,0,,,,,,,None,None,None,None,None,None,None,None,[],[],[],None,None,,,2,m,5,r,CIB,2021_May_25_1140,WASABI Nback,2020.2.10,59.98544748946163,
0,1,2,"[0, 0.2]",None,0,0,0,0,,,,,0,0,0,0,0,1,1,1,,,,,,,,,None,None,None,None,None,None,[],[],[],None,None,,,2,m,5,r,CIB,2021_May_25_1140,WASABI Nback,2020.2.10,59.98544748946163,
0,1,6,"[0.2, 0]",None,0,0,0,0,,,,,0,0,0,0,0,2,2,2,,,,,,,,,91.62282219994813,None,91.62282219994813,92.62361000012606,92.62361000012606,None,None,1,,91.62282219994813,None,,,2,m,5,r,CIB,2021_May_25_1140,WASABI Nback,2020.2.10,59.98544748946163,
0,1,9,"[0.2, -0.2]",None,0,0,0,0,,,,,0,0,0,0,0,3,3,3,,,,,,,,,92.74026270001195,None,92.74026270001195,93.74028680007905,93.72360839997418,94.72360770008527,None,1,,92.74026270001195,None,,,2,m,5,r,CIB,2021_May_25_1140,WASABI Nback,2020.2.10,59.98544748946163,
0,1,3,"[0.2, 0.2]",None,0,0,0,0,,,,,0,0,0,0,0,4,4,4,,,,,,,,,94.74027800001204,None,94.74027800001204,95.74028289993294,95.7236167001538,96.72365260007791,None,1,,94.74027800001204,None,,,2,m,5,r,CIB,2021_May_25_1140,WASABI Nback,2020.2.10,59.98544748946163,
0,1,9,"[0.2, -0.2]",1,0,0,0,0,,,,,0,0,0,0,0,5,5,5,,,,,,,,,96.74032430001535,None,96.74032430001535,97.74031309993006,97.72356500010937,98.72366659995168,None,0,,96.74032430001535,None,,,2,m,5,r,CIB,2021_May_25_1140,WASABI Nback,2020.2.10,59.98544748946163,
0,1,7,"[-0.2, -0.2]",None,0,0,0,0,,,,,0,0,0,0,0,6,6,6,,,,,,,,,98.74020370002836,None,98.74020370002836,99.7403428000398,99.7236504999455,100.72368180006742,None,1,,98.74020370002836,None,,,2,m,5,r,CIB,2021_May_25_1140,WASABI Nback,2020.2.10,59.98544748946163,
0,1,1,"[-0.2, 0.2]",None,0,0,0,0,,,,,0,0,0,0,0,7,7,7,,,,,,,,,100.74033470009454,None,100.74033470009454,101.74035040009767,101.72365729999729,102.72369559993967,None,1,,100.74033470009454,None,,,2,m,5,r,CIB,2021_May_25_1140,WASABI Nback,2020.2.10,59.98544748946163,
0,1,5,"[0, 0]",None,0,0,0,0,,,,,0,0,0,0,0,8,8,8,,,,,,,,,102.74036860000342,None,102.74036860000342,103.7403617000673,103.72371360007674,104.72365440009162,None,1,,102.74036860000342,None,,,2,m,5,r,CIB,2021_May_25_1140,WASABI Nback,2020.2.10,59.98544748946163,
0,1,7,"[-0.2, -0.2]",None,0,0,0,0,,,,,0,0,0,0,0,9,9,9,,,,,,,,,104.74038490001112,None,104.74038490001112,105.74039019993506,105.72370840003714,106.72371540009044,None,1,,104.74038490001112,None,,,2,m,5,r,CIB,2021_May_25_1140,WASABI Nback,2020.2.10,59.98544748946163,
0,1,5,"[0, 0]",1,0,0,0,0,,,,,0,0,0,0,0,10,10,10,,,,,,,,,106.74043929995969,None,106.74043929995969,107.7403917000629,107.72373159998097,108.72373090009205,None,0,,106.74043929995969,None,,,2,m,5,r,CIB,2021_May_25_1140,WASABI Nback,2020.2.10,59.98544748946163,
0,1,6,"[0.2, 0]",None,0,0,0,0,,,,,0,0,0,0,0,11,11,11,,,,,,,,,108.74041630001739,None,108.74041630001739,109.74040980008431,109.7237380000297,110.72376510011964,None,1,,108.74041630001739,None,,,2,m,5,r,CIB,2021_May_25_1140,WASABI Nback,2020.2.10,59.98544748946163,
0,1,3,"[0.2, 0.2]",None,0,0,0,0,,,,,0,0,0,0,0,12,12,12,,,,,,,,,110.74044229998253,None,110.74044229998253,111.7404432001058,111.72375380015,112.72385139996186,None,1,,110.74044229998253,None,,,2,m,5,r,CIB,2021_May_25_1140,WASABI Nback,2020.2.10,59.98544748946163,
0,1,6,"[0.2, 0]",1,0,0,0,0,,,,,0,0,0,0,0,13,13,13,,,,,,,,,112.74045959999785,None,112.74045959999785,113.7404692999553,113.72371609997936,114.7237772999797,None,0,,112.74045959999785,None,,,2,m,5,r,CIB,2021_May_25_1140,WASABI Nback,2020.2.10,59.98544748946163,
0,1,8,"[0, -0.2]",None,0,0,0,0,,,,,0,0,0,0,0,14,14,14,,,,,,,,,114.74035290000029,None,114.74035290000029,115.74046609993093,115.7238036999479,116.72380940010771,None,1,,114.74035290000029,None,,,2,m,5,r,CIB,2021_May_25_1140,WASABI Nback,2020.2.10,59.98544748946163,
0,1,9,"[0.2, -0.2]",None,0,0,0,0,,,,,0,0,0,0,0,15,15,15,,,,,,,,,116.74040010012686,None,116.74040010012686,117.74049039999954,117.72382890013978,118.72381939995103,None,1,,116.74040010012686,None,,,2,m,5,r,CIB,2021_May_25_1140,WASABI Nback,2020.2.10,59.98544748946163,
0,1,9,"[0.2, -0.2]",None,0,0,0,0,,,,,0,0,0,0,0,16,16,16,,,,,,,,,118.74051259993576,None,118.74051259993576,119.74054370005615,119.72384670004249,120.72383769997396,None,1,,118.74051259993576,None,,,2,m,5,r,CIB,2021_May_25_1140,WASABI Nback,2020.2.10,59.98544748946163,
0,1,1,"[-0.2, 0.2]",None,0,0,0,0,,,,,0,0,0,0,0,17,17,17,,,,,,,,,120.74052250012755,None,120.74052250012755,121.74056329997256,121.72386729996651,122.72385499998927,None,1,,120.74052250012755,None,,,2,m,5,r,CIB,2021_May_25_1140,WASABI Nback,2020.2.10,59.98544748946163,
0,1,3,"[0.2, 0.2]",None,0,0,0,0,,,,,0,0,0,0,0,18,18,18,,,,,,,,,122.74053529999219,None,122.74053529999219,123.74054450006224,123.72385870013386,124.72389329993166,None,1,,122.74053529999219,None,,,2,m,5,r,CIB,2021_May_25_1140,WASABI Nback,2020.2.10,59.98544748946163,
0,1,5,"[0, 0]",None,0,0,0,0,,,,,0,0,0,0,0,19,19,19,,,,,,,,,124.74055849993601,None,124.74055849993601,125.74056049995124,125.72387939994223,126.72390630003065,None,1,,124.74055849993601,None,,,2,m,5,r,CIB,2021_May_25_1140,WASABI Nback,2020.2.10,59.98544748946163,
0,1,3,"[0.2, 0.2]",1,0,0,0,0,,,,,0,0,0,0,0,20,20,20,,,,,,,,,126.74057870008983,None,126.74057870008983,127.74045930011198,127.72391459997743,128.72392620006576,None,0,,126.74057870008983,None,,,2,m,5,r,CIB,2021_May_25_1140,WASABI Nback,2020.2.10,59.98544748946163,
0,1,4,"[-0.2, 0]",None,0,0,0,0,,,,,0,0,0,0,0,21,21,21,,,,,,,,,128.74057679995894,None,128.74057679995894,129.74059329996817,129.72390500013717,130.7239471001085,None,1,,128.74057679995894,None,,,2,m,5,r,CIB,2021_May_25_1140,WASABI Nback,2020.2.10,59.98544748946163,
0,1,7,"[-0.2, -0.2]",None,0,0,0,0,,,,,0,0,0,0,0,22,22,22,,,,,,,,,130.74048750009388,None,130.74048750009388,131.7405997000169,131.72394099994563,132.72396100009792,None,1,,130.74048750009388,None,,,2,m,5,r,CIB,2021_May_25_1140,WASABI Nback,2020.2.10,59.98544748946163,
0,1,4,"[-0.2, 0]",1,0,0,0,0,,,,,0,0,0,0,0,23,23,23,,,,,,,,,132.74062240007333,None,132.74062240007333,133.7406246000901,133.7239771001041,134.7239759999793,None,0,,132.74062240007333,None,,,2,m,5,r,CIB,2021_May_25_1140,WASABI Nback,2020.2.10,59.98544748946163,
0,1,4,"[-0.2, 0]",None,0,0,0,0,,,,,0,0,0,0,0,24,24,24,,,,,,,,,134.7406274001114,None,134.7406274001114,135.7406490999274,135.72398170013912,136.72399720014073,None,1,,134.7406274001114,None,,,2,m,5,r,CIB,2021_May_25_1140,WASABI Nback,2020.2.10,59.98544748946163,
0,1,5,"[0, 0]",None,0,0,0,0,,,,,0,0,0,0,0,25,25,25,,,,,,,,,136.74064720002934,None,136.74064720002934,137.74065140006132,137.72399840014987,138.72399840014987,None,1,,136.74064720002934,None,,,2,m,5,r,CIB,2021_May_25_1140,WASABI Nback,2020.2.10,59.98544748946163,
0,1,2,"[0, 0.2]",None,0,0,0,0,,,,,0,0,0,0,0,26,26,26,,,,,,,,,138.74065409996547,None,138.74065409996547,139.74068649997935,139.7240260001272,140.72403179993853,None,1,,138.74065409996547,None,,,2,m,5,r,CIB,2021_May_25_1140,WASABI Nback,2020.2.10,59.98544748946163,
0,1,6,"[0.2, 0]",None,0,0,0,0,,,,,0,0,0,0,0,27,27,27,,,,,,,,,140.74068260006607,None,140.74068260006607,141.7406897000037,141.72402220009826,142.72406110004522,None,1,,140.74068260006607,None,,,2,m,5,r,CIB,2021_May_25_1140,WASABI Nback,2020.2.10,59.98544748946163,
0,1,7,"[-0.2, -0.2]",None,0,0,0,0,,,,,0,0,0,0,0,28,28,28,,,,,,,,,142.74070920003578,None,142.74070920003578,143.74071400007233,143.72405660012737,144.7240667999722,None,1,,142.74070920003578,None,,,2,m,5,r,CIB,2021_May_25_1140,WASABI Nback,2020.2.10,59.98544748946163,
0,1,6,"[0.2, 0]",1,0,0,0,0,,,,,0,0,0,0,0,29,29,29,,,,,,,,,144.74072919995524,None,144.74072919995524,145.7407394000329,145.7240820999723,146.72406810009852,None,0,,144.74072919995524,None,,,2,m,5,r,CIB,2021_May_25_1140,WASABI Nback,2020.2.10,59.98544748946163,
0,1,6,"[0.2, 0]",None,0,0,0,0,,,,,0,0,0,0,0,30,30,30,,,,,,,,,146.7407273000572,None,146.7407273000572,147.74074160004966,147.7240728000179,148.72410079999827,None,1,,146.7407273000572,None,,,2,m,5,r,CIB,2021_May_25_1140,WASABI Nback,2020.2.10,59.98544748946163,
0,1,7,"[-0.2, -0.2]",None,0,0,0,0,,,,,0,0,0,0,0,31,31,31,,,,,,,,,148.7407671001274,None,148.7407671001274,149.74075370002538,149.72408820013516,150.72413030010648,None,1,,148.7407671001274,None,,,2,m,5,r,CIB,2021_May_25_1140,WASABI Nback,2020.2.10,59.98544748946163,
0,1,6,"[0.2, 0]",1,0,0,0,0,,,,,0,0,0,0,0,32,32,32,,,,,,,,,150.74084300012328,None,150.74084300012328,151.74078150000423,151.7241318000015,152.72412080015056,None,0,,150.74084300012328,None,,,2,m,5,r,CIB,2021_May_25_1140,WASABI Nback,2020.2.10,59.98544748946163,
0,1,2,"[0, 0.2]",None,0,0,0,0,,,,,0,0,0,0,0,33,33,33,,,,,,,,,152.74066919996403,None,152.74066919996403,153.7407943001017,153.72412599995732,154.72415850008838,None,1,,152.74066919996403,None,,,2,m,5,r,CIB,2021_May_25_1140,WASABI Nback,2020.2.10,59.98544748946163,
0,1,5,"[0, 0]",None,0,0,0,0,,,,,0,0,0,0,0,34,34,34,,,,,,,,,154.74080900009722,None,154.74080900009722,155.74081640015356,155.72415030002594,156.72415290004574,None,1,,154.74080900009722,None,,,2,m,5,r,CIB,2021_May_25_1140,WASABI Nback,2020.2.10,59.98544748946163,
0,1,4,"[-0.2, 0]",None,0,0,0,0,,,,,0,0,0,0,0,35,35,35,,,,,,,,,156.74081739992835,None,156.74081739992835,157.7408485999331,157.72415750008076,158.72418799996376,None,1,,156.74081739992835,None,,,2,m,5,r,CIB,2021_May_25_1140,WASABI Nback,2020.2.10,59.98544748946163,
0,1,4,"[-0.2, 0]",None,0,0,0,0,,,,,0,0,0,0,0,36,36,36,,,,,,,,,158.74083609995432,None,158.74083609995432,159.7408714001067,159.72419239999726,160.7241810001433,None,1,,158.74083609995432,None,,,2,m,5,r,CIB,2021_May_25_1140,WASABI Nback,2020.2.10,59.98544748946163,
0,1,7,"[-0.2, -0.2]",None,0,0,0,0,,,,,0,0,0,0,0,37,37,37,,,,,,,,,160.74086649995297,None,160.74086649995297,161.74089480005205,161.7241861000657,162.72421310003847,None,1,,160.74086649995297,None,,,2,m,5,r,CIB,2021_May_25_1140,WASABI Nback,2020.2.10,59.98544748946163,
0,1,4,"[-0.2, 0]",1,0,0,0,0,,,,,0,0,0,0,0,38,38,38,,,,,,,,,162.7408921001479,None,162.7408921001479,163.74088230007328,163.7242107000202,164.72423860011622,None,0,,162.7408921001479,None,,,2,m,5,r,CIB,2021_May_25_1140,WASABI Nback,2020.2.10,59.98544748946163,
0,1,3,"[0.2, 0.2]",None,0,0,0,0,,,,,0,0,0,0,0,39,39,39,,,,,,,,,164.74089010013267,None,164.74089010013267,165.7409028999973,165.72423820011318,166.72425920004025,None,1,,164.74089010013267,None,,,2,m,5,r,CIB,2021_May_25_1140,WASABI Nback,2020.2.10,59.98544748946163,
0,1,5,"[0, 0]",None,0,0,0,0,,,,,0,0,0,0,0,40,40,40,,,,,,,,,166.74091390008107,None,166.74091390008107,167.74094350007363,167.72423950000666,168.72426609997638,None,1,,166.74091390008107,None,,,2,m,5,r,CIB,2021_May_25_1140,WASABI Nback,2020.2.10,59.98544748946163,
0,1,3,"[0.2, 0.2]",1,0,0,0,0,,,,,0,0,0,0,0,41,41,41,,,,,,,,,168.74094319995493,None,168.74094319995493,169.74094139994122,169.7242610999383,170.72427240014076,None,0,,168.74094319995493,None,,,2,m,5,r,CIB,2021_May_25_1140,WASABI Nback,2020.2.10,59.98544748946163,
0,1,1,"[-0.2, 0.2]",None,0,0,0,0,,,,,0,0,0,0,0,42,42,42,,,,,,,,,170.740948199993,None,170.740948199993,171.7409844000358,171.72430550004356,172.7243147001136,None,1,,170.740948199993,None,,,2,m,5,r,CIB,2021_May_25_1140,WASABI Nback,2020.2.10,59.98544748946163,
0,1,9,"[0.2, -0.2]",None,0,0,0,0,,,,,0,0,0,0,0,43,43,43,,,,,,,,,172.7409666001331,None,172.7409666001331,173.74097139993683,173.72431410010904,174.7243262999691,None,1,,172.7409666001331,None,,,2,m,5,r,CIB,2021_May_25_1140,WASABI Nback,2020.2.10,59.98544748946163,
0,1,9,"[0.2, -0.2]",None,0,0,0,0,,,,,0,0,0,0,0,44,44,44,,,,,,,,,174.7410011999309,None,174.7410011999309,175.74098949995823,175.72433830006048,176.724347300129,None,1,,174.7410011999309,None,,,2,m,5,r,CIB,2021_May_25_1140,WASABI Nback,2020.2.10,59.98544748946163,
0,1,8,"[0, -0.2]",None,0,0,0,0,,,,,0,0,0,0,0,45,45,45,,,,,,,,,176.74099860014394,None,176.74099860014394,177.74089680006728,177.72434459999204,178.7243596999906,None,1,,176.74099860014394,None,,,2,m,5,r,CIB,2021_May_25_1140,WASABI Nback,2020.2.10,59.98544748946163,
0,1,6,"[0.2, 0]",None,0,0,0,0,,,,,0,0,0,0,0,46,46,46,,,,,,,,,178.7410194000695,None,178.7410194000695,179.7410297000315,179.72436210000888,180.72436890006065,None,1,,178.7410194000695,None,,,2,m,5,r,CIB,2021_May_25_1140,WASABI Nback,2020.2.10,59.98544748946163,
0,1,3,"[0.2, 0.2]",None,0,0,0,0,,,,,0,0,0,0,0,47,47,47,,,,,,,,,180.74105149996467,None,180.74105149996467,181.74103470006958,181.72436839994043,182.72439999994822,None,1,,180.74105149996467,None,,,2,m,5,r,CIB,2021_May_25_1140,WASABI Nback,2020.2.10,59.98544748946163,
0,1,6,"[0.2, 0]",1,0,0,0,0,,,,,0,0,0,0,0,48,48,48,,,,,,,,,182.74104669992812,None,182.74104669992812,183.74107670015655,183.7243960001506,184.72448550001718,None,0,,182.74104669992812,None,,,2,m,5,r,CIB,2021_May_25_1140,WASABI Nback,2020.2.10,59.98544748946163,
0,1,5,"[0, 0]",None,0,0,0,0,,,,,0,0,0,0,0,49,49,49,,,,,,,,,184.74107620003633,None,184.74107620003633,185.74109250004403,185.7244268001523,186.72442990005948,None,1,,184.74107620003633,None,,,2,m,5,r,CIB,2021_May_25_1140,WASABI Nback,2020.2.10,59.98544748946163,
0,1,7,"[-0.2, -0.2]",None,0,0,0,0,,,,,0,0,0,0,0,50,50,50,,,,,,,,,186.74109419994056,None,186.74109419994056,187.74109190003946,187.72444389993325,188.72445140010677,None,1,,186.74109419994056,None,,,2,m,5,r,CIB,2021_May_25_1140,WASABI Nback,2020.2.10,59.98544748946163,
0,1,5,"[0, 0]",1,0,0,0,0,,,,,0,0,0,0,0,51,51,51,,,,,,,,,188.74111740011722,None,188.74111740011722,189.7411058000289,189.72443330008537,190.72445950005203,None,0,,188.74111740011722,None,,,2,m,5,r,CIB,2021_May_25_1140,WASABI Nback,2020.2.10,59.98544748946163,
0,1,1,"[-0.2, 0.2]",None,0,0,0,0,,,,,0,0,0,0,0,52,52,52,,,,,,,,,190.741131399991,None,190.741131399991,191.7411503000185,191.72447760007344,192.72439650003798,None,1,,190.741131399991,None,,,2,m,5,r,CIB,2021_May_25_1140,WASABI Nback,2020.2.10,59.98544748946163,
0,1,7,"[-0.2, -0.2]",None,0,0,0,0,,,,,0,0,0,0,0,53,53,53,,,,,,,,,192.74114660010673,None,192.74114660010673,193.741169200046,193.724496900104,194.7245080000721,None,1,,192.74114660010673,None,,,2,m,5,r,CIB,2021_May_25_1140,WASABI Nback,2020.2.10,59.98544748946163,
0,1,9,"[0.2, -0.2]",None,0,0,0,0,,,,,0,0,0,0,0,54,54,54,,,,,,,,,194.7411776999943,None,194.7411776999943,195.74105049995705,195.72450440004468,196.7245221999474,None,1,,194.7411776999943,None,,,2,m,5,r,CIB,2021_May_25_1140,WASABI Nback,2020.2.10,59.98544748946163,
0,1,3,"[0.2, 0.2]",None,0,0,0,0,,,,,0,0,0,0,0,55,55,55,,,,,,,,,196.7411746000871,None,196.7411746000871,197.74119930015877,197.72452170006,198.72446739999577,None,1,,196.7411746000871,None,,,2,m,5,r,CIB,2021_May_25_1140,WASABI Nback,2020.2.10,59.98544748946163,
0,1,9,"[0.2, -0.2]",1,0,0,0,0,,,,,0,0,0,0,0,56,56,56,,,,,,,,,198.741204299964,None,198.741204299964,199.74120820011012,199.72455019992776,200.72455819998868,None,0,,198.741204299964,None,,,2,m,5,r,CIB,2021_May_25_1140,WASABI Nback,2020.2.10,59.98544748946163,
0,1,6,"[0.2, 0]",None,0,0,0,0,,,,,0,0,0,0,0,57,57,57,,,,,,,,,200.74122460000217,None,200.74122460000217,201.7412088001147,201.72456869995221,202.72457710001618,None,1,,200.74122460000217,None,,,2,m,5,r,CIB,2021_May_25_1140,WASABI Nback,2020.2.10,59.98544748946163,
0,1,2,"[0, 0.2]",None,0,0,0,0,,,,,0,0,0,0,0,58,58,58,,,,,,,,,202.74123520008288,None,202.74123520008288,203.74124080012552,203.72457630001009,204.72456760006025,None,1,,202.74123520008288,None,,,2,m,5,r,CIB,2021_May_25_1140,WASABI Nback,2020.2.10,59.98544748946163,
0,1,5,"[0, 0]",None,0,0,0,0,,,,,0,0,0,0,0,59,59,59,,,,,,,,,204.74124930007383,None,204.74124930007383,205.74125470011495,205.72458339994773,206.7246477000881,None,1,,204.74124930007383,None,,,2,m,5,r,CIB,2021_May_25_1140,WASABI Nback,2020.2.10,59.98544748946163,
0,1,5,"[0, 0]",None,0,0,0,0,,,,,0,0,0,0,0,60,60,60,,,,,,,,,206.74126600008458,None,206.74126600008458,207.7412817000877,207.72459070011973,208.72460009995848,None,1,,206.74126600008458,None,,,2,m,5,r,CIB,2021_May_25_1140,WASABI Nback,2020.2.10,59.98544748946163,
0,1,2,"[0, 0.2]",None,0,0,0,0,,,,,0,0,0,0,0,61,61,61,,,,,,,,,208.74129729997367,None,208.74129729997367,209.74130520015024,209.72462019999512,210.72462380002253,None,1,,208.74129729997367,None,,,2,m,5,r,CIB,2021_May_25_1140,WASABI Nback,2020.2.10,59.98544748946163,
0,1,6,"[0.2, 0]",None,0,0,0,0,,,,,0,0,0,0,0,62,62,62,,,,,,,,,210.7412970000878,None,210.7412970000878,211.74131310009398,211.7246513001155,212.7246459000744,None,1,,210.7412970000878,None,,,2,m,5,r,CIB,2021_May_25_1140,WASABI Nback,2020.2.10,59.98544748946163,
0,1,9,"[0.2, -0.2]",None,0,0,0,0,,,,,0,0,0,0,0,63,63,63,,,,,,,,,212.741332200123,None,212.741332200123,213.74131910013966,213.7246580000501,214.72465840005316,None,1,,212.741332200123,None,,,2,m,5,r,CIB,2021_May_25_1140,WASABI Nback,2020.2.10,59.98544748946163,
0,1,3,"[0.2, 0.2]",None,0,0,0,0,,,,,0,0,0,0,0,64,64,64,,,,,,,,,214.74133360013366,None,214.74133360013366,215.7413681000471,215.72466509998776,216.72467590007,None,1,,214.74133360013366,None,,,2,m,5,r,CIB,2021_May_25_1140,WASABI Nback,2020.2.10,59.98544748946163,
0,1,9,"[0.2, -0.2]",1,0,0,0,0,,,,,0,0,0,0,0,65,65,65,,,,,,,,,216.7413474000059,None,216.7413474000059,217.7413640001323,217.7246860000305,218.72469120007008,None,0,,216.7413474000059,None,,,2,m,5,r,CIB,2021_May_25_1140,WASABI Nback,2020.2.10,59.98544748946163,
0,1,7,"[-0.2, -0.2]",None,0,0,0,0,,,,,0,0,0,0,0,66,66,66,,,,,,,,,218.74136390001513,None,218.74136390001513,219.74137310008518,219.7247142000124,220.7247085000854,None,1,,218.74136390001513,None,,,2,m,5,r,CIB,2021_May_25_1140,WASABI Nback,2020.2.10,59.98544748946163,
0,1,1,"[-0.2, 0.2]",None,0,0,0,0,,,,,0,0,0,0,0,67,67,67,,,,,,,,,220.7413892999757,None,220.7413892999757,221.7414055999834,221.72470890008844,222.72475140006281,None,1,,220.7413892999757,None,,,2,m,5,r,CIB,2021_May_25_1140,WASABI Nback,2020.2.10,59.98544748946163,
0,1,5,"[0, 0]",None,0,0,0,0,,,,,0,0,0,0,0,68,68,68,,,,,,,,,222.74141769995913,None,222.74141769995913,223.74141480005346,223.7247636001557,224.72475280007347,None,1,,222.74141769995913,None,,,2,m,5,r,CIB,2021_May_25_1140,WASABI Nback,2020.2.10,59.98544748946163,
0,1,7,"[-0.2, -0.2]",None,0,0,0,0,,,,,0,0,0,0,0,69,69,69,,,,,,,,,224.7414235000033,None,224.7414235000033,225.74146890011616,225.72476990008727,226.72478669998236,None,1,,224.7414235000033,None,,,2,m,5,r,CIB,2021_May_25_1140,WASABI Nback,2020.2.10,59.98544748946163,
0,1,5,"[0, 0]",1,0,0,0,0,,,,,0,0,0,0,0,70,70,70,,,,,,,,,226.74144130013883,None,226.74144130013883,227.74145240010694,227.7247862999793,228.72477310011163,None,0,,226.74144130013883,None,,,2,m,5,r,CIB,2021_May_25_1140,WASABI Nback,2020.2.10,59.98544748946163,
0,1,6,"[0.2, 0]",None,0,0,0,0,,,,,0,0,0,0,0,71,71,71,,,,,,,,,228.74147700006142,None,228.74147700006142,229.74147840007208,229.72481220006011,230.7248094000388,None,1,,228.74147700006142,None,,,2,m,5,r,CIB,2021_May_25_1140,WASABI Nback,2020.2.10,59.98544748946163,
0,1,3,"[0.2, 0.2]",None,0,0,0,0,,,,,0,0,0,0,0,72,72,72,,,,,,,,,230.74148180009797,None,230.74148180009797,231.74148810002953,231.72481549996883,232.72481509996578,None,1,,230.74148180009797,None,,,2,m,5,r,CIB,2021_May_25_1140,WASABI Nback,2020.2.10,59.98544748946163,
0,1,6,"[0.2, 0]",1,0,0,0,0,,,,,0,0,0,0,0,73,73,73,,,,,,,,,232.74149350007065,None,232.74149350007065,233.74149139993824,233.72484469995834,234.72484549996443,None,0,,232.74149350007065,None,,,2,m,5,r,CIB,2021_May_25_1140,WASABI Nback,2020.2.10,59.98544748946163,
0,1,8,"[0, -0.2]",None,0,0,0,0,,,,,0,0,0,0,0,74,74,74,,,,,,,,,234.74152579996735,None,234.74152579996735,235.74152020015754,235.7248434999492,236.72486810013652,None,1,,234.74152579996735,None,,,2,m,5,r,CIB,2021_May_25_1140,WASABI Nback,2020.2.10,59.98544748946163,
0,1,9,"[0.2, -0.2]",None,0,0,0,0,,,,,0,0,0,0,0,75,75,75,,,,,,,,,236.74153709993698,None,236.74153709993698,237.7415487000253,237.72489780001342,238.724867900135,None,1,,236.74153709993698,None,,,2,m,5,r,CIB,2021_May_25_1140,WASABI Nback,2020.2.10,59.98544748946163,
0,1,9,"[0.2, -0.2]",None,0,0,0,0,,,,,0,0,0,0,0,76,76,76,,,,,,,,,238.7415591001045,None,238.7415591001045,239.7415764001198,239.7249024999328,240.72489690012299,None,1,,238.7415591001045,None,,,2,m,5,r,CIB,2021_May_25_1140,WASABI Nback,2020.2.10,59.98544748946163,
0,1,1,"[-0.2, 0.2]",None,0,0,0,0,,,,,0,0,0,0,0,77,77,77,,,,,,,,,240.74157930002548,None,240.74157930002548,241.7415821000468,241.72488639992662,242.7249020000454,None,1,,240.74157930002548,None,,,2,m,5,r,CIB,2021_May_25_1140,WASABI Nback,2020.2.10,59.98544748946163,
0,1,3,"[0.2, 0.2]",None,0,0,0,0,,,,,0,0,0,0,0,78,78,78,,,,,,,,,242.74156310013495,None,242.74156310013495,243.7415972999297,243.72492990014143,244.72493240004405,None,1,,242.74156310013495,None,,,2,m,5,r,CIB,2021_May_25_1140,WASABI Nback,2020.2.10,59.98544748946163,
0,1,5,"[0, 0]",None,0,0,0,0,,,,,0,0,0,0,0,79,79,79,,,,,,,,,244.74161739996634,None,244.74161739996634,245.74160060007125,245.7249531999696,246.72493600007147,None,1,,244.74161739996634,None,,,2,m,5,r,CIB,2021_May_25_1140,WASABI Nback,2020.2.10,59.98544748946163,
0,1,3,"[0.2, 0.2]",1,0,0,0,0,,,,,0,0,0,0,0,80,80,80,,,,,,,,,246.74162800004706,None,246.74162800004706,247.7416062001139,247.72496760007925,248.72497590002604,None,0,,246.74162800004706,None,,,2,m,5,r,CIB,2021_May_25_1140,WASABI Nback,2020.2.10,59.98544748946163,
0,1,4,"[-0.2, 0]",None,0,0,0,0,,,,,0,0,0,0,0,81,81,81,,,,,,,,,248.74163750000298,None,248.74163750000298,249.7416368999984,249.72497069998644,250.72497530002147,None,1,,248.74163750000298,None,,,2,m,5,r,CIB,2021_May_25_1140,WASABI Nback,2020.2.10,59.98544748946163,
0,1,7,"[-0.2, -0.2]",None,0,0,0,0,,,,,0,0,0,0,0,82,82,82,,,,,,,,,250.74164410005324,None,250.74164410005324,251.74167970009148,251.72500189999118,252.72499040002003,None,1,,250.74164410005324,None,,,2,m,5,r,CIB,2021_May_25_1140,WASABI Nback,2020.2.10,59.98544748946163,
0,1,4,"[-0.2, 0]",1,0,0,0,0,,,,,0,0,0,0,0,83,83,83,,,,,,,,,252.74166289996356,None,252.74166289996356,253.74167150002904,253.7249992999714,254.72502860007808,None,0,,252.74166289996356,None,,,2,m,5,r,CIB,2021_May_25_1140,WASABI Nback,2020.2.10,59.98544748946163,
0,1,4,"[-0.2, 0]",None,0,0,0,0,,,,,0,0,0,0,0,84,84,84,,,,,,,,,254.74169729999267,None,254.74169729999267,255.74167819996364,255.7250373000279,256.7250254000537,None,1,,254.74169729999267,None,,,2,m,5,r,CIB,2021_May_25_1140,WASABI Nback,2020.2.10,59.98544748946163,
0,1,5,"[0, 0]",None,0,0,0,0,,,,,0,0,0,0,0,85,85,85,,,,,,,,,256.7416983000003,None,256.7416983000003,257.7417256999761,257.72504630009644,258.72494460013695,None,1,,256.7416983000003,None,,,2,m,5,r,CIB,2021_May_25_1140,WASABI Nback,2020.2.10,59.98544748946163,
0,1,2,"[0, 0.2]",None,0,0,0,0,,,,,0,0,0,0,0,86,86,86,,,,,,,,,258.7417242999654,None,258.7417242999654,259.74172900011763,259.72507339995354,260.72507799998857,None,1,,258.7417242999654,None,,,2,m,5,r,CIB,2021_May_25_1140,WASABI Nback,2020.2.10,59.98544748946163,
0,1,6,"[0.2, 0]",None,0,0,0,0,,,,,0,0,0,0,0,87,87,87,,,,,,,,,260.7417514999397,None,260.7417514999397,261.7417590999976,261.72507130005397,262.7251009000465,None,1,,260.7417514999397,None,,,2,m,5,r,CIB,2021_May_25_1140,WASABI Nback,2020.2.10,59.98544748946163,
0,1,7,"[-0.2, -0.2]",None,0,0,0,0,,,,,0,0,0,0,0,88,88,88,,,,,,,,,262.74175480008125,None,262.74175480008125,263.7417783001438,263.7250864999369,264.7250963000115,None,1,,262.74175480008125,None,,,2,m,5,r,CIB,2021_May_25_1140,WASABI Nback,2020.2.10,59.98544748946163,
0,1,6,"[0.2, 0]",1,0,0,0,0,,,,,0,0,0,0,0,89,89,89,,,,,,,,,264.7417645000387,None,264.7417645000387,265.7417769001331,265.725124000106,266.7251308001578,None,0,,264.7417645000387,None,,,2,m,5,r,CIB,2021_May_25_1140,WASABI Nback,2020.2.10,59.98544748946163,
0,1,6,"[0.2, 0]",None,0,0,0,0,,,,,0,0,0,0,0,90,90,90,,,,,,,,,266.74179510003887,None,266.74179510003887,267.74180470011197,267.72513190004975,268.7251524999738,None,1,,266.74179510003887,None,,,2,m,5,r,CIB,2021_May_25_1140,WASABI Nback,2020.2.10,59.98544748946163,
0,1,7,"[-0.2, -0.2]",None,0,0,0,0,,,,,0,0,0,0,0,91,91,91,,,,,,,,,268.74181070015766,None,268.74181070015766,269.741821100004,269.7251504000742,270.7251502000727,None,1,,268.74181070015766,None,,,2,m,5,r,CIB,2021_May_25_1140,WASABI Nback,2020.2.10,59.98544748946163,
0,1,6,"[0.2, 0]",1,0,0,0,0,,,,,0,0,0,0,0,92,92,92,,,,,,,,,270.741825300036,None,270.741825300036,271.7418293999508,271.7251826999709,272.7251762000378,None,0,,270.741825300036,None,,,2,m,5,r,CIB,2021_May_25_1140,WASABI Nback,2020.2.10,59.98544748946163,
0,1,2,"[0, 0.2]",None,0,0,0,0,,,,,0,0,0,0,0,93,93,93,,,,,,,,,272.7418556001503,None,272.7418556001503,273.7418566001579,273.72517869994044,274.72520410013385,None,1,,272.7418556001503,None,,,2,m,5,r,CIB,2021_May_25_1140,WASABI Nback,2020.2.10,59.98544748946163,
0,1,5,"[0, 0]",None,0,0,0,0,,,,,0,0,0,0,0,94,94,94,,,,,,,,,274.7418698000256,None,274.7418698000256,275.74189010006376,275.7252003001049,276.7252160999924,None,1,,274.7418698000256,None,,,2,m,5,r,CIB,2021_May_25_1140,WASABI Nback,2020.2.10,59.98544748946163,
0,1,4,"[-0.2, 0]",None,0,0,0,0,,,,,0,0,0,0,0,95,95,95,,,,,,,,,276.7418836001307,None,276.7418836001307,277.74188899993896,277.7252370000351,278.7252255999483,None,1,,276.7418836001307,None,,,2,m,5,r,CIB,2021_May_25_1140,WASABI Nback,2020.2.10,59.98544748946163,
0,1,4,"[-0.2, 0]",None,0,0,0,0,,,,,0,0,0,0,0,96,96,96,,,,,,,,,278.74189079995267,None,278.74189079995267,279.74190980009735,279.72523119999096,280.72526310011744,None,1,,278.74189079995267,None,,,2,m,5,r,CIB,2021_May_25_1140,WASABI Nback,2020.2.10,59.98544748946163,
0,1,7,"[-0.2, -0.2]",None,0,0,0,0,,,,,0,0,0,0,0,97,97,97,,,,,,,,,280.7419477000367,None,280.7419477000367,281.741912700003,281.7252583000809,282.72525030002,None,1,,280.7419477000367,None,,,2,m,5,r,CIB,2021_May_25_1140,WASABI Nback,2020.2.10,59.98544748946163,
0,1,4,"[-0.2, 0]",1,0,0,0,0,,,,,0,0,0,0,0,98,98,98,,,,,,,,,282.7419291001279,None,282.7419291001279,283.7419301001355,283.72528450004756,284.72528579994105,None,0,,282.7419291001279,None,,,2,m,5,r,CIB,2021_May_25_1140,WASABI Nback,2020.2.10,59.98544748946163,
0,1,3,"[0.2, 0.2]",None,0,0,0,0,,,,,0,0,0,0,0,99,99,99,,,,,,,,,284.74194340012036,None,284.74194340012036,285.7419700999744,285.72527910000645,286.72529730014503,None,1,,284.74194340012036,None,,,2,m,5,r,CIB,2021_May_25_1140,WASABI Nback,2020.2.10,59.98544748946163,
0,1,5,"[0, 0]",None,0,0,0,0,,,,,0,0,0,0,0,100,100,100,,,,,,,,,286.7419745000079,None,286.7419745000079,287.7419712000992,287.72519759996794,288.7253213999793,None,1,,286.7419745000079,None,,,2,m,5,r,CIB,2021_May_25_1140,WASABI Nback,2020.2.10,59.98544748946163,
0,1,3,"[0.2, 0.2]",1,0,0,0,0,,,,,0,0,0,0,0,101,101,101,,,,,,,,,288.74200470000505,None,288.74200470000505,289.74198690010235,289.7253095000051,290.7253338000737,None,0,,288.74200470000505,None,,,2,m,5,r,CIB,2021_May_25_1140,WASABI Nback,2020.2.10,59.98544748946163,
0,1,1,"[-0.2, 0.2]",None,0,0,0,0,,,,,0,0,0,0,0,102,102,102,,,,,,,,,290.7419982999563,None,290.7419982999563,291.7420153999701,291.7253489999566,292.7253692999948,None,1,,290.7419982999563,None,,,2,m,5,r,CIB,2021_May_25_1140,WASABI Nback,2020.2.10,59.98544748946163,
0,1,9,"[0.2, -0.2]",None,0,0,0,0,,,,,0,0,0,0,0,103,103,103,,,,,,,,,292.74200420011766,None,292.74200420011766,293.7420377000235,293.72536469995975,294.72538110008463,None,1,,292.74200420011766,None,,,2,m,5,r,CIB,2021_May_25_1140,WASABI Nback,2020.2.10,59.98544748946163,
0,1,9,"[0.2, -0.2]",None,0,0,0,0,,,,,0,0,0,0,0,104,104,104,,,,,,,,,294.7420483001042,None,294.7420483001042,295.74206790002063,295.72541050007567,296.7253876000177,None,1,,294.7420483001042,None,,,2,m,5,r,CIB,2021_May_25_1140,WASABI Nback,2020.2.10,59.98544748946163,
0,1,8,"[0, -0.2]",None,0,0,0,0,,,,,0,0,0,0,0,105,105,105,,,,,,,,,296.7420493999962,None,296.7420493999962,297.74207559996285,297.72541810013354,298.72541620000266,None,1,,296.7420493999962,None,,,2,m,5,r,CIB,2021_May_25_1140,WASABI Nback,2020.2.10,59.98544748946163,
0,1,6,"[0.2, 0]",None,0,0,0,0,,,,,0,0,0,0,0,106,106,106,,,,,,,,,298.7420685000252,None,298.7420685000252,299.7420727999415,299.7254262000788,300.7254393999465,None,1,,298.7420685000252,None,,,2,m,5,r,CIB,2021_May_25_1140,WASABI Nback,2020.2.10,59.98544748946163,
0,1,3,"[0.2, 0.2]",None,0,0,0,0,,,,,0,0,0,0,0,107,107,107,,,,,,,,,300.74210070003755,None,300.74210070003755,301.74209009995684,301.7254300999921,302.72545040003024,None,1,,300.74210070003755,None,,,2,m,5,r,CIB,2021_May_25_1140,WASABI Nback,2020.2.10,59.98544748946163,
0,1,6,"[0.2, 0]",1,0,0,0,0,,,,,0,0,0,0,0,108,108,108,,,,,,,,,302.74209349998273,None,302.74209349998273,303.74212480010465,303.72533660009503,304.72545580007136,None,0,,302.74209349998273,None,,,2,m,5,r,CIB,2021_May_25_1140,WASABI Nback,2020.2.10,59.98544748946163,
0,1,5,"[0, 0]",None,0,0,0,0,,,,,0,0,0,0,0,109,109,109,,,,,,,,,304.74212900013663,None,304.74212900013663,305.74212580011226,305.72548449994065,306.7254679000471,None,1,,304.74212900013663,None,,,2,m,5,r,CIB,2021_May_25_1140,WASABI Nback,2020.2.10,59.98544748946163,
0,1,7,"[-0.2, -0.2]",None,0,0,0,0,,,,,0,0,0,0,0,110,110,110,,,,,,,,,306.7421492000576,None,306.7421492000576,307.74213510006666,307.72547780000605,308.72549690003507,None,1,,306.7421492000576,None,,,2,m,5,r,CIB,2021_May_25_1140,WASABI Nback,2020.2.10,59.98544748946163,
0,1,5,"[0, 0]",1,0,0,0,0,,,,,0,0,0,0,0,111,111,111,,,,,,,,,308.74217190011404,None,308.74217190011404,309.7421912001446,309.72551969997585,310.72552129998803,None,0,,308.74217190011404,None,,,2,m,5,r,CIB,2021_May_25_1140,WASABI Nback,2020.2.10,59.98544748946163,
0,1,1,"[-0.2, 0.2]",None,0,0,0,0,,,,,0,0,0,0,0,112,112,112,,,,,,,,,310.7421659999527,None,310.7421659999527,311.74217829992995,311.7255369001068,312.7255238001235,None,1,,310.7421659999527,None,,,2,m,5,r,CIB,2021_May_25_1140,WASABI Nback,2020.2.10,59.98544748946163,
0,1,7,"[-0.2, -0.2]",None,0,0,0,0,,,,,0,0,0,0,0,113,113,113,,,,,,,,,312.7422043001279,None,312.7422043001279,313.7421959999483,313.72554220003076,314.725553000113,None,1,,312.7422043001279,None,,,2,m,5,r,CIB,2021_May_25_1140,WASABI Nback,2020.2.10,59.98544748946163,
0,1,9,"[0.2, -0.2]",None,0,0,0,0,,,,,0,0,0,0,0,114,114,114,,,,,,,,,314.74223059997894,None,314.74223059997894,315.7422021001112,315.7255563000217,316.7255754999351,None,1,,314.74223059997894,None,,,2,m,5,r,CIB,2021_May_25_1140,WASABI Nback,2020.2.10,59.98544748946163,
0,1,3,"[0.2, 0.2]",None,0,0,0,0,,,,,0,0,0,0,0,115,115,115,,,,,,,,,316.74222070001997,None,316.74222070001997,317.74225539993495,317.72557660005987,318.7255752000492,None,1,,316.74222070001997,None,,,2,m,5,r,CIB,2021_May_25_1140,WASABI Nback,2020.2.10,59.98544748946163,
0,1,9,"[0.2, -0.2]",1,0,0,0,0,,,,,0,0,0,0,0,116,116,116,,,,,,,,,318.7422432999592,None,318.7422432999592,319.7422488001175,319.7254769001156,320.7255128000397,None,0,,318.7422432999592,None,,,2,m,5,r,CIB,2021_May_25_1140,WASABI Nback,2020.2.10,59.98544748946163,
0,1,6,"[0.2, 0]",None,0,0,0,0,,,,,0,0,0,0,0,117,117,117,,,,,,,,,320.7422796001192,None,320.7422796001192,321.74225979996845,321.725711400155,322.72562550008297,None,1,,320.7422796001192,None,,,2,m,5,r,CIB,2021_May_25_1140,WASABI Nback,2020.2.10,59.98544748946163,
0,1,2,"[0, 0.2]",None,0,0,0,0,,,,,0,0,0,0,0,118,118,118,,,,,,,,,322.7422670000233,None,322.7422670000233,323.74233089992777,323.72564049996436,324.7256201999262,None,1,,322.7422670000233,None,,,2,m,5,r,CIB,2021_May_25_1140,WASABI Nback,2020.2.10,59.98544748946163,
0,1,5,"[0, 0]",None,0,0,0,0,,,,,0,0,0,0,0,119,119,119,,,,,,,,,324.7422941001132,None,324.7422941001132,325.74228639993817,325.72564129997045,326.7256354999263,None,1,,324.7422941001132,None,,,2,m,5,r,CIB,2021_May_25_1140,WASABI Nback,2020.2.10,59.98544748946163,
1,0,,,,0,1,1,1,0,0,0,0,,,,,,,,,,,,,,,,,,,,,,,,,,,,424.7598534999415,None,2,m,5,r,CIB,2021_May_25_1140,WASABI Nback,2020.2.10,59.98544748946163,
