square,location,corrAns,TaskT1Loop.thisRepN,TaskT1Loop.thisTrialN,TaskT1Loop.thisN,TaskT1Loop.thisIndex,trials_2.thisRepN,trials_2.thisTrialN,trials_2.thisN,trials_2.thisIndex,NbackInstructions.started,NbackInstructions.stopped,NbackStart.keys,NbackStart.rt,NbackStart.started,NbackStart.stopped,fixation_2.started,fixation_2.stopped,response_2.x,response_2.y,response_2.leftButton,response_2.rt,grid_lines_2.started,grid_lines_2.stopped,target_square_2.started,target_square_2.stopped,fixation_3.started,fixation_3.stopped,response_2.click,response_2.corr,response_2.started,response_2.stopped,subject number,gender,session,handedness,scanner,date,expName,psychopyVersion,frameRate,
,,,0,0,0,0,,,,,18.257362000003923,None,space,2.0920242999854963,18.257362000003923,None,,,,,,,,,,,,,,,,,99,m,99,r,MS,2021_Jun_03_0943,WASABI Nback,2020.2.10,61.247488850992916,
5,"[0, 0]",None,0,0,0,0,0,0,0,0,,,,,,,None,None,0.24722222222222223,-0.15555555555555556,1,1.6481199000263587,21.676731800020207,None,21.676731800020207,22.692210000008345,22.65854920001584,None,1,0,21.676731800020207,None,99,m,99,r,MS,2021_Jun_03_0943,WASABI Nback,2020.2.10,61.247488850992916,
2,"[0, 0.2]",None,0,0,0,0,0,1,1,1,,,,,,,,,0.025,-0.19583333333333333,1,1.9695913000032306,23.390654700022424,None,23.390654700022424,24.39195090002613,24.374531200010097,25.375424000027124,1,0,23.390654700022424,None,99,m,99,r,MS,2021_Jun_03_0943,WASABI Nback,2020.2.10,61.247488850992916,
6,"[0.2, 0]",None,0,0,0,0,0,2,2,2,,,,,,,,,0.019444444444444445,-0.19722222222222222,0,0.0,25.39261500001885,None,25.39261500001885,26.392020900006173,26.3747048000223,None,None,1,25.39261500001885,None,99,m,99,r,MS,2021_Jun_03_0943,WASABI Nback,2020.2.10,61.247488850992916,
9,"[0.2, -0.2]",None,0,0,0,0,0,3,3,3,,,,,,,,,-0.029166666666666667,-0.2,0,1.1525984999898355,27.376006300008157,None,27.376006300008157,28.376595300011104,28.359977000014624,29.360215000022436,None,1,27.376006300008157,None,99,m,99,r,MS,2021_Jun_03_0943,WASABI Nback,2020.2.10,61.247488850992916,
3,"[0.2, 0.2]",None,0,0,0,0,0,4,4,4,,,,,,,,,-0.016666666666666666,-0.31527777777777777,0,0.733689000015147,29.3767063000123,None,29.3767063000123,30.376276700000744,30.361329000006663,31.36133820001851,None,1,29.3767063000123,None,99,m,99,r,MS,2021_Jun_03_0943,WASABI Nback,2020.2.10,61.247488850992916,
9,"[0.2, -0.2]",1,0,0,0,0,0,5,5,5,,,,,,,,,-0.025,-0.3277777777777778,0,1.7704932000197005,31.376780600025086,None,31.376780600025086,32.37728930002777,32.36144800001057,33.36269090001588,None,0,31.376780600025086,None,99,m,99,r,MS,2021_Jun_03_0943,WASABI Nback,2020.2.10,61.247488850992916,
7,"[-0.2, -0.2]",None,0,0,0,0,0,6,6,6,,,,,,,,,-0.0375,-0.3388888888888889,0,1.369910900015384,33.37772800002131,None,33.37772800002131,34.37806350001483,34.362589100026526,35.363921900017885,None,1,33.37772800002131,None,99,m,99,r,MS,2021_Jun_03_0943,WASABI Nback,2020.2.10,61.247488850992916,
1,"[-0.2, 0.2]",None,0,0,0,0,0,7,7,7,,,,,,,,,-0.04027777777777778,-0.3458333333333333,0,0.8507082000141963,35.37983190000523,None,35.37983190000523,36.37914330000058,36.3633612000267,37.36378130002413,None,1,35.37983190000523,None,99,m,99,r,MS,2021_Jun_03_0943,WASABI Nback,2020.2.10,61.247488850992916,
5,"[0, 0]",None,0,0,0,0,0,8,8,8,,,,,,,,,-0.04027777777777778,-0.3458333333333333,1,1.8695287000155076,37.38023080001585,None,37.38023080001585,38.379941100021824,38.3631964000233,39.365965600009076,1,0,37.38023080001585,None,99,m,99,r,MS,2021_Jun_03_0943,WASABI Nback,2020.2.10,61.247488850992916,
7,"[-0.2, -0.2]",None,0,0,0,0,0,9,9,9,,,,,,,,,-0.029166666666666667,-0.34444444444444444,0,1.5354434000037145,39.382396300003165,None,39.382396300003165,40.38300560001517,40.366333800018765,41.367057100025704,None,1,39.382396300003165,None,99,m,99,r,MS,2021_Jun_03_0943,WASABI Nback,2020.2.10,61.247488850992916,
5,"[0, 0]",1,0,0,0,0,0,10,10,10,,,,,,,,,-0.027777777777777776,-0.34305555555555556,0,1.300631299993256,41.3833597000048,None,41.3833597000048,42.385606499999994,42.36843200001749,None,None,0,41.3833597000048,None,99,m,99,r,MS,2021_Jun_03_0943,WASABI Nback,2020.2.10,61.247488850992916,
6,"[0.2, 0]",None,0,0,0,0,0,11,11,11,,,,,,,,,-0.027777777777777776,-0.34305555555555556,0,1.016666899988195,43.38337320002029,None,43.38337320002029,44.382820300001185,44.36617010002374,45.36653330002446,None,1,43.38337320002029,None,99,m,99,r,MS,2021_Jun_03_0943,WASABI Nback,2020.2.10,61.247488850992916,
3,"[0.2, 0.2]",None,0,0,0,0,0,12,12,12,,,,,,,,,-0.027777777777777776,-0.34305555555555556,0,0.7343694000155665,45.38337200001115,None,45.38337200001115,46.384602200007066,46.367186200019205,47.36808560002828,None,1,45.38337200001115,None,99,m,99,r,MS,2021_Jun_03_0943,WASABI Nback,2020.2.10,61.247488850992916,
6,"[0.2, 0]",1,0,0,0,0,0,13,13,13,,,,,,,,,-0.027777777777777776,-0.34305555555555556,0,1.4846623999765143,47.38536290000775,None,47.38536290000775,48.385962900007144,48.369077200011816,49.3686682000116,None,0,47.38536290000775,None,99,m,99,r,MS,2021_Jun_03_0943,WASABI Nback,2020.2.10,61.247488850992916,
8,"[0, -0.2]",None,0,0,0,0,0,14,14,14,,,,,,,,,-0.027777777777777776,-0.34305555555555556,0,1.3848920000018552,49.38639900000999,None,49.38639900000999,50.386580300022615,50.36904560000403,51.370420200022636,None,1,49.38639900000999,None,99,m,99,r,MS,2021_Jun_03_0943,WASABI Nback,2020.2.10,61.247488850992916,
9,"[0.2, -0.2]",None,0,0,0,0,0,15,15,15,,,,,,,,,-0.027777777777777776,-0.34305555555555556,0,1.3162938999885228,51.38829680002527,None,51.38829680002527,52.38779180002166,52.370703200023854,53.371776000014506,None,1,51.38829680002527,None,99,m,99,r,MS,2021_Jun_03_0943,WASABI Nback,2020.2.10,61.247488850992916,
9,"[0.2, -0.2]",None,0,0,0,0,0,16,16,16,,,,,,,,,-0.027777777777777776,-0.34305555555555556,0,0.884453200007556,53.38807870002347,None,53.38807870002347,54.38879550001002,54.37157600000501,55.3724218000134,None,1,53.38807870002347,None,99,m,99,r,MS,2021_Jun_03_0943,WASABI Nback,2020.2.10,61.247488850992916,
1,"[-0.2, 0.2]",None,0,0,0,0,0,17,17,17,,,,,,,,,-0.027777777777777776,-0.34305555555555556,0,0.8351965000038035,55.389146500005154,None,55.389146500005154,56.3894553000282,56.3733351000119,57.372583000018494,None,1,55.389146500005154,None,99,m,99,r,MS,2021_Jun_03_0943,WASABI Nback,2020.2.10,61.247488850992916,
3,"[0.2, 0.2]",None,0,0,0,0,0,18,18,18,,,,,,,,,-0.025,-0.3472222222222222,0,1.80284320001374,57.390091500012204,None,57.390091500012204,58.390496300009545,58.373445300007006,59.37334499999997,None,1,57.390091500012204,None,99,m,99,r,MS,2021_Jun_03_0943,WASABI Nback,2020.2.10,61.247488850992916,
5,"[0, 0]",None,0,0,0,0,0,19,19,19,,,,,,,,,-0.019444444444444445,-0.3486111111111111,0,0.8889560000097845,59.391006800025934,None,59.391006800025934,60.39150160001009,60.37513090000721,61.374322700023185,None,1,59.391006800025934,None,99,m,99,r,MS,2021_Jun_03_0943,WASABI Nback,2020.2.10,61.247488850992916,
3,"[0.2, 0.2]",1,0,0,0,0,0,20,20,20,,,,,,,,,-0.019444444444444445,-0.3486111111111111,0,0.937166999996407,61.39201160002267,None,61.39201160002267,62.39235670000198,62.37530130002415,None,None,0,61.39201160002267,None,99,m,99,r,MS,2021_Jun_03_0943,WASABI Nback,2020.2.10,61.247488850992916,
4,"[-0.2, 0]",None,0,0,0,0,0,21,21,21,,,,,,,,,-0.019444444444444445,-0.35,0,1.3177366000018083,63.37646090000635,None,63.37646090000635,64.37629380001454,64.3598803000059,65.36044080002466,None,1,63.37646090000635,None,99,m,99,r,MS,2021_Jun_03_0943,WASABI Nback,2020.2.10,61.247488850992916,
7,"[-0.2, -0.2]",None,0,0,0,0,0,22,22,22,,,,,,,,,-0.019444444444444445,-0.35,0,1.5354907999862917,65.3759987000085,None,65.3759987000085,66.37732630001847,66.36092760000611,67.36157070001354,None,1,65.3759987000085,None,99,m,99,r,MS,2021_Jun_03_0943,WASABI Nback,2020.2.10,61.247488850992916,
4,"[-0.2, 0]",1,0,0,0,0,0,23,23,23,,,,,,,,,-0.019444444444444445,-0.35,0,1.0261356999981217,67.3776367000246,None,67.3776367000246,68.37829090000014,68.36206180002773,69.36215780000202,None,0,67.3776367000246,None,99,m,99,r,MS,2021_Jun_03_0943,WASABI Nback,2020.2.10,61.247488850992916,
4,"[-0.2, 0]",None,0,0,0,0,0,24,24,24,,,,,,,,,-0.019444444444444445,-0.35,0,0.6184159999829717,69.37882750001154,None,69.37882750001154,70.37985610001488,70.36315640000976,71.36381360000814,None,1,69.37882750001154,None,99,m,99,r,MS,2021_Jun_03_0943,WASABI Nback,2020.2.10,61.247488850992916,
5,"[0, 0]",None,0,0,0,0,0,25,25,25,,,,,,,,,-0.005555555555555556,-0.3333333333333333,0,1.5018217000178993,71.38038330001291,None,71.38038330001291,72.37926360001438,72.36358750000363,73.36423650002689,None,1,71.38038330001291,None,99,m,99,r,MS,2021_Jun_03_0943,WASABI Nback,2020.2.10,61.247488850992916,
2,"[0, 0.2]",None,0,0,0,0,0,26,26,26,,,,,,,,,-0.006944444444444444,-0.3375,0,0.7680315000179689,73.37998060000245,None,73.37998060000245,74.38115140001173,74.36460890001035,75.36530260002473,None,1,73.37998060000245,None,99,m,99,r,MS,2021_Jun_03_0943,WASABI Nback,2020.2.10,61.247488850992916,
6,"[0.2, 0]",None,0,0,0,0,0,27,27,27,,,,,,,,,-0.009722222222222222,-0.34444444444444444,0,1.4367583999992348,75.38073060000897,None,75.38073060000897,76.38169380000909,76.36567890000879,77.36639100001776,None,1,75.38073060000897,None,99,m,99,r,MS,2021_Jun_03_0943,WASABI Nback,2020.2.10,61.247488850992916,
7,"[-0.2, -0.2]",None,0,0,0,0,0,28,28,28,,,,,,,,,-0.0125,-0.3486111111111111,0,1.7052404999849387,77.38319150000461,None,77.38319150000461,78.38301040002261,78.36655480001355,79.36708980001276,None,1,77.38319150000461,None,99,m,99,r,MS,2021_Jun_03_0943,WASABI Nback,2020.2.10,61.247488850992916,
6,"[0.2, 0]",1,0,0,0,0,0,29,29,29,,,,,,,,,-0.0125,-0.3541666666666667,1,1.8690788999956567,79.38261350002722,None,79.38261350002722,80.3843783000193,80.3679355000204,81.36830040000496,1,1,79.38261350002722,None,99,m,99,r,MS,2021_Jun_03_0943,WASABI Nback,2020.2.10,61.247488850992916,
6,"[0.2, 0]",None,0,0,0,0,0,30,30,30,,,,,,,,,-0.0125,-0.3597222222222222,0,1.4025499000272248,81.38364320000983,None,81.38364320000983,82.38579420000315,82.36882880001212,83.36788410000736,None,1,81.38364320000983,None,99,m,99,r,MS,2021_Jun_03_0943,WASABI Nback,2020.2.10,61.247488850992916,
7,"[-0.2, -0.2]",None,0,0,0,0,0,31,31,31,,,,,,,,,-0.0125,-0.3597222222222222,0,0.5191385000071023,83.38587940001162,None,83.38587940001162,84.3865547000023,84.36923730000854,85.36861240002327,None,1,83.38587940001162,None,99,m,99,r,MS,2021_Jun_03_0943,WASABI Nback,2020.2.10,61.247488850992916,
6,"[0.2, 0]",1,0,0,0,0,0,32,32,32,,,,,,,,,-0.0125,-0.3597222222222222,1,1.8341936000215355,85.38714820001042,None,85.38714820001042,86.38749840002856,86.36917300001369,87.37053830001969,1,1,85.38714820001042,None,99,m,99,r,MS,2021_Jun_03_0943,WASABI Nback,2020.2.10,61.247488850992916,
2,"[0, 0.2]",None,0,0,0,0,0,33,33,33,,,,,,,,,-0.0125,-0.3597222222222222,0,1.272199399973033,87.38738060000469,None,87.38738060000469,88.38795670002582,88.37107940000715,89.3721835000033,None,1,87.38738060000469,None,99,m,99,r,MS,2021_Jun_03_0943,WASABI Nback,2020.2.10,61.247488850992916,
5,"[0, 0]",None,0,0,0,0,0,34,34,34,,,,,,,,,-0.0125,-0.3597222222222222,0,0.6668207999900915,89.38916050002445,None,89.38916050002445,90.38928160001524,90.37216300002183,91.3725897000113,None,1,89.38916050002445,None,99,m,99,r,MS,2021_Jun_03_0943,WASABI Nback,2020.2.10,61.247488850992916,
4,"[-0.2, 0]",None,0,0,0,0,0,35,35,35,,,,,,,,,-0.0125,-0.3597222222222222,0,0.18649500000174157,91.38952680001967,None,91.38952680001967,92.38980170001741,92.37348430001293,93.37290340001346,None,1,91.38952680001967,None,99,m,99,r,MS,2021_Jun_03_0943,WASABI Nback,2020.2.10,61.247488850992916,
4,"[-0.2, 0]",None,0,0,0,0,0,36,36,36,,,,,,,,,-0.24583333333333332,-0.4652777777777778,0,0.08718639999278821,93.39034680000623,None,93.39034680000623,94.39049870002782,94.3729910000111,None,None,1,93.39034680000623,None,99,m,99,r,MS,2021_Jun_03_0943,WASABI Nback,2020.2.10,61.247488850992916,
7,"[-0.2, -0.2]",None,0,0,0,0,0,37,37,37,,,,,,,,,-0.24583333333333332,-0.4652777777777778,0,0.0,95.37678450002568,None,95.37678450002568,96.37519550000434,96.3591432000103,97.36012080000364,None,1,95.37678450002568,None,99,m,99,r,MS,2021_Jun_03_0943,WASABI Nback,2020.2.10,61.247488850992916,
4,"[-0.2, 0]",1,0,0,0,0,0,38,38,38,,,,,,,,,-0.8444444444444444,-0.2513888888888889,0,0.97310970001854,97.37692010001047,None,97.37692010001047,98.39320510000107,98.37988849999965,None,None,0,97.37692010001047,None,99,m,99,r,MS,2021_Jun_03_0943,WASABI Nback,2020.2.10,61.247488850992916,
3,"[0.2, 0.2]",None,0,0,0,0,0,39,39,39,,,,,,,,,-0.8444444444444444,-0.2513888888888889,0,0.0,99.37592560000485,None,99.37592560000485,100.3761692000262,100.35921180000878,101.36389890001738,None,1,99.37592560000485,None,99,m,99,r,MS,2021_Jun_03_0943,WASABI Nback,2020.2.10,61.247488850992916,
5,"[0, 0]",None,0,0,0,0,0,40,40,40,,,,,,,,,-0.8444444444444444,-0.2513888888888889,0,0.0,101.37985800000024,None,101.37985800000024,102.39379100000951,102.36077920001117,103.360697600001,None,1,101.37985800000024,None,99,m,99,r,MS,2021_Jun_03_0943,WASABI Nback,2020.2.10,61.247488850992916,
3,"[0.2, 0.2]",1,0,0,0,0,0,41,41,41,,,,,,,,,-0.8444444444444444,-0.2513888888888889,0,0.0,103.3774328000145,None,103.3774328000145,104.37756300001638,104.36089740000898,105.36134680002579,None,0,103.3774328000145,None,99,m,99,r,MS,2021_Jun_03_0943,WASABI Nback,2020.2.10,61.247488850992916,
1,"[-0.2, 0.2]",None,0,0,0,0,0,42,42,42,,,,,,,,,-0.2833333333333333,-0.002777777777777778,1,1.9733460000134073,105.3779751000111,None,105.3779751000111,106.37864100001752,106.36218920000829,107.36871820001397,1,0,105.3779751000111,None,99,m,99,r,MS,2021_Jun_03_0943,WASABI Nback,2020.2.10,61.247488850992916,
9,"[0.2, -0.2]",None,0,0,0,0,0,43,43,43,,,,,,,,,-0.39861111111111114,-0.04861111111111111,0,0.0,107.38130560002173,None,107.38130560002173,108.39618070001598,108.36286310001742,109.36324630002491,None,1,107.38130560002173,None,99,m,99,r,MS,2021_Jun_03_0943,WASABI Nback,2020.2.10,61.247488850992916,
9,"[0.2, -0.2]",None,0,0,0,0,0,44,44,44,,,,,,,,,-0.8027777777777778,0.0125,0,0.0,109.37982230001944,None,109.37982230001944,110.38180860001012,110.3647327000217,111.3641454000026,None,1,109.37982230001944,None,99,m,99,r,MS,2021_Jun_03_0943,WASABI Nback,2020.2.10,61.247488850992916,
8,"[0, -0.2]",None,0,0,0,0,0,45,45,45,,,,,,,,,-0.8027777777777778,0.0125,0,0.0,111.3808203000226,None,111.3808203000226,112.3816423000244,112.36494890000904,113.36540270000114,None,1,111.3808203000226,None,99,m,99,r,MS,2021_Jun_03_0943,WASABI Nback,2020.2.10,61.247488850992916,
6,"[0.2, 0]",None,0,0,0,0,0,46,46,46,,,,,,,,,-0.8027777777777778,0.0125,0,0.0,113.38235030000214,None,113.38235030000214,114.38226380001288,114.36574030001066,115.36617660001502,None,1,113.38235030000214,None,99,m,99,r,MS,2021_Jun_03_0943,WASABI Nback,2020.2.10,61.247488850992916,
3,"[0.2, 0.2]",None,0,0,0,0,0,47,47,47,,,,,,,,,-0.8027777777777778,0.0125,0,0.0,115.38278550002724,None,115.38278550002724,116.38314520000131,116.3664835000236,117.36708310001995,None,1,115.38278550002724,None,99,m,99,r,MS,2021_Jun_03_0943,WASABI Nback,2020.2.10,61.247488850992916,
6,"[0.2, 0]",1,0,0,0,0,0,48,48,48,,,,,,,,,-0.8027777777777778,0.0125,0,0.0,117.38378320002812,None,117.38378320002812,118.3840381000191,118.36767460001283,119.36817990001873,None,0,117.38378320002812,None,99,m,99,r,MS,2021_Jun_03_0943,WASABI Nback,2020.2.10,61.247488850992916,
5,"[0, 0]",None,0,0,0,0,0,49,49,49,,,,,,,,,-0.8027777777777778,0.0125,0,0.0,119.38458720000926,None,119.38458720000926,120.38502530002734,120.36839020001935,None,None,1,119.38458720000926,None,99,m,99,r,MS,2021_Jun_03_0943,WASABI Nback,2020.2.10,61.247488850992916,
7,"[-0.2, -0.2]",None,0,0,0,0,0,50,50,50,,,,,,,,,-0.8027777777777778,0.0125,0,0.0,121.3888033000112,None,121.3888033000112,122.40261940000346,122.3693132000044,123.374252300011,None,1,121.3888033000112,None,99,m,99,r,MS,2021_Jun_03_0943,WASABI Nback,2020.2.10,61.247488850992916,
5,"[0, 0]",1,0,0,0,0,0,51,51,51,,,,,,,,,-0.8027777777777778,0.0125,0,0.0,123.38731700001517,None,123.38731700001517,124.38741560000926,124.37103690000367,125.37156880000839,None,0,123.38731700001517,None,99,m,99,r,MS,2021_Jun_03_0943,WASABI Nback,2020.2.10,61.247488850992916,
1,"[-0.2, 0.2]",None,0,0,0,0,0,52,52,52,,,,,,,,,-0.8027777777777778,0.0125,0,0.0,125.38781090002158,None,125.38781090002158,126.38797570002498,126.37229610001668,127.3720658000093,None,1,125.38781090002158,None,99,m,99,r,MS,2021_Jun_03_0943,WASABI Nback,2020.2.10,61.247488850992916,
7,"[-0.2, -0.2]",None,0,0,0,0,0,53,53,53,,,,,,,,,-0.8027777777777778,0.0125,0,0.0,127.38873230002355,None,127.38873230002355,128.38899390000734,128.37215330000618,129.3736055000045,None,1,127.38873230002355,None,99,m,99,r,MS,2021_Jun_03_0943,WASABI Nback,2020.2.10,61.247488850992916,
9,"[0.2, -0.2]",None,0,0,0,0,0,54,54,54,,,,,,,,,-0.8027777777777778,0.0125,0,0.0,129.38940450001974,None,129.38940450001974,130.389905500022,130.3731845000002,131.37420100002782,None,1,129.38940450001974,None,99,m,99,r,MS,2021_Jun_03_0943,WASABI Nback,2020.2.10,61.247488850992916,
3,"[0.2, 0.2]",None,0,0,0,0,0,55,55,55,,,,,,,,,-0.8027777777777778,0.0125,0,0.0,131.3911484000273,None,131.3911484000273,132.39172300000791,132.37438600001042,133.37502680000034,None,1,131.3911484000273,None,99,m,99,r,MS,2021_Jun_03_0943,WASABI Nback,2020.2.10,61.247488850992916,
9,"[0.2, -0.2]",1,0,0,0,0,0,56,56,56,,,,,,,,,-0.8027777777777778,0.0125,0,0.0,133.3920304000203,None,133.3920304000203,134.3924524000031,134.37558930000523,135.37572270000237,None,0,133.3920304000203,None,99,m,99,r,MS,2021_Jun_03_0943,WASABI Nback,2020.2.10,61.247488850992916,
6,"[0.2, 0]",None,0,0,0,0,0,57,57,57,,,,,,,,,-0.8027777777777778,0.0125,0,0.0,135.39269150001928,None,135.39269150001928,136.3933059000119,136.37637880002148,None,None,1,135.39269150001928,None,99,m,99,r,MS,2021_Jun_03_0943,WASABI Nback,2020.2.10,61.247488850992916,
2,"[0, 0.2]",None,0,0,0,0,0,58,58,58,,,,,,,,,-0.8638888888888889,-0.26944444444444443,0,0.0,137.37689190002857,None,137.37689190002857,138.37746510002762,138.36102140002185,139.36202550001326,None,1,137.37689190002857,None,99,m,99,r,MS,2021_Jun_03_0943,WASABI Nback,2020.2.10,61.247488850992916,
5,"[0, 0]",None,0,0,0,0,0,59,59,59,,,,,,,,,-0.8638888888888889,-0.26944444444444443,0,0.0,139.37894320001942,None,139.37894320001942,140.37865420000162,140.3621144000208,141.36174430002575,None,1,139.37894320001942,None,99,m,99,r,MS,2021_Jun_03_0943,WASABI Nback,2020.2.10,61.247488850992916,
5,"[0, 0]",None,0,0,0,0,0,60,60,60,,,,,,,,,-0.8638888888888889,-0.26944444444444443,0,0.0,141.37832770001842,None,141.37832770001842,142.382526100002,142.36671110001043,None,None,1,141.37832770001842,None,99,m,99,r,MS,2021_Jun_03_0943,WASABI Nback,2020.2.10,61.247488850992916,
2,"[0, 0.2]",None,0,0,0,0,0,61,61,61,,,,,,,,,-0.8638888888888889,-0.26944444444444443,0,0.0,143.38314410002204,None,143.38314410002204,144.38303340002312,144.36726060000365,None,None,1,143.38314410002204,None,99,m,99,r,MS,2021_Jun_03_0943,WASABI Nback,2020.2.10,61.247488850992916,
6,"[0.2, 0]",None,0,0,0,0,0,62,62,62,,,,,,,,,-0.8638888888888889,-0.26944444444444443,0,0.0,145.38059740001336,None,145.38059740001336,146.38096220002626,146.36668160001864,None,None,1,145.38059740001336,None,99,m,99,r,MS,2021_Jun_03_0943,WASABI Nback,2020.2.10,61.247488850992916,
9,"[0.2, -0.2]",None,0,0,0,0,0,63,63,63,,,,,,,,,-0.8638888888888889,-0.26944444444444443,0,0.0,147.38169450001442,None,147.38169450001442,148.38227320002625,148.3674408000079,None,None,1,147.38169450001442,None,99,m,99,r,MS,2021_Jun_03_0943,WASABI Nback,2020.2.10,61.247488850992916,
3,"[0.2, 0.2]",None,0,0,0,0,0,64,64,64,,,,,,,,,-0.8638888888888889,-0.26944444444444443,0,0.0,149.3826415000076,None,149.3826415000076,150.3850292999996,150.37134720000904,None,None,1,149.3826415000076,None,99,m,99,r,MS,2021_Jun_03_0943,WASABI Nback,2020.2.10,61.247488850992916,
9,"[0.2, -0.2]",1,0,0,0,0,0,65,65,65,,,,,,,,,-0.8638888888888889,-0.26944444444444443,0,0.0,151.3829732000013,None,151.3829732000013,152.38341090001632,152.36777550002444,153.37005360002513,None,0,151.3829732000013,None,99,m,99,r,MS,2021_Jun_03_0943,WASABI Nback,2020.2.10,61.247488850992916,
7,"[-0.2, -0.2]",None,0,0,0,0,0,66,66,66,,,,,,,,,-0.5222222222222223,0.20972222222222223,0,0.0,153.38441060000332,None,153.38441060000332,154.3849853000138,154.37098540001898,155.37113530002534,None,1,153.38441060000332,None,99,m,99,r,MS,2021_Jun_03_0943,WASABI Nback,2020.2.10,61.247488850992916,
1,"[-0.2, 0.2]",None,0,0,0,0,0,67,67,67,,,,,,,,,-0.07361111111111111,0.034722222222222224,0,0.5740348999970593,155.38548960001208,None,155.38548960001208,156.38619830002426,156.3712363000086,None,None,1,155.38548960001208,None,99,m,99,r,MS,2021_Jun_03_0943,WASABI Nback,2020.2.10,61.247488850992916,
5,"[0, 0]",None,0,0,0,0,0,68,68,68,,,,,,,,,-0.075,0.019444444444444445,0,0.32401919999392703,157.38599630002864,None,157.38599630002864,158.38685810001334,158.37211010002648,None,None,1,157.38599630002864,None,99,m,99,r,MS,2021_Jun_03_0943,WASABI Nback,2020.2.10,61.247488850992916,
7,"[-0.2, -0.2]",None,0,0,0,0,0,69,69,69,,,,,,,,,-0.08611111111111111,0.016666666666666666,0,0.9860334999975748,159.38750440001604,None,159.38750440001604,160.38731499999994,160.37293860001955,None,None,1,159.38750440001604,None,99,m,99,r,MS,2021_Jun_03_0943,WASABI Nback,2020.2.10,61.247488850992916,
5,"[0, 0]",1,0,0,0,0,0,70,70,70,,,,,,,,,-0.08611111111111111,0.016666666666666666,0,1.2900581000139937,161.38815140002407,None,161.38815140002407,162.39063100001658,162.3717377000139,163.3724448000139,None,0,161.38815140002407,None,99,m,99,r,MS,2021_Jun_03_0943,WASABI Nback,2020.2.10,61.247488850992916,
6,"[0.2, 0]",None,0,0,0,0,0,71,71,71,,,,,,,,,-0.11527777777777778,0.029166666666666667,0,1.4014414999983273,163.3914444000111,None,163.3914444000111,164.40650730000925,164.373061100021,165.3733491000021,None,1,163.3914444000111,None,99,m,99,r,MS,2021_Jun_03_0943,WASABI Nback,2020.2.10,61.247488850992916,
3,"[0.2, 0.2]",None,0,0,0,0,0,72,72,72,,,,,,,,,-0.11527777777777778,0.029166666666666667,0,0.0,165.3921595000138,None,165.3921595000138,166.40757270000177,166.37345400001504,None,None,1,165.3921595000138,None,99,m,99,r,MS,2021_Jun_03_0943,WASABI Nback,2020.2.10,61.247488850992916,
6,"[0.2, 0]",1,0,0,0,0,0,73,73,73,,,,,,,,,-0.12777777777777777,0.02638888888888889,0,0.16988870000932366,167.37423410001793,None,167.37423410001793,168.37458520001383,168.3602213000122,None,None,0,167.37423410001793,None,99,m,99,r,MS,2021_Jun_03_0943,WASABI Nback,2020.2.10,61.247488850992916,
8,"[0, -0.2]",None,0,0,0,0,0,74,74,74,,,,,,,,,-0.38472222222222224,0.020833333333333332,0,0.43500690002110787,169.37515310000163,None,169.37515310000163,170.37528880001628,170.36101420002524,None,None,1,169.37515310000163,None,99,m,99,r,MS,2021_Jun_03_0943,WASABI Nback,2020.2.10,61.247488850992916,
9,"[0.2, -0.2]",None,0,0,0,0,0,75,75,75,,,,,,,,,-0.2861111111111111,0.018055555555555554,0,0.5205963000189513,171.37617000000319,None,171.37617000000319,172.37685230001807,172.362020200002,None,None,1,171.37617000000319,None,99,m,99,r,MS,2021_Jun_03_0943,WASABI Nback,2020.2.10,61.247488850992916,
9,"[0.2, -0.2]",None,0,0,0,0,0,76,76,76,,,,,,,,,-0.8833333333333333,0.034722222222222224,0,0.7206884000042919,173.3772918000177,None,173.3772918000177,174.37730790002388,174.36134240002139,175.36100790000637,None,1,173.3772918000177,None,99,m,99,r,MS,2021_Jun_03_0943,WASABI Nback,2020.2.10,61.247488850992916,
1,"[-0.2, 0.2]",None,0,0,0,0,0,77,77,77,,,,,,,,,-0.8833333333333333,0.034722222222222224,0,0.0,175.37764770002104,None,175.37764770002104,176.38023150002118,176.364326800016,None,None,1,175.37764770002104,None,99,m,99,r,MS,2021_Jun_03_0943,WASABI Nback,2020.2.10,61.247488850992916,
3,"[0.2, 0.2]",None,0,0,0,0,0,78,78,78,,,,,,,,,-0.8833333333333333,0.034722222222222224,0,0.0,177.37965460002306,None,177.37965460002306,178.3796423000167,178.36300990000018,179.36616290002712,None,1,177.37965460002306,None,99,m,99,r,MS,2021_Jun_03_0943,WASABI Nback,2020.2.10,61.247488850992916,
5,"[0, 0]",None,0,0,0,0,0,79,79,79,,,,,,,,,-0.19305555555555556,-0.07777777777777778,0,0.506162800011225,179.382408400008,None,179.382408400008,180.39689350000117,180.36334600002738,181.36373370001093,None,1,179.382408400008,None,99,m,99,r,MS,2021_Jun_03_0943,WASABI Nback,2020.2.10,61.247488850992916,
3,"[0.2, 0.2]",1,0,0,0,0,0,80,80,80,,,,,,,,,-0.19305555555555556,-0.07777777777777778,0,1.6360411000205204,181.38054160002503,None,181.38054160002503,182.38190640002722,182.36418430000776,183.36469480002415,None,0,181.38054160002503,None,99,m,99,r,MS,2021_Jun_03_0943,WASABI Nback,2020.2.10,61.247488850992916,
4,"[-0.2, 0]",None,0,0,0,0,0,81,81,81,,,,,,,,,-0.8472222222222222,-0.10416666666666667,0,0.0,183.38129370001843,None,183.38129370001843,184.3856324000226,184.36723790000542,185.37039150000783,None,1,183.38129370001843,None,99,m,99,r,MS,2021_Jun_03_0943,WASABI Nback,2020.2.10,61.247488850992916,
7,"[-0.2, -0.2]",None,0,0,0,0,0,82,82,82,,,,,,,,,-0.8472222222222222,-0.10416666666666667,0,0.0,185.38617630000226,None,185.38617630000226,186.4087638000201,186.37362940001185,None,None,1,185.38617630000226,None,99,m,99,r,MS,2021_Jun_03_0943,WASABI Nback,2020.2.10,61.247488850992916,
4,"[-0.2, 0]",1,0,0,0,0,0,83,83,83,,,,,,,,,0.14166666666666666,0.059722222222222225,0,0.0,187.3834684000176,None,187.3834684000176,188.38452250001137,188.3512254000234,189.35169260000112,None,0,187.3834684000176,None,99,m,99,r,MS,2021_Jun_03_0943,WASABI Nback,2020.2.10,61.247488850992916,
4,"[-0.2, 0]",None,0,0,0,0,0,84,84,84,,,,,,,,,0.11527777777777778,0.059722222222222225,0,0.7648702000151388,189.38435960002244,None,189.38435960002244,190.3848513000121,190.3681414000166,191.3685761000088,None,1,189.38435960002244,None,99,m,99,r,MS,2021_Jun_03_0943,WASABI Nback,2020.2.10,61.247488850992916,
5,"[0, 0]",None,0,0,0,0,0,85,85,85,,,,,,,,,0.11388888888888889,0.059722222222222225,0,0.0,191.38508470001398,None,191.38508470001398,192.3921318000066,192.36912810002104,193.36995910000405,None,1,191.38508470001398,None,99,m,99,r,MS,2021_Jun_03_0943,WASABI Nback,2020.2.10,61.247488850992916,
2,"[0, 0.2]",None,0,0,0,0,0,86,86,86,,,,,,,,,0.11388888888888889,0.059722222222222225,0,0.0,193.38627810002072,None,193.38627810002072,194.38682630000403,194.37024380001822,195.37029570000595,None,1,193.38627810002072,None,99,m,99,r,MS,2021_Jun_03_0943,WASABI Nback,2020.2.10,61.247488850992916,
6,"[0.2, 0]",None,0,0,0,0,0,87,87,87,,,,,,,,,-0.8819444444444444,0.15138888888888888,0,0.0,195.3935028000269,None,195.3935028000269,196.38769350000075,196.3773032000172,None,None,1,195.3935028000269,None,99,m,99,r,MS,2021_Jun_03_0943,WASABI Nback,2020.2.10,61.247488850992916,
7,"[-0.2, -0.2]",None,0,0,0,0,0,88,88,88,,,,,,,,,-0.8819444444444444,0.15138888888888888,0,0.0,197.3714780000155,None,197.3714780000155,198.37632530002156,198.3557676000055,199.35750550002558,None,1,197.3714780000155,None,99,m,99,r,MS,2021_Jun_03_0943,WASABI Nback,2020.2.10,61.247488850992916,
6,"[0.2, 0]",1,0,0,0,0,0,89,89,89,,,,,,,,,-0.8819444444444444,0.15138888888888888,0,0.0,199.37577110002167,199.37577110002167,199.37577110002167,200.38887900000555,200.36356360002537,None,None,0,199.37577110002167,None,99,m,99,r,MS,2021_Jun_03_0943,WASABI Nback,2020.2.10,61.247488850992916,
6,"[0.2, 0]",None,0,0,0,0,0,90,90,90,,,,,,,,,-0.8819444444444444,0.15138888888888888,0,0.0,201.38905550001073,None,201.38905550001073,202.41501600001357,202.3981110000168,None,None,1,201.38905550001073,None,99,m,99,r,MS,2021_Jun_03_0943,WASABI Nback,2020.2.10,61.247488850992916,
7,"[-0.2, -0.2]",None,0,0,0,0,0,91,91,91,,,,,,,,,-0.8875,0.1986111111111111,0,0.0,203.42193180002505,None,203.42193180002505,204.42541740002343,204.39105870001367,None,None,1,203.42193180002505,None,99,m,99,r,MS,2021_Jun_03_0943,WASABI Nback,2020.2.10,61.247488850992916,
6,"[0.2, 0]",1,0,0,0,0,0,92,92,92,,,,,,,,,-0.8861111111111111,0.020833333333333332,0,0.5013314999814611,205.39177159999963,None,205.39177159999963,206.393129700009,206.37765639999998,None,None,0,205.39177159999963,None,99,m,99,r,MS,2021_Jun_03_0943,WASABI Nback,2020.2.10,61.247488850992916,
2,"[0, 0.2]",None,0,0,0,0,0,93,93,93,,,,,,,,,-0.8861111111111111,0.020833333333333332,0,0.0,207.3925010000239,None,207.3925010000239,208.39313680000487,208.37625090000802,None,None,1,207.3925010000239,None,99,m,99,r,MS,2021_Jun_03_0943,WASABI Nback,2020.2.10,61.247488850992916,
5,"[0, 0]",None,0,0,0,0,0,94,94,94,,,,,,,,,-0.8861111111111111,0.020833333333333332,0,0.0,209.37682440000935,None,209.37682440000935,210.37772160000168,210.360642500018,211.36127400002442,None,1,209.37682440000935,None,99,m,99,r,MS,2021_Jun_03_0943,WASABI Nback,2020.2.10,61.247488850992916,
4,"[-0.2, 0]",None,0,0,0,0,0,95,95,95,,,,,,,,,-0.8305555555555556,-0.08194444444444444,0,0.0,211.3779655000253,None,211.3779655000253,212.37863420002395,212.3624096000276,213.3619550000003,None,1,211.3779655000253,None,99,m,99,r,MS,2021_Jun_03_0943,WASABI Nback,2020.2.10,61.247488850992916,
4,"[-0.2, 0]",None,0,0,0,0,0,96,96,96,,,,,,,,,-0.8444444444444444,-0.08194444444444444,0,0.7509030000073835,213.37957730001654,None,213.37957730001654,214.37949660001323,214.36311690000002,215.36323800001992,None,1,213.37957730001654,None,99,m,99,r,MS,2021_Jun_03_0943,WASABI Nback,2020.2.10,61.247488850992916,
7,"[-0.2, -0.2]",None,0,0,0,0,0,97,97,97,,,,,,,,,-0.8444444444444444,-0.08194444444444444,0,0.0,215.37971600002493,None,215.37971600002493,216.38002930002403,216.36363070001244,217.36403419999988,None,1,215.37971600002493,None,99,m,99,r,MS,2021_Jun_03_0943,WASABI Nback,2020.2.10,61.247488850992916,
4,"[-0.2, 0]",1,0,0,0,0,0,98,98,98,,,,,,,,,-0.8444444444444444,-0.08194444444444444,0,0.0,217.3810674000124,None,217.3810674000124,218.38495920001878,218.3642859000247,219.36475610002526,None,0,217.3810674000124,None,99,m,99,r,MS,2021_Jun_03_0943,WASABI Nback,2020.2.10,61.247488850992916,
3,"[0.2, 0.2]",None,0,0,0,0,0,99,99,99,,,,,,,,,-0.8444444444444444,-0.08194444444444444,0,0.0,219.38146460001008,None,219.38146460001008,220.38630280000507,220.3678108000022,221.36642030000803,None,1,219.38146460001008,None,99,m,99,r,MS,2021_Jun_03_0943,WASABI Nback,2020.2.10,61.247488850992916,
5,"[0, 0]",None,0,0,0,0,0,100,100,100,,,,,,,,,-0.8444444444444444,-0.08194444444444444,0,0.0,221.38239680000697,None,221.38239680000697,222.38303720002295,222.36621350000496,223.3698079000169,None,1,221.38239680000697,None,99,m,99,r,MS,2021_Jun_03_0943,WASABI Nback,2020.2.10,61.247488850992916,
3,"[0.2, 0.2]",1,0,0,0,0,0,101,101,101,,,,,,,,,-0.8444444444444444,-0.08194444444444444,0,0.0,223.3866748000146,None,223.3866748000146,224.40394820002257,224.36797010002192,225.36794100000407,None,0,223.3866748000146,None,99,m,99,r,MS,2021_Jun_03_0943,WASABI Nback,2020.2.10,61.247488850992916,
1,"[-0.2, 0.2]",None,0,0,0,0,0,102,102,102,,,,,,,,,-0.8444444444444444,-0.08194444444444444,0,0.0,225.38424010001472,None,225.38424010001472,226.38572960000602,226.37286430000677,None,None,1,225.38424010001472,None,99,m,99,r,MS,2021_Jun_03_0943,WASABI Nback,2020.2.10,61.247488850992916,
9,"[0.2, -0.2]",None,0,0,0,0,0,103,103,103,,,,,,,,,-0.8444444444444444,-0.08194444444444444,0,0.0,227.38627060002182,None,227.38627060002182,228.3859102000133,228.36932370002614,229.36982530000387,None,1,227.38627060002182,None,99,m,99,r,MS,2021_Jun_03_0943,WASABI Nback,2020.2.10,61.247488850992916,
9,"[0.2, -0.2]",None,0,0,0,0,0,104,104,104,,,,,,,,,0.2638888888888889,0.06111111111111111,1,1.8731899999838788,229.38614060002146,None,229.38614060002146,230.3871027000132,230.36983770001098,231.37258990001283,1,0,229.38614060002146,None,99,m,99,r,MS,2021_Jun_03_0943,WASABI Nback,2020.2.10,61.247488850992916,
8,"[0, -0.2]",None,0,0,0,0,0,105,105,105,,,,,,,,,0.24166666666666667,0.05694444444444444,0,0.7713254000118468,231.38806170001044,None,231.38806170001044,232.38808310002787,232.37088770000264,233.37127270002384,None,1,231.38806170001044,None,99,m,99,r,MS,2021_Jun_03_0943,WASABI Nback,2020.2.10,61.247488850992916,
6,"[0.2, 0]",None,0,0,0,0,0,106,106,106,,,,,,,,,0.23472222222222222,0.05277777777777778,0,1.7846602000063285,233.38874520000536,None,233.38874520000536,234.38933530001668,234.3721975000226,235.37233370001195,None,1,233.38874520000536,None,99,m,99,r,MS,2021_Jun_03_0943,WASABI Nback,2020.2.10,61.247488850992916,
3,"[0.2, 0.2]",None,0,0,0,0,0,107,107,107,,,,,,,,,0.22916666666666666,0.05,0,0.0,235.38975040000514,None,235.38975040000514,236.39019080001162,236.3728078000131,237.37356810001074,None,1,235.38975040000514,None,99,m,99,r,MS,2021_Jun_03_0943,WASABI Nback,2020.2.10,61.247488850992916,
6,"[0.2, 0]",1,0,0,0,0,0,108,108,108,,,,,,,,,0.22916666666666666,0.05,0,0.0,237.39044140002807,None,237.39044140002807,238.39109930000268,238.37445710002794,239.3744571999996,None,0,237.39044140002807,None,99,m,99,r,MS,2021_Jun_03_0943,WASABI Nback,2020.2.10,61.247488850992916,
5,"[0, 0]",None,0,0,0,0,0,109,109,109,,,,,,,,,0.2263888888888889,0.05,0,1.3178192999912426,239.39153670001542,None,239.39153670001542,240.3920739000023,240.37495400002808,241.37560340002528,None,1,239.39153670001542,None,99,m,99,r,MS,2021_Jun_03_0943,WASABI Nback,2020.2.10,61.247488850992916,
7,"[-0.2, -0.2]",None,0,0,0,0,0,110,110,110,,,,,,,,,0.21944444444444444,0.04722222222222222,0,0.0,241.39232940002694,None,241.39232940002694,242.3930480000272,242.3759071000095,None,None,1,241.39232940002694,None,99,m,99,r,MS,2021_Jun_03_0943,WASABI Nback,2020.2.10,61.247488850992916,
5,"[0, 0]",1,0,0,0,0,0,111,111,111,,,,,,,,,0.21805555555555556,0.027777777777777776,0,0.0,243.3760605000134,None,243.3760605000134,244.37694260000717,244.36052310001105,245.36107010001433,None,0,243.3760605000134,None,99,m,99,r,MS,2021_Jun_03_0943,WASABI Nback,2020.2.10,61.247488850992916,
1,"[-0.2, 0.2]",None,0,0,0,0,0,112,112,112,,,,,,,,,0.21805555555555556,0.027777777777777776,0,0.0,245.37756480000098,None,245.37756480000098,246.37746700001298,246.361418400018,247.36177720001433,None,1,245.37756480000098,None,99,m,99,r,MS,2021_Jun_03_0943,WASABI Nback,2020.2.10,61.247488850992916,
7,"[-0.2, -0.2]",None,0,0,0,0,0,113,113,113,,,,,,,,,0.24583333333333332,0.05,0,0.0,247.3778946000093,None,247.3778946000093,248.3788465000107,248.36228840000695,249.3631951000134,None,1,247.3778946000093,None,99,m,99,r,MS,2021_Jun_03_0943,WASABI Nback,2020.2.10,61.247488850992916,
9,"[0.2, -0.2]",None,0,0,0,0,0,114,114,114,,,,,,,,,0.27361111111111114,0.03333333333333333,0,0.0,249.3794219000265,None,249.3794219000265,250.37980000002426,250.36333280001418,251.36377030002768,None,1,249.3794219000265,None,99,m,99,r,MS,2021_Jun_03_0943,WASABI Nback,2020.2.10,61.247488850992916,
3,"[0.2, 0.2]",None,0,0,0,0,0,115,115,115,,,,,,,,,0.3472222222222222,0.16527777777777777,0,0.0,251.37988250001217,None,251.37988250001217,252.38068850000855,252.3641997000086,253.36475140001858,None,1,251.37988250001217,None,99,m,99,r,MS,2021_Jun_03_0943,WASABI Nback,2020.2.10,61.247488850992916,
9,"[0.2, -0.2]",1,0,0,0,0,0,116,116,116,,,,,,,,,0.06666666666666667,0.002777777777777778,0,0.0,253.38108360001934,None,253.38108360001934,254.38241370001924,254.36573110002792,255.36597850002,None,0,253.38108360001934,None,99,m,99,r,MS,2021_Jun_03_0943,WASABI Nback,2020.2.10,61.247488850992916,
6,"[0.2, 0]",None,0,0,0,0,0,117,117,117,,,,,,,,,0.075,0.041666666666666664,0,0.16754880000371486,255.38285360002192,None,255.38285360002192,256.38299920002464,256.3663265000214,257.36658320002607,None,1,255.38285360002192,None,99,m,99,r,MS,2021_Jun_03_0943,WASABI Nback,2020.2.10,61.247488850992916,
2,"[0, 0.2]",None,0,0,0,0,0,118,118,118,,,,,,,,,-0.8333333333333334,0.09027777777777778,0,0.0,257.3832233000139,None,257.3832233000139,258.3857504000189,258.36912570000277,259.3697253000282,None,1,257.3832233000139,None,99,m,99,r,MS,2021_Jun_03_0943,WASABI Nback,2020.2.10,61.247488850992916,
5,"[0, 0]",None,0,0,0,0,0,119,119,119,,,,,,,,,-0.8333333333333334,0.09027777777777778,0,0.0,259.3869260000065,None,259.3869260000065,260.40252220002003,260.3678792999999,261.36835420000716,None,1,259.3869260000065,None,99,m,99,r,MS,2021_Jun_03_0943,WASABI Nback,2020.2.10,61.247488850992916,
