	onset	duration	rt	response	correct	bodySite	temperature	condition	pretrial-jitter
0	2.767504999996163	7.773433800088242				Left Face	49.0	2back Instructions	
1	10.782154500018805	1.9826315600657836			1.0	Left Face	32.0	2back-nostim	
2	12.77703440003097	2.0096138599328697			1.0	Left Face	32.0	2back-nostim	3.0
3	14.79317760001868	2.0106909601017833	0.41945410007610917	0.0	1.0	Left Face	32.0	2back-nostim	
4	16.810433500097133	2.0095616600010544	0.0	2.0	1.0	Left Face	32.0	2back-nostim	
5	18.826610299991444	2.0106003598775715	0.0	2.0	1.0	Left Face	32.0	2back-nostim	
6	20.843340100022033	2.010473159956746	0.0	2.0	1.0	Left Face	32.0	2back-nostim	
7	22.86008260003291	2.01039225992281	0.7336112998891622	0.0	1.0	Left Face	32.0	2back-nostim	
8	24.876836900017224	2.0102223600260913	0.5835636999690905	0.0	1.0	Left Face	32.0	2back-nostim	
9	26.89333940006327	2.0105792599497363	0.6168893999420106	0.0	1.0	Left Face	32.0	2back-nostim	
10	28.910068800090812	2.0105139600345865	0.0	2.0	1.0	Left Face	32.0	2back-nostim	
11	33.93435410002712	38.940399400074966				Left Face	49.0	2back Instructions	
12	45.94878510001581	2.000035159988329			1.0	Left Face	32.0	2back-nostim	
13	47.96077600005083	2.009419560083188			1.0	Left Face	32.0	2back-nostim	7.0
14	49.976984000066295	2.0103819600772113	0.4335757000371814	0.0	1.0	Left Face	32.0	2back-nostim	
15	51.99370540003292	2.0102320599835366	0.0	2.0	1.0	Left Face	32.0	2back-nostim	
16	54.010195399983786	2.0106622599996626	0.0	2.0	1.0	Left Face	32.0	2back-nostim	
17	56.02703910006676	2.0103607600321993	0.0	2.0	1.0	Left Face	32.0	2back-nostim	
18	58.043856400065124	2.010104759945534	0.3836961999768391	0.0	1.0	Left Face	32.0	2back-nostim	
19	60.060729800025	2.009711359976791	0.0	2.0	1.0	Left Face	32.0	2back-nostim	
20	62.07699129998218	2.0105434600263834	0.0	2.0	1.0	Left Face	32.0	2back-nostim	
21	64.09366480004974	2.0105915600433946	0.5669008999830112	0.0	1.0	Left Face	32.0	2back-nostim	
22	69.11781870003324	74.12403070006985				Left Face	49.0	2back Instructions	
23	81.13256639998872	1.983052960014902			1.0	Left Face	32.0	2back-nostim	
24	83.12768160004634	2.0095405600732192			1.0	Left Face	32.0	2back-nostim	7.0
25	85.14378990000114	2.0107231598813087	0.0	2.0	1.0	Left Face	32.0	2back-nostim	
26	87.16078520007432	2.010089759947732	0.0	2.0	1.0	Left Face	32.0	2back-nostim	
27	89.17726160003804	2.010492159985006	0.31691319996025413	0.0	1.0	Left Face	32.0	2back-nostim	
28	91.19386970007326	2.0106277599697933	0.4668647999642417	0.0	1.0	Left Face	32.0	2back-nostim	
29	93.210587700014	2.0105675600934774	0.0	2.0	1.0	Left Face	32.0	2back-nostim	
30	95.2272841000231	2.010552060091868	0.0	2.0	1.0	Left Face	32.0	2back-nostim	
31	97.24478419998195	2.008938859915361	0.0	2.0	1.0	Left Face	32.0	2back-nostim	
32	99.2608872000128	2.010122960084118	0.5361296000191942	0.0	1.0	Left Face	32.0	2back-nostim	
33	104.28573770006187	109.29091800004244				Left Face	32.0	2back Instructions	
34	116.29939490009565	2.0000554599100724			1.0	Left Face	49.0	2back-stim	
35	118.31123780005146	2.009212560020387			1.0	Left Face	49.0	2back-stim	7.0
36	120.32740619999822	2.0107458599377424	0.0	2.0	1.0	Left Face	49.0	2back-stim	
37	122.34453250002116	2.0099191600456834	0.0	2.0	1.0	Left Face	49.0	2back-stim	
38	124.41282680002041	1.9566561401588842	0.4337072999915108	0.0	1.0	Left Face	49.0	2back-stim	
39	126.37778790004086	2.0100744601804763	0.0	2.0	1.0	Left Face	49.0	2back-stim	
40	128.39426730002742	2.0105084599927068	0.0	2.0	1.0	Left Face	49.0	2back-stim	
41	130.41131080000196	2.009803959983401	0.418708199984394	0.0	1.0	Left Face	49.0	2back-stim	
42	132.42764000000898	2.0105049600824714	0.0	2.0	1.0	Left Face	49.0	2back-stim	
43	134.4446041000774	2.0099554599728435	0.5835598999401554	0.0	0.0	Left Face	49.0	2back-stim	
44	139.4618433000287	5.009228860028088		23.45679012345679		Left Face	49.0	2back-stim Rating	3.0
45	144.46816930000205	149.4750298000872				Left Face	32.0	2back Instructions	
46	156.49980890005827	1.9998904600506648			1.0	Left Face	49.0	2back-stim	
47	158.51160850003362	2.009681659983471			1.0	Left Face	49.0	2back-stim	7.0
48	160.5283870000858	2.0094988599885255	0.5502105999039486	0.0	1.0	Left Face	49.0	2back-stim	
49	162.5445475000888	2.010552759980783	0.0	2.0	1.0	Left Face	49.0	2back-stim	
50	164.59038280008826	1.9689135198714212	0.0	2.0	1.0	Left Face	49.0	2back-stim	
51	166.57804100005887	2.010292059974745	0.0	2.0	1.0	Left Face	49.0	2back-stim	
52	168.59455740009435	2.010630859993398	0.5168519000289962	0.0	0.0	Left Face	49.0	2back-stim	
53	170.6112883000169	2.0105348599608988	0.0	2.0	1.0	Left Face	49.0	2back-stim	
54	172.62862129998393	2.009252559975721	0.3835326998960227	0.0	1.0	Left Face	49.0	2back-stim	
55	174.64495570003055	2.009985259966925	0.0	2.0	1.0	Left Face	49.0	2back-stim	
56	179.66264580003917	5.00832656014245		18.88888888888889		Left Face	49.0	2back-stim Rating	3.0
57	184.6683294000104	189.67529110005125				Left Face	32.0	2back Instructions	
58	196.70012080005836	2.0000120600452647			1.0	Left Face	49.0	2back-stim	
59	198.71191489999183	2.0096844598883763			1.0	Left Face	49.0	2back-stim	7.0
60	200.72847880003974	2.009995359927416	0.0	2.0	1.0	Left Face	49.0	2back-stim	
61	202.7449792000698	2.0103967600734904	0.8002393000060692	0.0	1.0	Left Face	49.0	2back-stim	
62	204.83408930001315	1.932213600142859	0.0	2.0	1.0	Left Face	49.0	2back-stim	
63	206.77864190004766	2.009779960033484	0.0	2.0	1.0	Left Face	49.0	2back-stim	
64	208.79496239998844	2.0105426599038765	0.0	2.0	1.0	Left Face	49.0	2back-stim	
65	210.81165779998992	2.010516859940253	0.46691779990214854	0.0	1.0	Left Face	49.0	2back-stim	
66	212.82860050001182	2.0099815600551665	0.0	2.0	1.0	Left Face	49.0	2back-stim	
67	214.84538610000163	2.0098009599605575	0.7331142000621185	0.0	1.0	Left Face	49.0	2back-stim	
68	221.86299940000754	5.008390260045417		21.666666666666668		Left Face	49.0	2back-stim Rating	5.0
69	231.86074590007775	20.012850060127676				Left Face	32.0	Rest-NoStim	5.0
70	251.86102379998192	3.0125288600102067				Left Face		PostTrialFixation	
71	261.8607520000078	20.013341560028493				Left Face	32.0	Rest-NoStim	7.0
72	281.86079790000804	7.013498759944923				Left Face		PostTrialFixation	
73	291.86079479998443	20.01392975996714				Left Face	32.0	Rest-NoStim	3.0
74	311.86204630008433	5.011643160018139				Left Face		PostTrialFixation	
75	321.87627670005895	20.000044660060667				Left Face	49.0	Rest-Stim	5.0
76	341.8764551000204	6.999926059972495				Left Face		PostTrialFixation	
77	348.8768854000373	5.016155959921889		18.08641975308642		Left Face	49.0	Rest-Stim Rating	7.0
78	356.8933441999834	19.99987975996919				Left Face	49.0	Rest-Stim	3.0
79	376.89351050008554	7.016487560002133				Left Face		PostTrialFixation	
80	383.89613450004254	5.011589860077947		16.296296296296298		Left Face	49.0	Rest-Stim Rating	7.0
81	391.91021930007264	20.000054060015827				Left Face	49.0	Rest-Stim	3.0
82	411.91042209998704	6.999913559877314				Left Face		PostTrialFixation	
83	418.91084640007466	5.016140659921803		16.481481481481485		Left Face	49.0	Rest-Stim Rating	7.0
84	423.92043070006184	428.9274868000066				Left Face	32.0	2back Instructions	
85	431.95240920002107	1.9995865600649267			1.0	Left Face	49.0	2back-stim	
86	433.964037100086	2.0097103599691764			1.0	Left Face	49.0	2back-stim	3.0
87	435.9802398000611	2.010633460013196	0.7352363999234512	0.0	1.0	Left Face	49.0	2back-stim	
88	437.9969913000241	2.010542260017246	0.0	2.0	1.0	Left Face	49.0	2back-stim	
89	440.0509176000487	1.9693861799314618	0.6168759000720456	0.0	1.0	Left Face	49.0	2back-stim	
90	442.03043650009204	2.010351359960623	0.0	2.0	1.0	Left Face	49.0	2back-stim	
91	444.0471599000739	2.010294059989974	0.0	2.0	1.0	Left Face	49.0	2back-stim	
92	446.0637791000772	2.0104694600449875	0.0	2.0	1.0	Left Face	49.0	2back-stim	
93	448.08057320001535	2.0102154599735513	0.0	2.0	1.0	Left Face	49.0	2back-stim	
94	450.0971041000448	2.0105027600657195	0.5502167000668123	0.0	1.0	Left Face	49.0	2back-stim	
95	459.11543090001214	5.007736260071397		16.913580246913583		Left Face	49.0	2back-stim Rating	7.0
96	464.1203382000094	469.1278480000328				Left Face	32.0	2back Instructions	
97	472.15234390005935	2.000419560004957			1.0	Left Face	49.0	2back-stim	
98	474.16442980000284	2.0096621598349884			1.0	Left Face	49.0	2back-stim	3.0
99	476.18138800002635	2.0090666599571705	0.0	2.0	1.0	Left Face	49.0	2back-stim	
100	478.1974185000872	2.0103671599645168	0.0	2.0	1.0	Left Face	49.0	2back-stim	
101	480.265527700074	1.9575524399988353	0.49981200008187443	0.0	1.0	Left Face	49.0	2back-stim	
102	482.23083090002183	2.0103053599596024	0.0	2.0	1.0	Left Face	49.0	2back-stim	
103	484.2474600999849	2.0104069599183276	0.7002341999905184	0.0	1.0	Left Face	49.0	2back-stim	
104	486.26398020004854	2.010758260032162	0.0	2.0	1.0	Left Face	49.0	2back-stim	
105	488.280687600025	2.0106972600333393	0.9336414999561384	0.0	1.0	Left Face	49.0	2back-stim	
106	490.2977721000789	2.0098856600234285	0.0	2.0	0.0	Left Face	49.0	2back-stim	
107	499.31540299998596	5.008495360030793		14.50617283950617		Left Face	49.0	2back-stim Rating	7.0
108	504.3209756000433	509.3282463999931				Left Face	32.0	2back Instructions	
109	512.3528485000134	2.000146960024722			1.0	Left Face	49.0	2back-stim	
110	514.3648082000436	2.009660360054113			1.0	Left Face	49.0	2back-stim	3.0
111	516.3812831999967	2.010025159921497	0.4668948999606073	0.0	1.0	Left Face	49.0	2back-stim	
112	518.3977611000882	2.010643159970641	0.0	2.0	1.0	Left Face	49.0	2back-stim	
113	520.4400090000127	1.975964320008643	0.0	2.0	1.0	Left Face	49.0	2back-stim	
114	522.4311376999831	2.010419460013509	0.0	2.0	1.0	Left Face	49.0	2back-stim	
115	524.4478231000248	2.0104052600217983	0.7837054999545217	0.0	1.0	Left Face	49.0	2back-stim	
116	526.4644230999984	2.0105618599336594	0.6669488000916317	0.0	1.0	Left Face	49.0	2back-stim	
117	528.4813383000437	2.0101040601730347	0.6168708000332117	0.0	1.0	Left Face	49.0	2back-stim	
118	530.4977858000202	2.0105991599848494	0.0	2.0	1.0	Left Face	49.0	2back-stim	
119	535.5164020000957	5.007110660080798		21.975308641975307		Left Face	49.0	2back-stim Rating	3.0
120	547.5282828999916	20.000024459906854				Left Face	49.0	Rest-Stim	7.0
121	567.5284571000375	3.01654296007473				Left Face		PostTrialFixation	
122	570.5304380999878	5.012972060008906		14.320987654320986		Left Face	49.0	Rest-Stim Rating	3.0
123	582.5452788000694	20.00001116003841				Left Face	49.0	Rest-Stim	7.0
124	602.5454622000689	3.0165115600684658				Left Face		PostTrialFixation	
125	605.5475829000352	5.012661559972912		22.901234567901234		Left Face	49.0	Rest-Stim Rating	3.0
126	617.562242200016	20.000003460096195				Left Face	49.0	Rest-Stim	7.0
127	637.5624231999973	3.016526859952137				Left Face		PostTrialFixation	
128	640.5645910000894	5.012606060015969		14.382716049382719		Left Face	49.0	Rest-Stim Rating	3.0
