square,location,corrAns,trials.thisRepN,trials.thisTrialN,trials.thisN,trials.thisIndex,trials_2.thisRepN,trials_2.thisTrialN,trials_2.thisN,trials_2.thisIndex,fixation_1.started,fixation_1.stopped,grid_lines.started,grid_lines.stopped,target_square.started,target_square.stopped,fixation_2.started,fixation_2.stopped,response.corr,response.x,response.y,response.leftButton,response.click_left,response.click_right,response.started,response.stopped,ScoreReportText.started,ScoreReportText.stopped,ScoreReportResponse.keys,ScoreReportResponse.started,ScoreReportResponse.stopped,response_2.x,response_2.y,response_2.leftButton,grid_lines_2.started,grid_lines_2.stopped,target_square_2.started,target_square_2.stopped,fixation_3.started,fixation_3.stopped,response_2.click,response_2.corr,response_2.started,response_2.stopped,BodySiteInstructionText.started,BodySiteImg.started,BodySiteImg.stopped,BodySiteInstructionRead.keys,BodySiteInstructionRead.rt,BodySiteInstructionRead.started,BodySiteInstructionRead.stopped,response.click,IntensityRating.response,IntensityRating.rt,IntensityRating.started,IntensityRating.stopped,subject number,gender,bodymap first- or second-half (1 or 2),session,handedness,scanner,date,expName,psychopyVersion,frameRate,body_site_order,
6,"[0.2, 0]",None,0,0,0,0,,,,,20.663392600021325,None,21.69567459996324,None,21.69567459996324,22.69696450000629,22.680370699963532,None,1,-0.0125,0.28194444444444444,"[0, 0, 0]",0,0,21.69567459996324,None,,,,,,,,,,,,,,,,,,,,,,,,,,,,,,,999,m,2,99,r,TEST,2021_Aug_20_1203,distractmap,2020.2.10,59.66654756327341,['Abdomen'],
6,"[0.2, 0]",1,0,1,1,1,,,,,,,23.68039609992411,None,23.68039609992411,24.680483300006017,24.663726400001906,25.663665700005367,0,-0.0125,0.28194444444444444,"[0, 0, 0]",0,0,23.68039609992411,None,,,,,,,,,,,,,,,,,,,,,,,,,,,,,,,999,m,2,99,r,TEST,2021_Aug_20_1203,distractmap,2020.2.10,59.66654756327341,['Abdomen'],
2,"[0, 0.2]",0,0,2,2,2,,,,,,,25.6805131000001,None,25.6805131000001,26.68043199996464,26.6637748000212,27.66372870001942,0,-0.0125,0.28194444444444444,"[0, 0, 0]",0,0,25.6805131000001,None,,,,,,,,,,,,,,,,,,,,,,,,,,,,,,,999,m,2,99,r,TEST,2021_Aug_20_1203,distractmap,2020.2.10,59.66654756327341,['Abdomen'],
9,"[0.2, -0.2]",0,0,3,3,3,,,,,,,27.680566899944097,None,27.680566899944097,28.68047999998089,28.663790500024334,29.66373679996468,0,-0.0125,0.28194444444444444,"[0, 0, 0]",0,0,27.680566899944097,None,,,,,,,,,,,,,,,,,,,,,,,,,,,,,,,999,m,2,99,r,TEST,2021_Aug_20_1203,distractmap,2020.2.10,59.66654756327341,['Abdomen'],
9,"[0.2, -0.2]",1,0,4,4,4,,,,,,,29.680490899947472,None,29.680490899947472,30.68039510003291,30.663798399968073,31.66377199999988,0,-0.0125,0.28194444444444444,"[0, 0, 0]",0,0,29.680490899947472,None,,,,,,,,,,,,,,,,,,,,,,,,,,,,,,,999,m,2,99,r,TEST,2021_Aug_20_1203,distractmap,2020.2.10,59.66654756327341,['Abdomen'],
6,"[0.2, 0]",0,0,5,5,5,,,,,,,31.680446399957873,None,31.680446399957873,32.68050779995974,32.66382569994312,33.66383019997738,0,-0.0125,0.28194444444444444,"[0, 0, 0]",0,0,31.680446399957873,None,,,,,,,,,,,,,,,,,,,,,,,,,,,,,,,999,m,2,99,r,TEST,2021_Aug_20_1203,distractmap,2020.2.10,59.66654756327341,['Abdomen'],
4,"[-0.2, 0]",0,0,6,6,6,,,,,,,33.680469600018114,None,33.680469600018114,34.68050649994984,34.66367809998337,35.66381850000471,0,-0.0125,0.28194444444444444,"[0, 0, 0]",0,0,33.680469600018114,None,,,,,,,,,,,,,,,,,,,,,,,,,,,,,,,999,m,2,99,r,TEST,2021_Aug_20_1203,distractmap,2020.2.10,59.66654756327341,['Abdomen'],
3,"[0.2, 0.2]",0,0,7,7,7,,,,,,,35.68051169998944,None,35.68051169998944,36.68052589998115,36.66385349992197,37.663857299950905,0,-0.0125,0.28194444444444444,"[0, 0, 0]",0,0,35.68051169998944,None,,,,,,,,,,,,,,,,,,,,,,,,,,,,,,,999,m,2,99,r,TEST,2021_Aug_20_1203,distractmap,2020.2.10,59.66654756327341,['Abdomen'],
3,"[0.2, 0.2]",1,0,8,8,8,,,,,,,37.68049429997336,None,37.68049429997336,38.68053020001389,38.663896600017324,39.663818300003186,0,-0.0125,0.28194444444444444,"[0, 0, 0]",0,0,37.68049429997336,None,,,,,,,,,,,,,,,,,,,,,,,,,,,,,,,999,m,2,99,r,TEST,2021_Aug_20_1203,distractmap,2020.2.10,59.66654756327341,['Abdomen'],
8,"[0, -0.2]",0,0,9,9,9,,,,,,,39.680561600020155,None,39.680561600020155,40.680582999950275,40.66386989993043,41.663924299995415,0,-0.0125,0.28194444444444444,"[0, 0, 0]",0,0,39.680561600020155,None,,,,,,,,,,,,,,,,,,,,,,,,,,,,,,,999,m,2,99,r,TEST,2021_Aug_20_1203,distractmap,2020.2.10,59.66654756327341,['Abdomen'],
1,"[-0.2, 0.2]",0,0,10,10,10,,,,,,,41.68042400002014,None,41.68042400002014,42.68056849995628,42.66393819998484,43.66389959992375,0,-0.0125,0.28194444444444444,"[0, 0, 0]",0,0,41.68042400002014,None,,,,,,,,,,,,,,,,,,,,,,,,,,,,,,,999,m,2,99,r,TEST,2021_Aug_20_1203,distractmap,2020.2.10,59.66654756327341,['Abdomen'],
2,"[0, 0.2]",0,0,11,11,11,,,,,,,43.68054590001702,None,43.68054590001702,44.68057600001339,44.66390789998695,45.66394420003053,0,-0.0125,0.28194444444444444,"[0, 0, 0]",0,0,43.68054590001702,None,,,,,,,,,,,,,,,,,,,,,,,,,,,,,,,999,m,2,99,r,TEST,2021_Aug_20_1203,distractmap,2020.2.10,59.66654756327341,['Abdomen'],
4,"[-0.2, 0]",0,0,12,12,12,,,,,,,45.680599999963306,None,45.680599999963306,46.68062290002126,46.6639651999576,47.663953299983405,0,-0.0125,0.28194444444444444,"[0, 0, 0]",0,0,45.680599999963306,None,,,,,,,,,,,,,,,,,,,,,,,,,,,,,,,999,m,2,99,r,TEST,2021_Aug_20_1203,distractmap,2020.2.10,59.66654756327341,['Abdomen'],
4,"[-0.2, 0]",1,0,13,13,13,,,,,,,47.680601299973205,None,47.680601299973205,48.680621100007556,48.66397559992038,49.663774300017394,0,-0.0125,0.28194444444444444,"[0, 0, 0]",0,0,47.680601299973205,None,,,,,,,,,,,,,,,,,,,,,,,,,,,,,,,999,m,2,99,r,TEST,2021_Aug_20_1203,distractmap,2020.2.10,59.66654756327341,['Abdomen'],
8,"[0, -0.2]",0,0,14,14,14,,,,,,,49.68060770002194,None,49.68060770002194,50.680620400002226,50.6637651999481,51.66395159997046,0,-0.0125,0.28194444444444444,"[0, 0, 0]",0,0,49.68060770002194,None,,,,,,,,,,,,,,,,,,,,,,,,,,,,,,,999,m,2,99,r,TEST,2021_Aug_20_1203,distractmap,2020.2.10,59.66654756327341,['Abdomen'],
5,"[0, 0]",0,0,15,15,15,,,,,,,51.68065569992177,None,51.68065569992177,52.68060560000595,52.663931499933824,53.66395860002376,0,-0.0125,0.28194444444444444,"[0, 0, 0]",0,0,51.68065569992177,None,,,,,,,,,,,,,,,,,,,,,,,,,,,,,,,999,m,2,99,r,TEST,2021_Aug_20_1203,distractmap,2020.2.10,59.66654756327341,['Abdomen'],
5,"[0, 0]",1,0,16,16,16,,,,,,,53.68069760000799,None,53.68069760000799,54.68060590000823,54.66404980001971,55.66397460002918,0,-0.0125,0.28194444444444444,"[0, 0, 0]",0,0,53.68069760000799,None,,,,,,,,,,,,,,,,,,,,,,,,,,,,,,,999,m,2,99,r,TEST,2021_Aug_20_1203,distractmap,2020.2.10,59.66654756327341,['Abdomen'],
1,"[-0.2, 0.2]",0,0,17,17,17,,,,,,,55.68067649996374,None,55.68067649996374,56.68062499992084,56.66405110002961,57.66406670003198,0,-0.0125,0.28194444444444444,"[0, 0, 0]",0,0,55.68067649996374,None,,,,,,,,,,,,,,,,,,,,,,,,,,,,,,,999,m,2,99,r,TEST,2021_Aug_20_1203,distractmap,2020.2.10,59.66654756327341,['Abdomen'],
3,"[0.2, 0.2]",0,0,18,18,18,,,,,,,57.680693299975246,None,57.680693299975246,58.6807510999497,58.66401499998756,59.664028899976984,0,-0.0125,0.28194444444444444,"[0, 0, 0]",0,0,57.680693299975246,None,,,,,,,,,,,,,,,,,,,,,,,,,,,,,,,999,m,2,99,r,TEST,2021_Aug_20_1203,distractmap,2020.2.10,59.66654756327341,['Abdomen'],
6,"[0.2, 0]",0,0,19,19,19,,,,,,,59.68067719996907,None,59.68067719996907,60.680716799921356,60.66400180000346,61.66404429997783,0,-0.0125,0.28194444444444444,"[0, 0, 0]",0,0,59.68067719996907,None,,,,,,,,,,,,,,,,,,,,,,,,,,,,,,,999,m,2,99,r,TEST,2021_Aug_20_1203,distractmap,2020.2.10,59.66654756327341,['Abdomen'],
1,"[-0.2, 0.2]",0,0,20,20,20,,,,,,,61.680724399979226,None,61.680724399979226,62.68069079995621,62.66402979998384,63.664137099985965,0,-0.0125,0.28194444444444444,"[0, 0, 0]",0,0,61.680724399979226,None,,,,,,,,,,,,,,,,,,,,,,,,,,,,,,,999,m,2,99,r,TEST,2021_Aug_20_1203,distractmap,2020.2.10,59.66654756327341,['Abdomen'],
1,"[-0.2, 0.2]",1,0,21,21,21,,,,,,,63.68076040002052,None,63.68076040002052,64.68064639996737,64.6640999999363,65.66408769995905,0,-0.0125,0.28194444444444444,"[0, 0, 0]",0,0,63.68076040002052,None,,,,,,,,,,,,,,,,,,,,,,,,,,,,,,,999,m,2,99,r,TEST,2021_Aug_20_1203,distractmap,2020.2.10,59.66654756327341,['Abdomen'],
1,"[-0.2, 0.2]",1,0,22,22,22,,,,,,,65.6807215999579,None,65.6807215999579,66.68077909993008,66.66409470001236,67.66406500001904,0,-0.0125,0.28194444444444444,"[0, 0, 0]",0,0,65.6807215999579,None,,,,,,,,,,,,,,,,,,,,,,,,,,,,,,,999,m,2,99,r,TEST,2021_Aug_20_1203,distractmap,2020.2.10,59.66654756327341,['Abdomen'],
3,"[0.2, 0.2]",0,0,23,23,23,,,,,,,67.68076309992466,None,67.68076309992466,68.68076939997263,68.66409029997885,69.664125100011,0,-0.0125,0.28194444444444444,"[0, 0, 0]",0,0,67.68076309992466,None,,,,,,,,,,,,,,,,,,,,,,,,,,,,,,,999,m,2,99,r,TEST,2021_Aug_20_1203,distractmap,2020.2.10,59.66654756327341,['Abdomen'],
2,"[0, 0.2]",0,0,24,24,24,,,,,,,69.68077269999776,None,69.68077269999776,70.68077660002746,70.66401129995938,71.66410950000864,0,-0.0125,0.28194444444444444,"[0, 0, 0]",0,0,69.68077269999776,None,,,,,,,,,,,,,,,,,,,,,,,,,,,,,,,999,m,2,99,r,TEST,2021_Aug_20_1203,distractmap,2020.2.10,59.66654756327341,['Abdomen'],
1,"[-0.2, 0.2]",0,0,25,25,25,,,,,,,71.68077610002365,None,71.68077610002365,72.68078910000622,72.66415700002108,73.66396939998958,0,-0.0125,0.28194444444444444,"[0, 0, 0]",0,0,71.68077610002365,None,,,,,,,,,,,,,,,,,,,,,,,,,,,,,,,999,m,2,99,r,TEST,2021_Aug_20_1203,distractmap,2020.2.10,59.66654756327341,['Abdomen'],
7,"[-0.2, -0.2]",0,0,26,26,26,,,,,,,73.680813999963,None,73.680813999963,74.68082469992805,74.66413409996312,75.66411479993258,0,-0.0125,0.28194444444444444,"[0, 0, 0]",0,0,73.680813999963,None,,,,,,,,,,,,,,,,,,,,,,,,,,,,,,,999,m,2,99,r,TEST,2021_Aug_20_1203,distractmap,2020.2.10,59.66654756327341,['Abdomen'],
7,"[-0.2, -0.2]",1,0,27,27,27,,,,,,,75.68089560000226,None,75.68089560000226,76.68084359995555,76.6641514999792,77.66413199994713,0,-0.0125,0.28194444444444444,"[0, 0, 0]",0,0,75.68089560000226,None,,,,,,,,,,,,,,,,,,,,,,,,,,,,,,,999,m,2,99,r,TEST,2021_Aug_20_1203,distractmap,2020.2.10,59.66654756327341,['Abdomen'],
2,"[0, 0.2]",0,0,28,28,28,,,,,,,77.6808333999943,None,77.6808333999943,78.68080560001545,78.66417509992607,79.66413029993419,0,-0.0125,0.28194444444444444,"[0, 0, 0]",0,0,77.6808333999943,None,,,,,,,,,,,,,,,,,,,,,,,,,,,,,,,999,m,2,99,r,TEST,2021_Aug_20_1203,distractmap,2020.2.10,59.66654756327341,['Abdomen'],
6,"[0.2, 0]",0,0,29,29,29,,,,,,,79.68085030000657,None,79.68085030000657,80.68085479992442,80.66417330002878,81.66418820002582,0,-0.0125,0.28194444444444444,"[0, 0, 0]",0,0,79.68085030000657,None,,,,,,,,,,,,,,,,,,,,,,,,,,,,,,,999,m,2,99,r,TEST,2021_Aug_20_1203,distractmap,2020.2.10,59.66654756327341,['Abdomen'],
,,,,,,,,,,,,,,,,,,,,,,,,,,,81.7124331999803,None,space,81.7124331999803,None,,,,,,,,,,,,,,,,,,,,,,,,,,999,m,2,99,r,TEST,2021_Aug_20_1203,distractmap,2020.2.10,59.66654756327341,['Abdomen'],
6,"[0.2, 0]",None,,,,,0,0,0,0,147.61431029997766,None,,,,,,,,,,,,,,,,,,,,None,None,"[0, 0, 0]",148.62999489996582,None,148.62999489996582,149.63137249997817,149.614685599925,None,"[0, 0, 0]",1,148.62999489996582,None,,,,,,,,,,,,,999,m,2,99,r,TEST,2021_Aug_20_1203,distractmap,2020.2.10,59.66654756327341,['Abdomen'],
7,"[-0.2, -0.2]",None,,,,,0,1,1,1,,,,,,,,,,,,,,,,,,,,,,None,None,"[0, 0, 0]",150.6146978000179,152.6143930000253,150.6146978000179,151.61491619993467,151.59807870001532,152.59803909994662,"[0, 0, 0]",1,150.6146978000179,152.6143930000253,,,,,,,,,,,,,999,m,2,99,r,TEST,2021_Aug_20_1203,distractmap,2020.2.10,59.66654756327341,['Abdomen'],
6,"[0.2, 0]",1,,,,,0,2,2,2,,,,,,,,,,,,,,,,,,,,,,None,None,"[0, 0, 0]",152.63140019995626,154.63104060001206,152.63140019995626,153.6314524000045,153.6147296000272,154.61469509999733,"[0, 0, 0]",0,152.63140019995626,154.63104060001206,,,,,,,,,,,,,999,m,2,99,r,TEST,2021_Aug_20_1203,distractmap,2020.2.10,59.66654756327341,['Abdomen'],
2,"[0, 0.2]",0,,,,,0,3,3,3,,,,,,,,,,,,,,,,,,,,,,None,None,"[0, 0, 0]",154.6480907999212,156.64770229998976,154.6480907999212,155.6480604999233,155.63142069999594,156.63142839993816,"[0, 0, 0]",0,154.6480907999212,156.64770229998976,,,,,,,,,,,,,999,m,2,99,r,TEST,2021_Aug_20_1203,distractmap,2020.2.10,59.66654756327341,['Abdomen'],
5,"[0, 0]",0,,,,,0,4,4,4,,,,,,,,,,,,,,,,,,,,,,None,None,"[0, 0, 0]",156.66475859994534,158.66425030003302,156.66475859994534,157.66477619996294,157.6480819999706,158.6481485000113,"[0, 0, 0]",0,156.66475859994534,158.66425030003302,,,,,,,,,,,,,999,m,2,99,r,TEST,2021_Aug_20_1203,distractmap,2020.2.10,59.66654756327341,['Abdomen'],
4,"[-0.2, 0]",0,,,,,0,5,5,5,,,,,,,,,,,,,,,,,,,,,,None,None,"[0, 0, 0]",158.6814258999657,160.68097099999432,158.6814258999657,159.68142289994285,159.66479189996608,160.66476610000245,"[0, 0, 0]",0,158.6814258999657,160.68097099999432,,,,,,,,,,,,,999,m,2,99,r,TEST,2021_Aug_20_1203,distractmap,2020.2.10,59.66654756327341,['Abdomen'],
4,"[-0.2, 0]",0,,,,,0,6,6,6,,,,,,,,,,,,,,,,,,,,,,None,None,"[0, 0, 0]",160.69813479995355,162.69761829997879,160.69813479995355,161.6981969999615,161.68149919994175,162.68147690000478,"[0, 0, 0]",0,160.69813479995355,162.69761829997879,,,,,,,,,,,,,999,m,2,99,r,TEST,2021_Aug_20_1203,distractmap,2020.2.10,59.66654756327341,['Abdomen'],
7,"[-0.2, -0.2]",0,,,,,0,7,7,7,,,,,,,,,,,,,,,,,,,,,,None,None,"[0, 0, 0]",162.7148462999612,164.71439049998298,162.7148462999612,163.71474690001924,163.6981756000314,164.69814240001142,"[0, 0, 0]",0,162.7148462999612,164.71439049998298,,,,,,,,,,,,,999,m,2,99,r,TEST,2021_Aug_20_1203,distractmap,2020.2.10,59.66654756327341,['Abdomen'],
4,"[-0.2, 0]",1,,,,,0,8,8,8,,,,,,,,,,,,,,,,,,,,,,None,None,"[0, 0, 0]",164.73152479995042,166.7312213999685,164.73152479995042,165.7315139999846,165.71483409998473,166.71481429995038,"[0, 0, 0]",0,164.73152479995042,166.7312213999685,,,,,,,,,,,,,999,m,2,99,r,TEST,2021_Aug_20_1203,distractmap,2020.2.10,59.66654756327341,['Abdomen'],
3,"[0.2, 0.2]",0,,,,,0,9,9,9,,,,,,,,,,,,,,,,,,,,,,None,None,"[0, 0, 0]",166.74821250000969,168.74784259998705,166.74821250000969,167.7482143000234,167.73150579992216,168.73148309998214,"[0, 0, 0]",0,166.74821250000969,168.74784259998705,,,,,,,,,,,,,999,m,2,99,r,TEST,2021_Aug_20_1203,distractmap,2020.2.10,59.66654756327341,['Abdomen'],
5,"[0, 0]",0,,,,,0,10,10,10,,,,,,,,,,,,,,,,,,,,,,None,None,"[0, 0, 0]",168.76485729997512,170.76448459993117,168.76485729997512,169.76494959997945,169.74822109995876,170.7481624999782,"[0, 0, 0]",0,168.76485729997512,170.76448459993117,,,,,,,,,,,,,999,m,2,99,r,TEST,2021_Aug_20_1203,distractmap,2020.2.10,59.66654756327341,['Abdomen'],
3,"[0.2, 0.2]",1,,,,,0,11,11,11,,,,,,,,,,,,,,,,,,,,,,None,None,"[0, 0, 0]",170.78157809993718,172.78118669998366,170.78157809993718,171.78156399994623,171.76489009999204,172.76488199993037,"[0, 0, 0]",0,170.78157809993718,172.78118669998366,,,,,,,,,,,,,999,m,2,99,r,TEST,2021_Aug_20_1203,distractmap,2020.2.10,59.66654756327341,['Abdomen'],
1,"[-0.2, 0.2]",0,,,,,0,12,12,12,,,,,,,,,,,,,,,,,,,,,,None,None,"[0, 0, 0]",172.79821689997334,174.79819000000134,172.79821689997334,173.79828550003003,173.78152119996957,174.78150859999005,"[0, 0, 0]",0,172.79821689997334,174.79819000000134,,,,,,,,,,,,,999,m,2,99,r,TEST,2021_Aug_20_1203,distractmap,2020.2.10,59.66654756327341,['Abdomen'],
9,"[0.2, -0.2]",0,,,,,0,13,13,13,,,,,,,,,,,,,,,,,,,,,,None,None,"[0, 0, 0]",174.81505410000682,176.81453859992325,174.81505410000682,175.81495259993244,175.79819120001048,176.79815849999432,"[0, 0, 0]",0,174.81505410000682,176.81453859992325,,,,,,,,,,,,,999,m,2,99,r,TEST,2021_Aug_20_1203,distractmap,2020.2.10,59.66654756327341,['Abdomen'],
9,"[0.2, -0.2]",0,,,,,0,14,14,14,,,,,,,,,,,,,,,,,,,,,,None,None,"[0, 0, 0]",176.83161609992385,178.83124899992254,176.83161609992385,177.83162910002284,177.81488369998988,178.81492439995054,"[0, 0, 0]",0,176.83161609992385,178.83124899992254,,,,,,,,,,,,,999,m,2,99,r,TEST,2021_Aug_20_1203,distractmap,2020.2.10,59.66654756327341,['Abdomen'],
8,"[0, -0.2]",0,,,,,0,15,15,15,,,,,,,,,,,,,,,,,,,,,,None,None,"[0, 0, 0]",178.84827610000502,180.8479384999955,178.84827610000502,179.84814709995408,179.83161200000905,180.83153019996826,"[0, 0, 0]",0,178.84827610000502,180.8479384999955,,,,,,,,,,,,,999,m,2,99,r,TEST,2021_Aug_20_1203,distractmap,2020.2.10,59.66654756327341,['Abdomen'],
6,"[0.2, 0]",0,,,,,0,16,16,16,,,,,,,,,,,,,,,,,,,,,,None,None,"[0, 0, 0]",180.86496329994407,182.86456180003006,180.86496329994407,181.86501069995575,181.8483019999694,182.84828789997846,"[0, 0, 0]",0,180.86496329994407,182.86456180003006,,,,,,,,,,,,,999,m,2,99,r,TEST,2021_Aug_20_1203,distractmap,2020.2.10,59.66654756327341,['Abdomen'],
3,"[0.2, 0.2]",0,,,,,0,17,17,17,,,,,,,,,,,,,,,,,,,,,,None,None,"[0, 0, 0]",182.88166419998743,184.88121459994,182.88166419998743,183.88159579993226,183.8649578000186,184.86496549996082,"[0, 0, 0]",0,182.88166419998743,184.88121459994,,,,,,,,,,,,,999,m,2,99,r,TEST,2021_Aug_20_1203,distractmap,2020.2.10,59.66654756327341,['Abdomen'],
6,"[0.2, 0]",1,,,,,0,18,18,18,,,,,,,,,,,,,,,,,,,,,,None,None,"[0, 0, 0]",184.89831990003586,186.89797769999132,184.89831990003586,185.89833669993095,185.88164549996145,186.88164129992947,"[0, 0, 0]",0,184.89831990003586,186.89797769999132,,,,,,,,,,,,,999,m,2,99,r,TEST,2021_Aug_20_1203,distractmap,2020.2.10,59.66654756327341,['Abdomen'],
5,"[0, 0]",0,,,,,0,19,19,19,,,,,,,,,,,,,,,,,,,,,,None,None,"[0, 0, 0]",186.9150131000206,188.91462409996893,186.9150131000206,187.91499319998547,187.8983137999894,188.89837559999432,"[0, 0, 0]",0,186.9150131000206,188.91462409996893,,,,,,,,,,,,,999,m,2,99,r,TEST,2021_Aug_20_1203,distractmap,2020.2.10,59.66654756327341,['Abdomen'],
7,"[-0.2, -0.2]",0,,,,,0,20,20,20,,,,,,,,,,,,,,,,,,,,,,None,None,"[0, 0, 0]",188.93167570000514,190.9312734999694,188.93167570000514,189.93170309998095,189.9150176999392,190.91495469992515,"[0, 0, 0]",0,188.93167570000514,190.9312734999694,,,,,,,,,,,,,999,m,2,99,r,TEST,2021_Aug_20_1203,distractmap,2020.2.10,59.66654756327341,['Abdomen'],
5,"[0, 0]",1,,,,,0,21,21,21,,,,,,,,,,,,,,,,,,,,,,None,None,"[0, 0, 0]",190.9483656999655,192.94797259999905,190.9483656999655,191.9483698999975,191.93164860003162,192.93163100001402,"[0, 0, 0]",0,190.9483656999655,192.94797259999905,,,,,,,,,,,,,999,m,2,99,r,TEST,2021_Aug_20_1203,distractmap,2020.2.10,59.66654756327341,['Abdomen'],
1,"[-0.2, 0.2]",0,,,,,0,22,22,22,,,,,,,,,,,,,,,,,,,,,,None,None,"[0, 0, 0]",192.96506509999745,194.96466409997083,192.96506509999745,193.96509049995802,193.9483338999562,194.94839189993218,"[0, 0, 0]",0,192.96506509999745,194.96466409997083,,,,,,,,,,,,,999,m,2,99,r,TEST,2021_Aug_20_1203,distractmap,2020.2.10,59.66654756327341,['Abdomen'],
7,"[-0.2, -0.2]",0,,,,,0,23,23,23,,,,,,,,,,,,,,,,,,,,,,None,None,"[0, 0, 0]",194.98170040000696,196.9813055000268,194.98170040000696,195.98177099996246,195.96503479999956,196.96507559996098,"[0, 0, 0]",0,194.98170040000696,196.9813055000268,,,,,,,,,,,,,999,m,2,99,r,TEST,2021_Aug_20_1203,distractmap,2020.2.10,59.66654756327341,['Abdomen'],
9,"[0.2, -0.2]",0,,,,,0,24,24,24,,,,,,,,,,,,,,,,,,,,,,None,None,"[0, 0, 0]",196.9983967000153,198.99804460001178,196.9983967000153,197.99842109996825,197.98175269993953,198.98175959999207,"[0, 0, 0]",0,196.9983967000153,198.99804460001178,,,,,,,,,,,,,999,m,2,99,r,TEST,2021_Aug_20_1203,distractmap,2020.2.10,59.66654756327341,['Abdomen'],
3,"[0.2, 0.2]",0,,,,,0,25,25,25,,,,,,,,,,,,,,,,,,,,,,None,None,"[0, 0, 0]",199.01510409999173,201.014773300034,199.01510409999173,200.01508819998708,199.99841410003137,200.99844500003383,"[0, 0, 0]",0,199.01510409999173,201.014773300034,,,,,,,,,,,,,999,m,2,99,r,TEST,2021_Aug_20_1203,distractmap,2020.2.10,59.66654756327341,['Abdomen'],
9,"[0.2, -0.2]",1,,,,,0,26,26,26,,,,,,,,,,,,,,,,,,,,,,None,None,"[0, 0, 0]",201.0317640999565,203.03147099993657,201.0317640999565,202.03180769993924,202.0151268999325,203.01509749994148,"[0, 0, 0]",0,201.0317640999565,203.03147099993657,,,,,,,,,,,,,999,m,2,99,r,TEST,2021_Aug_20_1203,distractmap,2020.2.10,59.66654756327341,['Abdomen'],
6,"[0.2, 0]",0,,,,,0,27,27,27,,,,,,,,,,,,,,,,,,,,,,None,None,"[0, 0, 0]",203.0484904999612,205.04811650002375,203.0484904999612,204.04845489992294,204.03182010003366,205.03178209997714,"[0, 0, 0]",0,203.0484904999612,205.04811650002375,,,,,,,,,,,,,999,m,2,99,r,TEST,2021_Aug_20_1203,distractmap,2020.2.10,59.66654756327341,['Abdomen'],
2,"[0, 0.2]",0,,,,,0,28,28,28,,,,,,,,,,,,,,,,,,,,,,None,None,"[0, 0, 0]",205.06515369995032,207.06476530001964,205.06515369995032,206.06515849998686,206.0484756999649,207.04849600000307,"[0, 0, 0]",0,205.06515369995032,207.06476530001964,,,,,,,,,,,,,999,m,2,99,r,TEST,2021_Aug_20_1203,distractmap,2020.2.10,59.66654756327341,['Abdomen'],
5,"[0, 0]",0,,,,,0,29,29,29,,,,,,,,,,,,,,,,,,,,,,None,None,"[0, 0, 0]",207.08178469992708,209.08137909998186,207.08178469992708,208.08185499999672,208.06510399992112,209.0652287999401,"[0, 0, 0]",0,207.08178469992708,209.08137909998186,,,,,,,,,,,,,999,m,2,99,r,TEST,2021_Aug_20_1203,distractmap,2020.2.10,59.66654756327341,['Abdomen'],
,,,,,,,,,,,,,,,,,,,,,,,,,,,209.1301391000161,None,space,209.1301391000161,None,,,,,,,,,,,,,,,,,,,,,,,,,,999,m,2,99,r,TEST,2021_Aug_20_1203,distractmap,2020.2.10,59.66654756327341,['Abdomen'],
5,"[0, 0]",None,0,0,0,0,,,,,235.3989075999707,None,239.53065989993047,None,239.53065989993047,240.53205549996346,240.49875459994655,241.4987630000105,1,None,None,"[0, 0, 0]",,,239.53065989993047,None,,,,,,,,,,,,,,,,,,,214.16422889998648,214.16422889998648,None,space,0.9137674999656156,214.16422889998648,None,"[0, 0, 0]",,,,,999,m,2,99,r,TEST,2021_Aug_20_1203,distractmap,2020.2.10,59.66654756327341,['Abdomen'],
5,"[0, 0]",1,0,1,1,1,,,,,,,241.51542219996918,None,241.51542219996918,242.51541069999803,242.49872050003614,243.49870340002235,0,None,None,"[0, 0, 0]",,,241.51542219996918,None,,,,,,,,,,,,,,,,,,,,,,,,,,"[0, 0, 0]",,,,,999,m,2,99,r,TEST,2021_Aug_20_1203,distractmap,2020.2.10,59.66654756327341,['Abdomen'],
4,"[-0.2, 0]",0,0,2,2,2,,,,,,,243.51544160000049,243.51544160000049,243.51544160000049,244.51542880001944,244.4987638000166,245.4987557999557,0,None,None,"[0, 0, 0]",,,243.51544160000049,243.51544160000049,,,,,,,,,,,,,,,,,,,,,,,,,,"[0, 0, 0]",,,,,999,m,2,99,r,TEST,2021_Aug_20_1203,distractmap,2020.2.10,59.66654756327341,['Abdomen'],
2,"[0, 0.2]",0,0,3,3,3,,,,,,,245.51546779996715,245.51546779996715,245.51546779996715,246.51541120000184,246.4987759999931,247.49880019994453,0,None,None,"[0, 0, 0]",,,245.51546779996715,245.51546779996715,,,,,,,,,,,,,,,,,,,,,,,,,,"[0, 0, 0]",,,,,999,m,2,99,r,TEST,2021_Aug_20_1203,distractmap,2020.2.10,59.66654756327341,['Abdomen'],
6,"[0.2, 0]",0,0,4,4,4,,,,,,,247.54762490000576,247.54762490000576,247.54762490000576,248.54888080002274,248.5321195999859,None,0,None,None,"[0, 0, 0]",,,247.54762490000576,247.54762490000576,,,,,,,,,,,,,,,,,,,,,,,,,,"[0, 0, 0]",,,,,999,m,2,99,r,TEST,2021_Aug_20_1203,distractmap,2020.2.10,59.66654756327341,['Abdomen'],
8,"[0, -0.2]",0,0,5,5,5,,,,,,,249.53211969998665,None,249.53211969998665,250.53216049994808,250.51545980002265,251.5154870999977,0,None,None,"[0, 0, 0]",,,249.53211969998665,None,,,,,,,,,,,,,,,,,,,,,,,,,,"[0, 0, 0]",,,,,999,m,2,99,r,TEST,2021_Aug_20_1203,distractmap,2020.2.10,59.66654756327341,['Abdomen'],
1,"[-0.2, 0.2]",0,0,6,6,6,,,,,,,251.5322424999904,251.5322424999904,251.5322424999904,252.53214759996627,252.51543259993196,253.51550839992706,0,None,None,"[0, 0, 0]",,,251.5322424999904,251.5322424999904,,,,,,,,,,,,,,,,,,,,,,,,,,"[0, 0, 0]",,,,,999,m,2,99,r,TEST,2021_Aug_20_1203,distractmap,2020.2.10,59.66654756327341,['Abdomen'],
4,"[-0.2, 0]",0,0,7,7,7,,,,,,,253.532128599938,253.532128599938,253.532128599938,254.53215829993133,254.51550199999474,255.51548119995277,0,None,None,"[0, 0, 0]",,,253.532128599938,253.532128599938,,,,,,,,,,,,,,,,,,,,,,,,,,"[0, 0, 0]",,,,,999,m,2,99,r,TEST,2021_Aug_20_1203,distractmap,2020.2.10,59.66654756327341,['Abdomen'],
8,"[0, -0.2]",0,0,8,8,8,,,,,,,255.5322103999788,255.5322103999788,255.5322103999788,256.53215019998606,256.51553660002537,257.5155089999316,0,None,None,"[0, 0, 0]",,,255.5322103999788,255.5322103999788,,,,,,,,,,,,,,,,,,,,,,,,,,"[0, 0, 0]",,,,,999,m,2,99,r,TEST,2021_Aug_20_1203,distractmap,2020.2.10,59.66654756327341,['Abdomen'],
8,"[0, -0.2]",1,0,9,9,9,,,,,,,257.53220769995824,257.53220769995824,257.53220769995824,258.5322062999476,258.51555649994407,259.5155395999318,0,None,None,"[0, 0, 0]",,,257.53220769995824,257.53220769995824,,,,,,,,,,,,,,,,,,,,,,,,,,"[0, 0, 0]",,,,,999,m,2,99,r,TEST,2021_Aug_20_1203,distractmap,2020.2.10,59.66654756327341,['Abdomen'],
,,,,,,,,,,,259.5319040999748,None,,,,,,,,,,,,,,,,,,,,,,,,,,,,,,,,,,,,,,,,,50.0,268.82309483003337,,,999,m,2,99,r,TEST,2021_Aug_20_1203,distractmap,2020.2.10,59.66654756327341,['Abdomen'],
3,"[0.2, 0.2]",None,0,0,0,0,,,,,275.664026799961,None,279.564334900002,None,279.564334900002,280.56578309996985,280.5491094000172,None,1,None,None,"[0, 0, 0]",,,279.564334900002,None,,,,,,,,,,,,,,,,,,,,,,,,,,"[0, 0, 0]",,,0.015232370002195239,5.013243069988675,999,m,2,99,r,TEST,2021_Aug_20_1203,distractmap,2020.2.10,59.66654756327341,['Abdomen'],
4,"[-0.2, 0]",0,0,1,1,1,,,,,,,281.54904509999324,None,281.54904509999324,282.54908569995314,282.53238129999954,283.53238639992196,0,None,None,"[0, 0, 0]",,,281.54904509999324,None,,,,,,,,,,,,,,,,,,,,,,,,,,"[0, 0, 0]",,,,,999,m,2,99,r,TEST,2021_Aug_20_1203,distractmap,2020.2.10,59.66654756327341,['Abdomen'],
1,"[-0.2, 0.2]",0,0,2,2,2,,,,,,,283.54915500001516,283.54915500001516,283.54915500001516,284.54906530003063,284.53236189996824,285.5324333999306,0,None,None,"[0, 0, 0]",,,283.54915500001516,283.54915500001516,,,,,,,,,,,,,,,,,,,,,,,,,,"[0, 0, 0]",,,,,999,m,2,99,r,TEST,2021_Aug_20_1203,distractmap,2020.2.10,59.66654756327341,['Abdomen'],
2,"[0, 0.2]",0,0,3,3,3,,,,,,,285.54907089995686,285.54907089995686,285.54907089995686,286.5491084000096,286.53237559995614,287.53242159995716,0,None,None,"[0, 0, 0]",,,285.54907089995686,285.54907089995686,,,,,,,,,,,,,,,,,,,,,,,,,,"[0, 0, 0]",,,,,999,m,2,99,r,TEST,2021_Aug_20_1203,distractmap,2020.2.10,59.66654756327341,['Abdomen'],
2,"[0, 0.2]",1,0,4,4,4,,,,,,,287.6163121999707,287.6163121999707,287.6163121999707,288.6158620000351,288.59912519995123,None,0,None,None,"[0, 0, 0]",,,287.6163121999707,287.6163121999707,,,,,,,,,,,,,,,,,,,,,,,,,,"[0, 0, 0]",,,,,999,m,2,99,r,TEST,2021_Aug_20_1203,distractmap,2020.2.10,59.66654756327341,['Abdomen'],
5,"[0, 0]",0,0,5,5,5,,,,,,,289.565786399995,None,289.565786399995,290.5657261000015,290.5491076000035,291.5491207999876,0,None,None,"[0, 0, 0]",,,289.565786399995,None,,,,,,,,,,,,,,,,,,,,,,,,,,"[0, 0, 0]",,,,,999,m,2,99,r,TEST,2021_Aug_20_1203,distractmap,2020.2.10,59.66654756327341,['Abdomen'],
1,"[-0.2, 0.2]",0,0,6,6,6,,,,,,,291.5657897000201,291.5657897000201,291.5657897000201,292.56580999994185,292.5491807999788,293.54913609998766,0,None,None,"[0, 0, 0]",,,291.5657897000201,291.5657897000201,,,,,,,,,,,,,,,,,,,,,,,,,,"[0, 0, 0]",,,,,999,m,2,99,r,TEST,2021_Aug_20_1203,distractmap,2020.2.10,59.66654756327341,['Abdomen'],
1,"[-0.2, 0.2]",1,0,7,7,7,,,,,,,293.5658612999832,293.5658612999832,293.5658612999832,294.56572259997483,294.549040999962,295.5491123999236,0,None,None,"[0, 0, 0]",,,293.5658612999832,293.5658612999832,,,,,,,,,,,,,,,,,,,,,,,,,,"[0, 0, 0]",,,,,999,m,2,99,r,TEST,2021_Aug_20_1203,distractmap,2020.2.10,59.66654756327341,['Abdomen'],
8,"[0, -0.2]",0,0,8,8,8,,,,,,,295.5658530999208,295.5658530999208,295.5658530999208,296.5658439999679,296.5491626999574,297.54913539998233,0,None,None,"[0, 0, 0]",,,295.5658530999208,295.5658530999208,,,,,,,,,,,,,,,,,,,,,,,,,,"[0, 0, 0]",,,,,999,m,2,99,r,TEST,2021_Aug_20_1203,distractmap,2020.2.10,59.66654756327341,['Abdomen'],
7,"[-0.2, -0.2]",0,0,9,9,9,,,,,,,297.5658824000275,297.5658824000275,297.5658824000275,298.56583490001503,298.54920809995383,299.54918009997346,0,None,None,"[0, 0, 0]",,,297.5658824000275,297.5658824000275,,,,,,,,,,,,,,,,,,,,,,,,,,"[0, 0, 0]",,,,,999,m,2,99,r,TEST,2021_Aug_20_1203,distractmap,2020.2.10,59.66654756327341,['Abdomen'],
,,,,,,,,,,,299.56549880001694,None,,,,,,,,,,,,,,,,,,,,,,,,,,,,,,,,,,,,,,,,,50.0,308.85710453009233,,,999,m,2,99,r,TEST,2021_Aug_20_1203,distractmap,2020.2.10,59.66654756327341,['Abdomen'],
6,"[0.2, 0]",None,0,0,0,0,,,,,315.68223919998854,None,319.5979251000099,None,319.5979251000099,320.59949049993884,320.5826736999443,None,1,None,None,"[0, 0, 0]",,,319.5979251000099,None,,,,,,,,,,,,,,,,,,,,,,,,,,"[0, 0, 0]",,,0.014961769920773804,5.012819769908674,999,m,2,99,r,TEST,2021_Aug_20_1203,distractmap,2020.2.10,59.66654756327341,['Abdomen'],
6,"[0.2, 0]",1,0,1,1,1,,,,,,,321.5827275000047,None,321.5827275000047,322.58266549999826,322.56598449999,323.5660276999697,0,None,None,"[0, 0, 0]",,,321.5827275000047,None,,,,,,,,,,,,,,,,,,,,,,,,,,"[0, 0, 0]",,,,,999,m,2,99,r,TEST,2021_Aug_20_1203,distractmap,2020.2.10,59.66654756327341,['Abdomen'],
1,"[-0.2, 0.2]",0,0,2,2,2,,,,,,,323.5827621000353,323.5827621000353,323.5827621000353,324.58270219992846,324.5660093999468,325.56606380001176,0,None,None,"[0, 0, 0]",,,323.5827621000353,323.5827621000353,,,,,,,,,,,,,,,,,,,,,,,,,,"[0, 0, 0]",,,,,999,m,2,99,r,TEST,2021_Aug_20_1203,distractmap,2020.2.10,59.66654756327341,['Abdomen'],
8,"[0, -0.2]",0,0,3,3,3,,,,,,,325.5827486999333,325.5827486999333,325.5827486999333,326.58270589995664,326.56607940001413,327.5660742999753,0,None,None,"[0, 0, 0]",,,325.5827486999333,325.5827486999333,,,,,,,,,,,,,,,,,,,,,,,,,,"[0, 0, 0]",,,,,999,m,2,99,r,TEST,2021_Aug_20_1203,distractmap,2020.2.10,59.66654756327341,['Abdomen'],
1,"[-0.2, 0.2]",0,0,4,4,4,,,,,,,327.633304100018,327.633304100018,327.633304100018,328.6328448000131,328.6161021000007,None,0,None,None,"[0, 0, 0]",,,327.633304100018,327.633304100018,,,,,,,,,,,,,,,,,,,,,,,,,,"[0, 0, 0]",,,,,999,m,2,99,r,TEST,2021_Aug_20_1203,distractmap,2020.2.10,59.66654756327341,['Abdomen'],
4,"[-0.2, 0]",0,0,5,5,5,,,,,,,329.59953469992615,None,329.59953469992615,330.59952409996185,330.5828662000131,331.5827545999782,0,None,None,"[0, 0, 0]",,,329.59953469992615,None,,,,,,,,,,,,,,,,,,,,,,,,,,"[0, 0, 0]",,,,,999,m,2,99,r,TEST,2021_Aug_20_1203,distractmap,2020.2.10,59.66654756327341,['Abdomen'],
5,"[0, 0]",0,0,6,6,6,,,,,,,331.5993489000248,331.5993489000248,331.5993489000248,332.5994752999395,332.5827714999905,333.58275289996527,0,None,None,"[0, 0, 0]",,,331.5993489000248,331.5993489000248,,,,,,,,,,,,,,,,,,,,,,,,,,"[0, 0, 0]",,,,,999,m,2,99,r,TEST,2021_Aug_20_1203,distractmap,2020.2.10,59.66654756327341,['Abdomen'],
7,"[-0.2, -0.2]",0,0,7,7,7,,,,,,,333.5994308999507,333.5994308999507,333.5994308999507,334.59939320001286,334.582796499948,335.582781599951,0,None,None,"[0, 0, 0]",,,333.5994308999507,333.5994308999507,,,,,,,,,,,,,,,,,,,,,,,,,,"[0, 0, 0]",,,,,999,m,2,99,r,TEST,2021_Aug_20_1203,distractmap,2020.2.10,59.66654756327341,['Abdomen'],
7,"[-0.2, -0.2]",1,0,8,8,8,,,,,,,335.59949689998757,335.59949689998757,335.59949689998757,336.59946459997445,336.5828262999421,337.5828017999884,0,None,None,"[0, 0, 0]",,,335.59949689998757,335.59949689998757,,,,,,,,,,,,,,,,,,,,,,,,,,"[0, 0, 0]",,,,,999,m,2,99,r,TEST,2021_Aug_20_1203,distractmap,2020.2.10,59.66654756327341,['Abdomen'],
7,"[-0.2, -0.2]",1,0,9,9,9,,,,,,,337.5994934999617,337.5994934999617,337.5994934999617,338.5995157000143,338.58284139994066,339.58283989992924,0,None,None,"[0, 0, 0]",,,337.5994934999617,337.5994934999617,,,,,,,,,,,,,,,,,,,,,,,,,,"[0, 0, 0]",,,,,999,m,2,99,r,TEST,2021_Aug_20_1203,distractmap,2020.2.10,59.66654756327341,['Abdomen'],
,,,,,,,,,,,339.5991951000178,None,,,,,,,,,,,,,,,,,,,,,,,,,,,,,,,,,,,,,,,,,50.0,348.8911724301288,,,999,m,2,99,r,TEST,2021_Aug_20_1203,distractmap,2020.2.10,59.66654756327341,['Abdomen'],
8,"[0, -0.2]",None,0,0,0,0,,,,,355.53120540000964,None,359.63150060002226,None,359.63150060002226,360.63306409993675,360.6162963999668,None,1,None,None,"[0, 0, 0]",,,359.63150060002226,None,,,,,,,,,,,,,,,,,,,,,,,,,,"[0, 0, 0]",,,0.014543569879606366,5.012065069982782,999,m,2,99,r,TEST,2021_Aug_20_1203,distractmap,2020.2.10,59.66654756327341,['Abdomen'],
6,"[0.2, 0]",0,0,1,1,1,,,,,,,361.61637079995126,None,361.61637079995126,362.61634439998306,362.5996434999397,363.5996063000057,0,None,None,"[0, 0, 0]",,,361.61637079995126,None,,,,,,,,,,,,,,,,,,,,,,,,,,"[0, 0, 0]",,,,,999,m,2,99,r,TEST,2021_Aug_20_1203,distractmap,2020.2.10,59.66654756327341,['Abdomen'],
6,"[0.2, 0]",1,0,2,2,2,,,,,,,363.61644609994255,363.61644609994255,363.61644609994255,364.61641609994695,364.5997104999842,365.5996882999316,0,None,None,"[0, 0, 0]",,,363.61644609994255,363.61644609994255,,,,,,,,,,,,,,,,,,,,,,,,,,"[0, 0, 0]",,,,,999,m,2,99,r,TEST,2021_Aug_20_1203,distractmap,2020.2.10,59.66654756327341,['Abdomen'],
2,"[0, 0.2]",0,0,3,3,3,,,,,,,365.61637449997943,365.61637449997943,365.61637449997943,366.6163748999825,366.5996855000267,367.59970389993396,0,None,None,"[0, 0, 0]",,,365.61637449997943,365.61637449997943,,,,,,,,,,,,,,,,,,,,,,,,,,"[0, 0, 0]",,,,,999,m,2,99,r,TEST,2021_Aug_20_1203,distractmap,2020.2.10,59.66654756327341,['Abdomen'],
1,"[-0.2, 0.2]",0,0,4,4,4,,,,,,,367.700277899974,367.700277899974,367.700277899974,368.6998231000034,368.68315449997317,None,0,None,None,"[0, 0, 0]",,,367.700277899974,367.700277899974,,,,,,,,,,,,,,,,,,,,,,,,,,"[0, 0, 0]",,,,,999,m,2,99,r,TEST,2021_Aug_20_1203,distractmap,2020.2.10,59.66654756327341,['Abdomen'],
6,"[0.2, 0]",0,0,5,5,5,,,,,,,369.63308009994216,None,369.63308009994216,370.6330781999277,370.6164085000055,371.61641479993705,0,None,None,"[0, 0, 0]",,,369.63308009994216,None,,,,,,,,,,,,,,,,,,,,,,,,,,"[0, 0, 0]",,,,,999,m,2,99,r,TEST,2021_Aug_20_1203,distractmap,2020.2.10,59.66654756327341,['Abdomen'],
9,"[0.2, -0.2]",0,0,6,6,6,,,,,,,371.6330523999641,371.6330523999641,371.6330523999641,372.6330944999354,372.6164637999609,373.6164316999493,0,None,None,"[0, 0, 0]",,,371.6330523999641,371.6330523999641,,,,,,,,,,,,,,,,,,,,,,,,,,"[0, 0, 0]",,,,,999,m,2,99,r,TEST,2021_Aug_20_1203,distractmap,2020.2.10,59.66654756327341,['Abdomen'],
1,"[-0.2, 0.2]",0,0,7,7,7,,,,,,,373.6331303999759,373.6331303999759,373.6331303999759,374.63312080001924,374.6164703000104,375.61643309996,0,None,None,"[0, 0, 0]",,,373.6331303999759,373.6331303999759,,,,,,,,,,,,,,,,,,,,,,,,,,"[0, 0, 0]",,,,,999,m,2,99,r,TEST,2021_Aug_20_1203,distractmap,2020.2.10,59.66654756327341,['Abdomen'],
6,"[0.2, 0]",0,0,8,8,8,,,,,,,375.63311789999716,375.63311789999716,375.63311789999716,376.6331281999592,376.6164606999373,377.6164505999768,0,None,None,"[0, 0, 0]",,,375.63311789999716,375.63311789999716,,,,,,,,,,,,,,,,,,,,,,,,,,"[0, 0, 0]",,,,,999,m,2,99,r,TEST,2021_Aug_20_1203,distractmap,2020.2.10,59.66654756327341,['Abdomen'],
6,"[0.2, 0]",1,0,9,9,9,,,,,,,377.6331489000004,377.6331489000004,377.6331489000004,378.63309459993616,378.6164153999416,379.6164963999763,0,None,None,"[0, 0, 0]",,,377.6331489000004,377.6331489000004,,,,,,,,,,,,,,,,,,,,,,,,,,"[0, 0, 0]",,,,,999,m,2,99,r,TEST,2021_Aug_20_1203,distractmap,2020.2.10,59.66654756327341,['Abdomen'],
,,,,,,,,,,,379.6327950999839,None,,,,,,,,,,,,,,,,,,,,,,,,,,,,,,,,,,,,,,,,,50.0,388.9242265301291,,,999,m,2,99,r,TEST,2021_Aug_20_1203,distractmap,2020.2.10,59.66654756327341,['Abdomen'],
3,"[0.2, 0.2]",None,,,,,0,0,0,0,394.864935599966,None,,,,,,,,,,,,,,,,,,,,None,None,"[0, 0, 0]",402.1986120999791,None,402.1986120999791,403.1999576999806,403.1833241999848,None,"[0, 0, 0]",1,402.1986120999791,None,,,,,,,,,,,0.015127569902688265,5.013234869926237,999,m,2,99,r,TEST,2021_Aug_20_1203,distractmap,2020.2.10,59.66654756327341,['Abdomen'],
3,"[0.2, 0.2]",None,,,,,0,1,1,1,,,,,,,,,,,,,,,,,,,,,,None,None,"[0, 0, 0]",404.18331909994595,406.1829756000079,404.18331909994595,405.18331290001515,405.1666780000087,406.1666530999355,"[0, 0, 0]",1,404.18331909994595,406.1829756000079,,,,,,,,,,,,,999,m,2,99,r,TEST,2021_Aug_20_1203,distractmap,2020.2.10,59.66654756327341,['Abdomen'],
5,"[0, 0]",0,,,,,0,2,2,2,,,,,,,,,,,,,,,,,,,,,,None,None,"[0, 0, 0]",406.1999934000196,408.19968920003157,406.1999934000196,407.2000059999991,407.18339799996465,408.18328420002945,"[0, 0, 0]",0,406.1999934000196,408.19968920003157,,,,,,,,,,,,,999,m,2,99,r,TEST,2021_Aug_20_1203,distractmap,2020.2.10,59.66654756327341,['Abdomen'],
1,"[-0.2, 0.2]",0,,,,,0,3,3,3,,,,,,,,,,,,,,,,,,,,,,None,None,"[0, 0, 0]",408.2167287999764,410.21634729998186,408.2167287999764,409.2166898000287,409.2000453999499,410.2000382000115,"[0, 0, 0]",0,408.2167287999764,410.21634729998186,,,,,,,,,,,,,999,m,2,99,r,TEST,2021_Aug_20_1203,distractmap,2020.2.10,59.66654756327341,['Abdomen'],
5,"[0, 0]",1,,,,,0,4,4,4,,,,,,,,,,,,,,,,,,,,,,None,None,"[0, 0, 0]",410.29852369998116,None,410.29852369998116,411.30003239994403,411.28346349997446,None,"[0, 0, 0]",0,410.29852369998116,None,,,,,,,,,,,,,999,m,2,99,r,TEST,2021_Aug_20_1203,distractmap,2020.2.10,59.66654756327341,['Abdomen'],
8,"[0, -0.2]",0,,,,,0,5,5,5,,,,,,,,,,,,,,,,,,,,,,None,None,"[0, 0, 0]",412.25007489998825,414.24972490000073,412.25007489998825,413.25008839997463,413.2334689999698,414.2334436000092,"[0, 0, 0]",0,412.25007489998825,414.24972490000073,,,,,,,,,,,,,999,m,2,99,r,TEST,2021_Aug_20_1203,distractmap,2020.2.10,59.66654756327341,['Abdomen'],
5,"[0, 0]",1,,,,,0,6,6,6,,,,,,,,,,,,,,,,,,,,,,None,None,"[0, 0, 0]",414.26674470002763,416.2663690999616,414.26674470002763,415.26676839997526,415.25011859997176,416.2500860999571,"[0, 0, 0]",0,414.26674470002763,416.2663690999616,,,,,,,,,,,,,999,m,2,99,r,TEST,2021_Aug_20_1203,distractmap,2020.2.10,59.66654756327341,['Abdomen'],
7,"[-0.2, -0.2]",0,,,,,0,7,7,7,,,,,,,,,,,,,,,,,,,,,,None,None,"[0, 0, 0]",416.28345649992116,418.28307000000495,416.28345649992116,417.28347160003614,417.2667577000102,418.2667756000301,"[0, 0, 0]",0,416.28345649992116,418.28307000000495,,,,,,,,,,,,,999,m,2,99,r,TEST,2021_Aug_20_1203,distractmap,2020.2.10,59.66654756327341,['Abdomen'],
5,"[0, 0]",1,,,,,0,8,8,8,,,,,,,,,,,,,,,,,,,,,,None,None,"[0, 0, 0]",418.30012499995064,420.2997770999791,418.30012499995064,419.3001050000312,419.2834464999614,420.28345089999493,"[0, 0, 0]",0,418.30012499995064,420.2997770999791,,,,,,,,,,,,,999,m,2,99,r,TEST,2021_Aug_20_1203,distractmap,2020.2.10,59.66654756327341,['Abdomen'],
7,"[-0.2, -0.2]",1,,,,,0,9,9,9,,,,,,,,,,,,,,,,,,,,,,None,None,"[0, 0, 0]",420.31680169992615,422.31639549997635,420.31680169992615,421.31679760001134,421.3001413999591,422.300201099948,"[0, 0, 0]",0,420.31680169992615,422.31639549997635,,,,,,,,,,,,,999,m,2,99,r,TEST,2021_Aug_20_1203,distractmap,2020.2.10,59.66654756327341,['Abdomen'],
,,,,,,,,,,,422.33311519993003,None,,,,,,,,,,,,,,,,,,,,,,,,,,,,,,,,,,,,,,,,,50.0,431.62528133008163,,,999,m,2,99,r,TEST,2021_Aug_20_1203,distractmap,2020.2.10,59.66654756327341,['Abdomen'],
6,"[0.2, 0]",None,,,,,0,0,0,0,438.1833655999508,None,,,,,,,,,,,,,,,,,,,,None,None,"[0, 0, 0]",442.36560619995,None,442.36560619995,443.36705799994525,443.3503221999854,None,"[0, 0, 0]",1,442.36560619995,None,,,,,,,,,,,0.014432969968765974,5.011824970017187,999,m,2,99,r,TEST,2021_Aug_20_1203,distractmap,2020.2.10,59.66654756327341,['Abdomen'],
1,"[-0.2, 0.2]",None,,,,,0,1,1,1,,,,,,,,,,,,,,,,,,,,,,None,None,"[0, 0, 0]",444.3503953999607,446.349950099946,444.3503953999607,445.3503436000319,445.3336468000198,446.33366759994533,"[0, 0, 0]",1,444.3503953999607,446.349950099946,,,,,,,,,,,,,999,m,2,99,r,TEST,2021_Aug_20_1203,distractmap,2020.2.10,59.66654756327341,['Abdomen'],
6,"[0.2, 0]",1,,,,,0,2,2,2,,,,,,,,,,,,,,,,,,,,,,None,None,"[0, 0, 0]",446.36703989992384,448.3666899999371,446.36703989992384,447.3669796999311,447.35039189993404,448.3503816999728,"[0, 0, 0]",0,446.36703989992384,448.3666899999371,,,,,,,,,,,,,999,m,2,99,r,TEST,2021_Aug_20_1203,distractmap,2020.2.10,59.66654756327341,['Abdomen'],
4,"[-0.2, 0]",0,,,,,0,3,3,3,,,,,,,,,,,,,,,,,,,,,,None,None,"[0, 0, 0]",448.38368249998894,450.3832639999455,448.38368249998894,449.383687500027,449.3670006999746,450.36702489992604,"[0, 0, 0]",0,448.38368249998894,450.3832639999455,,,,,,,,,,,,,999,m,2,99,r,TEST,2021_Aug_20_1203,distractmap,2020.2.10,59.66654756327341,['Abdomen'],
1,"[-0.2, 0.2]",0,,,,,0,4,4,4,,,,,,,,,,,,,,,,,,,,,,None,None,"[0, 0, 0]",450.4675219999626,None,450.4675219999626,451.46715659997426,451.43385339993984,None,"[0, 0, 0]",0,450.4675219999626,None,,,,,,,,,,,,,999,m,2,99,r,TEST,2021_Aug_20_1203,distractmap,2020.2.10,59.66654756327341,['Abdomen'],
8,"[0, -0.2]",0,,,,,0,5,5,5,,,,,,,,,,,,,,,,,,,,,,None,None,"[0, 0, 0]",452.4170527999522,454.41688889998477,452.4170527999522,453.4170753000071,453.40032659994904,454.40060319995973,"[0, 0, 0]",0,452.4170527999522,454.41688889998477,,,,,,,,,,,,,999,m,2,99,r,TEST,2021_Aug_20_1203,distractmap,2020.2.10,59.66654756327341,['Abdomen'],
1,"[-0.2, 0.2]",1,,,,,0,6,6,6,,,,,,,,,,,,,,,,,,,,,,None,None,"[0, 0, 0]",454.4339705000166,456.43326560000423,454.4339705000166,455.43374210002366,455.4170810999349,456.41712509992067,"[0, 0, 0]",0,454.4339705000166,456.43326560000423,,,,,,,,,,,,,999,m,2,99,r,TEST,2021_Aug_20_1203,distractmap,2020.2.10,59.66654756327341,['Abdomen'],
8,"[0, -0.2]",1,,,,,0,7,7,7,,,,,,,,,,,,,,,,,,,,,,None,None,"[0, 0, 0]",456.45046780002303,458.45010140002705,456.45046780002303,457.4503866999876,457.433765499969,458.4337639999576,"[0, 0, 0]",0,456.45046780002303,458.45010140002705,,,,,,,,,,,,,999,m,2,99,r,TEST,2021_Aug_20_1203,distractmap,2020.2.10,59.66654756327341,['Abdomen'],
1,"[-0.2, 0.2]",1,,,,,0,8,8,8,,,,,,,,,,,,,,,,,,,,,,None,None,"[0, 0, 0]",458.467042400036,460.4667165999999,458.467042400036,459.4670733999228,459.45042010000907,460.4504173999885,"[0, 0, 0]",0,458.467042400036,460.4667165999999,,,,,,,,,,,,,999,m,2,99,r,TEST,2021_Aug_20_1203,distractmap,2020.2.10,59.66654756327341,['Abdomen'],
6,"[0.2, 0]",0,,,,,0,9,9,9,,,,,,,,,,,,,,,,,,,,,,None,None,"[0, 0, 0]",460.4837792000035,462.48340879997704,460.4837792000035,461.4837570999516,461.4671617000131,462.4671333000297,"[0, 0, 0]",0,460.4837792000035,462.48340879997704,,,,,,,,,,,,,999,m,2,99,r,TEST,2021_Aug_20_1203,distractmap,2020.2.10,59.66654756327341,['Abdomen'],
,,,,,,,,,,,462.5000697999494,None,,,,,,,,,,,,,,,,,,,,,,,,,,,,,,,,,,,,,,,,,50.0,469.2922375299968,,,999,m,2,99,r,TEST,2021_Aug_20_1203,distractmap,2020.2.10,59.66654756327341,['Abdomen'],
7,"[-0.2, -0.2]",None,,,,,0,0,0,0,476.1505132999737,None,,,,,,,,,,,,,,,,,,,,None,None,"[0, 0, 0]",482.5325509000104,None,482.5325509000104,483.5339678999735,483.517342899926,None,"[0, 0, 0]",1,482.5325509000104,None,,,,,,,,,,,0.014329369994811714,5.011414170032367,999,m,2,99,r,TEST,2021_Aug_20_1203,distractmap,2020.2.10,59.66654756327341,['Abdomen'],
7,"[-0.2, -0.2]",None,,,,,0,1,1,1,,,,,,,,,,,,,,,,,,,,,,None,None,"[0, 0, 0]",484.5172870999668,486.5169654999627,484.5172870999668,485.5174081999576,485.50061560003087,486.5006229999708,"[0, 0, 0]",1,484.5172870999668,486.5169654999627,,,,,,,,,,,,,999,m,2,99,r,TEST,2021_Aug_20_1203,distractmap,2020.2.10,59.66654756327341,['Abdomen'],
7,"[-0.2, -0.2]",1,,,,,0,2,2,2,,,,,,,,,,,,,,,,,,,,,,None,None,"[0, 0, 0]",486.53404459997546,488.5336004999699,486.53404459997546,487.5340126999654,487.51727449998725,488.51727159996517,"[0, 0, 0]",0,486.53404459997546,488.5336004999699,,,,,,,,,,,,,999,m,2,99,r,TEST,2021_Aug_20_1203,distractmap,2020.2.10,59.66654756327341,['Abdomen'],
5,"[0, 0]",0,,,,,0,3,3,3,,,,,,,,,,,,,,,,,,,,,,None,None,"[0, 0, 0]",488.55070739996154,490.55031770002097,488.55070739996154,489.5506680000108,489.5339554999955,490.53405729995575,"[0, 0, 0]",0,488.55070739996154,490.55031770002097,,,,,,,,,,,,,999,m,2,99,r,TEST,2021_Aug_20_1203,distractmap,2020.2.10,59.66654756327341,['Abdomen'],
1,"[-0.2, 0.2]",0,,,,,0,4,4,4,,,,,,,,,,,,,,,,,,,,,,None,None,"[0, 0, 0]",490.6181052000029,None,490.6181052000029,491.61746710003354,491.60068679996766,None,"[0, 0, 0]",0,490.6181052000029,None,,,,,,,,,,,,,999,m,2,99,r,TEST,2021_Aug_20_1203,distractmap,2020.2.10,59.66654756327341,['Abdomen'],
6,"[0.2, 0]",0,,,,,0,5,5,5,,,,,,,,,,,,,,,,,,,,,,None,None,"[0, 0, 0]",492.58401300001424,494.583685599966,492.58401300001424,493.584059100016,493.56731449998915,494.56735899997875,"[0, 0, 0]",0,492.58401300001424,494.583685599966,,,,,,,,,,,,,999,m,2,99,r,TEST,2021_Aug_20_1203,distractmap,2020.2.10,59.66654756327341,['Abdomen'],
1,"[-0.2, 0.2]",1,,,,,0,6,6,6,,,,,,,,,,,,,,,,,,,,,,None,None,"[0, 0, 0]",494.6007993000094,496.6003352999687,494.6007993000094,495.6006434999872,495.5840433000121,496.5840533999726,"[0, 0, 0]",0,494.6007993000094,496.6003352999687,,,,,,,,,,,,,999,m,2,99,r,TEST,2021_Aug_20_1203,distractmap,2020.2.10,59.66654756327341,['Abdomen'],
7,"[-0.2, -0.2]",0,,,,,0,7,7,7,,,,,,,,,,,,,,,,,,,,,,None,None,"[0, 0, 0]",496.6174181000097,498.61697929992806,496.6174181000097,497.617438999936,497.6006961999228,498.6007111000363,"[0, 0, 0]",0,496.6174181000097,498.61697929992806,,,,,,,,,,,,,999,m,2,99,r,TEST,2021_Aug_20_1203,distractmap,2020.2.10,59.66654756327341,['Abdomen'],
6,"[0.2, 0]",0,,,,,0,8,8,8,,,,,,,,,,,,,,,,,,,,,,None,None,"[0, 0, 0]",498.634132499923,500.63365059997886,498.634132499923,499.6340831000125,499.6174860999454,500.6173969999654,"[0, 0, 0]",0,498.634132499923,500.63365059997886,,,,,,,,,,,,,999,m,2,99,r,TEST,2021_Aug_20_1203,distractmap,2020.2.10,59.66654756327341,['Abdomen'],
7,"[-0.2, -0.2]",1,,,,,0,9,9,9,,,,,,,,,,,,,,,,,,,,,,None,None,"[0, 0, 0]",500.65078479994554,502.6503924999852,500.65078479994554,501.6507479000138,501.6341185999336,502.63403670000844,"[0, 0, 0]",0,500.65078479994554,502.6503924999852,,,,,,,,,,,,,999,m,2,99,r,TEST,2021_Aug_20_1203,distractmap,2020.2.10,59.66654756327341,['Abdomen'],
,,,,,,,,,,,502.6670999999624,None,,,,,,,,,,,,,,,,,,,,,,,,,,,,,,,,,,,,,,,,,50.0,511.95939813007135,,,999,m,2,99,r,TEST,2021_Aug_20_1203,distractmap,2020.2.10,59.66654756327341,['Abdomen'],
4,"[-0.2, 0]",None,,,,,0,0,0,0,518.7673044999829,None,,,,,,,,,,,,,,,,,,,,None,None,"[0, 0, 0]",522.6995576999616,None,522.6995576999616,523.7010777000105,523.6842944999225,None,"[0, 0, 0]",1,522.6995576999616,None,,,,,,,,,,,0.014244669931940734,5.0114851699909195,999,m,2,99,r,TEST,2021_Aug_20_1203,distractmap,2020.2.10,59.66654756327341,['Abdomen'],
5,"[0, 0]",None,,,,,0,1,1,1,,,,,,,,,,,,,,,,,,,,,,None,None,"[0, 0, 0]",524.6843513000058,526.6839525999967,524.6843513000058,525.6842996999621,525.667483999976,526.6676228999859,"[0, 0, 0]",1,524.6843513000058,526.6839525999967,,,,,,,,,,,,,999,m,2,99,r,TEST,2021_Aug_20_1203,distractmap,2020.2.10,59.66654756327341,['Abdomen'],
6,"[0.2, 0]",0,,,,,0,2,2,2,,,,,,,,,,,,,,,,,,,,,,None,None,"[0, 0, 0]",526.700979999965,528.7005464999238,526.700979999965,527.7009703000076,527.684191999957,528.6843398000346,"[0, 0, 0]",0,526.700979999965,528.7005464999238,,,,,,,,,,,,,999,m,2,99,r,TEST,2021_Aug_20_1203,distractmap,2020.2.10,59.66654756327341,['Abdomen'],
1,"[-0.2, 0.2]",0,,,,,0,3,3,3,,,,,,,,,,,,,,,,,,,,,,None,None,"[0, 0, 0]",528.7176441999618,530.7172890999354,528.7176441999618,529.7176301999716,529.7009964999743,530.7009761999361,"[0, 0, 0]",0,528.7176441999618,530.7172890999354,,,,,,,,,,,,,999,m,2,99,r,TEST,2021_Aug_20_1203,distractmap,2020.2.10,59.66654756327341,['Abdomen'],
6,"[0.2, 0]",1,,,,,0,4,4,4,,,,,,,,,,,,,,,,,,,,,,None,None,"[0, 0, 0]",530.7681882999605,None,530.7681882999605,531.7677946999902,531.75098110002,None,"[0, 0, 0]",0,530.7681882999605,None,,,,,,,,,,,,,999,m,2,99,r,TEST,2021_Aug_20_1203,distractmap,2020.2.10,59.66654756327341,['Abdomen'],
1,"[-0.2, 0.2]",1,,,,,0,5,5,5,,,,,,,,,,,,,,,,,,,,,,None,None,"[0, 0, 0]",532.7509678000351,534.7506456000265,532.7509678000351,533.7510290000355,533.7343594999984,534.7343497999245,"[0, 0, 0]",0,532.7509678000351,534.7506456000265,,,,,,,,,,,,,999,m,2,99,r,TEST,2021_Aug_20_1203,distractmap,2020.2.10,59.66654756327341,['Abdomen'],
2,"[0, 0.2]",0,,,,,0,6,6,6,,,,,,,,,,,,,,,,,,,,,,None,None,"[0, 0, 0]",534.7677052000072,536.7673306999495,534.7677052000072,535.7676860999782,535.751060099923,536.7510353999678,"[0, 0, 0]",0,534.7677052000072,536.7673306999495,,,,,,,,,,,,,999,m,2,99,r,TEST,2021_Aug_20_1203,distractmap,2020.2.10,59.66654756327341,['Abdomen'],
3,"[0.2, 0.2]",0,,,,,0,7,7,7,,,,,,,,,,,,,,,,,,,,,,None,None,"[0, 0, 0]",536.7844833999407,538.7840103999479,536.7844833999407,537.7844284999883,537.7676866999827,538.7676994999638,"[0, 0, 0]",0,536.7844833999407,538.7840103999479,,,,,,,,,,,,,999,m,2,99,r,TEST,2021_Aug_20_1203,distractmap,2020.2.10,59.66654756327341,['Abdomen'],
6,"[0.2, 0]",0,,,,,0,8,8,8,,,,,,,,,,,,,,,,,,,,,,None,None,"[0, 0, 0]",538.801075699972,540.800725499983,538.801075699972,539.8010532000335,539.7843490999658,540.78425529995,"[0, 0, 0]",0,538.801075699972,540.800725499983,,,,,,,,,,,,,999,m,2,99,r,TEST,2021_Aug_20_1203,distractmap,2020.2.10,59.66654756327341,['Abdomen'],
3,"[0.2, 0.2]",1,,,,,0,9,9,9,,,,,,,,,,,,,,,,,,,,,,None,None,"[0, 0, 0]",540.8177721999818,542.8173646000214,540.8177721999818,541.8177491999231,541.8010431999573,542.8010064000264,"[0, 0, 0]",0,540.8177721999818,542.8173646000214,,,,,,,,,,,,,999,m,2,99,r,TEST,2021_Aug_20_1203,distractmap,2020.2.10,59.66654756327341,['Abdomen'],
,,,,,,,,,,,542.8340970999561,None,,,,,,,,,,,,,,,,,,,,,,,,,,,,,,,,,,,,,,,,,50.0,549.6263566298876,,,999,m,2,99,r,TEST,2021_Aug_20_1203,distractmap,2020.2.10,59.66654756327341,['Abdomen'],
2,"[0, 0.2]",None,,,,,0,0,0,0,556.4342755000107,None,,,,,,,,,,,,,,,,,,,,None,None,"[0, 0, 0]",562.8664199999766,None,562.8664199999766,563.8679541000165,563.8512641999405,None,"[0, 0, 0]",1,562.8664199999766,None,,,,,,,,,,,0.014267270104028285,5.011382170021534,999,m,2,99,r,TEST,2021_Aug_20_1203,distractmap,2020.2.10,59.66654756327341,['Abdomen'],
5,"[0, 0]",None,,,,,0,1,1,1,,,,,,,,,,,,,,,,,,,,,,None,None,"[0, 0, 0]",564.8512480999343,566.8509544000262,564.8512480999343,565.8513087999308,565.8345864999574,566.8345941000152,"[0, 0, 0]",1,564.8512480999343,566.8509544000262,,,,,,,,,,,,,999,m,2,99,r,TEST,2021_Aug_20_1203,distractmap,2020.2.10,59.66654756327341,['Abdomen'],
6,"[0.2, 0]",0,,,,,0,2,2,2,,,,,,,,,,,,,,,,,,,,,,None,None,"[0, 0, 0]",566.867797999992,568.8675505999709,566.867797999992,567.8679766999558,567.8513035000069,568.8512886000099,"[0, 0, 0]",0,566.867797999992,568.8675505999709,,,,,,,,,,,,,999,m,2,99,r,TEST,2021_Aug_20_1203,distractmap,2020.2.10,59.66654756327341,['Abdomen'],
1,"[-0.2, 0.2]",0,,,,,0,3,3,3,,,,,,,,,,,,,,,,,,,,,,None,None,"[0, 0, 0]",568.8846160999965,570.8842388000339,568.8846160999965,569.8846135999775,569.8679670999991,570.8679817999946,"[0, 0, 0]",0,568.8846160999965,570.8842388000339,,,,,,,,,,,,,999,m,2,99,r,TEST,2021_Aug_20_1203,distractmap,2020.2.10,59.66654756327341,['Abdomen'],
6,"[0.2, 0]",1,,,,,0,4,4,4,,,,,,,,,,,,,,,,,,,,,,None,None,"[0, 0, 0]",570.9664205999579,None,570.9664205999579,571.9680489000166,571.9513920999598,None,"[0, 0, 0]",0,570.9664205999579,None,,,,,,,,,,,,,999,m,2,99,r,TEST,2021_Aug_20_1203,distractmap,2020.2.10,59.66654756327341,['Abdomen'],
6,"[0.2, 0]",0,,,,,0,5,5,5,,,,,,,,,,,,,,,,,,,,,,None,None,"[0, 0, 0]",572.9179624000099,574.9176742000272,572.9179624000099,573.9179815999232,573.9013738000067,574.9013443000149,"[0, 0, 0]",0,572.9179624000099,574.9176742000272,,,,,,,,,,,,,999,m,2,99,r,TEST,2021_Aug_20_1203,distractmap,2020.2.10,59.66654756327341,['Abdomen'],
9,"[0.2, -0.2]",0,,,,,0,6,6,6,,,,,,,,,,,,,,,,,,,,,,None,None,"[0, 0, 0]",574.9347050000215,576.9342757000122,574.9347050000215,575.9346656999551,575.9180082000094,576.9179899999872,"[0, 0, 0]",0,574.9347050000215,576.9342757000122,,,,,,,,,,,,,999,m,2,99,r,TEST,2021_Aug_20_1203,distractmap,2020.2.10,59.66654756327341,['Abdomen'],
6,"[0.2, 0]",1,,,,,0,7,7,7,,,,,,,,,,,,,,,,,,,,,,None,None,"[0, 0, 0]",576.951391599956,578.9509887000313,576.951391599956,577.9513685000129,577.9346970999613,578.9347147999797,"[0, 0, 0]",0,576.951391599956,578.9509887000313,,,,,,,,,,,,,999,m,2,99,r,TEST,2021_Aug_20_1203,distractmap,2020.2.10,59.66654756327341,['Abdomen'],
3,"[0.2, 0.2]",0,,,,,0,8,8,8,,,,,,,,,,,,,,,,,,,,,,None,None,"[0, 0, 0]",578.9680977999233,580.9676863999339,578.9680977999233,579.9680610999931,579.951396599994,580.9512495999224,"[0, 0, 0]",0,578.9680977999233,580.9676863999339,,,,,,,,,,,,,999,m,2,99,r,TEST,2021_Aug_20_1203,distractmap,2020.2.10,59.66654756327341,['Abdomen'],
9,"[0.2, -0.2]",0,,,,,0,9,9,9,,,,,,,,,,,,,,,,,,,,,,None,None,"[0, 0, 0]",580.9846966000041,582.984353799955,580.9846966000041,581.9846951999934,581.9680724999635,582.9680519999238,"[0, 0, 0]",0,580.9846966000041,582.984353799955,,,,,,,,,,,,,999,m,2,99,r,TEST,2021_Aug_20_1203,distractmap,2020.2.10,59.66654756327341,['Abdomen'],
,,,,,,,,,,,583.0010256000096,None,,,,,,,,,,,,,,,,,,,,,,,,,,,,,,,,,,,,,,,,,50.0,592.2934249299578,,,999,m,2,99,r,TEST,2021_Aug_20_1203,distractmap,2020.2.10,59.66654756327341,['Abdomen'],
3,"[0.2, 0.2]",None,,,,,0,0,0,0,599.1513850999763,None,,,,,,,,,,,,,,,,,,,,None,None,"[0, 0, 0]",603.0335027999245,None,603.0335027999245,604.0349193000002,604.0182301999303,None,"[0, 0, 0]",1,603.0335027999245,None,,,,,,,,,,,0.014117870014160872,5.0111488699913025,999,m,2,99,r,TEST,2021_Aug_20_1203,distractmap,2020.2.10,59.66654756327341,['Abdomen'],
9,"[0.2, -0.2]",None,,,,,0,1,1,1,,,,,,,,,,,,,,,,,,,,,,None,None,"[0, 0, 0]",605.0182847999968,607.0178589000134,605.0182847999968,606.0182151999325,606.0015979999444,607.0015725999838,"[0, 0, 0]",1,605.0182847999968,607.0178589000134,,,,,,,,,,,,,999,m,2,99,r,TEST,2021_Aug_20_1203,distractmap,2020.2.10,59.66654756327341,['Abdomen'],
3,"[0.2, 0.2]",1,,,,,0,2,2,2,,,,,,,,,,,,,,,,,,,,,,None,None,"[0, 0, 0]",607.0348969999468,609.0344877999742,607.0348969999468,608.0349135999568,608.0182990999892,609.0182684999891,"[0, 0, 0]",0,607.0348969999468,609.0344877999742,,,,,,,,,,,,,999,m,2,99,r,TEST,2021_Aug_20_1203,distractmap,2020.2.10,59.66654756327341,['Abdomen'],
7,"[-0.2, -0.2]",0,,,,,0,3,3,3,,,,,,,,,,,,,,,,,,,,,,None,None,"[0, 0, 0]",609.0516045999248,611.0512024000054,609.0516045999248,610.051586000016,610.0349702999229,611.034947099979,"[0, 0, 0]",0,609.0516045999248,611.0512024000054,,,,,,,,,,,,,999,m,2,99,r,TEST,2021_Aug_20_1203,distractmap,2020.2.10,59.66654756327341,['Abdomen'],
8,"[0, -0.2]",0,,,,,0,4,4,4,,,,,,,,,,,,,,,,,,,,,,None,None,"[0, 0, 0]",611.1188333999598,None,611.1188333999598,612.1185071000364,612.1018447999377,None,"[0, 0, 0]",0,611.1188333999598,None,,,,,,,,,,,,,999,m,2,99,r,TEST,2021_Aug_20_1203,distractmap,2020.2.10,59.66654756327341,['Abdomen'],
4,"[-0.2, 0]",0,,,,,0,5,5,5,,,,,,,,,,,,,,,,,,,,,,None,None,"[0, 0, 0]",613.0849881999893,615.084606599994,613.0849881999893,614.0849613000173,614.0682964000152,615.0682325999951,"[0, 0, 0]",0,613.0849881999893,615.084606599994,,,,,,,,,,,,,999,m,2,99,r,TEST,2021_Aug_20_1203,distractmap,2020.2.10,59.66654756327341,['Abdomen'],
4,"[-0.2, 0]",0,,,,,0,6,6,6,,,,,,,,,,,,,,,,,,,,,,None,None,"[0, 0, 0]",615.1016578000272,617.1012904000236,615.1016578000272,616.1016716000158,616.0849780000281,617.0849813999375,"[0, 0, 0]",0,615.1016578000272,617.1012904000236,,,,,,,,,,,,,999,m,2,99,r,TEST,2021_Aug_20_1203,distractmap,2020.2.10,59.66654756327341,['Abdomen'],
1,"[-0.2, 0.2]",0,,,,,0,7,7,7,,,,,,,,,,,,,,,,,,,,,,None,None,"[0, 0, 0]",617.1185115999542,619.1179556000279,617.1185115999542,618.1183972000144,618.1015821000328,619.1016144999303,"[0, 0, 0]",0,617.1185115999542,619.1179556000279,,,,,,,,,,,,,999,m,2,99,r,TEST,2021_Aug_20_1203,distractmap,2020.2.10,59.66654756327341,['Abdomen'],
4,"[-0.2, 0]",1,,,,,0,8,8,8,,,,,,,,,,,,,,,,,,,,,,None,None,"[0, 0, 0]",619.1350487000309,621.1346560999518,619.1350487000309,620.1350028000306,620.1182620000327,621.1183048000094,"[0, 0, 0]",0,619.1350487000309,621.1346560999518,,,,,,,,,,,,,999,m,2,99,r,TEST,2021_Aug_20_1203,distractmap,2020.2.10,59.66654756327341,['Abdomen'],
8,"[0, -0.2]",0,,,,,0,9,9,9,,,,,,,,,,,,,,,,,,,,,,None,None,"[0, 0, 0]",621.151705599972,623.1513388999738,621.151705599972,622.1516513000242,622.1350588999921,623.1349756999407,"[0, 0, 0]",0,621.151705599972,623.1513388999738,,,,,,,,,,,,,999,m,2,99,r,TEST,2021_Aug_20_1203,distractmap,2020.2.10,59.66654756327341,['Abdomen'],
,,,,,,,,,,,623.1680508999852,None,,,,,,,,,,,,,,,,,,,,,,,,,,,,,,,,,,,,,,,,,50.0,627.4603906299453,,,999,m,2,99,r,TEST,2021_Aug_20_1203,distractmap,2020.2.10,59.66654756327341,['Abdomen'],
2,"[0, 0.2]",None,,,,,0,0,0,0,634.3853826000122,None,,,,,,,,,,,,,,,,,,,,None,None,"[0, 0, 0]",643.2004947999958,None,643.2004947999958,644.2018359999638,644.1851925000083,None,"[0, 0, 0]",1,643.2004947999958,None,,,,,,,,,,,0.01409147004596889,5.0110477700363845,999,m,2,99,r,TEST,2021_Aug_20_1203,distractmap,2020.2.10,59.66654756327341,['Abdomen'],
5,"[0, 0]",None,,,,,0,1,1,1,,,,,,,,,,,,,,,,,,,,,,None,None,"[0, 0, 0]",645.1852362999925,647.1848793999525,645.1852362999925,646.1852227000054,646.1685231999727,647.168509399984,"[0, 0, 0]",1,645.1852362999925,647.1848793999525,,,,,,,,,,,,,999,m,2,99,r,TEST,2021_Aug_20_1203,distractmap,2020.2.10,59.66654756327341,['Abdomen'],
3,"[0.2, 0.2]",0,,,,,0,2,2,2,,,,,,,,,,,,,,,,,,,,,,None,None,"[0, 0, 0]",647.2019467999926,649.201527499943,647.2019467999926,648.201910499949,648.1851790000219,649.1851626000134,"[0, 0, 0]",0,647.2019467999926,649.201527499943,,,,,,,,,,,,,999,m,2,99,r,TEST,2021_Aug_20_1203,distractmap,2020.2.10,59.66654756327341,['Abdomen'],
5,"[0, 0]",1,,,,,0,3,3,3,,,,,,,,,,,,,,,,,,,,,,None,None,"[0, 0, 0]",649.2185978000052,651.2182374999393,649.2185978000052,650.2185852000257,650.2018968999619,651.2019403999439,"[0, 0, 0]",0,649.2185978000052,651.2182374999393,,,,,,,,,,,,,999,m,2,99,r,TEST,2021_Aug_20_1203,distractmap,2020.2.10,59.66654756327341,['Abdomen'],
2,"[0, 0.2]",0,,,,,0,4,4,4,,,,,,,,,,,,,,,,,,,,,,None,None,"[0, 0, 0]",651.283386599971,None,651.283386599971,652.2854167999467,652.2685754999984,None,"[0, 0, 0]",0,651.283386599971,None,,,,,,,,,,,,,999,m,2,99,r,TEST,2021_Aug_20_1203,distractmap,2020.2.10,59.66654756327341,['Abdomen'],
8,"[0, -0.2]",0,,,,,0,5,5,5,,,,,,,,,,,,,,,,,,,,,,None,None,"[0, 0, 0]",653.2519717999967,655.2515684999526,653.2519717999967,654.2519475999288,654.2352942000143,655.235308000003,"[0, 0, 0]",0,653.2519717999967,655.2515684999526,,,,,,,,,,,,,999,m,2,99,r,TEST,2021_Aug_20_1203,distractmap,2020.2.10,59.66654756327341,['Abdomen'],
4,"[-0.2, 0]",0,,,,,0,6,6,6,,,,,,,,,,,,,,,,,,,,,,None,None,"[0, 0, 0]",655.2685472000157,657.2682712000096,655.2685472000157,656.2686482999707,656.2519544999814,657.251979899942,"[0, 0, 0]",0,655.2685472000157,657.2682712000096,,,,,,,,,,,,,999,m,2,99,r,TEST,2021_Aug_20_1203,distractmap,2020.2.10,59.66654756327341,['Abdomen'],
8,"[0, -0.2]",1,,,,,0,7,7,7,,,,,,,,,,,,,,,,,,,,,,None,None,"[0, 0, 0]",657.2854488999583,659.2850080999779,657.2854488999583,658.2853164999979,658.2685828999383,659.2686366999988,"[0, 0, 0]",0,657.2854488999583,659.2850080999779,,,,,,,,,,,,,999,m,2,99,r,TEST,2021_Aug_20_1203,distractmap,2020.2.10,59.66654756327341,['Abdomen'],
7,"[-0.2, -0.2]",0,,,,,0,8,8,8,,,,,,,,,,,,,,,,,,,,,,None,None,"[0, 0, 0]",659.3020204999484,661.3016259999713,659.3020204999484,660.3019648999907,660.2853808000218,661.285319800023,"[0, 0, 0]",0,659.3020204999484,661.3016259999713,,,,,,,,,,,,,999,m,2,99,r,TEST,2021_Aug_20_1203,distractmap,2020.2.10,59.66654756327341,['Abdomen'],
8,"[0, -0.2]",1,,,,,0,9,9,9,,,,,,,,,,,,,,,,,,,,,,None,None,"[0, 0, 0]",661.318683499936,663.3183073999826,661.318683499936,662.3186619000044,662.3020196999423,663.3020151000237,"[0, 0, 0]",0,661.318683499936,663.3183073999826,,,,,,,,,,,,,999,m,2,99,r,TEST,2021_Aug_20_1203,distractmap,2020.2.10,59.66654756327341,['Abdomen'],
,,,,,,,,,,,663.334968399955,None,,,,,,,,,,,,,,,,,,,,,,,,,,,,,,,,,,,,,,,,,50.0,672.6275491301203,,,999,m,2,99,r,TEST,2021_Aug_20_1203,distractmap,2020.2.10,59.66654756327341,['Abdomen'],
2,"[0, 0.2]",None,,,,,0,0,0,0,678.8504255999578,None,,,,,,,,,,,,,,,,,,,,None,None,"[0, 0, 0]",683.3674815000268,None,683.3674815000268,684.3689637000207,684.3522942999844,None,"[0, 0, 0]",1,683.3674815000268,None,,,,,,,,,,,0.014027669909410179,5.011037369840778,999,m,2,99,r,TEST,2021_Aug_20_1203,distractmap,2020.2.10,59.66654756327341,['Abdomen'],
2,"[0, 0.2]",None,,,,,0,1,1,1,,,,,,,,,,,,,,,,,,,,,,None,None,"[0, 0, 0]",685.3522028999869,687.3518047999823,685.3522028999869,686.3521881999914,686.3355224999832,687.3355157999322,"[0, 0, 0]",1,685.3522028999869,687.3518047999823,,,,,,,,,,,,,999,m,2,99,r,TEST,2021_Aug_20_1203,distractmap,2020.2.10,59.66654756327341,['Abdomen'],
2,"[0, 0.2]",1,,,,,0,2,2,2,,,,,,,,,,,,,,,,,,,,,,None,None,"[0, 0, 0]",687.3689524999354,689.3684670999646,687.3689524999354,688.3689613000024,688.3522154999664,689.3522099999245,"[0, 0, 0]",0,687.3689524999354,689.3684670999646,,,,,,,,,,,,,999,m,2,99,r,TEST,2021_Aug_20_1203,distractmap,2020.2.10,59.66654756327341,['Abdomen'],
8,"[0, -0.2]",0,,,,,0,3,3,3,,,,,,,,,,,,,,,,,,,,,,None,None,"[0, 0, 0]",689.3855770999799,691.3851941999746,689.3855770999799,690.3855681000277,690.3688630999532,691.3689633000176,"[0, 0, 0]",0,689.3855770999799,691.3851941999746,,,,,,,,,,,,,999,m,2,99,r,TEST,2021_Aug_20_1203,distractmap,2020.2.10,59.66654756327341,['Abdomen'],
2,"[0, 0.2]",1,,,,,0,4,4,4,,,,,,,,,,,,,,,,,,,,,,None,None,"[0, 0, 0]",691.4860672999639,None,691.4860672999639,692.4857088000281,692.4688945999369,None,"[0, 0, 0]",0,691.4860672999639,None,,,,,,,,,,,,,999,m,2,99,r,TEST,2021_Aug_20_1203,distractmap,2020.2.10,59.66654756327341,['Abdomen'],
5,"[0, 0]",0,,,,,0,5,5,5,,,,,,,,,,,,,,,,,,,,,,None,None,"[0, 0, 0]",693.418937999988,695.4185662999516,693.418937999988,694.4189691999927,694.4023359999992,695.402355200029,"[0, 0, 0]",0,693.418937999988,695.4185662999516,,,,,,,,,,,,,999,m,2,99,r,TEST,2021_Aug_20_1203,distractmap,2020.2.10,59.66654756327341,['Abdomen'],
1,"[-0.2, 0.2]",0,,,,,0,6,6,6,,,,,,,,,,,,,,,,,,,,,,None,None,"[0, 0, 0]",695.4356213000137,697.4352503999835,695.4356213000137,696.4356351000024,696.4189572000178,697.418961099931,"[0, 0, 0]",0,695.4356213000137,697.4352503999835,,,,,,,,,,,,,999,m,2,99,r,TEST,2021_Aug_20_1203,distractmap,2020.2.10,59.66654756327341,['Abdomen'],
1,"[-0.2, 0.2]",0,,,,,0,7,7,7,,,,,,,,,,,,,,,,,,,,,,None,None,"[0, 0, 0]",697.4523383999476,699.4519637000049,697.4523383999476,698.452320399927,698.4355885999976,699.4356085000327,"[0, 0, 0]",0,697.4523383999476,699.4519637000049,,,,,,,,,,,,,999,m,2,99,r,TEST,2021_Aug_20_1203,distractmap,2020.2.10,59.66654756327341,['Abdomen'],
6,"[0.2, 0]",0,,,,,0,8,8,8,,,,,,,,,,,,,,,,,,,,,,None,None,"[0, 0, 0]",699.4689975000219,701.468622299959,699.4689975000219,700.4689792999998,700.4524027999723,701.4522683999967,"[0, 0, 0]",0,699.4689975000219,701.468622299959,,,,,,,,,,,,,999,m,2,99,r,TEST,2021_Aug_20_1203,distractmap,2020.2.10,59.66654756327341,['Abdomen'],
1,"[-0.2, 0.2]",1,,,,,0,9,9,9,,,,,,,,,,,,,,,,,,,,,,None,None,"[0, 0, 0]",701.4858353999443,703.4852872999618,701.4858353999443,702.4856364999432,702.4689669000218,703.4689818000188,"[0, 0, 0]",0,701.4858353999443,703.4852872999618,,,,,,,,,,,,,999,m,2,99,r,TEST,2021_Aug_20_1203,distractmap,2020.2.10,59.66654756327341,['Abdomen'],
,,,,,,,,,,,703.5020277999574,None,,,,,,,,,,,,,,,,,,,,,,,,,,,,,,,,,,,,,,,,,50.0,707.7936038300395,,,999,m,2,99,r,TEST,2021_Aug_20_1203,distractmap,2020.2.10,59.66654756327341,['Abdomen'],
9,"[0.2, -0.2]",None,0,0,0,0,,,,,714.669430000009,None,721.067798199947,None,721.067798199947,722.0691604999593,722.0524750000332,None,1,None,None,"[0, 0, 0]",,,721.067798199947,None,,,,,,,,,,,,,,,,,,,,,,,,,,"[0, 0, 0]",,,0.014887569937855005,5.012803870020434,999,m,2,99,r,TEST,2021_Aug_20_1203,distractmap,2020.2.10,59.66654756327341,['Abdomen'],
9,"[0.2, -0.2]",1,0,1,1,1,,,,,,,723.0525033000158,None,723.0525033000158,724.0525014000013,724.0358400000259,725.0357755000005,0,None,None,"[0, 0, 0]",,,723.0525033000158,None,,,,,,,,,,,,,,,,,,,,,,,,,,"[0, 0, 0]",,,,,999,m,2,99,r,TEST,2021_Aug_20_1203,distractmap,2020.2.10,59.66654756327341,['Abdomen'],
9,"[0.2, -0.2]",1,0,2,2,2,,,,,,,725.0525615999941,725.0525615999941,725.0525615999941,726.0525171000045,726.0358799999813,727.0358748999424,0,None,None,"[0, 0, 0]",,,725.0525615999941,725.0525615999941,,,,,,,,,,,,,,,,,,,,,,,,,,"[0, 0, 0]",,,,,999,m,2,99,r,TEST,2021_Aug_20_1203,distractmap,2020.2.10,59.66654756327341,['Abdomen'],
3,"[0.2, 0.2]",0,0,3,3,3,,,,,,,727.0525559999514,727.0525559999514,727.0525559999514,728.0525630000047,728.0358550000237,729.0358837000094,0,None,None,"[0, 0, 0]",,,727.0525559999514,727.0525559999514,,,,,,,,,,,,,,,,,,,,,,,,,,"[0, 0, 0]",,,,,999,m,2,99,r,TEST,2021_Aug_20_1203,distractmap,2020.2.10,59.66654756327341,['Abdomen'],
5,"[0, 0]",0,0,4,4,4,,,,,,,729.1028736999724,729.1028736999724,729.1028736999724,730.1026850999333,730.0858922000043,None,0,None,None,"[0, 0, 0]",,,729.1028736999724,729.1028736999724,,,,,,,,,,,,,,,,,,,,,,,,,,"[0, 0, 0]",,,,,999,m,2,99,r,TEST,2021_Aug_20_1203,distractmap,2020.2.10,59.66654756327341,['Abdomen'],
4,"[-0.2, 0]",0,0,5,5,5,,,,,,,731.0692343999399,None,731.0692343999399,732.0691278999439,732.0524474999402,733.0525389999384,0,None,None,"[0, 0, 0]",,,731.0692343999399,None,,,,,,,,,,,,,,,,,,,,,,,,,,"[0, 0, 0]",,,,,999,m,2,99,r,TEST,2021_Aug_20_1203,distractmap,2020.2.10,59.66654756327341,['Abdomen'],
9,"[0.2, -0.2]",0,0,6,6,6,,,,,,,733.069297799957,733.069297799957,733.069297799957,734.0692254999885,734.0526387999998,735.0525810000254,0,None,None,"[0, 0, 0]",,,733.069297799957,733.069297799957,,,,,,,,,,,,,,,,,,,,,,,,,,"[0, 0, 0]",,,,,999,m,2,99,r,TEST,2021_Aug_20_1203,distractmap,2020.2.10,59.66654756327341,['Abdomen'],
6,"[0.2, 0]",0,0,7,7,7,,,,,,,735.069297799957,735.069297799957,735.069297799957,736.0693253999343,736.0526039999677,737.0525757999858,0,None,None,"[0, 0, 0]",,,735.069297799957,735.069297799957,,,,,,,,,,,,,,,,,,,,,,,,,,"[0, 0, 0]",,,,,999,m,2,99,r,TEST,2021_Aug_20_1203,distractmap,2020.2.10,59.66654756327341,['Abdomen'],
2,"[0, 0.2]",0,0,8,8,8,,,,,,,737.0693029999966,737.0693029999966,737.0693029999966,738.0692993999692,738.0526445999276,739.0526219999883,0,None,None,"[0, 0, 0]",,,737.0693029999966,737.0693029999966,,,,,,,,,,,,,,,,,,,,,,,,,,"[0, 0, 0]",,,,,999,m,2,99,r,TEST,2021_Aug_20_1203,distractmap,2020.2.10,59.66654756327341,['Abdomen'],
2,"[0, 0.2]",1,0,9,9,9,,,,,,,739.069346299977,739.069346299977,739.069346299977,740.069306600024,740.0526952999644,741.0526368999854,0,None,None,"[0, 0, 0]",,,739.069346299977,739.069346299977,,,,,,,,,,,,,,,,,,,,,,,,,,"[0, 0, 0]",,,,,999,m,2,99,r,TEST,2021_Aug_20_1203,distractmap,2020.2.10,59.66654756327341,['Abdomen'],
,,,,,,,,,,,741.0689261999214,None,,,,,,,,,,,,,,,,,,,,,,,,,,,,,,,,,,,,,,,,,50.0,747.8614415300544,,,999,m,2,99,r,TEST,2021_Aug_20_1203,distractmap,2020.2.10,59.66654756327341,['Abdomen'],
2,"[0, 0.2]",None,0,0,0,0,,,,,754.8192535999697,None,761.10141439992,None,761.10141439992,762.1026332000038,762.0693166999845,763.0692959999433,1,None,None,"[0, 0, 0]",,,761.10141439992,None,,,,,,,,,,,,,,,,,,,,,,,,,,"[0, 0, 0]",,,0.013844469911418855,5.010408869944513,999,m,2,99,r,TEST,2021_Aug_20_1203,distractmap,2020.2.10,59.66654756327341,['Abdomen'],
8,"[0, -0.2]",0,0,1,1,1,,,,,,,763.0860035999212,None,763.0860035999212,764.0861861000303,764.0695018999977,765.069415200036,0,None,None,"[0, 0, 0]",,,763.0860035999212,None,,,,,,,,,,,,,,,,,,,,,,,,,,"[0, 0, 0]",,,,,999,m,2,99,r,TEST,2021_Aug_20_1203,distractmap,2020.2.10,59.66654756327341,['Abdomen'],
1,"[-0.2, 0.2]",0,0,2,2,2,,,,,,,765.0861716000363,765.0861716000363,765.0861716000363,766.086210599984,766.069506400032,767.0694711999968,0,None,None,"[0, 0, 0]",,,765.0861716000363,765.0861716000363,,,,,,,,,,,,,,,,,,,,,,,,,,"[0, 0, 0]",,,,,999,m,2,99,r,TEST,2021_Aug_20_1203,distractmap,2020.2.10,59.66654756327341,['Abdomen'],
2,"[0, 0.2]",0,0,3,3,3,,,,,,,767.0862852999708,767.0862852999708,767.0862852999708,768.0861301999539,768.0694556999952,769.0695250999415,0,None,None,"[0, 0, 0]",,,767.0862852999708,767.0862852999708,,,,,,,,,,,,,,,,,,,,,,,,,,"[0, 0, 0]",,,,,999,m,2,99,r,TEST,2021_Aug_20_1203,distractmap,2020.2.10,59.66654756327341,['Abdomen'],
2,"[0, 0.2]",1,0,4,4,4,,,,,,,769.1513919000281,769.1513919000281,769.1513919000281,770.152961099986,770.1361520999344,None,0,None,None,"[0, 0, 0]",,,769.1513919000281,769.1513919000281,,,,,,,,,,,,,,,,,,,,,,,,,,"[0, 0, 0]",,,,,999,m,2,99,r,TEST,2021_Aug_20_1203,distractmap,2020.2.10,59.66654756327341,['Abdomen'],
7,"[-0.2, -0.2]",0,0,5,5,5,,,,,,,771.1028898999793,None,771.1028898999793,772.1027949999552,772.086012899992,773.0861367000034,0,None,None,"[0, 0, 0]",,,771.1028898999793,None,,,,,,,,,,,,,,,,,,,,,,,,,,"[0, 0, 0]",,,,,999,m,2,99,r,TEST,2021_Aug_20_1203,distractmap,2020.2.10,59.66654756327341,['Abdomen'],
9,"[0.2, -0.2]",0,0,6,6,6,,,,,,,773.1028995999368,773.1028995999368,773.1028995999368,774.102789400029,774.0860722999787,775.086241299985,0,None,None,"[0, 0, 0]",,,773.1028995999368,773.1028995999368,,,,,,,,,,,,,,,,,,,,,,,,,,"[0, 0, 0]",,,,,999,m,2,99,r,TEST,2021_Aug_20_1203,distractmap,2020.2.10,59.66654756327341,['Abdomen'],
9,"[0.2, -0.2]",1,0,7,7,7,,,,,,,775.1029448999325,775.1029448999325,775.1029448999325,776.1028910999885,776.0861568999244,777.0862539999653,0,None,None,"[0, 0, 0]",,,775.1029448999325,775.1029448999325,,,,,,,,,,,,,,,,,,,,,,,,,,"[0, 0, 0]",,,,,999,m,2,99,r,TEST,2021_Aug_20_1203,distractmap,2020.2.10,59.66654756327341,['Abdomen'],
4,"[-0.2, 0]",0,0,8,8,8,,,,,,,777.1029609999387,777.1029609999387,777.1029609999387,778.1029665999813,778.086272399989,779.086280599935,0,None,None,"[0, 0, 0]",,,777.1029609999387,777.1029609999387,,,,,,,,,,,,,,,,,,,,,,,,,,"[0, 0, 0]",,,,,999,m,2,99,r,TEST,2021_Aug_20_1203,distractmap,2020.2.10,59.66654756327341,['Abdomen'],
5,"[0, 0]",0,0,9,9,9,,,,,,,779.1030771000078,779.1030771000078,779.1030771000078,780.1029716000194,780.0862739000004,781.086159999948,0,None,None,"[0, 0, 0]",,,779.1030771000078,779.1030771000078,,,,,,,,,,,,,,,,,,,,,,,,,,"[0, 0, 0]",,,,,999,m,2,99,r,TEST,2021_Aug_20_1203,distractmap,2020.2.10,59.66654756327341,['Abdomen'],
,,,,,,,,,,,781.1025771999266,None,,,,,,,,,,,,,,,,,,,,,,,,,,,,,,,,,,,,,,,,,50.0,790.3946644300595,,,999,m,2,99,r,TEST,2021_Aug_20_1203,distractmap,2020.2.10,59.66654756327341,['Abdomen'],
2,"[0, 0.2]",None,0,0,0,0,,,,,797.386350799934,None,801.1350558999693,None,801.1350558999693,802.1365271999966,802.1197596000275,None,1,None,None,"[0, 0, 0]",,,801.1350558999693,None,,,,,,,,,,,,,,,,,,,,,,,,,,"[0, 0, 0]",,,0.014463969971984625,5.011832569958642,999,m,2,99,r,TEST,2021_Aug_20_1203,distractmap,2020.2.10,59.66654756327341,['Abdomen'],
2,"[0, 0.2]",1,0,1,1,1,,,,,,,803.1198243999388,None,803.1198243999388,804.1197931999341,804.1029899999266,805.103076600004,0,None,None,"[0, 0, 0]",,,803.1198243999388,None,,,,,,,,,,,,,,,,,,,,,,,,,,"[0, 0, 0]",,,,,999,m,2,99,r,TEST,2021_Aug_20_1203,distractmap,2020.2.10,59.66654756327341,['Abdomen'],
1,"[-0.2, 0.2]",0,0,2,2,2,,,,,,,805.1198530999245,805.1198530999245,805.1198530999245,806.1197987999767,806.1031771999551,807.1031683000037,0,None,None,"[0, 0, 0]",,,805.1198530999245,805.1198530999245,,,,,,,,,,,,,,,,,,,,,,,,,,"[0, 0, 0]",,,,,999,m,2,99,r,TEST,2021_Aug_20_1203,distractmap,2020.2.10,59.66654756327341,['Abdomen'],
2,"[0, 0.2]",0,0,3,3,3,,,,,,,807.1198893999681,807.1198893999681,807.1198893999681,808.1198529999238,808.1030781000154,809.1031860000221,0,None,None,"[0, 0, 0]",,,807.1198893999681,807.1198893999681,,,,,,,,,,,,,,,,,,,,,,,,,,"[0, 0, 0]",,,,,999,m,2,99,r,TEST,2021_Aug_20_1203,distractmap,2020.2.10,59.66654756327341,['Abdomen'],
2,"[0, 0.2]",1,0,4,4,4,,,,,,,809.1535343999276,809.1535343999276,809.1535343999276,810.1533021000214,810.1364909999538,None,0,None,None,"[0, 0, 0]",,,809.1535343999276,809.1535343999276,,,,,,,,,,,,,,,,,,,,,,,,,,"[0, 0, 0]",,,,,999,m,2,99,r,TEST,2021_Aug_20_1203,distractmap,2020.2.10,59.66654756327341,['Abdomen'],
4,"[-0.2, 0]",0,0,5,5,5,,,,,,,811.1365873999894,None,811.1365873999894,812.1365104999859,812.119893199997,813.1198590999702,0,None,None,"[0, 0, 0]",,,811.1365873999894,None,,,,,,,,,,,,,,,,,,,,,,,,,,"[0, 0, 0]",,,,,999,m,2,99,r,TEST,2021_Aug_20_1203,distractmap,2020.2.10,59.66654756327341,['Abdomen'],
6,"[0.2, 0]",0,0,6,6,6,,,,,,,813.1365653999383,813.1365653999383,813.1365653999383,814.1365456000203,814.1198364000302,815.1198869999498,0,None,None,"[0, 0, 0]",,,813.1365653999383,813.1365653999383,,,,,,,,,,,,,,,,,,,,,,,,,,"[0, 0, 0]",,,,,999,m,2,99,r,TEST,2021_Aug_20_1203,distractmap,2020.2.10,59.66654756327341,['Abdomen'],
8,"[0, -0.2]",0,0,7,7,7,,,,,,,815.136567599955,815.136567599955,815.136567599955,816.1366108999355,816.1199479999486,817.1198703999398,0,None,None,"[0, 0, 0]",,,815.136567599955,815.136567599955,,,,,,,,,,,,,,,,,,,,,,,,,,"[0, 0, 0]",,,,,999,m,2,99,r,TEST,2021_Aug_20_1203,distractmap,2020.2.10,59.66654756327341,['Abdomen'],
9,"[0.2, -0.2]",0,0,8,8,8,,,,,,,817.1365941999247,817.1365941999247,817.1365941999247,818.1364829000086,818.11995079997,819.1199035999598,0,None,None,"[0, 0, 0]",,,817.1365941999247,817.1365941999247,,,,,,,,,,,,,,,,,,,,,,,,,,"[0, 0, 0]",,,,,999,m,2,99,r,TEST,2021_Aug_20_1203,distractmap,2020.2.10,59.66654756327341,['Abdomen'],
9,"[0.2, -0.2]",1,0,9,9,9,,,,,,,819.1366194000002,819.1366194000002,819.1366194000002,820.136609399924,820.119939199998,821.1198964000214,0,None,None,"[0, 0, 0]",,,819.1366194000002,819.1366194000002,,,,,,,,,,,,,,,,,,,,,,,,,,"[0, 0, 0]",,,,,999,m,2,99,r,TEST,2021_Aug_20_1203,distractmap,2020.2.10,59.66654756327341,['Abdomen'],
,,,,,,,,,,,821.1362626999617,None,,,,,,,,,,,,,,,,,,,,,,,,,,,,,,,,,,,,,,,,,50.0,825.4287036301102,,,999,m,2,99,r,TEST,2021_Aug_20_1203,distractmap,2020.2.10,59.66654756327341,['Abdomen'],
4,"[-0.2, 0]",None,0,0,0,0,,,,,831.6531473000068,None,841.1686792999972,None,841.1686792999972,842.1700979999732,842.1534570999211,None,1,None,None,"[0, 0, 0]",,,841.1686792999972,None,,,,,,,,,,,,,,,,,,,,,,,,,,"[0, 0, 0]",,,0.014088969910517335,5.011111269937828,999,m,2,99,r,TEST,2021_Aug_20_1203,distractmap,2020.2.10,59.66654756327341,['Abdomen'],
7,"[-0.2, -0.2]",0,0,1,1,1,,,,,,,843.1535186999245,None,843.1535186999245,844.1534383000107,844.1368044000119,845.1369848999893,0,None,None,"[0, 0, 0]",,,843.1535186999245,None,,,,,,,,,,,,,,,,,,,,,,,,,,"[0, 0, 0]",,,,,999,m,2,99,r,TEST,2021_Aug_20_1203,distractmap,2020.2.10,59.66654756327341,['Abdomen'],
7,"[-0.2, -0.2]",1,0,2,2,2,,,,,,,845.1536539000226,845.1536539000226,845.1536539000226,846.1534635999706,846.1367709999904,847.1368229000363,0,None,None,"[0, 0, 0]",,,845.1536539000226,845.1536539000226,,,,,,,,,,,,,,,,,,,,,,,,,,"[0, 0, 0]",,,,,999,m,2,99,r,TEST,2021_Aug_20_1203,distractmap,2020.2.10,59.66654756327341,['Abdomen'],
4,"[-0.2, 0]",0,0,3,3,3,,,,,,,847.1534854000201,847.1534854000201,847.1534854000201,848.1534819999943,848.1368435999611,849.1367457000306,0,None,None,"[0, 0, 0]",,,847.1534854000201,847.1534854000201,,,,,,,,,,,,,,,,,,,,,,,,,,"[0, 0, 0]",,,,,999,m,2,99,r,TEST,2021_Aug_20_1203,distractmap,2020.2.10,59.66654756327341,['Abdomen'],
8,"[0, -0.2]",0,0,4,4,4,,,,,,,849.2202829000307,849.2202829000307,849.2202829000307,850.2203183999518,850.1868044999428,None,0,None,None,"[0, 0, 0]",,,849.2202829000307,849.2202829000307,,,,,,,,,,,,,,,,,,,,,,,,,,"[0, 0, 0]",,,,,999,m,2,99,r,TEST,2021_Aug_20_1203,distractmap,2020.2.10,59.66654756327341,['Abdomen'],
4,"[-0.2, 0]",0,0,5,5,5,,,,,,,851.1702160999412,None,851.1702160999412,852.1701796000125,852.1535226999549,853.1534984000027,0,None,None,"[0, 0, 0]",,,851.1702160999412,None,,,,,,,,,,,,,,,,,,,,,,,,,,"[0, 0, 0]",,,,,999,m,2,99,r,TEST,2021_Aug_20_1203,distractmap,2020.2.10,59.66654756327341,['Abdomen'],
7,"[-0.2, -0.2]",0,0,6,6,6,,,,,,,853.170182999922,853.170182999922,853.170182999922,854.1702063999837,854.1535036999267,855.1535307000158,0,None,None,"[0, 0, 0]",,,853.170182999922,853.170182999922,,,,,,,,,,,,,,,,,,,,,,,,,,"[0, 0, 0]",,,,,999,m,2,99,r,TEST,2021_Aug_20_1203,distractmap,2020.2.10,59.66654756327341,['Abdomen'],
6,"[0.2, 0]",0,0,7,7,7,,,,,,,855.1702177999541,855.1702177999541,855.1702177999541,856.1702100000111,856.1535687999567,857.1535490999231,0,None,None,"[0, 0, 0]",,,855.1702177999541,855.1702177999541,,,,,,,,,,,,,,,,,,,,,,,,,,"[0, 0, 0]",,,,,999,m,2,99,r,TEST,2021_Aug_20_1203,distractmap,2020.2.10,59.66654756327341,['Abdomen'],
6,"[0.2, 0]",1,0,8,8,8,,,,,,,857.170199999935,857.170199999935,857.170199999935,858.1702387999976,858.153583599953,859.1535610000137,0,None,None,"[0, 0, 0]",,,857.170199999935,857.170199999935,,,,,,,,,,,,,,,,,,,,,,,,,,"[0, 0, 0]",,,,,999,m,2,99,r,TEST,2021_Aug_20_1203,distractmap,2020.2.10,59.66654756327341,['Abdomen'],
1,"[-0.2, 0.2]",0,0,9,9,9,,,,,,,859.1703055999242,859.1703055999242,859.1703055999242,860.1702197999693,860.1535965999356,861.1535632000305,0,None,None,"[0, 0, 0]",,,859.1703055999242,859.1703055999242,,,,,,,,,,,,,,,,,,,,,,,,,,"[0, 0, 0]",,,,,999,m,2,99,r,TEST,2021_Aug_20_1203,distractmap,2020.2.10,59.66654756327341,['Abdomen'],
,,,,,,,,,,,861.1699664000189,None,,,,,,,,,,,,,,,,,,,,,,,,,,,,,,,,,,,,,,,,,50.0,867.9616661301116,,,999,m,2,99,r,TEST,2021_Aug_20_1203,distractmap,2020.2.10,59.66654756327341,['Abdomen'],
,,,,,,,,,,,,,,,,,,,,,,,,,,,,,,,,,,,,,,,,,,,,,,,,,,,,,,,0.01469416986219585,5.012333369930275,,,,,,,,,,,,
