square,location,corrAns,runSeq,TaskT1Loop.thisRepN,TaskT1Loop.thisTrialN,TaskT1Loop.thisN,TaskT1Loop.thisIndex,trials.thisRepN,trials.thisTrialN,trials.thisN,trials.thisIndex,trials_2.thisRepN,trials_2.thisTrialN,trials_2.thisN,trials_2.thisIndex,runLoop.thisRepN,runLoop.thisTrialN,runLoop.thisN,runLoop.thisIndex,fixation_1.started,fixation_1.stopped,grid_lines.started,grid_lines.stopped,target_square.started,target_square.stopped,fixation_2.started,fixation_2.stopped,response.corr,response.x,response.y,response.leftButton,response.click_left,response.click_right,response.started,response.stopped,ScoreReportText.started,ScoreReportText.stopped,ScoreReportResponse.keys,ScoreReportResponse.started,ScoreReportResponse.stopped,response_2.x,response_2.y,response_2.leftButton,grid_lines_2.started,grid_lines_2.stopped,target_square_2.started,target_square_2.stopped,fixation_3.started,fixation_3.stopped,response_2.click,response_2.corr,response_2.started,response_2.stopped,BodySiteInstructionText.started,BodySiteImg.started,BodySiteImg.stopped,BodySiteInstructionRead.keys,BodySiteInstructionRead.rt,BodySiteInstructionRead.started,BodySiteInstructionRead.stopped,response.click,IntensityRating.response,IntensityRating.rt,IntensityRating.started,IntensityRating.stopped,response_2.rt_left,response_2.rt_right,subject number,gender,bodymap first- or second-half (1 or 2),session,handedness,scanner,date,expName,psychopyVersion,frameRate,body_site_order,
6,"[0.2, 0]",None,,0,0,0,0,0,0,0,0,,,,,,,,,28.142830600001616,None,29.188729900022736,None,29.188729900022736,30.193939000018872,30.17738570002257,None,1,-0.17222222222222222,0.1638888888888889,"[0, 0, 0]",0,0,29.188729900022736,None,,,,,,,,,,,,,,,,,,,,,,,,,,,,,,,,,999,m,2,99,r,TEST,2021_Aug_07_1448,WASABI distractmap,2020.2.10,59.79752557858937,"['Left Arm', 'Left Face', 'Right Arm', 'Right Face']",
6,"[0.2, 0]",1.0,,0,0,0,0,0,1,1,1,,,,,,,,,,,31.161042800027644,None,31.161042800027644,32.16158560002805,32.144806600001175,None,1,-0.17222222222222222,0.1638888888888889,"[0, 0, 0]",0,0,31.161042800027644,None,,,,,,,,,,,,,,,,,,,,,,,,,,,,,,,,,999,m,2,99,r,TEST,2021_Aug_07_1448,WASABI distractmap,2020.2.10,59.79752557858937,"['Left Arm', 'Left Face', 'Right Arm', 'Right Face']",
2,"[0, 0.2]",0.0,,0,0,0,0,0,2,2,2,,,,,,,,,,,33.14529610000318,None,33.14529610000318,34.14592900002026,34.12913670000853,35.12968670000555,1,-0.17222222222222222,0.1638888888888889,"[0, 0, 0]",0,0,33.14529610000318,None,,,,,,,,,,,,,,,,,,,,,,,,,,,,,,,,,999,m,2,99,r,TEST,2021_Aug_07_1448,WASABI distractmap,2020.2.10,59.79752557858937,"['Left Arm', 'Left Face', 'Right Arm', 'Right Face']",
9,"[0.2, -0.2]",0.0,,0,0,0,0,0,3,3,3,,,,,,,,,,,35.14641260000644,None,35.14641260000644,36.14687280001817,36.13021120001213,37.130701700021746,1,-0.17222222222222222,0.1638888888888889,"[0, 0, 0]",0,0,35.14641260000644,None,,,,,,,,,,,,,,,,,,,,,,,,,,,,,,,,,999,m,2,99,r,TEST,2021_Aug_07_1448,WASABI distractmap,2020.2.10,59.79752557858937,"['Left Arm', 'Left Face', 'Right Arm', 'Right Face']",
9,"[0.2, -0.2]",1.0,,0,0,0,0,0,4,4,4,,,,,,,,,,,37.147351100022206,None,37.147351100022206,38.14777610002784,38.13110120000783,39.1316542000277,1,-0.17222222222222222,0.1638888888888889,"[0, 0, 0]",0,0,37.147351100022206,None,,,,,,,,,,,,,,,,,,,,,,,,,,,,,,,,,999,m,2,99,r,TEST,2021_Aug_07_1448,WASABI distractmap,2020.2.10,59.79752557858937,"['Left Arm', 'Left Face', 'Right Arm', 'Right Face']",
6,"[0.2, 0]",0.0,,0,0,0,0,0,5,5,5,,,,,,,,,,,39.14828310001758,None,39.14828310001758,40.14892890001647,40.13211950002005,41.13264710002113,1,-0.17222222222222222,0.1638888888888889,"[0, 0, 0]",0,0,39.14828310001758,None,,,,,,,,,,,,,,,,,,,,,,,,,,,,,,,,,999,m,2,99,r,TEST,2021_Aug_07_1448,WASABI distractmap,2020.2.10,59.79752557858937,"['Left Arm', 'Left Face', 'Right Arm', 'Right Face']",
4,"[-0.2, 0]",0.0,,0,0,0,0,0,6,6,6,,,,,,,,,,,41.14934210001957,None,41.14934210001957,42.14981040000566,42.133147000015015,43.13366990000941,1,-0.17222222222222222,0.1638888888888889,"[0, 0, 0]",0,0,41.14934210001957,None,,,,,,,,,,,,,,,,,,,,,,,,,,,,,,,,,999,m,2,99,r,TEST,2021_Aug_07_1448,WASABI distractmap,2020.2.10,59.79752557858937,"['Left Arm', 'Left Face', 'Right Arm', 'Right Face']",
3,"[0.2, 0.2]",0.0,,0,0,0,0,0,7,7,7,,,,,,,,,,,43.15032160002738,None,43.15032160002738,44.15084570000181,44.13413260001107,45.13465290001477,1,-0.17222222222222222,0.1638888888888889,"[0, 0, 0]",0,0,43.15032160002738,None,,,,,,,,,,,,,,,,,,,,,,,,,,,,,,,,,999,m,2,99,r,TEST,2021_Aug_07_1448,WASABI distractmap,2020.2.10,59.79752557858937,"['Left Arm', 'Left Face', 'Right Arm', 'Right Face']",
3,"[0.2, 0.2]",1.0,,0,0,0,0,0,8,8,8,,,,,,,,,,,45.151274500007275,None,45.151274500007275,46.15182480000658,46.13514180001221,47.135782299999846,1,-0.17222222222222222,0.1638888888888889,"[0, 0, 0]",0,0,45.151274500007275,None,,,,,,,,,,,,,,,,,,,,,,,,,,,,,,,,,999,m,2,99,r,TEST,2021_Aug_07_1448,WASABI distractmap,2020.2.10,59.79752557858937,"['Left Arm', 'Left Face', 'Right Arm', 'Right Face']",
8,"[0, -0.2]",0.0,,0,0,0,0,0,9,9,9,,,,,,,,,,,47.15236940002069,None,47.15236940002069,48.152868100005435,48.13616800002637,49.13668620001408,1,-0.17222222222222222,0.1638888888888889,"[0, 0, 0]",0,0,47.15236940002069,None,,,,,,,,,,,,,,,,,,,,,,,,,,,,,,,,,999,m,2,99,r,TEST,2021_Aug_07_1448,WASABI distractmap,2020.2.10,59.79752557858937,"['Left Arm', 'Left Face', 'Right Arm', 'Right Face']",
1,"[-0.2, 0.2]",0.0,,0,0,0,0,0,10,10,10,,,,,,,,,,,49.153311300004134,None,49.153311300004134,50.15389510002569,50.137141500017606,51.13767680001911,1,-0.17222222222222222,0.1638888888888889,"[0, 0, 0]",0,0,49.153311300004134,None,,,,,,,,,,,,,,,,,,,,,,,,,,,,,,,,,999,m,2,99,r,TEST,2021_Aug_07_1448,WASABI distractmap,2020.2.10,59.79752557858937,"['Left Arm', 'Left Face', 'Right Arm', 'Right Face']",
2,"[0, 0.2]",0.0,,0,0,0,0,0,11,11,11,,,,,,,,,,,51.15432890001102,None,51.15432890001102,52.154855400003726,52.13817530000233,53.138698900002055,1,-0.17222222222222222,0.1638888888888889,"[0, 0, 0]",0,0,51.15432890001102,None,,,,,,,,,,,,,,,,,,,,,,,,,,,,,,,,,999,m,2,99,r,TEST,2021_Aug_07_1448,WASABI distractmap,2020.2.10,59.79752557858937,"['Left Arm', 'Left Face', 'Right Arm', 'Right Face']",
4,"[-0.2, 0]",0.0,,0,0,0,0,0,12,12,12,,,,,,,,,,,53.15533500001766,None,53.15533500001766,54.15584600000875,54.13916090002749,55.13970930001233,1,-0.17222222222222222,0.1638888888888889,"[0, 0, 0]",0,0,53.15533500001766,None,,,,,,,,,,,,,,,,,,,,,,,,,,,,,,,,,999,m,2,99,r,TEST,2021_Aug_07_1448,WASABI distractmap,2020.2.10,59.79752557858937,"['Left Arm', 'Left Face', 'Right Arm', 'Right Face']",
4,"[-0.2, 0]",1.0,,0,0,0,0,0,13,13,13,,,,,,,,,,,55.156411200005095,None,55.156411200005095,56.156830500025535,56.14016570002423,57.14068810001481,1,-0.17222222222222222,0.1638888888888889,"[0, 0, 0]",0,0,55.156411200005095,None,,,,,,,,,,,,,,,,,,,,,,,,,,,,,,,,,999,m,2,99,r,TEST,2021_Aug_07_1448,WASABI distractmap,2020.2.10,59.79752557858937,"['Left Arm', 'Left Face', 'Right Arm', 'Right Face']",
8,"[0, -0.2]",0.0,,0,0,0,0,0,14,14,14,,,,,,,,,,,57.157359200005885,None,57.157359200005885,58.15784410000197,58.14113260002341,59.14168050000444,1,-0.17222222222222222,0.1638888888888889,"[0, 0, 0]",0,0,57.157359200005885,None,,,,,,,,,,,,,,,,,,,,,,,,,,,,,,,,,999,m,2,99,r,TEST,2021_Aug_07_1448,WASABI distractmap,2020.2.10,59.79752557858937,"['Left Arm', 'Left Face', 'Right Arm', 'Right Face']",
5,"[0, 0]",0.0,,0,0,0,0,0,15,15,15,,,,,,,,,,,59.15834910000558,None,59.15834910000558,60.15884900002857,60.142167600017274,61.14283010002691,1,-0.17222222222222222,0.1638888888888889,"[0, 0, 0]",0,0,59.15834910000558,None,,,,,,,,,,,,,,,,,,,,,,,,,,,,,,,,,999,m,2,99,r,TEST,2021_Aug_07_1448,WASABI distractmap,2020.2.10,59.79752557858937,"['Left Arm', 'Left Face', 'Right Arm', 'Right Face']",
5,"[0, 0]",1.0,,0,0,0,0,0,16,16,16,,,,,,,,,,,61.15949330001604,None,61.15949330001604,62.15985410002759,62.14320150000276,63.143699800013565,1,-0.17222222222222222,0.1638888888888889,"[0, 0, 0]",0,0,61.15949330001604,None,,,,,,,,,,,,,,,,,,,,,,,,,,,,,,,,,999,m,2,99,r,TEST,2021_Aug_07_1448,WASABI distractmap,2020.2.10,59.79752557858937,"['Left Arm', 'Left Face', 'Right Arm', 'Right Face']",
1,"[-0.2, 0.2]",0.0,,0,0,0,0,0,17,17,17,,,,,,,,,,,63.160349200014025,None,63.160349200014025,64.16085260000546,64.14416900000651,65.14471790002426,1,-0.17222222222222222,0.1638888888888889,"[0, 0, 0]",0,0,63.160349200014025,None,,,,,,,,,,,,,,,,,,,,,,,,,,,,,,,,,999,m,2,99,r,TEST,2021_Aug_07_1448,WASABI distractmap,2020.2.10,59.79752557858937,"['Left Arm', 'Left Face', 'Right Arm', 'Right Face']",
3,"[0.2, 0.2]",0.0,,0,0,0,0,0,18,18,18,,,,,,,,,,,65.16138640002464,None,65.16138640002464,66.161948700028,66.14519120001933,None,1,-0.17222222222222222,0.1638888888888889,"[0, 0, 0]",0,0,65.16138640002464,None,,,,,,,,,,,,,,,,,,,,,,,,,,,,,,,,,999,m,2,99,r,TEST,2021_Aug_07_1448,WASABI distractmap,2020.2.10,59.79752557858937,"['Left Arm', 'Left Face', 'Right Arm', 'Right Face']",
6,"[0.2, 0]",0.0,,0,0,0,0,0,19,19,19,,,,,,,,,,,67.14569930001744,None,67.14569930001744,68.14614100000472,68.12949270001263,69.13007110002218,1,-0.17222222222222222,0.1638888888888889,"[0, 0, 0]",0,0,67.14569930001744,None,,,,,,,,,,,,,,,,,,,,,,,,,,,,,,,,,999,m,2,99,r,TEST,2021_Aug_07_1448,WASABI distractmap,2020.2.10,59.79752557858937,"['Left Arm', 'Left Face', 'Right Arm', 'Right Face']",
1,"[-0.2, 0.2]",0.0,,0,0,0,0,0,20,20,20,,,,,,,,,,,69.1467087000201,None,69.1467087000201,70.14720770000713,70.13051470002392,71.13095300001442,1,-0.17222222222222222,0.1638888888888889,"[0, 0, 0]",0,0,69.1467087000201,None,,,,,,,,,,,,,,,,,,,,,,,,,,,,,,,,,999,m,2,99,r,TEST,2021_Aug_07_1448,WASABI distractmap,2020.2.10,59.79752557858937,"['Left Arm', 'Left Face', 'Right Arm', 'Right Face']",
1,"[-0.2, 0.2]",1.0,,0,0,0,0,0,21,21,21,,,,,,,,,,,71.14769390001311,None,71.14769390001311,72.14820010002586,72.13151650002692,73.1320345000131,1,-0.17222222222222222,0.1638888888888889,"[0, 0, 0]",0,0,71.14769390001311,None,,,,,,,,,,,,,,,,,,,,,,,,,,,,,,,,,999,m,2,99,r,TEST,2021_Aug_07_1448,WASABI distractmap,2020.2.10,59.79752557858937,"['Left Arm', 'Left Face', 'Right Arm', 'Right Face']",
1,"[-0.2, 0.2]",1.0,,0,0,0,0,0,22,22,22,,,,,,,,,,,73.14871420001145,None,73.14871420001145,74.14920350001194,74.13256250001723,75.1329892000067,1,-0.17222222222222222,0.1638888888888889,"[0, 0, 0]",0,0,73.14871420001145,None,,,,,,,,,,,,,,,,,,,,,,,,,,,,,,,,,999,m,2,99,r,TEST,2021_Aug_07_1448,WASABI distractmap,2020.2.10,59.79752557858937,"['Left Arm', 'Left Face', 'Right Arm', 'Right Face']",
3,"[0.2, 0.2]",0.0,,0,0,0,0,0,23,23,23,,,,,,,,,,,75.14963260001969,None,75.14963260001969,76.15019440001925,76.13352690002648,77.134045600018,1,-0.17222222222222222,0.1638888888888889,"[0, 0, 0]",0,0,75.14963260001969,None,,,,,,,,,,,,,,,,,,,,,,,,,,,,,,,,,999,m,2,99,r,TEST,2021_Aug_07_1448,WASABI distractmap,2020.2.10,59.79752557858937,"['Left Arm', 'Left Face', 'Right Arm', 'Right Face']",
2,"[0, 0.2]",0.0,,0,0,0,0,0,24,24,24,,,,,,,,,,,77.15068500000052,None,77.15068500000052,78.15117780002765,78.1346060000069,79.13501000002725,1,-0.17222222222222222,0.1638888888888889,"[0, 0, 0]",0,0,77.15068500000052,None,,,,,,,,,,,,,,,,,,,,,,,,,,,,,,,,,999,m,2,99,r,TEST,2021_Aug_07_1448,WASABI distractmap,2020.2.10,59.79752557858937,"['Left Arm', 'Left Face', 'Right Arm', 'Right Face']",
1,"[-0.2, 0.2]",0.0,,0,0,0,0,0,25,25,25,,,,,,,,,,,79.15170450002188,None,79.15170450002188,80.15223930001957,80.13561860000482,81.13598990000901,1,-0.17222222222222222,0.1638888888888889,"[0, 0, 0]",0,0,79.15170450002188,None,,,,,,,,,,,,,,,,,,,,,,,,,,,,,,,,,999,m,2,99,r,TEST,2021_Aug_07_1448,WASABI distractmap,2020.2.10,59.79752557858937,"['Left Arm', 'Left Face', 'Right Arm', 'Right Face']",
7,"[-0.2, -0.2]",0.0,,0,0,0,0,0,26,26,26,,,,,,,,,,,81.15274010002031,None,81.15274010002031,82.15323060000082,82.1365529000177,83.13708430001861,1,-0.17222222222222222,0.1638888888888889,"[0, 0, 0]",0,0,81.15274010002031,None,,,,,,,,,,,,,,,,,,,,,,,,,,,,,,,,,999,m,2,99,r,TEST,2021_Aug_07_1448,WASABI distractmap,2020.2.10,59.79752557858937,"['Left Arm', 'Left Face', 'Right Arm', 'Right Face']",
7,"[-0.2, -0.2]",1.0,,0,0,0,0,0,27,27,27,,,,,,,,,,,83.15381390001858,None,83.15381390001858,84.15427600001567,84.13751170001342,85.13802200002829,1,-0.17222222222222222,0.1638888888888889,"[0, 0, 0]",0,0,83.15381390001858,None,,,,,,,,,,,,,,,,,,,,,,,,,,,,,,,,,999,m,2,99,r,TEST,2021_Aug_07_1448,WASABI distractmap,2020.2.10,59.79752557858937,"['Left Arm', 'Left Face', 'Right Arm', 'Right Face']",
2,"[0, 0.2]",0.0,,0,0,0,0,0,28,28,28,,,,,,,,,,,85.15468810001039,None,85.15468810001039,86.15523110001232,86.13855610002065,87.13907250002376,1,-0.17222222222222222,0.1638888888888889,"[0, 0, 0]",0,0,85.15468810001039,None,,,,,,,,,,,,,,,,,,,,,,,,,,,,,,,,,999,m,2,99,r,TEST,2021_Aug_07_1448,WASABI distractmap,2020.2.10,59.79752557858937,"['Left Arm', 'Left Face', 'Right Arm', 'Right Face']",
6,"[0.2, 0]",0.0,,0,0,0,0,0,29,29,29,,,,,,,,,,,87.15571130000171,None,87.15571130000171,88.15618750001886,88.13954350000131,89.14004460000433,1,-0.17222222222222222,0.1638888888888889,"[0, 0, 0]",0,0,87.15571130000171,None,,,,,,,,,,,,,,,,,,,,,,,,,,,,,,,,,999,m,2,99,r,TEST,2021_Aug_07_1448,WASABI distractmap,2020.2.10,59.79752557858937,"['Left Arm', 'Left Face', 'Right Arm', 'Right Face']",
,,,,0,0,0,0,,,,,,,,,,,,,,,,,,,,,,,,,,,,,89.16468750001513,None,space,89.16468750001513,None,,,,,,,,,,,,,,,,,,,,,,,,,,,,999,m,2,99,r,TEST,2021_Aug_07_1448,WASABI distractmap,2020.2.10,59.79752557858937,"['Left Arm', 'Left Face', 'Right Arm', 'Right Face']",
6,"[0.2, 0]",None,,,,,,,,,,0,0,0,0,,,,,113.25223120002192,None,,,,,,,,,,,,,,,,,,,,None,None,"[0, 0, 0]",114.25374900002498,None,114.25374900002498,115.25322860002052,115.25322860002052,None,"[0, 0, 0]",1,114.25374900002498,None,,,,,,,,,,,,,,,999,m,2,99,r,TEST,2021_Aug_07_1448,WASABI distractmap,2020.2.10,59.79752557858937,"['Left Arm', 'Left Face', 'Right Arm', 'Right Face']",
7,"[-0.2, -0.2]",None,,,,,,,,,,0,1,1,1,,,,,,,,,,,,,,,,,,,,,,,,,,None,None,"[0, 0, 0]",116.25362540001515,118.25465290001011,116.25362540001515,117.25417240001843,117.23749320002389,118.23799810002674,"[0, 0, 0]",1,116.25362540001515,118.25465290001011,,,,,,,,,,,,,,,999,m,2,99,r,TEST,2021_Aug_07_1448,WASABI distractmap,2020.2.10,59.79752557858937,"['Left Arm', 'Left Face', 'Right Arm', 'Right Face']",
6,"[0.2, 0]",1.0,,,,,,,,,,0,2,2,2,,,,,,,,,,,,,,,,,,,,,,,,,,None,None,"[0, 0, 0]",118.27130160000524,120.272340000025,118.27130160000524,119.27184470000793,119.25514010002371,120.25569190000533,"[0, 0, 0]",1,118.27130160000524,120.272340000025,,,,,,,,,,,,,,,999,m,2,99,r,TEST,2021_Aug_07_1448,WASABI distractmap,2020.2.10,59.79752557858937,"['Left Arm', 'Left Face', 'Right Arm', 'Right Face']",
2,"[0, 0.2]",0.0,,,,,,,,,,0,3,3,3,,,,,,,,,,,,,,,,,,,,,,,,,,None,None,"[0, 0, 0]",120.28899120001006,122.28997340000933,120.28899120001006,121.28951400000369,121.27284640001017,122.27332150001894,"[0, 0, 0]",1,120.28899120001006,122.28997340000933,,,,,,,,,,,,,,,999,m,2,99,r,TEST,2021_Aug_07_1448,WASABI distractmap,2020.2.10,59.79752557858937,"['Left Arm', 'Left Face', 'Right Arm', 'Right Face']",
5,"[0, 0]",0.0,,,,,,,,,,0,4,4,4,,,,,,,,,,,,,,,,,,,,,,,,,,None,None,"[0, 0, 0]",122.30666760000167,124.30765450000763,122.30666760000167,123.3072075000091,123.29051960000652,124.29098600000725,"[0, 0, 0]",1,122.30666760000167,124.30765450000763,,,,,,,,,,,,,,,999,m,2,99,r,TEST,2021_Aug_07_1448,WASABI distractmap,2020.2.10,59.79752557858937,"['Left Arm', 'Left Face', 'Right Arm', 'Right Face']",
4,"[-0.2, 0]",0.0,,,,,,,,,,0,5,5,5,,,,,,,,,,,,,,,,,,,,,,,,,,None,None,"[0, 0, 0]",124.32433050000691,126.32537690000026,124.32433050000691,125.32487020001281,125.30819520002115,126.30878010002198,"[0, 0, 0]",1,124.32433050000691,126.32537690000026,,,,,,,,,,,,,,,999,m,2,99,r,TEST,2021_Aug_07_1448,WASABI distractmap,2020.2.10,59.79752557858937,"['Left Arm', 'Left Face', 'Right Arm', 'Right Face']",
4,"[-0.2, 0]",0.0,,,,,,,,,,0,6,6,6,,,,,,,,,,,,,,,,,,,,,,,,,,None,None,"[0, 0, 0]",126.34201840002788,128.34316640000907,126.34201840002788,127.34255620001932,127.32592140001361,128.32632440002635,"[0, 0, 0]",1,126.34201840002788,128.34316640000907,,,,,,,,,,,,,,,999,m,2,99,r,TEST,2021_Aug_07_1448,WASABI distractmap,2020.2.10,59.79752557858937,"['Left Arm', 'Left Face', 'Right Arm', 'Right Face']",
7,"[-0.2, -0.2]",0.0,,,,,,,,,,0,7,7,7,,,,,,,,,,,,,,,,,,,,,,,,,,None,None,"[0, 0, 0]",128.35968530000537,130.36092340000323,128.35968530000537,129.3603067000222,129.34354990001884,130.34401800000342,"[0, 0, 0]",1,128.35968530000537,130.36092340000323,,,,,,,,,,,,,,,999,m,2,99,r,TEST,2021_Aug_07_1448,WASABI distractmap,2020.2.10,59.79752557858937,"['Left Arm', 'Left Face', 'Right Arm', 'Right Face']",
4,"[-0.2, 0]",1.0,,,,,,,,,,0,8,8,8,,,,,,,,,,,,,,,,,,,,,,,,,,None,None,"[0, 0, 0]",130.37740810000105,132.37837780002155,130.37740810000105,131.3779112000193,131.36124210001435,132.36201780001284,"[0, 0, 0]",1,130.37740810000105,132.37837780002155,,,,,,,,,,,,,,,999,m,2,99,r,TEST,2021_Aug_07_1448,WASABI distractmap,2020.2.10,59.79752557858937,"['Left Arm', 'Left Face', 'Right Arm', 'Right Face']",
3,"[0.2, 0.2]",0.0,,,,,,,,,,0,9,9,9,,,,,,,,,,,,,,,,,,,,,,,,,,None,None,"[0, 0, 0]",132.39507140000933,134.39607400001842,132.39507140000933,133.39560900002834,133.37891500000842,134.3794180000259,"[0, 0, 0]",1,132.39507140000933,134.39607400001842,,,,,,,,,,,,,,,999,m,2,99,r,TEST,2021_Aug_07_1448,WASABI distractmap,2020.2.10,59.79752557858937,"['Left Arm', 'Left Face', 'Right Arm', 'Right Face']",
5,"[0, 0]",0.0,,,,,,,,,,0,10,10,10,,,,,,,,,,,,,,,,,,,,,,,,,,None,None,"[0, 0, 0]",134.41274780000094,136.41377980000107,134.41274780000094,135.41331720000017,135.3965998000058,136.39720400000806,"[0, 0, 0]",1,134.41274780000094,136.41377980000107,,,,,,,,,,,,,,,999,m,2,99,r,TEST,2021_Aug_07_1448,WASABI distractmap,2020.2.10,59.79752557858937,"['Left Arm', 'Left Face', 'Right Arm', 'Right Face']",
3,"[0.2, 0.2]",1.0,,,,,,,,,,0,11,11,11,,,,,,,,,,,,,,,,,,,,,,,,,,None,None,"[0, 0, 0]",136.43041160001303,138.43145690002711,136.43041160001303,137.43093850000878,137.41425950001576,138.41477310002665,"[0, 0, 0]",1,136.43041160001303,138.43145690002711,,,,,,,,,,,,,,,999,m,2,99,r,TEST,2021_Aug_07_1448,WASABI distractmap,2020.2.10,59.79752557858937,"['Left Arm', 'Left Face', 'Right Arm', 'Right Face']",
1,"[-0.2, 0.2]",0.0,,,,,,,,,,0,12,12,12,,,,,,,,,,,,,,,,,,,,,,,,,,None,None,"[0, 0, 0]",138.44811330002267,140.4490493000194,138.44811330002267,139.4486527000263,139.4319384000264,140.4324605000147,"[0, 0, 0]",1,138.44811330002267,140.4490493000194,,,,,,,,,,,,,,,999,m,2,99,r,TEST,2021_Aug_07_1448,WASABI distractmap,2020.2.10,59.79752557858937,"['Left Arm', 'Left Face', 'Right Arm', 'Right Face']",
9,"[0.2, -0.2]",0.0,,,,,,,,,,0,13,13,13,,,,,,,,,,,,,,,,,,,,,,,,,,None,None,"[0, 0, 0]",140.46577290000278,142.46681040001567,140.46577290000278,141.4663167000108,141.4496402000077,142.4500746000267,"[0, 0, 0]",1,140.46577290000278,142.46681040001567,,,,,,,,,,,,,,,999,m,2,99,r,TEST,2021_Aug_07_1448,WASABI distractmap,2020.2.10,59.79752557858937,"['Left Arm', 'Left Face', 'Right Arm', 'Right Face']",
9,"[0.2, -0.2]",0.0,,,,,,,,,,0,14,14,14,,,,,,,,,,,,,,,,,,,,,,,,,,None,None,"[0, 0, 0]",142.4834304000251,144.48445660001016,142.4834304000251,143.48403870000038,143.46729810000397,144.46777010001824,"[0, 0, 0]",1,142.4834304000251,144.48445660001016,,,,,,,,,,,,,,,999,m,2,99,r,TEST,2021_Aug_07_1448,WASABI distractmap,2020.2.10,59.79752557858937,"['Left Arm', 'Left Face', 'Right Arm', 'Right Face']",
8,"[0, -0.2]",0.0,,,,,,,,,,0,15,15,15,,,,,,,,,,,,,,,,,,,,,,,,,,None,None,"[0, 0, 0]",144.5011754000152,146.50222980001126,144.5011754000152,145.50173600000562,145.48501230002148,146.48546440000064,"[0, 0, 0]",1,144.5011754000152,146.50222980001126,,,,,,,,,,,,,,,999,m,2,99,r,TEST,2021_Aug_07_1448,WASABI distractmap,2020.2.10,59.79752557858937,"['Left Arm', 'Left Face', 'Right Arm', 'Right Face']",
6,"[0.2, 0]",0.0,,,,,,,,,,0,16,16,16,,,,,,,,,,,,,,,,,,,,,,,,,,None,None,"[0, 0, 0]",146.5188099000079,148.51982420001877,146.5188099000079,147.51933560002362,147.50271890001022,148.5031495000003,"[0, 0, 0]",1,146.5188099000079,148.51982420001877,,,,,,,,,,,,,,,999,m,2,99,r,TEST,2021_Aug_07_1448,WASABI distractmap,2020.2.10,59.79752557858937,"['Left Arm', 'Left Face', 'Right Arm', 'Right Face']",
3,"[0.2, 0.2]",0.0,,,,,,,,,,0,17,17,17,,,,,,,,,,,,,,,,,,,,,,,,,,None,None,"[0, 0, 0]",148.5365236000216,150.53752400001395,148.5365236000216,149.53702950000297,149.52032100001816,150.52084750001086,"[0, 0, 0]",1,148.5365236000216,150.53752400001395,,,,,,,,,,,,,,,999,m,2,99,r,TEST,2021_Aug_07_1448,WASABI distractmap,2020.2.10,59.79752557858937,"['Left Arm', 'Left Face', 'Right Arm', 'Right Face']",
6,"[0.2, 0]",1.0,,,,,,,,,,0,18,18,18,,,,,,,,,,,,,,,,,,,,,,,,,,None,None,"[0, 0, 0]",150.55413650002447,152.5551721000229,150.55413650002447,151.5547149000049,151.53801610000664,152.53852810000535,"[0, 0, 0]",1,150.55413650002447,152.5551721000229,,,,,,,,,,,,,,,999,m,2,99,r,TEST,2021_Aug_07_1448,WASABI distractmap,2020.2.10,59.79752557858937,"['Left Arm', 'Left Face', 'Right Arm', 'Right Face']",
5,"[0, 0]",0.0,,,,,,,,,,0,19,19,19,,,,,,,,,,,,,,,,,,,,,,,,,,None,None,"[0, 0, 0]",152.571826600004,154.57294540002476,152.571826600004,153.57236920000287,153.5556960000249,154.5561824000033,"[0, 0, 0]",1,152.571826600004,154.57294540002476,,,,,,,,,,,,,,,999,m,2,99,r,TEST,2021_Aug_07_1448,WASABI distractmap,2020.2.10,59.79752557858937,"['Left Arm', 'Left Face', 'Right Arm', 'Right Face']",
7,"[-0.2, -0.2]",0.0,,,,,,,,,,0,20,20,20,,,,,,,,,,,,,,,,,,,,,,,,,,None,None,"[0, 0, 0]",154.58950440000626,156.59055410002475,154.58950440000626,155.59005250001792,155.57336639999994,156.5738573000126,"[0, 0, 0]",1,154.58950440000626,156.59055410002475,,,,,,,,,,,,,,,999,m,2,99,r,TEST,2021_Aug_07_1448,WASABI distractmap,2020.2.10,59.79752557858937,"['Left Arm', 'Left Face', 'Right Arm', 'Right Face']",
5,"[0, 0]",1.0,,,,,,,,,,0,21,21,21,,,,,,,,,,,,,,,,,,,,,,,,,,None,None,"[0, 0, 0]",156.6073039000039,158.6083256000129,156.6073039000039,157.60772080000606,157.5910572000139,158.59157610000693,"[0, 0, 0]",0,156.6073039000039,158.6083256000129,,,,,,,,,,,,,,,999,m,2,99,r,TEST,2021_Aug_07_1448,WASABI distractmap,2020.2.10,59.79752557858937,"['Left Arm', 'Left Face', 'Right Arm', 'Right Face']",
1,"[-0.2, 0.2]",0.0,,,,,,,,,,0,22,22,22,,,,,,,,,,,,,,,,,,,,,,,,,,None,None,"[0, 0, 0]",158.62486920002266,160.6259656000184,158.62486920002266,159.62542000002577,159.60882380002295,160.60921520000556,"[0, 0, 0]",1,158.62486920002266,160.6259656000184,,,,,,,,,,,,,,,999,m,2,99,r,TEST,2021_Aug_07_1448,WASABI distractmap,2020.2.10,59.79752557858937,"['Left Arm', 'Left Face', 'Right Arm', 'Right Face']",
7,"[-0.2, -0.2]",0.0,,,,,,,,,,0,23,23,23,,,,,,,,,,,,,,,,,,,,,,,,,,None,None,"[0, 0, 0]",160.6426594000077,162.64359770002193,160.6426594000077,161.64322940001148,161.62641040000017,162.62688670001808,"[0, 0, 0]",1,160.6426594000077,162.64359770002193,,,,,,,,,,,,,,,999,m,2,99,r,TEST,2021_Aug_07_1448,WASABI distractmap,2020.2.10,59.79752557858937,"['Left Arm', 'Left Face', 'Right Arm', 'Right Face']",
9,"[0.2, -0.2]",0.0,,,,,,,,,,0,24,24,24,,,,,,,,,,,,,,,,,,,,,,,,,,None,None,"[0, 0, 0]",162.66021540001384,164.66124720001244,162.66021540001384,163.6607896000205,163.64419560000533,164.64458470002864,"[0, 0, 0]",1,162.66021540001384,164.66124720001244,,,,,,,,,,,,,,,999,m,2,99,r,TEST,2021_Aug_07_1448,WASABI distractmap,2020.2.10,59.79752557858937,"['Left Arm', 'Left Face', 'Right Arm', 'Right Face']",
3,"[0.2, 0.2]",0.0,,,,,,,,,,0,25,25,25,,,,,,,,,,,,,,,,,,,,,,,,,,None,None,"[0, 0, 0]",164.677918100002,166.67903980001574,164.677918100002,165.67849030002253,165.661983900005,166.66226740001002,"[0, 0, 0]",1,164.677918100002,166.67903980001574,,,,,,,,,,,,,,,999,m,2,99,r,TEST,2021_Aug_07_1448,WASABI distractmap,2020.2.10,59.79752557858937,"['Left Arm', 'Left Face', 'Right Arm', 'Right Face']",
9,"[0.2, -0.2]",1.0,,,,,,,,,,0,26,26,26,,,,,,,,,,,,,,,,,,,,,,,,,,None,None,"[0, 0, 0]",166.69563920001383,168.69663300001412,166.69563920001383,167.69611150000128,167.67945660001715,168.67994720002753,"[0, 0, 0]",0,166.69563920001383,168.69663300001412,,,,,,,,,,,,,,,999,m,2,99,r,TEST,2021_Aug_07_1448,WASABI distractmap,2020.2.10,59.79752557858937,"['Left Arm', 'Left Face', 'Right Arm', 'Right Face']",
6,"[0.2, 0]",0.0,,,,,,,,,,0,27,27,27,,,,,,,,,,,,,,,,,,,,,,,,,,None,None,"[0, 0, 0]",168.71340130001772,170.7142570000142,168.71340130001772,169.71389170002658,169.69721840001876,170.69759790002718,"[0, 0, 0]",1,168.71340130001772,170.7142570000142,,,,,,,,,,,,,,,999,m,2,99,r,TEST,2021_Aug_07_1448,WASABI distractmap,2020.2.10,59.79752557858937,"['Left Arm', 'Left Face', 'Right Arm', 'Right Face']",
2,"[0, 0.2]",0.0,,,,,,,,,,0,28,28,28,,,,,,,,,,,,,,,,,,,,,,,,,,None,None,"[0, 0, 0]",170.73097680002684,172.73192480002763,170.73097680002684,171.73159510002006,171.71482840002864,172.71526930000982,"[0, 0, 0]",1,170.73097680002684,172.73192480002763,,,,,,,,,,,,,,,999,m,2,99,r,TEST,2021_Aug_07_1448,WASABI distractmap,2020.2.10,59.79752557858937,"['Left Arm', 'Left Face', 'Right Arm', 'Right Face']",
5,"[0, 0]",0.0,,,,,,,,,,0,29,29,29,,,,,,,,,,,,,,,,,,,,,,,,,,None,None,"[0, 0, 0]",172.7486678000132,174.74980590000632,172.7486678000132,173.74915920000058,173.73247890002676,174.73297110002022,"[0, 0, 0]",1,172.7486678000132,174.74980590000632,,,,,,,,,,,,,,,999,m,2,99,r,TEST,2021_Aug_07_1448,WASABI distractmap,2020.2.10,59.79752557858937,"['Left Arm', 'Left Face', 'Right Arm', 'Right Face']",
,,,,,,,,,,,,,,,,,,,,,,,,,,,,,,,,,,,,174.7662123000191,None,space,174.7662123000191,None,,,,,,,,,,,,,,,,,,,,,,,,,,,,999,m,2,99,r,TEST,2021_Aug_07_1448,WASABI distractmap,2020.2.10,59.79752557858937,"['Left Arm', 'Left Face', 'Right Arm', 'Right Face']",
6,"[0.2, 0]",None,stimuli/orders/stimOrder7.xlsx,,,,,0,0,0,0,,,,,0,0,0,3,189.098398800008,None,190.10951150002074,None,190.10951150002074,191.1246282000211,191.107938000001,None,1,None,None,"[0, 0, 0]",,,190.10951150002074,None,,,,,,,,,,,,,,,,,,,176.79296350001823,176.79296350001823,None,space,3.008036199986236,176.79296350001823,None,"[0, 0, 0]",,,,,,,999,m,2,99,r,TEST,2021_Aug_07_1448,WASABI distractmap,2020.2.10,59.79752557858937,"['Left Arm', 'Left Face', 'Right Arm', 'Right Face']",
6,"[0.2, 0]",space,stimuli/orders/stimOrder7.xlsx,,,,,0,1,1,1,,,,,0,0,0,3,,,192.1083467999997,192.1083467999997,192.1083467999997,193.10896190002677,193.09219730002224,194.09269889999996,0,None,None,"[0, 0, 0]",,,192.1083467999997,192.1083467999997,,,,,,,,,,,,,,,,,,,,,,,,,,"[0, 0, 0]",,,,,,,999,m,2,99,r,TEST,2021_Aug_07_1448,WASABI distractmap,2020.2.10,59.79752557858937,"['Left Arm', 'Left Face', 'Right Arm', 'Right Face']",
2,"[0, 0.2]",None,stimuli/orders/stimOrder7.xlsx,,,,,0,2,2,2,,,,,0,0,0,3,,,194.10945000001811,194.10945000001811,194.10945000001811,195.10987350001233,195.09344690002035,196.0937358000083,0,None,None,"[0, 0, 0]",,,194.10945000001811,194.10945000001811,,,,,,,,,,,,,,,,,,,,,,,,,,"[0, 0, 0]",,,,,,,999,m,2,99,r,TEST,2021_Aug_07_1448,WASABI distractmap,2020.2.10,59.79752557858937,"['Left Arm', 'Left Face', 'Right Arm', 'Right Face']",
9,"[0.2, -0.2]",None,stimuli/orders/stimOrder7.xlsx,,,,,0,3,3,3,,,,,0,0,0,3,,,196.11046080000233,196.11046080000233,196.11046080000233,197.11096840002574,197.09416220002458,198.09483210000326,0,None,None,"[0, 0, 0]",,,196.11046080000233,196.11046080000233,,,,,,,,,,,,,,,,,,,,,,,,,,"[0, 0, 0]",,,,,,,999,m,2,99,r,TEST,2021_Aug_07_1448,WASABI distractmap,2020.2.10,59.79752557858937,"['Left Arm', 'Left Face', 'Right Arm', 'Right Face']",
9,"[0.2, -0.2]",space,stimuli/orders/stimOrder7.xlsx,,,,,0,4,4,4,,,,,0,0,0,3,,,198.1114042000263,198.1114042000263,198.1114042000263,199.11200000002282,199.09516820000135,200.09576060000109,0,None,None,"[0, 0, 0]",,,198.1114042000263,198.1114042000263,,,,,,,,,,,,,,,,,,,,,,,,,,"[0, 0, 0]",,,,,,,999,m,2,99,r,TEST,2021_Aug_07_1448,WASABI distractmap,2020.2.10,59.79752557858937,"['Left Arm', 'Left Face', 'Right Arm', 'Right Face']",
6,"[0.2, 0]",None,stimuli/orders/stimOrder7.xlsx,,,,,0,5,5,5,,,,,0,0,0,3,,,200.1124725000118,200.1124725000118,200.1124725000118,201.11290700000245,201.09637980000116,202.09679450001568,0,None,None,"[0, 0, 0]",,,200.1124725000118,200.1124725000118,,,,,,,,,,,,,,,,,,,,,,,,,,"[0, 0, 0]",,,,,,,999,m,2,99,r,TEST,2021_Aug_07_1448,WASABI distractmap,2020.2.10,59.79752557858937,"['Left Arm', 'Left Face', 'Right Arm', 'Right Face']",
4,"[-0.2, 0]",None,stimuli/orders/stimOrder7.xlsx,,,,,0,6,6,6,,,,,0,0,0,3,,,202.11337030000868,202.11337030000868,202.11337030000868,203.1138965000282,203.09734790000948,204.09780670001055,0,None,None,"[0, 0, 0]",,,202.11337030000868,202.11337030000868,,,,,,,,,,,,,,,,,,,,,,,,,,"[0, 0, 0]",,,,,,,999,m,2,99,r,TEST,2021_Aug_07_1448,WASABI distractmap,2020.2.10,59.79752557858937,"['Left Arm', 'Left Face', 'Right Arm', 'Right Face']",
3,"[0.2, 0.2]",None,stimuli/orders/stimOrder7.xlsx,,,,,0,7,7,7,,,,,0,0,0,3,,,204.11433880002005,204.11433880002005,204.11433880002005,205.11486250002054,205.09838830001536,206.09891220001737,0,None,None,"[0, 0, 0]",,,204.11433880002005,204.11433880002005,,,,,,,,,,,,,,,,,,,,,,,,,,"[0, 0, 0]",,,,,,,999,m,2,99,r,TEST,2021_Aug_07_1448,WASABI distractmap,2020.2.10,59.79752557858937,"['Left Arm', 'Left Face', 'Right Arm', 'Right Face']",
3,"[0.2, 0.2]",space,stimuli/orders/stimOrder7.xlsx,,,,,0,8,8,8,,,,,0,0,0,3,,,206.11545280000428,206.11545280000428,206.11545280000428,207.11589900002582,207.09934430001886,208.0997830000124,0,None,None,"[0, 0, 0]",,,206.11545280000428,206.11545280000428,,,,,,,,,,,,,,,,,,,,,,,,,,"[0, 0, 0]",,,,,,,999,m,2,99,r,TEST,2021_Aug_07_1448,WASABI distractmap,2020.2.10,59.79752557858937,"['Left Arm', 'Left Face', 'Right Arm', 'Right Face']",
8,"[0, -0.2]",None,stimuli/orders/stimOrder7.xlsx,,,,,0,9,9,9,,,,,0,0,0,3,,,208.11636720001115,208.11636720001115,208.11636720001115,209.11707020000904,209.10016910001286,210.10081930001616,0,None,None,"[0, 0, 0]",,,208.11636720001115,208.11636720001115,,,,,,,,,,,,,,,,,,,,,,,,,,"[0, 0, 0]",,,,,,,999,m,2,99,r,TEST,2021_Aug_07_1448,WASABI distractmap,2020.2.10,59.79752557858937,"['Left Arm', 'Left Face', 'Right Arm', 'Right Face']",
1,"[-0.2, 0.2]",None,stimuli/orders/stimOrder7.xlsx,,,,,0,10,10,10,,,,,0,0,0,3,,,210.11741410000832,210.11741410000832,210.11741410000832,211.11801350000314,211.10137710001436,212.1019713000278,0,None,None,"[0, 0, 0]",,,210.11741410000832,210.11741410000832,,,,,,,,,,,,,,,,,,,,,,,,,,"[0, 0, 0]",,,,,,,999,m,2,99,r,TEST,2021_Aug_07_1448,WASABI distractmap,2020.2.10,59.79752557858937,"['Left Arm', 'Left Face', 'Right Arm', 'Right Face']",
2,"[0, 0.2]",None,stimuli/orders/stimOrder7.xlsx,,,,,0,11,11,11,,,,,0,0,0,3,,,212.118397800019,212.118397800019,212.118397800019,213.11889530002372,213.10232660002657,214.10282270002062,0,None,None,"[0, 0, 0]",,,212.118397800019,212.118397800019,,,,,,,,,,,,,,,,,,,,,,,,,,"[0, 0, 0]",,,,,,,999,m,2,99,r,TEST,2021_Aug_07_1448,WASABI distractmap,2020.2.10,59.79752557858937,"['Left Arm', 'Left Face', 'Right Arm', 'Right Face']",
4,"[-0.2, 0]",None,stimuli/orders/stimOrder7.xlsx,,,,,0,12,12,12,,,,,0,0,0,3,,,214.11938610000652,214.11938610000652,214.11938610000652,215.11993760001496,215.10324960001162,216.10383510001702,0,None,None,"[0, 0, 0]",,,214.11938610000652,214.11938610000652,,,,,,,,,,,,,,,,,,,,,,,,,,"[0, 0, 0]",,,,,,,999,m,2,99,r,TEST,2021_Aug_07_1448,WASABI distractmap,2020.2.10,59.79752557858937,"['Left Arm', 'Left Face', 'Right Arm', 'Right Face']",
4,"[-0.2, 0]",space,stimuli/orders/stimOrder7.xlsx,,,,,0,13,13,13,,,,,0,0,0,3,,,216.1204371000058,216.1204371000058,216.1204371000058,217.12098230002448,217.1043027000269,218.1048090000113,0,None,None,"[0, 0, 0]",,,216.1204371000058,216.1204371000058,,,,,,,,,,,,,,,,,,,,,,,,,,"[0, 0, 0]",,,,,,,999,m,2,99,r,TEST,2021_Aug_07_1448,WASABI distractmap,2020.2.10,59.79752557858937,"['Left Arm', 'Left Face', 'Right Arm', 'Right Face']",
8,"[0, -0.2]",None,stimuli/orders/stimOrder7.xlsx,,,,,0,14,14,14,,,,,0,0,0,3,,,218.12139410001691,218.12139410001691,218.12139410001691,219.12197820001165,219.10530510000535,220.1058522000094,0,None,None,"[0, 0, 0]",,,218.12139410001691,218.12139410001691,,,,,,,,,,,,,,,,,,,,,,,,,,"[0, 0, 0]",,,,,,,999,m,2,99,r,TEST,2021_Aug_07_1448,WASABI distractmap,2020.2.10,59.79752557858937,"['Left Arm', 'Left Face', 'Right Arm', 'Right Face']",
5,"[0, 0]",None,stimuli/orders/stimOrder7.xlsx,,,,,0,15,15,15,,,,,0,0,0,3,,,220.12236890001805,220.12236890001805,220.12236890001805,221.1229255000071,221.1062584000174,222.10688990002382,0,None,None,"[0, 0, 0]",,,220.12236890001805,220.12236890001805,,,,,,,,,,,,,,,,,,,,,,,,,,"[0, 0, 0]",,,,,,,999,m,2,99,r,TEST,2021_Aug_07_1448,WASABI distractmap,2020.2.10,59.79752557858937,"['Left Arm', 'Left Face', 'Right Arm', 'Right Face']",
5,"[0, 0]",space,stimuli/orders/stimOrder7.xlsx,,,,,0,16,16,16,,,,,0,0,0,3,,,222.12352660001488,222.12352660001488,222.12352660001488,223.12392540002475,223.10734850002336,224.10785620001843,0,None,None,"[0, 0, 0]",,,222.12352660001488,222.12352660001488,,,,,,,,,,,,,,,,,,,,,,,,,,"[0, 0, 0]",,,,,,,999,m,2,99,r,TEST,2021_Aug_07_1448,WASABI distractmap,2020.2.10,59.79752557858937,"['Left Arm', 'Left Face', 'Right Arm', 'Right Face']",
1,"[-0.2, 0.2]",None,stimuli/orders/stimOrder7.xlsx,,,,,0,17,17,17,,,,,0,0,0,3,,,224.12439750001067,224.12439750001067,224.12439750001067,225.12491390001378,225.1082524000085,226.1089926000277,0,None,None,"[0, 0, 0]",,,224.12439750001067,224.12439750001067,,,,,,,,,,,,,,,,,,,,,,,,,,"[0, 0, 0]",,,,,,,999,m,2,99,r,TEST,2021_Aug_07_1448,WASABI distractmap,2020.2.10,59.79752557858937,"['Left Arm', 'Left Face', 'Right Arm', 'Right Face']",
3,"[0.2, 0.2]",None,stimuli/orders/stimOrder7.xlsx,,,,,0,18,18,18,,,,,0,0,0,3,,,226.12548630000674,226.12548630000674,226.12548630000674,227.12588780000806,227.10931670002174,228.10979170000064,0,None,None,"[0, 0, 0]",,,226.12548630000674,226.12548630000674,,,,,,,,,,,,,,,,,,,,,,,,,,"[0, 0, 0]",,,,,,,999,m,2,99,r,TEST,2021_Aug_07_1448,WASABI distractmap,2020.2.10,59.79752557858937,"['Left Arm', 'Left Face', 'Right Arm', 'Right Face']",
6,"[0.2, 0]",None,stimuli/orders/stimOrder7.xlsx,,,,,0,19,19,19,,,,,0,0,0,3,,,228.12642410001718,228.12642410001718,228.12642410001718,229.12700940002105,229.11031980000553,230.1108355000033,0,None,None,"[0, 0, 0]",,,228.12642410001718,228.12642410001718,,,,,,,,,,,,,,,,,,,,,,,,,,"[0, 0, 0]",,,,,,,999,m,2,99,r,TEST,2021_Aug_07_1448,WASABI distractmap,2020.2.10,59.79752557858937,"['Left Arm', 'Left Face', 'Right Arm', 'Right Face']",
1,"[-0.2, 0.2]",None,stimuli/orders/stimOrder7.xlsx,,,,,0,20,20,20,,,,,0,0,0,3,,,230.12739870001678,230.12739870001678,230.12739870001678,231.12802740000188,231.11135490000015,232.1119545000256,0,None,None,"[0, 0, 0]",,,230.12739870001678,230.12739870001678,,,,,,,,,,,,,,,,,,,,,,,,,,"[0, 0, 0]",,,,,,,999,m,2,99,r,TEST,2021_Aug_07_1448,WASABI distractmap,2020.2.10,59.79752557858937,"['Left Arm', 'Left Face', 'Right Arm', 'Right Face']",
1,"[-0.2, 0.2]",space,stimuli/orders/stimOrder7.xlsx,,,,,0,21,21,21,,,,,0,0,0,3,,,232.1284209000005,232.1284209000005,232.1284209000005,233.1289497000107,233.11236670002108,234.11274280000362,0,None,None,"[0, 0, 0]",,,232.1284209000005,232.1284209000005,,,,,,,,,,,,,,,,,,,,,,,,,,"[0, 0, 0]",,,,,,,999,m,2,99,r,TEST,2021_Aug_07_1448,WASABI distractmap,2020.2.10,59.79752557858937,"['Left Arm', 'Left Face', 'Right Arm', 'Right Face']",
1,"[-0.2, 0.2]",space,stimuli/orders/stimOrder7.xlsx,,,,,0,22,22,22,,,,,0,0,0,3,,,234.12939720001305,234.12939720001305,234.12939720001305,235.12993410002673,235.11328070002492,236.11390640001628,0,None,None,"[0, 0, 0]",,,234.12939720001305,234.12939720001305,,,,,,,,,,,,,,,,,,,,,,,,,,"[0, 0, 0]",,,,,,,999,m,2,99,r,TEST,2021_Aug_07_1448,WASABI distractmap,2020.2.10,59.79752557858937,"['Left Arm', 'Left Face', 'Right Arm', 'Right Face']",
3,"[0.2, 0.2]",None,stimuli/orders/stimOrder7.xlsx,,,,,0,23,23,23,,,,,0,0,0,3,,,236.1305287000141,236.1305287000141,236.1305287000141,237.1310583000013,237.11438750001253,238.11489020002773,0,None,None,"[0, 0, 0]",,,236.1305287000141,236.1305287000141,,,,,,,,,,,,,,,,,,,,,,,,,,"[0, 0, 0]",,,,,,,999,m,2,99,r,TEST,2021_Aug_07_1448,WASABI distractmap,2020.2.10,59.79752557858937,"['Left Arm', 'Left Face', 'Right Arm', 'Right Face']",
2,"[0, 0.2]",None,stimuli/orders/stimOrder7.xlsx,,,,,0,24,24,24,,,,,0,0,0,3,,,238.13147990001016,238.13147990001016,238.13147990001016,239.13207890000194,239.115369200008,240.11584530002438,0,None,None,"[0, 0, 0]",,,238.13147990001016,238.13147990001016,,,,,,,,,,,,,,,,,,,,,,,,,,"[0, 0, 0]",,,,,,,999,m,2,99,r,TEST,2021_Aug_07_1448,WASABI distractmap,2020.2.10,59.79752557858937,"['Left Arm', 'Left Face', 'Right Arm', 'Right Face']",
1,"[-0.2, 0.2]",None,stimuli/orders/stimOrder7.xlsx,,,,,0,25,25,25,,,,,0,0,0,3,,,240.13257530002738,240.13257530002738,240.13257530002738,241.13314260001061,241.11638350001886,242.11690920000547,0,None,None,"[0, 0, 0]",,,240.13257530002738,240.13257530002738,,,,,,,,,,,,,,,,,,,,,,,,,,"[0, 0, 0]",,,,,,,999,m,2,99,r,TEST,2021_Aug_07_1448,WASABI distractmap,2020.2.10,59.79752557858937,"['Left Arm', 'Left Face', 'Right Arm', 'Right Face']",
7,"[-0.2, -0.2]",None,stimuli/orders/stimOrder7.xlsx,,,,,0,26,26,26,,,,,0,0,0,3,,,242.1334482000093,242.1334482000093,242.1334482000093,243.1339594000019,243.11728630002472,244.1179280000215,0,None,None,"[0, 0, 0]",,,242.1334482000093,242.1334482000093,,,,,,,,,,,,,,,,,,,,,,,,,,"[0, 0, 0]",,,,,,,999,m,2,99,r,TEST,2021_Aug_07_1448,WASABI distractmap,2020.2.10,59.79752557858937,"['Left Arm', 'Left Face', 'Right Arm', 'Right Face']",
7,"[-0.2, -0.2]",space,stimuli/orders/stimOrder7.xlsx,,,,,0,27,27,27,,,,,0,0,0,3,,,244.13455910002813,244.13455910002813,244.13455910002813,245.1350541000138,245.11837370001012,246.11889100002008,0,None,None,"[0, 0, 0]",,,244.13455910002813,244.13455910002813,,,,,,,,,,,,,,,,,,,,,,,,,,"[0, 0, 0]",,,,,,,999,m,2,99,r,TEST,2021_Aug_07_1448,WASABI distractmap,2020.2.10,59.79752557858937,"['Left Arm', 'Left Face', 'Right Arm', 'Right Face']",
2,"[0, 0.2]",None,stimuli/orders/stimOrder7.xlsx,,,,,0,28,28,28,,,,,0,0,0,3,,,246.13554120002664,246.13554120002664,246.13554120002664,247.13607620002585,247.11929220001912,248.11982850002823,0,None,None,"[0, 0, 0]",,,246.13554120002664,246.13554120002664,,,,,,,,,,,,,,,,,,,,,,,,,,"[0, 0, 0]",,,,,,,999,m,2,99,r,TEST,2021_Aug_07_1448,WASABI distractmap,2020.2.10,59.79752557858937,"['Left Arm', 'Left Face', 'Right Arm', 'Right Face']",
6,"[0.2, 0]",None,stimuli/orders/stimOrder7.xlsx,,,,,0,29,29,29,,,,,0,0,0,3,,,248.1365490000171,248.1365490000171,248.1365490000171,249.13708110002335,249.1202974000189,250.1208552000171,0,None,None,"[0, 0, 0]",,,248.1365490000171,248.1365490000171,,,,,,,,,,,,,,,,,,,,,,,,,,"[0, 0, 0]",,,,,,,999,m,2,99,r,TEST,2021_Aug_07_1448,WASABI distractmap,2020.2.10,59.79752557858937,"['Left Arm', 'Left Face', 'Right Arm', 'Right Face']",
,,,stimuli/orders/stimOrder7.xlsx,,,,,,,,,,,,,0,0,0,3,,,,,,,,,,,,,,,,,,,,,,,,,,,,,,,,,,,,,,,,,,,14.629629629629628,244.93925323995063,,,,,999,m,2,99,r,TEST,2021_Aug_07_1448,WASABI distractmap,2020.2.10,59.79752557858937,"['Left Arm', 'Left Face', 'Right Arm', 'Right Face']",
5,"[0, 0]",None,stimuli/orders/stimOrder7.xlsx,,,,,,,,,0,0,0,0,0,0,0,3,None,None,,,,,,,,,,,,,,,,,,,,None,None,"[0, 0, 0]",268.4091990000161,None,268.4091990000161,269.4138374000031,269.4138374000031,None,"[0, 0, 0]",1,268.4091990000161,None,,,,,,,,,,,0.013428760023089126,None,,,999,m,2,99,r,TEST,2021_Aug_07_1448,WASABI distractmap,2020.2.10,59.79752557858937,"['Left Arm', 'Left Face', 'Right Arm', 'Right Face']",
2,"[0, 0.2]",None,stimuli/orders/stimOrder7.xlsx,,,,,,,,,0,1,1,1,0,0,0,3,,,,,,,,,,,,,,,,,,,,,,None,None,"[0, 0, 0]",270.39762600001995,272.3986289000022,270.39762600001995,271.398208300001,271.38150060002226,272.3819447000278,"[0, 0, 0]",1,270.39762600001995,272.3986289000022,,,,,,,,,,,,,,,999,m,2,99,r,TEST,2021_Aug_07_1448,WASABI distractmap,2020.2.10,59.79752557858937,"['Left Arm', 'Left Face', 'Right Arm', 'Right Face']",
6,"[0.2, 0]",None,stimuli/orders/stimOrder7.xlsx,,,,,,,,,0,2,2,2,0,0,0,3,,,,,,,,,,,,,,,,,,,,,,None,None,"[0, 0, 0]",272.4152593000035,274.41628040000796,272.4152593000035,273.41582449999987,273.3991495000082,274.39962730000843,"[0, 0, 0]",0,272.4152593000035,274.41628040000796,,,,,,,,,,,,,,,999,m,2,99,r,TEST,2021_Aug_07_1448,WASABI distractmap,2020.2.10,59.79752557858937,"['Left Arm', 'Left Face', 'Right Arm', 'Right Face']",
9,"[0.2, -0.2]",None,stimuli/orders/stimOrder7.xlsx,,,,,,,,,0,3,3,3,0,0,0,3,,,,,,,,,,,,,,,,,,,,,,None,None,"[0, 0, 0]",274.43294010002865,276.43406270002015,274.43294010002865,275.43351750000147,275.41692520002834,276.41732410000986,"[0, 0, 0]",1,274.43294010002865,276.43406270002015,,,,,,,,,,,,,,,999,m,2,99,r,TEST,2021_Aug_07_1448,WASABI distractmap,2020.2.10,59.79752557858937,"['Left Arm', 'Left Face', 'Right Arm', 'Right Face']",
3,"[0.2, 0.2]",None,stimuli/orders/stimOrder7.xlsx,,,,,,,,,0,4,4,4,0,0,0,3,,,,,,,,,,,,,,,,,,,,,,None,None,"[0, 0, 0]",276.4507232000178,278.4516345000011,276.4507232000178,277.45115470001474,277.43452140002046,278.4349753000133,"[0, 0, 0]",1,276.4507232000178,278.4516345000011,,,,,,,,,,,,,,,999,m,2,99,r,TEST,2021_Aug_07_1448,WASABI distractmap,2020.2.10,59.79752557858937,"['Left Arm', 'Left Face', 'Right Arm', 'Right Face']",
9,"[0.2, -0.2]",1.0,stimuli/orders/stimOrder7.xlsx,,,,,,,,,0,5,5,5,0,0,0,3,,,,,,,,,,,,,,,,,,,,,,None,None,"[0, 0, 0]",278.468319800013,280.46931860002223,278.468319800013,279.46890640002675,279.45223590001115,280.4526660000265,"[0, 0, 0]",0,278.468319800013,280.46931860002223,,,,,,,,,,,,,,,999,m,2,99,r,TEST,2021_Aug_07_1448,WASABI distractmap,2020.2.10,59.79752557858937,"['Left Arm', 'Left Face', 'Right Arm', 'Right Face']",
7,"[-0.2, -0.2]",None,stimuli/orders/stimOrder7.xlsx,,,,,,,,,0,6,6,6,0,0,0,3,,,,,,,,,,,,,,,,,,,,,,None,None,"[0, 0, 0]",280.4859599000192,282.48714710000786,280.4859599000192,281.4865651,281.46990840000217,282.4705073000223,"[0, 0, 0]",1,280.4859599000192,282.48714710000786,,,,,,,,,,,,,,,999,m,2,99,r,TEST,2021_Aug_07_1448,WASABI distractmap,2020.2.10,59.79752557858937,"['Left Arm', 'Left Face', 'Right Arm', 'Right Face']",
1,"[-0.2, 0.2]",None,stimuli/orders/stimOrder7.xlsx,,,,,,,,,0,7,7,7,0,0,0,3,,,,,,,,,,,,,,,,,,,,,,None,None,"[0, 0, 0]",282.5037538000033,284.50474100001156,282.5037538000033,283.50419000000693,283.48758640000597,284.4880743000249,"[0, 0, 0]",1,282.5037538000033,284.50474100001156,,,,,,,,,,,,,,,999,m,2,99,r,TEST,2021_Aug_07_1448,WASABI distractmap,2020.2.10,59.79752557858937,"['Left Arm', 'Left Face', 'Right Arm', 'Right Face']",
5,"[0, 0]",None,stimuli/orders/stimOrder7.xlsx,,,,,,,,,0,8,8,8,0,0,0,3,,,,,,,,,,,,,,,,,,,,,,None,None,"[0, 0, 0]",284.5214280000073,286.5224482000049,284.5214280000073,285.5218914000143,285.5052369000041,286.50573920001625,"[0, 0, 0]",1,284.5214280000073,286.5224482000049,,,,,,,,,,,,,,,999,m,2,99,r,TEST,2021_Aug_07_1448,WASABI distractmap,2020.2.10,59.79752557858937,"['Left Arm', 'Left Face', 'Right Arm', 'Right Face']",
7,"[-0.2, -0.2]",None,stimuli/orders/stimOrder7.xlsx,,,,,,,,,0,9,9,9,0,0,0,3,,,,,,,,,,,,,,,,,,,,,,None,None,"[0, 0, 0]",286.5391409000149,288.54011240002,286.5391409000149,287.5395963000192,287.5229493000079,288.52338100000634,"[0, 0, 0]",1,286.5391409000149,288.54011240002,,,,,,,,,,,,,,,999,m,2,99,r,TEST,2021_Aug_07_1448,WASABI distractmap,2020.2.10,59.79752557858937,"['Left Arm', 'Left Face', 'Right Arm', 'Right Face']",
5,"[0, 0]",1.0,stimuli/orders/stimOrder7.xlsx,,,,,,,,,0,10,10,10,0,0,0,3,,,,,,,,,,,,,,,,,,,,,,None,None,"[0, 0, 0]",288.55684200001997,290.55776100000367,288.55684200001997,289.55726950001554,289.54061290001846,290.541043300007,"[0, 0, 0]",0,288.55684200001997,290.55776100000367,,,,,,,,,,,,,,,999,m,2,99,r,TEST,2021_Aug_07_1448,WASABI distractmap,2020.2.10,59.79752557858937,"['Left Arm', 'Left Face', 'Right Arm', 'Right Face']",
6,"[0.2, 0]",None,stimuli/orders/stimOrder7.xlsx,,,,,,,,,0,11,11,11,0,0,0,3,,,,,,,,,,,,,,,,,,,,,,None,None,"[0, 0, 0]",290.57440330000827,292.5754578000051,290.57440330000827,291.57502170000225,291.558253300027,292.55878820002545,"[0, 0, 0]",1,290.57440330000827,292.5754578000051,,,,,,,,,,,,,,,999,m,2,99,r,TEST,2021_Aug_07_1448,WASABI distractmap,2020.2.10,59.79752557858937,"['Left Arm', 'Left Face', 'Right Arm', 'Right Face']",
3,"[0.2, 0.2]",None,stimuli/orders/stimOrder7.xlsx,,,,,,,,,0,12,12,12,0,0,0,3,,,,,,,,,,,,,,,,,,,,,,None,None,"[0, 0, 0]",292.592209000024,294.59321410002303,292.592209000024,293.5927397000196,293.5759188000229,294.57646510002087,"[0, 0, 0]",1,292.592209000024,294.59321410002303,,,,,,,,,,,,,,,999,m,2,99,r,TEST,2021_Aug_07_1448,WASABI distractmap,2020.2.10,59.79752557858937,"['Left Arm', 'Left Face', 'Right Arm', 'Right Face']",
6,"[0.2, 0]",1.0,stimuli/orders/stimOrder7.xlsx,,,,,,,,,0,13,13,13,0,0,0,3,,,,,,,,,,,,,,,,,,,,,,None,None,"[0, 0, 0]",294.60981290001655,296.6110719999997,294.60981290001655,295.6102836000209,295.59371680000913,296.5941063000064,"[0, 0, 0]",0,294.60981290001655,296.6110719999997,,,,,,,,,,,,,,,999,m,2,99,r,TEST,2021_Aug_07_1448,WASABI distractmap,2020.2.10,59.79752557858937,"['Left Arm', 'Left Face', 'Right Arm', 'Right Face']",
8,"[0, -0.2]",None,stimuli/orders/stimOrder7.xlsx,,,,,,,,,0,14,14,14,0,0,0,3,,,,,,,,,,,,,,,,,,,,,,None,None,"[0, 0, 0]",296.6277898000262,298.62847150000744,296.6277898000262,297.6279997000238,297.61146510002436,298.6117599999998,"[0, 0, 0]",1,296.6277898000262,298.62847150000744,,,,,,,,,,,,,,,999,m,2,99,r,TEST,2021_Aug_07_1448,WASABI distractmap,2020.2.10,59.79752557858937,"['Left Arm', 'Left Face', 'Right Arm', 'Right Face']",
9,"[0.2, -0.2]",None,stimuli/orders/stimOrder7.xlsx,,,,,,,,,0,15,15,15,0,0,0,3,,,,,,,,,,,,,,,,,,,,,,None,None,"[0, 0, 0]",298.64514150001924,300.6462031000119,298.64514150001924,299.6457005000266,299.6291140000103,300.62944820002303,"[0, 0, 0]",1,298.64514150001924,300.6462031000119,,,,,,,,,,,,,,,999,m,2,99,r,TEST,2021_Aug_07_1448,WASABI distractmap,2020.2.10,59.79752557858937,"['Left Arm', 'Left Face', 'Right Arm', 'Right Face']",
9,"[0.2, -0.2]",None,stimuli/orders/stimOrder7.xlsx,,,,,,,,,0,16,16,16,0,0,0,3,,,,,,,,,,,,,,,,,,,,,,None,None,"[0, 0, 0]",300.6628721000161,302.6638263000059,300.6628721000161,301.66332290001446,301.64667570000165,302.64715100001195,"[0, 0, 0]",1,300.6628721000161,302.6638263000059,,,,,,,,,,,,,,,999,m,2,99,r,TEST,2021_Aug_07_1448,WASABI distractmap,2020.2.10,59.79752557858937,"['Left Arm', 'Left Face', 'Right Arm', 'Right Face']",
1,"[-0.2, 0.2]",None,stimuli/orders/stimOrder7.xlsx,,,,,,,,,0,17,17,17,0,0,0,3,,,,,,,,,,,,,,,,,,,,,,None,None,"[0, 0, 0]",302.6805002000183,304.68148480000673,302.6805002000183,303.68098960001953,303.66432239999995,304.6648454000242,"[0, 0, 0]",1,302.6805002000183,304.68148480000673,,,,,,,,,,,,,,,999,m,2,99,r,TEST,2021_Aug_07_1448,WASABI distractmap,2020.2.10,59.79752557858937,"['Left Arm', 'Left Face', 'Right Arm', 'Right Face']",
3,"[0.2, 0.2]",None,stimuli/orders/stimOrder7.xlsx,,,,,,,,,0,18,18,18,0,0,0,3,,,,,,,,,,,,,,,,,,,,,,None,None,"[0, 0, 0]",304.6981738000177,306.6992064000224,304.6981738000177,305.69870530001936,305.68211220001103,306.6825200000021,"[0, 0, 0]",1,304.6981738000177,306.6992064000224,,,,,,,,,,,,,,,999,m,2,99,r,TEST,2021_Aug_07_1448,WASABI distractmap,2020.2.10,59.79752557858937,"['Left Arm', 'Left Face', 'Right Arm', 'Right Face']",
5,"[0, 0]",None,stimuli/orders/stimOrder7.xlsx,,,,,,,,,0,19,19,19,0,0,0,3,,,,,,,,,,,,,,,,,,,,,,None,None,"[0, 0, 0]",306.7158691000077,308.7169387000031,306.7158691000077,307.7163661000086,307.6996840000211,308.7001533000148,"[0, 0, 0]",1,306.7158691000077,308.7169387000031,,,,,,,,,,,,,,,999,m,2,99,r,TEST,2021_Aug_07_1448,WASABI distractmap,2020.2.10,59.79752557858937,"['Left Arm', 'Left Face', 'Right Arm', 'Right Face']",
3,"[0.2, 0.2]",1.0,stimuli/orders/stimOrder7.xlsx,,,,,,,,,0,20,20,20,0,0,0,3,,,,,,,,,,,,,,,,,,,,,,None,None,"[0, 0, 0]",308.7335339000274,310.73457800000324,308.7335339000274,309.73403440002585,309.71737790000043,310.7178525000054,"[0, 0, 0]",0,308.7335339000274,310.73457800000324,,,,,,,,,,,,,,,999,m,2,99,r,TEST,2021_Aug_07_1448,WASABI distractmap,2020.2.10,59.79752557858937,"['Left Arm', 'Left Face', 'Right Arm', 'Right Face']",
4,"[-0.2, 0]",None,stimuli/orders/stimOrder7.xlsx,,,,,,,,,0,21,21,21,0,0,0,3,,,,,,,,,,,,,,,,,,,,,,None,None,"[0, 0, 0]",310.7512240000069,312.7524731000012,310.7512240000069,311.75177060000715,311.7350528000097,312.735606000002,"[0, 0, 0]",1,310.7512240000069,312.7524731000012,,,,,,,,,,,,,,,999,m,2,99,r,TEST,2021_Aug_07_1448,WASABI distractmap,2020.2.10,59.79752557858937,"['Left Arm', 'Left Face', 'Right Arm', 'Right Face']",
7,"[-0.2, -0.2]",None,stimuli/orders/stimOrder7.xlsx,,,,,,,,,0,22,22,22,0,0,0,3,,,,,,,,,,,,,,,,,,,,,,None,None,"[0, 0, 0]",312.76893300001393,None,312.76893300001393,313.7694790000096,313.7528951000131,None,"[0, 0, 0]",1,312.76893300001393,None,,,,,,,,,,,,,,,999,m,2,99,r,TEST,2021_Aug_07_1448,WASABI distractmap,2020.2.10,59.79752557858937,"['Left Arm', 'Left Face', 'Right Arm', 'Right Face']",
4,"[-0.2, 0]",1.0,stimuli/orders/stimOrder7.xlsx,,,,,,,,,0,23,23,23,0,0,0,3,,,,,,,,,,,,,,,,,,,,,,None,None,"[0, 0, 0]",315.6255524000153,317.638257100014,315.6255524000153,316.63763010001276,316.6209641000023,317.6215206000197,"[0, 0, 0]",0,315.6255524000153,317.638257100014,,,,,,,,,,,,,,,999,m,2,99,r,TEST,2021_Aug_07_1448,WASABI distractmap,2020.2.10,59.79752557858937,"['Left Arm', 'Left Face', 'Right Arm', 'Right Face']",
4,"[-0.2, 0]",None,stimuli/orders/stimOrder7.xlsx,,,,,,,,,0,24,24,24,0,0,0,3,,,,,,,,,,,,,,,,,,,,,,None,None,"[0, 0, 0]",317.656430300005,319.65592340001604,317.656430300005,318.6718520000286,318.6385606000258,319.639244400023,"[0, 0, 0]",1,317.656430300005,319.65592340001604,,,,,,,,,,,,,,,999,m,2,99,r,TEST,2021_Aug_07_1448,WASABI distractmap,2020.2.10,59.79752557858937,"['Left Arm', 'Left Face', 'Right Arm', 'Right Face']",
5,"[0, 0]",None,stimuli/orders/stimOrder7.xlsx,,,,,,,,,0,25,25,25,0,0,0,3,,,,,,,,,,,,,,,,,,,,,,None,None,"[0, 0, 0]",319.67254630001844,321.67334830001346,319.67254630001844,320.6733001000248,320.6562342000252,321.6567496000207,"[0, 0, 0]",1,319.67254630001844,321.67334830001346,,,,,,,,,,,,,,,999,m,2,99,r,TEST,2021_Aug_07_1448,WASABI distractmap,2020.2.10,59.79752557858937,"['Left Arm', 'Left Face', 'Right Arm', 'Right Face']",
2,"[0, 0.2]",None,stimuli/orders/stimOrder7.xlsx,,,,,,,,,0,26,26,26,0,0,0,3,,,,,,,,,,,,,,,,,,,,,,None,None,"[0, 0, 0]",321.68997930001933,323.69105580000905,321.68997930001933,322.6905791000172,322.67398820002563,323.67438660000334,"[0, 0, 0]",1,321.68997930001933,323.69105580000905,,,,,,,,,,,,,,,999,m,2,99,r,TEST,2021_Aug_07_1448,WASABI distractmap,2020.2.10,59.79752557858937,"['Left Arm', 'Left Face', 'Right Arm', 'Right Face']",
6,"[0.2, 0]",None,stimuli/orders/stimOrder7.xlsx,,,,,,,,,0,27,27,27,0,0,0,3,,,,,,,,,,,,,,,,,,,,,,None,None,"[0, 0, 0]",323.7078256000241,325.708713,323.7078256000241,324.70842249999987,324.69142400001874,325.692117700004,"[0, 0, 0]",1,323.7078256000241,325.708713,,,,,,,,,,,,,,,999,m,2,99,r,TEST,2021_Aug_07_1448,WASABI distractmap,2020.2.10,59.79752557858937,"['Left Arm', 'Left Face', 'Right Arm', 'Right Face']",
7,"[-0.2, -0.2]",None,stimuli/orders/stimOrder7.xlsx,,,,,,,,,0,28,28,28,0,0,0,3,,,,,,,,,,,,,,,,,,,,,,None,None,"[0, 0, 0]",325.7254792000167,327.7265490000136,325.7254792000167,326.72603480002726,326.70921400000225,327.7099779000273,"[0, 0, 0]",1,325.7254792000167,327.7265490000136,,,,,,,,,,,,,,,999,m,2,99,r,TEST,2021_Aug_07_1448,WASABI distractmap,2020.2.10,59.79752557858937,"['Left Arm', 'Left Face', 'Right Arm', 'Right Face']",
6,"[0.2, 0]",1.0,stimuli/orders/stimOrder7.xlsx,,,,,,,,,0,29,29,29,0,0,0,3,,,,,,,,,,,,,,,,,,,,,,None,None,"[0, 0, 0]",327.74317990001873,329.7441080000135,327.74317990001873,328.74362200000905,328.72713650000514,329.72743560001254,"[0, 0, 0]",0,327.74317990001873,329.7441080000135,,,,,,,,,,,,,,,999,m,2,99,r,TEST,2021_Aug_07_1448,WASABI distractmap,2020.2.10,59.79752557858937,"['Left Arm', 'Left Face', 'Right Arm', 'Right Face']",
6,"[0.2, 0]",None,stimuli/orders/stimOrder7.xlsx,,,,,,,,,0,30,30,30,0,0,0,3,,,,,,,,,,,,,,,,,,,,,,None,None,"[0, 0, 0]",329.76090850000037,331.7618585000164,329.76090850000037,330.76134040000034,330.74466340002255,331.74522770001204,"[0, 0, 0]",1,329.76090850000037,331.7618585000164,,,,,,,,,,,,,,,999,m,2,99,r,TEST,2021_Aug_07_1448,WASABI distractmap,2020.2.10,59.79752557858937,"['Left Arm', 'Left Face', 'Right Arm', 'Right Face']",
7,"[-0.2, -0.2]",None,stimuli/orders/stimOrder7.xlsx,,,,,,,,,0,31,31,31,0,0,0,3,,,,,,,,,,,,,,,,,,,,,,None,None,"[0, 0, 0]",331.7784539000131,333.77948670001933,331.7784539000131,332.77906130001065,332.7624703000183,333.7628411000187,"[0, 0, 0]",1,331.7784539000131,333.77948670001933,,,,,,,,,,,,,,,999,m,2,99,r,TEST,2021_Aug_07_1448,WASABI distractmap,2020.2.10,59.79752557858937,"['Left Arm', 'Left Face', 'Right Arm', 'Right Face']",
6,"[0.2, 0]",1.0,stimuli/orders/stimOrder7.xlsx,,,,,,,,,0,32,32,32,0,0,0,3,,,,,,,,,,,,,,,,,,,,,,None,None,"[0, 0, 0]",333.7961780000187,335.79713410002296,333.7961780000187,334.7966215000197,334.7799483000126,335.78061210000305,"[0, 0, 0]",0,333.7961780000187,335.79713410002296,,,,,,,,,,,,,,,999,m,2,99,r,TEST,2021_Aug_07_1448,WASABI distractmap,2020.2.10,59.79752557858937,"['Left Arm', 'Left Face', 'Right Arm', 'Right Face']",
2,"[0, 0.2]",None,stimuli/orders/stimOrder7.xlsx,,,,,,,,,0,33,33,33,0,0,0,3,,,,,,,,,,,,,,,,,,,,,,None,None,"[0, 0, 0]",335.8138167000143,337.81480560000637,335.8138167000143,336.8144488000253,336.79765750002116,337.79811340000015,"[0, 0, 0]",1,335.8138167000143,337.81480560000637,,,,,,,,,,,,,,,999,m,2,99,r,TEST,2021_Aug_07_1448,WASABI distractmap,2020.2.10,59.79752557858937,"['Left Arm', 'Left Face', 'Right Arm', 'Right Face']",
5,"[0, 0]",None,stimuli/orders/stimOrder7.xlsx,,,,,,,,,0,34,34,34,0,0,0,3,,,,,,,,,,,,,,,,,,,,,,None,None,"[0, 0, 0]",337.83156950000557,339.8325547000277,337.83156950000557,338.83205030002864,338.8153579000209,339.81598210000084,"[0, 0, 0]",1,337.83156950000557,339.8325547000277,,,,,,,,,,,,,,,999,m,2,99,r,TEST,2021_Aug_07_1448,WASABI distractmap,2020.2.10,59.79752557858937,"['Left Arm', 'Left Face', 'Right Arm', 'Right Face']",
4,"[-0.2, 0]",None,stimuli/orders/stimOrder7.xlsx,,,,,,,,,0,35,35,35,0,0,0,3,,,,,,,,,,,,,,,,,,,,,,None,None,"[0, 0, 0]",339.8492205000075,341.850327400025,339.8492205000075,340.84983230000944,340.8331093000015,341.8336449000053,"[0, 0, 0]",1,339.8492205000075,341.850327400025,,,,,,,,,,,,,,,999,m,2,99,r,TEST,2021_Aug_07_1448,WASABI distractmap,2020.2.10,59.79752557858937,"['Left Arm', 'Left Face', 'Right Arm', 'Right Face']",
4,"[-0.2, 0]",None,stimuli/orders/stimOrder7.xlsx,,,,,,,,,0,36,36,36,0,0,0,3,,,,,,,,,,,,,,,,,,,,,,None,None,"[0, 0, 0]",341.86696200000006,None,341.86696200000006,342.86745260001044,342.850932500005,343.854147200007,"[0, 0, 0]",1,341.86696200000006,None,,,,,,,,,,,,,,,999,m,2,99,r,TEST,2021_Aug_07_1448,WASABI distractmap,2020.2.10,59.79752557858937,"['Left Arm', 'Left Face', 'Right Arm', 'Right Face']",
7,"[-0.2, -0.2]",None,stimuli/orders/stimOrder7.xlsx,,,,,,,,,0,37,37,37,0,0,0,3,,,,,,,,,,,,,,,,,,,,,,None,None,"[0, 0, 0]",343.87661950002075,None,343.87661950002075,344.88504310001736,344.8683327000181,345.869007900008,"[0, 0, 0]",1,343.87661950002075,None,,,,,,,,,,,,,,,999,m,2,99,r,TEST,2021_Aug_07_1448,WASABI distractmap,2020.2.10,59.79752557858937,"['Left Arm', 'Left Face', 'Right Arm', 'Right Face']",
4,"[-0.2, 0]",1.0,stimuli/orders/stimOrder7.xlsx,,,,,,,,,0,38,38,38,0,0,0,3,,,,,,,,,,,,,,,,,,,,,,None,None,"[0, 0, 0]",345.8855933000159,347.8865017000062,345.8855933000159,346.88602860001265,346.8693098000076,347.8698604000092,"[0, 0, 0]",0,345.8855933000159,347.8865017000062,,,,,,,,,,,,,,,999,m,2,99,r,TEST,2021_Aug_07_1448,WASABI distractmap,2020.2.10,59.79752557858937,"['Left Arm', 'Left Face', 'Right Arm', 'Right Face']",
3,"[0.2, 0.2]",None,stimuli/orders/stimOrder7.xlsx,,,,,,,,,0,39,39,39,0,0,0,3,,,,,,,,,,,,,,,,,,,,,,None,None,"[0, 0, 0]",347.90326940000523,None,347.90326940000523,348.9038584000082,348.88732120001805,None,"[0, 0, 0]",1,347.90326940000523,None,,,,,,,,,,,,,,,999,m,2,99,r,TEST,2021_Aug_07_1448,WASABI distractmap,2020.2.10,59.79752557858937,"['Left Arm', 'Left Face', 'Right Arm', 'Right Face']",
5,"[0, 0]",None,stimuli/orders/stimOrder7.xlsx,,,,,,,,,0,40,40,40,0,0,0,3,,,,,,,,,,,,,,,,,,,,,,None,None,"[1, 0, 0]",350.070899000013,352.07191650001914,350.070899000013,351.07141590001993,351.05474510000204,352.05522940002265,"[1, 0, 0]",0,350.070899000013,352.07191650001914,,,,,,,,,,,,,1.8849526999983937,0.0,999,m,2,99,r,TEST,2021_Aug_07_1448,WASABI distractmap,2020.2.10,59.79752557858937,"['Left Arm', 'Left Face', 'Right Arm', 'Right Face']",
3,"[0.2, 0.2]",1.0,stimuli/orders/stimOrder7.xlsx,,,,,,,,,0,41,41,41,0,0,0,3,,,,,,,,,,,,,,,,,,,,,,None,None,"[0, 0, 0]",352.0886829000083,354.08961490000365,352.0886829000083,353.08908120001433,353.0724905000243,354.07295630002045,"[0, 0, 0]",1,352.0886829000083,354.08961490000365,,,,,,,,,,,,,,,999,m,2,99,r,TEST,2021_Aug_07_1448,WASABI distractmap,2020.2.10,59.79752557858937,"['Left Arm', 'Left Face', 'Right Arm', 'Right Face']",
1,"[-0.2, 0.2]",None,stimuli/orders/stimOrder7.xlsx,,,,,,,,,0,42,42,42,0,0,0,3,,,,,,,,,,,,,,,,,,,,,,None,None,"[0, 0, 0]",354.1062783000234,356.1073743000161,354.1062783000234,355.1068997000111,355.0900966000045,356.090617800015,"[0, 0, 0]",0,354.1062783000234,356.1073743000161,,,,,,,,,,,,,,,999,m,2,99,r,TEST,2021_Aug_07_1448,WASABI distractmap,2020.2.10,59.79752557858937,"['Left Arm', 'Left Face', 'Right Arm', 'Right Face']",
9,"[0.2, -0.2]",None,stimuli/orders/stimOrder7.xlsx,,,,,,,,,0,43,43,43,0,0,0,3,,,,,,,,,,,,,,,,,,,,,,None,None,"[0, 0, 0]",356.1239736000134,358.1249738000042,356.1239736000134,357.1244887000066,357.1079065000231,358.10837590001756,"[0, 0, 0]",0,356.1239736000134,358.1249738000042,,,,,,,,,,,,,,,999,m,2,99,r,TEST,2021_Aug_07_1448,WASABI distractmap,2020.2.10,59.79752557858937,"['Left Arm', 'Left Face', 'Right Arm', 'Right Face']",
9,"[0.2, -0.2]",None,stimuli/orders/stimOrder7.xlsx,,,,,,,,,0,44,44,44,0,0,0,3,,,,,,,,,,,,,,,,,,,,,,None,None,"[0, 0, 0]",358.14162360000773,360.14261110001826,358.14162360000773,359.1421315000043,359.12545580000733,360.1259756000072,"[0, 0, 0]",0,358.14162360000773,360.14261110001826,,,,,,,,,,,,,,,999,m,2,99,r,TEST,2021_Aug_07_1448,WASABI distractmap,2020.2.10,59.79752557858937,"['Left Arm', 'Left Face', 'Right Arm', 'Right Face']",
8,"[0, -0.2]",None,stimuli/orders/stimOrder7.xlsx,,,,,,,,,0,45,45,45,0,0,0,3,,,,,,,,,,,,,,,,,,,,,,None,None,"[1, 0, 1]",360.15931810002076,362.16031370000564,360.15931810002076,361.1599306999997,361.14329420001013,362.1436488000036,"[1, 0, 1]",0,360.15931810002076,362.16031370000564,,,,,,,,,,,,,1.9182216000044718,1.9016426000162028,999,m,2,99,r,TEST,2021_Aug_07_1448,WASABI distractmap,2020.2.10,59.79752557858937,"['Left Arm', 'Left Face', 'Right Arm', 'Right Face']",
6,"[0.2, 0]",None,stimuli/orders/stimOrder7.xlsx,,,,,,,,,0,46,46,46,0,0,0,3,,,,,,,,,,,,,,,,,,,,,,None,None,"[1, 0, 1]",362.177142200002,364.17801880001207,362.177142200002,363.1774545000226,363.1608067000052,364.16131190001033,"[1, 0, 1]",0,362.177142200002,364.17801880001207,,,,,,,,,,,,,1.9032153000007384,1.7018568000057712,999,m,2,99,r,TEST,2021_Aug_07_1448,WASABI distractmap,2020.2.10,59.79752557858937,"['Left Arm', 'Left Face', 'Right Arm', 'Right Face']",
3,"[0.2, 0.2]",None,stimuli/orders/stimOrder7.xlsx,,,,,,,,,0,47,47,47,0,0,0,3,,,,,,,,,,,,,,,,,,,,,,None,None,"[0, 0, 0]",364.19470670001465,366.19570590002695,364.19470670001465,365.1951461000135,365.17846819999977,366.17909800002235,"[0, 0, 0]",0,364.19470670001465,366.19570590002695,,,,,,,,,,,,,,,999,m,2,99,r,TEST,2021_Aug_07_1448,WASABI distractmap,2020.2.10,59.79752557858937,"['Left Arm', 'Left Face', 'Right Arm', 'Right Face']",
6,"[0.2, 0]",1.0,stimuli/orders/stimOrder7.xlsx,,,,,,,,,0,48,48,48,0,0,0,3,,,,,,,,,,,,,,,,,,,,,,None,None,"[0, 0, 0]",366.2124030000123,368.2134280000173,366.2124030000123,367.2130705000018,367.1963743000233,368.19680730000255,"[0, 0, 0]",0,366.2124030000123,368.2134280000173,,,,,,,,,,,,,,,999,m,2,99,r,TEST,2021_Aug_07_1448,WASABI distractmap,2020.2.10,59.79752557858937,"['Left Arm', 'Left Face', 'Right Arm', 'Right Face']",
5,"[0, 0]",None,stimuli/orders/stimOrder7.xlsx,,,,,,,,,0,49,49,49,0,0,0,3,,,,,,,,,,,,,,,,,,,,,,None,None,"[0, 0, 0]",368.23014830000466,370.23110970002017,368.23014830000466,369.23061530000996,369.2138912000228,370.21435770002427,"[0, 0, 0]",1,368.23014830000466,370.23110970002017,,,,,,,,,,,,,,,999,m,2,99,r,TEST,2021_Aug_07_1448,WASABI distractmap,2020.2.10,59.79752557858937,"['Left Arm', 'Left Face', 'Right Arm', 'Right Face']",
7,"[-0.2, -0.2]",None,stimuli/orders/stimOrder7.xlsx,,,,,,,,,0,50,50,50,0,0,0,3,,,,,,,,,,,,,,,,,,,,,,None,None,"[0, 0, 0]",370.24783950002166,372.2487151000241,370.24783950002166,371.248296100006,371.23167350000585,372.232021600008,"[0, 0, 0]",1,370.24783950002166,372.2487151000241,,,,,,,,,,,,,,,999,m,2,99,r,TEST,2021_Aug_07_1448,WASABI distractmap,2020.2.10,59.79752557858937,"['Left Arm', 'Left Face', 'Right Arm', 'Right Face']",
5,"[0, 0]",1.0,stimuli/orders/stimOrder7.xlsx,,,,,,,,,0,51,51,51,0,0,0,3,,,,,,,,,,,,,,,,,,,,,,None,None,"[0, 0, 0]",372.2653696000052,374.26665560001857,372.2653696000052,373.2660033000284,373.2492021000071,374.24980480002705,"[0, 0, 0]",0,372.2653696000052,374.26665560001857,,,,,,,,,,,,,,,999,m,2,99,r,TEST,2021_Aug_07_1448,WASABI distractmap,2020.2.10,59.79752557858937,"['Left Arm', 'Left Face', 'Right Arm', 'Right Face']",
1,"[-0.2, 0.2]",None,stimuli/orders/stimOrder7.xlsx,,,,,,,,,0,52,52,52,0,0,0,3,,,,,,,,,,,,,,,,,,,,,,None,None,"[0, 0, 0]",374.28310550001333,376.2842716000159,374.28310550001333,375.2835332000104,375.2668674000015,376.26756870001554,"[0, 0, 0]",1,374.28310550001333,376.2842716000159,,,,,,,,,,,,,,,999,m,2,99,r,TEST,2021_Aug_07_1448,WASABI distractmap,2020.2.10,59.79752557858937,"['Left Arm', 'Left Face', 'Right Arm', 'Right Face']",
7,"[-0.2, -0.2]",None,stimuli/orders/stimOrder7.xlsx,,,,,,,,,0,53,53,53,0,0,0,3,,,,,,,,,,,,,,,,,,,,,,None,None,"[0, 0, 0]",376.30083340001875,378.3018498000165,376.30083340001875,377.30129180001677,377.2845687000081,378.2850507000112,"[0, 0, 0]",1,376.30083340001875,378.3018498000165,,,,,,,,,,,,,,,999,m,2,99,r,TEST,2021_Aug_07_1448,WASABI distractmap,2020.2.10,59.79752557858937,"['Left Arm', 'Left Face', 'Right Arm', 'Right Face']",
9,"[0.2, -0.2]",None,stimuli/orders/stimOrder7.xlsx,,,,,,,,,0,54,54,54,0,0,0,3,,,,,,,,,,,,,,,,,,,,,,None,None,"[0, 0, 0]",378.3184468000254,380.31944330001716,378.3184468000254,379.31889510000474,379.3022485000256,380.30271720001474,"[0, 0, 0]",1,378.3184468000254,380.31944330001716,,,,,,,,,,,,,,,999,m,2,99,r,TEST,2021_Aug_07_1448,WASABI distractmap,2020.2.10,59.79752557858937,"['Left Arm', 'Left Face', 'Right Arm', 'Right Face']",
3,"[0.2, 0.2]",None,stimuli/orders/stimOrder7.xlsx,,,,,,,,,0,55,55,55,0,0,0,3,,,,,,,,,,,,,,,,,,,,,,None,None,"[0, 0, 0]",380.33607140000095,382.3371057000186,380.33607140000095,381.3366836000059,381.3199650000024,382.32050770000205,"[0, 0, 0]",1,380.33607140000095,382.3371057000186,,,,,,,,,,,,,,,999,m,2,99,r,TEST,2021_Aug_07_1448,WASABI distractmap,2020.2.10,59.79752557858937,"['Left Arm', 'Left Face', 'Right Arm', 'Right Face']",
9,"[0.2, -0.2]",1.0,stimuli/orders/stimOrder7.xlsx,,,,,,,,,0,56,56,56,0,0,0,3,,,,,,,,,,,,,,,,,,,,,,None,None,"[0, 0, 0]",382.3539078000176,384.3548781000136,382.3539078000176,383.3543431000144,383.33759920002194,384.3381154000235,"[0, 0, 0]",0,382.3539078000176,384.3548781000136,,,,,,,,,,,,,,,999,m,2,99,r,TEST,2021_Aug_07_1448,WASABI distractmap,2020.2.10,59.79752557858937,"['Left Arm', 'Left Face', 'Right Arm', 'Right Face']",
6,"[0.2, 0]",None,stimuli/orders/stimOrder7.xlsx,,,,,,,,,0,57,57,57,0,0,0,3,,,,,,,,,,,,,,,,,,,,,,None,None,"[0, 0, 0]",384.37153030000627,386.37247160001425,384.37153030000627,385.3718668000074,385.3553616000281,386.3559544000018,"[0, 0, 0]",1,384.37153030000627,386.37247160001425,,,,,,,,,,,,,,,999,m,2,99,r,TEST,2021_Aug_07_1448,WASABI distractmap,2020.2.10,59.79752557858937,"['Left Arm', 'Left Face', 'Right Arm', 'Right Face']",
2,"[0, 0.2]",None,stimuli/orders/stimOrder7.xlsx,,,,,,,,,0,58,58,58,0,0,0,3,,,,,,,,,,,,,,,,,,,,,,None,None,"[0, 0, 0]",386.38923369999975,388.3901287000044,386.38923369999975,387.3896638000151,387.372975700011,388.3734324000252,"[0, 0, 0]",1,386.38923369999975,388.3901287000044,,,,,,,,,,,,,,,999,m,2,99,r,TEST,2021_Aug_07_1448,WASABI distractmap,2020.2.10,59.79752557858937,"['Left Arm', 'Left Face', 'Right Arm', 'Right Face']",
5,"[0, 0]",None,stimuli/orders/stimOrder7.xlsx,,,,,,,,,0,59,59,59,0,0,0,3,,,,,,,,,,,,,,,,,,,,,,None,None,"[0, 0, 0]",388.4068171000108,390.4079762000183,388.4068171000108,389.4074039000261,389.39069810000365,390.3913924000226,"[0, 0, 0]",1,388.4068171000108,390.4079762000183,,,,,,,,,,,,,,,999,m,2,99,r,TEST,2021_Aug_07_1448,WASABI distractmap,2020.2.10,59.79752557858937,"['Left Arm', 'Left Face', 'Right Arm', 'Right Face']",
5,"[0, 0]",None,stimuli/orders/stimOrder7.xlsx,,,,,,,,,0,60,60,60,0,0,0,3,,,,,,,,,,,,,,,,,,,,,,None,None,"[0, 0, 0]",390.42447690002155,392.42553270002827,390.42447690002155,391.42507090000436,391.4084293000051,392.408857500006,"[0, 0, 0]",1,390.42447690002155,392.42553270002827,,,,,,,,,,,,,,,999,m,2,99,r,TEST,2021_Aug_07_1448,WASABI distractmap,2020.2.10,59.79752557858937,"['Left Arm', 'Left Face', 'Right Arm', 'Right Face']",
2,"[0, 0.2]",None,stimuli/orders/stimOrder7.xlsx,,,,,,,,,0,61,61,61,0,0,0,3,,,,,,,,,,,,,,,,,,,,,,None,None,"[0, 0, 0]",392.44219110000995,394.4431741000153,392.44219110000995,393.4426129000203,393.42595220002113,394.4264933000086,"[0, 0, 0]",1,392.44219110000995,394.4431741000153,,,,,,,,,,,,,,,999,m,2,99,r,TEST,2021_Aug_07_1448,WASABI distractmap,2020.2.10,59.79752557858937,"['Left Arm', 'Left Face', 'Right Arm', 'Right Face']",
6,"[0.2, 0]",None,stimuli/orders/stimOrder7.xlsx,,,,,,,,,0,62,62,62,0,0,0,3,,,,,,,,,,,,,,,,,,,,,,None,None,"[0, 0, 0]",394.4598938000272,396.4609165000147,394.4598938000272,395.4603981000255,395.4436954000266,396.4443087000109,"[0, 0, 0]",1,394.4598938000272,396.4609165000147,,,,,,,,,,,,,,,999,m,2,99,r,TEST,2021_Aug_07_1448,WASABI distractmap,2020.2.10,59.79752557858937,"['Left Arm', 'Left Face', 'Right Arm', 'Right Face']",
9,"[0.2, -0.2]",None,stimuli/orders/stimOrder7.xlsx,,,,,,,,,0,63,63,63,0,0,0,3,,,,,,,,,,,,,,,,,,,,,,None,None,"[0, 0, 0]",396.4775638000283,398.4785387000011,396.4775638000283,397.47828160002246,397.4615292000235,398.46208850000403,"[0, 0, 0]",1,396.4775638000283,398.4785387000011,,,,,,,,,,,,,,,999,m,2,99,r,TEST,2021_Aug_07_1448,WASABI distractmap,2020.2.10,59.79752557858937,"['Left Arm', 'Left Face', 'Right Arm', 'Right Face']",
3,"[0.2, 0.2]",None,stimuli/orders/stimOrder7.xlsx,,,,,,,,,0,64,64,64,0,0,0,3,,,,,,,,,,,,,,,,,,,,,,None,None,"[0, 0, 0]",398.49520490001305,400.496188500023,398.49520490001305,399.4957070000237,399.4790153000213,400.47964790000697,"[0, 0, 0]",1,398.49520490001305,400.496188500023,,,,,,,,,,,,,,,999,m,2,99,r,TEST,2021_Aug_07_1448,WASABI distractmap,2020.2.10,59.79752557858937,"['Left Arm', 'Left Face', 'Right Arm', 'Right Face']",
9,"[0.2, -0.2]",1.0,stimuli/orders/stimOrder7.xlsx,,,,,,,,,0,65,65,65,0,0,0,3,,,,,,,,,,,,,,,,,,,,,,None,None,"[0, 0, 0]",400.5128796000208,402.51389710002695,400.5128796000208,401.5134750000143,401.4967827000073,402.4972001000133,"[0, 0, 0]",0,400.5128796000208,402.51389710002695,,,,,,,,,,,,,,,999,m,2,99,r,TEST,2021_Aug_07_1448,WASABI distractmap,2020.2.10,59.79752557858937,"['Left Arm', 'Left Face', 'Right Arm', 'Right Face']",
7,"[-0.2, -0.2]",None,stimuli/orders/stimOrder7.xlsx,,,,,,,,,0,66,66,66,0,0,0,3,,,,,,,,,,,,,,,,,,,,,,None,None,"[0, 0, 0]",402.53056040001684,404.53157170000486,402.53056040001684,403.53102790002595,403.51434860000154,404.5149003000115,"[0, 0, 0]",1,402.53056040001684,404.53157170000486,,,,,,,,,,,,,,,999,m,2,99,r,TEST,2021_Aug_07_1448,WASABI distractmap,2020.2.10,59.79752557858937,"['Left Arm', 'Left Face', 'Right Arm', 'Right Face']",
1,"[-0.2, 0.2]",None,stimuli/orders/stimOrder7.xlsx,,,,,,,,,0,67,67,67,0,0,0,3,,,,,,,,,,,,,,,,,,,,,,None,None,"[0, 0, 0]",404.548376700026,406.54932010002085,404.548376700026,405.5487078000151,405.53203230001964,406.53266480000457,"[0, 0, 0]",1,404.548376700026,406.54932010002085,,,,,,,,,,,,,,,999,m,2,99,r,TEST,2021_Aug_07_1448,WASABI distractmap,2020.2.10,59.79752557858937,"['Left Arm', 'Left Face', 'Right Arm', 'Right Face']",
5,"[0, 0]",None,stimuli/orders/stimOrder7.xlsx,,,,,,,,,0,68,68,68,0,0,0,3,,,,,,,,,,,,,,,,,,,,,,None,None,"[0, 0, 0]",406.56600869999966,408.5669550000166,406.56600869999966,407.5663770000101,407.54971650001244,408.55022620002273,"[0, 0, 0]",1,406.56600869999966,408.5669550000166,,,,,,,,,,,,,,,999,m,2,99,r,TEST,2021_Aug_07_1448,WASABI distractmap,2020.2.10,59.79752557858937,"['Left Arm', 'Left Face', 'Right Arm', 'Right Face']",
7,"[-0.2, -0.2]",None,stimuli/orders/stimOrder7.xlsx,,,,,,,,,0,69,69,69,0,0,0,3,,,,,,,,,,,,,,,,,,,,,,None,None,"[0, 0, 0]",408.5835789000266,410.58467920002295,408.5835789000266,409.5841668000212,409.56751400002395,410.5681077000045,"[0, 0, 0]",1,408.5835789000266,410.58467920002295,,,,,,,,,,,,,,,999,m,2,99,r,TEST,2021_Aug_07_1448,WASABI distractmap,2020.2.10,59.79752557858937,"['Left Arm', 'Left Face', 'Right Arm', 'Right Face']",
5,"[0, 0]",1.0,stimuli/orders/stimOrder7.xlsx,,,,,,,,,0,70,70,70,0,0,0,3,,,,,,,,,,,,,,,,,,,,,,None,None,"[0, 0, 0]",410.60135460001766,412.6024561000231,410.60135460001766,411.60194870000123,411.5850698000286,412.585576100013,"[0, 0, 0]",0,410.60135460001766,412.6024561000231,,,,,,,,,,,,,,,999,m,2,99,r,TEST,2021_Aug_07_1448,WASABI distractmap,2020.2.10,59.79752557858937,"['Left Arm', 'Left Face', 'Right Arm', 'Right Face']",
6,"[0.2, 0]",None,stimuli/orders/stimOrder7.xlsx,,,,,,,,,0,71,71,71,0,0,0,3,,,,,,,,,,,,,,,,,,,,,,None,None,"[0, 0, 0]",412.61901610001223,414.62013350002235,412.61901610001223,413.6194074000232,413.6028377000184,414.6032580000174,"[0, 0, 0]",1,412.61901610001223,414.62013350002235,,,,,,,,,,,,,,,999,m,2,99,r,TEST,2021_Aug_07_1448,WASABI distractmap,2020.2.10,59.79752557858937,"['Left Arm', 'Left Face', 'Right Arm', 'Right Face']",
3,"[0.2, 0.2]",None,stimuli/orders/stimOrder7.xlsx,,,,,,,,,0,72,72,72,0,0,0,3,,,,,,,,,,,,,,,,,,,,,,None,None,"[0, 0, 0]",414.6366127000074,416.63763760001166,414.6366127000074,415.6371482000104,415.6204448000062,416.6209631000238,"[0, 0, 0]",1,414.6366127000074,416.63763760001166,,,,,,,,,,,,,,,999,m,2,99,r,TEST,2021_Aug_07_1448,WASABI distractmap,2020.2.10,59.79752557858937,"['Left Arm', 'Left Face', 'Right Arm', 'Right Face']",
6,"[0.2, 0]",1.0,stimuli/orders/stimOrder7.xlsx,,,,,,,,,0,73,73,73,0,0,0,3,,,,,,,,,,,,,,,,,,,,,,None,None,"[0, 0, 0]",416.6543496000231,418.65525890002027,416.6543496000231,417.6547859000275,417.6381273000152,418.63862280000467,"[0, 0, 0]",0,416.6543496000231,418.65525890002027,,,,,,,,,,,,,,,999,m,2,99,r,TEST,2021_Aug_07_1448,WASABI distractmap,2020.2.10,59.79752557858937,"['Left Arm', 'Left Face', 'Right Arm', 'Right Face']",
8,"[0, -0.2]",None,stimuli/orders/stimOrder7.xlsx,,,,,,,,,0,74,74,74,0,0,0,3,,,,,,,,,,,,,,,,,,,,,,None,None,"[0, 0, 0]",418.6719723000133,420.6729844000074,418.6719723000133,419.67256850001286,419.65585970002576,420.65638730002684,"[0, 0, 0]",1,418.6719723000133,420.6729844000074,,,,,,,,,,,,,,,999,m,2,99,r,TEST,2021_Aug_07_1448,WASABI distractmap,2020.2.10,59.79752557858937,"['Left Arm', 'Left Face', 'Right Arm', 'Right Face']",
9,"[0.2, -0.2]",None,stimuli/orders/stimOrder7.xlsx,,,,,,,,,0,75,75,75,0,0,0,3,,,,,,,,,,,,,,,,,,,,,,None,None,"[0, 0, 0]",420.6896270000143,422.6906811000081,420.6896270000143,421.69021860000794,421.6735332000244,422.67397160001565,"[0, 0, 0]",1,420.6896270000143,422.6906811000081,,,,,,,,,,,,,,,999,m,2,99,r,TEST,2021_Aug_07_1448,WASABI distractmap,2020.2.10,59.79752557858937,"['Left Arm', 'Left Face', 'Right Arm', 'Right Face']",
9,"[0.2, -0.2]",None,stimuli/orders/stimOrder7.xlsx,,,,,,,,,0,76,76,76,0,0,0,3,,,,,,,,,,,,,,,,,,,,,,None,None,"[0, 0, 0]",422.7073430000164,424.7084137000202,422.7073430000164,423.7078183000267,423.69117870001355,424.6917084000015,"[0, 0, 0]",1,422.7073430000164,424.7084137000202,,,,,,,,,,,,,,,999,m,2,99,r,TEST,2021_Aug_07_1448,WASABI distractmap,2020.2.10,59.79752557858937,"['Left Arm', 'Left Face', 'Right Arm', 'Right Face']",
1,"[-0.2, 0.2]",None,stimuli/orders/stimOrder7.xlsx,,,,,,,,,0,77,77,77,0,0,0,3,,,,,,,,,,,,,,,,,,,,,,None,None,"[0, 0, 0]",424.7249974000151,426.72610390000045,424.7249974000151,425.72564570000395,425.70891050001956,426.709353800019,"[0, 0, 0]",1,424.7249974000151,426.72610390000045,,,,,,,,,,,,,,,999,m,2,99,r,TEST,2021_Aug_07_1448,WASABI distractmap,2020.2.10,59.79752557858937,"['Left Arm', 'Left Face', 'Right Arm', 'Right Face']",
3,"[0.2, 0.2]",None,stimuli/orders/stimOrder7.xlsx,,,,,,,,,0,78,78,78,0,0,0,3,,,,,,,,,,,,,,,,,,,,,,None,None,"[0, 0, 0]",426.74277160002384,428.74371880001854,426.74277160002384,427.743260200019,427.726587400015,428.7270094000269,"[0, 0, 0]",1,426.74277160002384,428.74371880001854,,,,,,,,,,,,,,,999,m,2,99,r,TEST,2021_Aug_07_1448,WASABI distractmap,2020.2.10,59.79752557858937,"['Left Arm', 'Left Face', 'Right Arm', 'Right Face']",
5,"[0, 0]",None,stimuli/orders/stimOrder7.xlsx,,,,,,,,,0,79,79,79,0,0,0,3,,,,,,,,,,,,,,,,,,,,,,None,None,"[0, 0, 0]",428.76041470002383,430.76140220000525,428.76041470002383,429.76087520000874,429.74417080002604,430.74469940000563,"[0, 0, 0]",1,428.76041470002383,430.76140220000525,,,,,,,,,,,,,,,999,m,2,99,r,TEST,2021_Aug_07_1448,WASABI distractmap,2020.2.10,59.79752557858937,"['Left Arm', 'Left Face', 'Right Arm', 'Right Face']",
3,"[0.2, 0.2]",1.0,stimuli/orders/stimOrder7.xlsx,,,,,,,,,0,80,80,80,0,0,0,3,,,,,,,,,,,,,,,,,,,,,,None,None,"[0, 0, 0]",430.7780550000025,432.7790578000131,430.7780550000025,431.77876400001696,431.7621085999999,432.76238540001214,"[0, 0, 0]",1,430.7780550000025,432.7790578000131,,,,,,,,,,,,,,,999,m,2,99,r,TEST,2021_Aug_07_1448,WASABI distractmap,2020.2.10,59.79752557858937,"['Left Arm', 'Left Face', 'Right Arm', 'Right Face']",
4,"[-0.2, 0]",None,stimuli/orders/stimOrder7.xlsx,,,,,,,,,0,81,81,81,0,0,0,3,,,,,,,,,,,,,,,,,,,,,,None,None,"[0, 0, 0]",432.795708700025,434.7967674000247,432.795708700025,433.7962287000264,433.7795474000159,434.7800312000036,"[0, 0, 0]",0,432.795708700025,434.7967674000247,,,,,,,,,,,,,,,999,m,2,99,r,TEST,2021_Aug_07_1448,WASABI distractmap,2020.2.10,59.79752557858937,"['Left Arm', 'Left Face', 'Right Arm', 'Right Face']",
7,"[-0.2, -0.2]",None,stimuli/orders/stimOrder7.xlsx,,,,,,,,,0,82,82,82,0,0,0,3,,,,,,,,,,,,,,,,,,,,,,None,None,"[0, 0, 0]",434.81355110000004,436.8144844000053,434.81355110000004,435.8139318000176,435.79730490001384,436.7977503000002,"[0, 0, 0]",0,434.81355110000004,436.8144844000053,,,,,,,,,,,,,,,999,m,2,99,r,TEST,2021_Aug_07_1448,WASABI distractmap,2020.2.10,59.79752557858937,"['Left Arm', 'Left Face', 'Right Arm', 'Right Face']",
4,"[-0.2, 0]",1.0,stimuli/orders/stimOrder7.xlsx,,,,,,,,,0,83,83,83,0,0,0,3,,,,,,,,,,,,,,,,,,,,,,None,None,"[0, 0, 0]",436.8310722000024,438.83225390000734,436.8310722000024,437.8316745000193,437.8149871000205,438.8156063000206,"[0, 0, 0]",1,436.8310722000024,438.83225390000734,,,,,,,,,,,,,,,999,m,2,99,r,TEST,2021_Aug_07_1448,WASABI distractmap,2020.2.10,59.79752557858937,"['Left Arm', 'Left Face', 'Right Arm', 'Right Face']",
4,"[-0.2, 0]",None,stimuli/orders/stimOrder7.xlsx,,,,,,,,,0,84,84,84,0,0,0,3,,,,,,,,,,,,,,,,,,,,,,None,None,"[0, 0, 0]",438.8489295000036,440.85001829999965,438.8489295000036,439.84955650000484,439.8329598000273,440.83322130001034,"[0, 0, 0]",1,438.8489295000036,440.85001829999965,,,,,,,,,,,,,,,999,m,2,99,r,TEST,2021_Aug_07_1448,WASABI distractmap,2020.2.10,59.79752557858937,"['Left Arm', 'Left Face', 'Right Arm', 'Right Face']",
5,"[0, 0]",None,stimuli/orders/stimOrder7.xlsx,,,,,,,,,0,85,85,85,0,0,0,3,,,,,,,,,,,,,,,,,,,,,,None,None,"[0, 0, 0]",440.86668700000155,442.86772370000836,440.86668700000155,441.86779020001995,441.85169640000095,442.8511623000086,"[0, 0, 0]",1,440.86668700000155,442.86772370000836,,,,,,,,,,,,,,,999,m,2,99,r,TEST,2021_Aug_07_1448,WASABI distractmap,2020.2.10,59.79752557858937,"['Left Arm', 'Left Face', 'Right Arm', 'Right Face']",
2,"[0, 0.2]",None,stimuli/orders/stimOrder7.xlsx,,,,,,,,,0,86,86,86,0,0,0,3,,,,,,,,,,,,,,,,,,,,,,None,None,"[0, 0, 0]",442.88422420001007,444.8852081000223,442.88422420001007,443.88473890000023,443.8680377000128,444.8686020000023,"[0, 0, 0]",1,442.88422420001007,444.8852081000223,,,,,,,,,,,,,,,999,m,2,99,r,TEST,2021_Aug_07_1448,WASABI distractmap,2020.2.10,59.79752557858937,"['Left Arm', 'Left Face', 'Right Arm', 'Right Face']",
6,"[0.2, 0]",None,stimuli/orders/stimOrder7.xlsx,,,,,,,,,0,87,87,87,0,0,0,3,,,,,,,,,,,,,,,,,,,,,,None,None,"[0, 0, 0]",444.9027595000225,446.9031253000139,444.9027595000225,445.9024328000087,445.8857460000145,446.8862592000223,"[0, 0, 0]",1,444.9027595000225,446.9031253000139,,,,,,,,,,,,,,,999,m,2,99,r,TEST,2021_Aug_07_1448,WASABI distractmap,2020.2.10,59.79752557858937,"['Left Arm', 'Left Face', 'Right Arm', 'Right Face']",
7,"[-0.2, -0.2]",None,stimuli/orders/stimOrder7.xlsx,,,,,,,,,0,88,88,88,0,0,0,3,,,,,,,,,,,,,,,,,,,,,,None,None,"[0, 0, 0]",446.91961440001614,448.9206957000133,446.91961440001614,447.92005780001637,447.90688890000456,448.9206957000133,"[0, 0, 0]",1,446.91961440001614,448.9206957000133,,,,,,,,,,,,,,,999,m,2,99,r,TEST,2021_Aug_07_1448,WASABI distractmap,2020.2.10,59.79752557858937,"['Left Arm', 'Left Face', 'Right Arm', 'Right Face']",
6,"[0.2, 0]",1.0,stimuli/orders/stimOrder7.xlsx,,,,,,,,,0,89,89,89,0,0,0,3,,,,,,,,,,,,,,,,,,,,,,None,None,"[0, 0, 0]",448.937284500018,450.9384159000183,448.937284500018,449.9377497000096,449.92156490002526,450.9215666000091,"[0, 0, 0]",0,448.937284500018,450.9384159000183,,,,,,,,,,,,,,,999,m,2,99,r,TEST,2021_Aug_07_1448,WASABI distractmap,2020.2.10,59.79752557858937,"['Left Arm', 'Left Face', 'Right Arm', 'Right Face']",
6,"[0.2, 0]",None,stimuli/orders/stimOrder7.xlsx,,,,,,,,,0,90,90,90,0,0,0,3,,,,,,,,,,,,,,,,,,,,,,None,None,"[0, 0, 0]",450.9549434000219,452.95582620002097,450.9549434000219,451.95548080001026,451.939191500016,452.9392304000212,"[0, 0, 0]",1,450.9549434000219,452.95582620002097,,,,,,,,,,,,,,,999,m,2,99,r,TEST,2021_Aug_07_1448,WASABI distractmap,2020.2.10,59.79752557858937,"['Left Arm', 'Left Face', 'Right Arm', 'Right Face']",
7,"[-0.2, -0.2]",None,stimuli/orders/stimOrder7.xlsx,,,,,,,,,0,91,91,91,0,0,0,3,,,,,,,,,,,,,,,,,,,,,,None,None,"[0, 0, 0]",452.9724777000083,454.97369620000245,452.9724777000083,453.97303210000973,453.9564108000195,454.9568706000282,"[0, 0, 0]",1,452.9724777000083,454.97369620000245,,,,,,,,,,,,,,,999,m,2,99,r,TEST,2021_Aug_07_1448,WASABI distractmap,2020.2.10,59.79752557858937,"['Left Arm', 'Left Face', 'Right Arm', 'Right Face']",
6,"[0.2, 0]",1.0,stimuli/orders/stimOrder7.xlsx,,,,,,,,,0,92,92,92,0,0,0,3,,,,,,,,,,,,,,,,,,,,,,None,None,"[0, 0, 0]",454.9902122000058,456.992924900027,454.9902122000058,455.9909114000038,455.9756808000093,456.97488220001105,"[0, 0, 0]",0,454.9902122000058,456.992924900027,,,,,,,,,,,,,,,999,m,2,99,r,TEST,2021_Aug_07_1448,WASABI distractmap,2020.2.10,59.79752557858937,"['Left Arm', 'Left Face', 'Right Arm', 'Right Face']",
2,"[0, 0.2]",None,stimuli/orders/stimOrder7.xlsx,,,,,,,,,0,93,93,93,0,0,0,3,,,,,,,,,,,,,,,,,,,,,,None,None,"[0, 0, 0]",457.00954510000884,459.0123355000105,457.00954510000884,458.0093824000214,457.99289970000973,458.99330900001223,"[0, 0, 0]",1,457.00954510000884,459.0123355000105,,,,,,,,,,,,,,,999,m,2,99,r,TEST,2021_Aug_07_1448,WASABI distractmap,2020.2.10,59.79752557858937,"['Left Arm', 'Left Face', 'Right Arm', 'Right Face']",
5,"[0, 0]",None,stimuli/orders/stimOrder7.xlsx,,,,,,,,,0,94,94,94,0,0,0,3,,,,,,,,,,,,,,,,,,,,,,None,None,"[0, 0, 0]",459.02780340000754,461.02666210001917,459.02780340000754,460.0270375000255,460.0104187000252,461.0107684000104,"[0, 0, 0]",1,459.02780340000754,461.02666210001917,,,,,,,,,,,,,,,999,m,2,99,r,TEST,2021_Aug_07_1448,WASABI distractmap,2020.2.10,59.79752557858937,"['Left Arm', 'Left Face', 'Right Arm', 'Right Face']",
4,"[-0.2, 0]",None,stimuli/orders/stimOrder7.xlsx,,,,,,,,,0,95,95,95,0,0,0,3,,,,,,,,,,,,,,,,,,,,,,None,None,"[0, 0, 0]",461.0434396000055,463.04455380002037,461.0434396000055,462.04404410001007,462.0276387000049,463.0282151000283,"[0, 0, 0]",1,461.0434396000055,463.04455380002037,,,,,,,,,,,,,,,999,m,2,99,r,TEST,2021_Aug_07_1448,WASABI distractmap,2020.2.10,59.79752557858937,"['Left Arm', 'Left Face', 'Right Arm', 'Right Face']",
4,"[-0.2, 0]",None,stimuli/orders/stimOrder7.xlsx,,,,,,,,,0,96,96,96,0,0,0,3,,,,,,,,,,,,,,,,,,,,,,None,None,"[0, 0, 0]",463.0614475000184,465.06230970000615,463.0614475000184,464.06186110002454,464.04494560000603,465.04528790002223,"[0, 0, 0]",1,463.0614475000184,465.06230970000615,,,,,,,,,,,,,,,999,m,2,99,r,TEST,2021_Aug_07_1448,WASABI distractmap,2020.2.10,59.79752557858937,"['Left Arm', 'Left Face', 'Right Arm', 'Right Face']",
7,"[-0.2, -0.2]",None,stimuli/orders/stimOrder7.xlsx,,,,,,,,,0,97,97,97,0,0,0,3,,,,,,,,,,,,,,,,,,,,,,None,None,"[0, 0, 0]",465.0817925000156,None,465.0817925000156,466.09624890002306,466.06316020002123,467.06606750001083,"[0, 0, 0]",1,465.0817925000156,None,,,,,,,,,,,,,,,999,m,2,99,r,TEST,2021_Aug_07_1448,WASABI distractmap,2020.2.10,59.79752557858937,"['Left Arm', 'Left Face', 'Right Arm', 'Right Face']",
4,"[-0.2, 0]",1.0,stimuli/orders/stimOrder7.xlsx,,,,,,,,,0,98,98,98,0,0,0,3,,,,,,,,,,,,,,,,,,,,,,None,None,"[0, 0, 0]",467.0807507999998,469.08218530000886,467.0807507999998,468.0810290000227,468.0638974000176,469.06456860000617,"[0, 0, 0]",0,467.0807507999998,469.08218530000886,,,,,,,,,,,,,,,999,m,2,99,r,TEST,2021_Aug_07_1448,WASABI distractmap,2020.2.10,59.79752557858937,"['Left Arm', 'Left Face', 'Right Arm', 'Right Face']",
3,"[0.2, 0.2]",None,stimuli/orders/stimOrder7.xlsx,,,,,,,,,0,99,99,99,0,0,0,3,,,,,,,,,,,,,,,,,,,,,,None,None,"[0, 0, 0]",469.09762090002187,471.0989678000042,469.09762090002187,470.0984153000172,470.0984153000172,471.0989678000042,"[0, 0, 0]",1,469.09762090002187,471.0989678000042,,,,,,,,,,,,,,,999,m,2,99,r,TEST,2021_Aug_07_1448,WASABI distractmap,2020.2.10,59.79752557858937,"['Left Arm', 'Left Face', 'Right Arm', 'Right Face']",
5,"[0, 0]",None,stimuli/orders/stimOrder7.xlsx,,,,,,,,,0,100,100,100,0,0,0,3,,,,,,,,,,,,,,,,,,,,,,None,None,"[0, 0, 0]",471.1152510000102,473.11626530002104,471.1152510000102,472.11562930000946,472.10122420001426,473.0997894000029,"[0, 0, 0]",1,471.1152510000102,473.11626530002104,,,,,,,,,,,,,,,999,m,2,99,r,TEST,2021_Aug_07_1448,WASABI distractmap,2020.2.10,59.79752557858937,"['Left Arm', 'Left Face', 'Right Arm', 'Right Face']",
3,"[0.2, 0.2]",1.0,stimuli/orders/stimOrder7.xlsx,,,,,,,,,0,101,101,101,0,0,0,3,,,,,,,,,,,,,,,,,,,,,,None,None,"[0, 0, 0]",473.13418079999974,475.1343305000046,473.13418079999974,474.13370680002845,474.11682180000935,475.11785900001996,"[0, 0, 0]",0,473.13418079999974,475.1343305000046,,,,,,,,,,,,,,,999,m,2,99,r,TEST,2021_Aug_07_1448,WASABI distractmap,2020.2.10,59.79752557858937,"['Left Arm', 'Left Face', 'Right Arm', 'Right Face']",
1,"[-0.2, 0.2]",None,stimuli/orders/stimOrder7.xlsx,,,,,,,,,0,102,102,102,0,0,0,3,,,,,,,,,,,,,,,,,,,,,,None,None,"[0, 0, 0]",475.15097060002154,477.1519904000161,475.15097060002154,476.15104220001376,476.135185000021,477.13532460000715,"[0, 0, 0]",1,475.15097060002154,477.1519904000161,,,,,,,,,,,,,,,999,m,2,99,r,TEST,2021_Aug_07_1448,WASABI distractmap,2020.2.10,59.79752557858937,"['Left Arm', 'Left Face', 'Right Arm', 'Right Face']",
9,"[0.2, -0.2]",None,stimuli/orders/stimOrder7.xlsx,,,,,,,,,0,103,103,103,0,0,0,3,,,,,,,,,,,,,,,,,,,,,,None,None,"[0, 0, 0]",477.169533200009,479.17002990000765,477.169533200009,478.1698210000177,478.1540516000241,479.17002990000765,"[0, 0, 0]",1,477.169533200009,479.17002990000765,,,,,,,,,,,,,,,999,m,2,99,r,TEST,2021_Aug_07_1448,WASABI distractmap,2020.2.10,59.79752557858937,"['Left Arm', 'Left Face', 'Right Arm', 'Right Face']",
9,"[0.2, -0.2]",None,stimuli/orders/stimOrder7.xlsx,,,,,,,,,0,104,104,104,0,0,0,3,,,,,,,,,,,,,,,,,,,,,,None,None,"[0, 0, 0]",479.1861034000176,481.1883245000208,479.1861034000176,480.1881295000203,480.17078880002373,481.17076550002093,"[0, 0, 0]",1,479.1861034000176,481.1883245000208,,,,,,,,,,,,,,,999,m,2,99,r,TEST,2021_Aug_07_1448,WASABI distractmap,2020.2.10,59.79752557858937,"['Left Arm', 'Left Face', 'Right Arm', 'Right Face']",
8,"[0, -0.2]",None,stimuli/orders/stimOrder7.xlsx,,,,,,,,,0,105,105,105,0,0,0,3,,,,,,,,,,,,,,,,,,,,,,None,None,"[0, 0, 0]",481.2058737000043,None,481.2058737000043,482.20457660002285,482.1885743000021,483.1881158000033,"[0, 0, 0]",1,481.2058737000043,None,,,,,,,,,,,,,,,999,m,2,99,r,TEST,2021_Aug_07_1448,WASABI distractmap,2020.2.10,59.79752557858937,"['Left Arm', 'Left Face', 'Right Arm', 'Right Face']",
6,"[0.2, 0]",None,stimuli/orders/stimOrder7.xlsx,,,,,,,,,0,106,106,106,0,0,0,3,,,,,,,,,,,,,,,,,,,,,,None,None,"[0, 0, 0]",483.22144970000954,485.22525370001676,483.22144970000954,484.2220806000114,484.20547880002414,485.2069350000238,"[0, 0, 0]",1,483.22144970000954,485.22525370001676,,,,,,,,,,,,,,,999,m,2,99,r,TEST,2021_Aug_07_1448,WASABI distractmap,2020.2.10,59.79752557858937,"['Left Arm', 'Left Face', 'Right Arm', 'Right Face']",
3,"[0.2, 0.2]",None,stimuli/orders/stimOrder7.xlsx,,,,,,,,,0,107,107,107,0,0,0,3,,,,,,,,,,,,,,,,,,,,,,None,None,"[0, 0, 0]",485.241022400005,487.2405394000234,485.241022400005,486.24054060000344,486.2269482000265,487.2405394000234,"[0, 0, 0]",1,485.241022400005,487.2405394000234,,,,,,,,,,,,,,,999,m,2,99,r,TEST,2021_Aug_07_1448,WASABI distractmap,2020.2.10,59.79752557858937,"['Left Arm', 'Left Face', 'Right Arm', 'Right Face']",
6,"[0.2, 0]",1.0,stimuli/orders/stimOrder7.xlsx,,,,,,,,,0,108,108,108,0,0,0,3,,,,,,,,,,,,,,,,,,,,,,None,None,"[0, 0, 0]",487.26013700000476,None,487.26013700000476,488.275289400015,488.2402773000067,489.24108210002305,"[0, 0, 0]",0,487.26013700000476,None,,,,,,,,,,,,,,,999,m,2,99,r,TEST,2021_Aug_07_1448,WASABI distractmap,2020.2.10,59.79752557858937,"['Left Arm', 'Left Face', 'Right Arm', 'Right Face']",
5,"[0, 0]",None,stimuli/orders/stimOrder7.xlsx,,,,,,,,,0,109,109,109,0,0,0,3,,,,,,,,,,,,,,,,,,,,,,None,None,"[0, 0, 0]",489.27505000002566,491.2775223000208,489.27505000002566,490.2751133000129,490.26069900000584,491.2775223000208,"[0, 0, 0]",1,489.27505000002566,491.2775223000208,,,,,,,,,,,,,,,999,m,2,99,r,TEST,2021_Aug_07_1448,WASABI distractmap,2020.2.10,59.79752557858937,"['Left Arm', 'Left Face', 'Right Arm', 'Right Face']",
7,"[-0.2, -0.2]",None,stimuli/orders/stimOrder7.xlsx,,,,,,,,,0,110,110,110,0,0,0,3,,,,,,,,,,,,,,,,,,,,,,None,None,"[0, 0, 0]",491.29226000001654,493.29425940001966,491.29226000001654,492.29287880001357,492.2774889000284,493.27654650001205,"[0, 0, 0]",1,491.29226000001654,493.29425940001966,,,,,,,,,,,,,,,999,m,2,99,r,TEST,2021_Aug_07_1448,WASABI distractmap,2020.2.10,59.79752557858937,"['Left Arm', 'Left Face', 'Right Arm', 'Right Face']",
5,"[0, 0]",1.0,stimuli/orders/stimOrder7.xlsx,,,,,,,,,0,111,111,111,0,0,0,3,,,,,,,,,,,,,,,,,,,,,,None,None,"[0, 0, 0]",493.309488400002,495.3104745000019,493.309488400002,494.3101130000141,494.29403660001117,495.29441390000284,"[0, 0, 0]",0,493.309488400002,495.3104745000019,,,,,,,,,,,,,,,999,m,2,99,r,TEST,2021_Aug_07_1448,WASABI distractmap,2020.2.10,59.79752557858937,"['Left Arm', 'Left Face', 'Right Arm', 'Right Face']",
1,"[-0.2, 0.2]",None,stimuli/orders/stimOrder7.xlsx,,,,,,,,,0,112,112,112,0,0,0,3,,,,,,,,,,,,,,,,,,,,,,None,None,"[0, 0, 0]",495.3277439000085,497.33102030001464,495.3277439000085,496.32969460001914,496.31093510001665,497.31191899999976,"[0, 0, 0]",1,495.3277439000085,497.33102030001464,,,,,,,,,,,,,,,999,m,2,99,r,TEST,2021_Aug_07_1448,WASABI distractmap,2020.2.10,59.79752557858937,"['Left Arm', 'Left Face', 'Right Arm', 'Right Face']",
7,"[-0.2, -0.2]",None,stimuli/orders/stimOrder7.xlsx,,,,,,,,,0,113,113,113,0,0,0,3,,,,,,,,,,,,,,,,,,,,,,None,None,"[0, 0, 0]",497.3476226000057,None,497.3476226000057,498.36317760002567,498.3290130000096,499.3298494000046,"[0, 0, 0]",1,497.3476226000057,None,,,,,,,,,,,,,,,999,m,2,99,r,TEST,2021_Aug_07_1448,WASABI distractmap,2020.2.10,59.79752557858937,"['Left Arm', 'Left Face', 'Right Arm', 'Right Face']",
9,"[0.2, -0.2]",None,stimuli/orders/stimOrder7.xlsx,,,,,,,,,0,114,114,114,0,0,0,3,,,,,,,,,,,,,,,,,,,,,,None,None,"[0, 0, 0]",499.3625620000239,501.3646021000168,499.3625620000239,500.36368810001295,500.34697700000834,501.34892440002295,"[0, 0, 0]",1,499.3625620000239,501.3646021000168,,,,,,,,,,,,,,,999,m,2,99,r,TEST,2021_Aug_07_1448,WASABI distractmap,2020.2.10,59.79752557858937,"['Left Arm', 'Left Face', 'Right Arm', 'Right Face']",
3,"[0.2, 0.2]",None,stimuli/orders/stimOrder7.xlsx,,,,,,,,,0,115,115,115,0,0,0,3,,,,,,,,,,,,,,,,,,,,,,None,None,"[0, 0, 0]",501.3801451000036,None,501.3801451000036,502.3807373000018,502.3648153000104,503.36666550001246,"[0, 0, 0]",1,501.3801451000036,None,,,,,,,,,,,,,,,999,m,2,99,r,TEST,2021_Aug_07_1448,WASABI distractmap,2020.2.10,59.79752557858937,"['Left Arm', 'Left Face', 'Right Arm', 'Right Face']",
9,"[0.2, -0.2]",1.0,stimuli/orders/stimOrder7.xlsx,,,,,,,,,0,116,116,116,0,0,0,3,,,,,,,,,,,,,,,,,,,,,,None,None,"[0, 0, 0]",503.38166290000663,505.38535460000276,503.38166290000663,504.38473730001715,504.36535170002026,505.36568260000786,"[0, 0, 0]",0,503.38166290000663,505.38535460000276,,,,,,,,,,,,,,,999,m,2,99,r,TEST,2021_Aug_07_1448,WASABI distractmap,2020.2.10,59.79752557858937,"['Left Arm', 'Left Face', 'Right Arm', 'Right Face']",
6,"[0.2, 0]",None,stimuli/orders/stimOrder7.xlsx,,,,,,,,,0,117,117,117,0,0,0,3,,,,,,,,,,,,,,,,,,,,,,None,None,"[0, 0, 0]",505.3990892000147,507.40110020001885,505.3990892000147,506.39981720002834,506.38291740001296,507.38535690002027,"[0, 0, 0]",1,505.3990892000147,507.40110020001885,,,,,,,,,,,,,,,999,m,2,99,r,TEST,2021_Aug_07_1448,WASABI distractmap,2020.2.10,59.79752557858937,"['Left Arm', 'Left Face', 'Right Arm', 'Right Face']",
2,"[0, 0.2]",None,stimuli/orders/stimOrder7.xlsx,,,,,,,,,0,118,118,118,0,0,0,3,,,,,,,,,,,,,,,,,,,,,,None,None,"[0, 0, 0]",507.4166206000082,509.4216416000272,507.4166206000082,508.4175359000219,508.40073410002515,509.4015730000101,"[0, 0, 0]",1,507.4166206000082,509.4216416000272,,,,,,,,,,,,,,,999,m,2,99,r,TEST,2021_Aug_07_1448,WASABI distractmap,2020.2.10,59.79752557858937,"['Left Arm', 'Left Face', 'Right Arm', 'Right Face']",
5,"[0, 0]",None,stimuli/orders/stimOrder7.xlsx,,,,,,,,,0,119,119,119,0,0,0,3,,,,,,,,,,,,,,,,,,,,,,None,None,"[0, 0, 0]",509.4340455000056,511.43853170002694,509.4340455000056,510.4352304000058,510.42105290002655,511.4189762000169,"[0, 0, 0]",1,509.4340455000056,511.43853170002694,,,,,,,,,,,,,,,999,m,2,99,r,TEST,2021_Aug_07_1448,WASABI distractmap,2020.2.10,59.79752557858937,"['Left Arm', 'Left Face', 'Right Arm', 'Right Face']",
,,,stimuli/orders/stimOrder7.xlsx,,,,,,,,,,,,,0,0,0,3,,,,,,,,,,,,,,,,,,,,,,,,,,,,,,,,,,,,,,,,,,,23.14814814814815,511.90709193993825,,,,,999,m,2,99,r,TEST,2021_Aug_07_1448,WASABI distractmap,2020.2.10,59.79752557858937,"['Left Arm', 'Left Face', 'Right Arm', 'Right Face']",
5,"[0, 0]",None,stimuli/orders/stimOrder7.xlsx,,,,,,,,,0,0,0,0,0,0,0,3,None,None,,,,,,,,,,,,,,,,,,,,None,None,[],None,None,None,None,None,None,[],1,None,None,,,,,,,,,,,0.014138060039840639,10.014607760036597,,,999,m,2,99,r,TEST,2021_Aug_07_1448,WASABI distractmap,2020.2.10,59.79752557858937,"['Left Arm', 'Left Face', 'Right Arm', 'Right Face']",
2,"[0, 0.2]",None,stimuli/orders/stimOrder7.xlsx,,,,,,,,,0,1,1,1,0,0,0,3,,,,,,,,,,,,,,,,,,,,,,None,None,"[0, 0, 0]",530.3019191000203,None,530.3019191000203,531.3122569000116,531.2953283000097,532.2958132000058,"[0, 0, 0]",1,530.3019191000203,None,,,,,,,,,,,,,,,999,m,2,99,r,TEST,2021_Aug_07_1448,WASABI distractmap,2020.2.10,59.79752557858937,"['Left Arm', 'Left Face', 'Right Arm', 'Right Face']",
6,"[0.2, 0]",None,stimuli/orders/stimOrder7.xlsx,,,,,,,,,0,2,2,2,0,0,0,3,,,,,,,,,,,,,,,,,,,,,,None,None,"[0, 0, 0]",532.3126163000125,534.3137026000186,532.3126163000125,533.3132025000232,533.2975504000206,534.2976291000086,"[0, 0, 0]",1,532.3126163000125,534.3137026000186,,,,,,,,,,,,,,,999,m,2,99,r,TEST,2021_Aug_07_1448,WASABI distractmap,2020.2.10,59.79752557858937,"['Left Arm', 'Left Face', 'Right Arm', 'Right Face']",
9,"[0.2, -0.2]",None,stimuli/orders/stimOrder7.xlsx,,,,,,,,,0,3,3,3,0,0,0,3,,,,,,,,,,,,,,,,,,,,,,None,None,"[0, 0, 0]",534.3302548000065,536.3319422000204,534.3302548000065,535.3308958000271,535.3142313999997,536.314595200005,"[0, 0, 0]",1,534.3302548000065,536.3319422000204,,,,,,,,,,,,,,,999,m,2,99,r,TEST,2021_Aug_07_1448,WASABI distractmap,2020.2.10,59.79752557858937,"['Left Arm', 'Left Face', 'Right Arm', 'Right Face']",
3,"[0.2, 0.2]",None,stimuli/orders/stimOrder7.xlsx,,,,,,,,,0,4,4,4,0,0,0,3,,,,,,,,,,,,,,,,,,,,,,None,None,"[0, 0, 0]",536.3482680000016,538.3492291000148,536.3482680000016,537.348753600003,537.331951900007,538.332181100006,"[0, 0, 0]",1,536.3482680000016,538.3492291000148,,,,,,,,,,,,,,,999,m,2,99,r,TEST,2021_Aug_07_1448,WASABI distractmap,2020.2.10,59.79752557858937,"['Left Arm', 'Left Face', 'Right Arm', 'Right Face']",
9,"[0.2, -0.2]",1.0,stimuli/orders/stimOrder7.xlsx,,,,,,,,,0,5,5,5,0,0,0,3,,,,,,,,,,,,,,,,,,,,,,None,None,"[0, 0, 0]",538.3655706999998,540.3664923000033,538.3655706999998,539.3658600000199,539.3499347000034,540.3500980000244,"[0, 0, 0]",0,538.3655706999998,540.3664923000033,,,,,,,,,,,,,,,999,m,2,99,r,TEST,2021_Aug_07_1448,WASABI distractmap,2020.2.10,59.79752557858937,"['Left Arm', 'Left Face', 'Right Arm', 'Right Face']",
7,"[-0.2, -0.2]",None,stimuli/orders/stimOrder7.xlsx,,,,,,,,,0,6,6,6,0,0,0,3,,,,,,,,,,,,,,,,,,,,,,None,None,"[0, 0, 0]",540.3834126000002,542.3844697000168,540.3834126000002,541.384225900023,541.366980700026,542.367481400026,"[0, 0, 0]",1,540.3834126000002,542.3844697000168,,,,,,,,,,,,,,,999,m,2,99,r,TEST,2021_Aug_07_1448,WASABI distractmap,2020.2.10,59.79752557858937,"['Left Arm', 'Left Face', 'Right Arm', 'Right Face']",
1,"[-0.2, 0.2]",None,stimuli/orders/stimOrder7.xlsx,,,,,,,,,0,7,7,7,0,0,0,3,,,,,,,,,,,,,,,,,,,,,,None,None,"[0, 0, 0]",542.4018967000011,544.4028701000207,542.4018967000011,543.4017638000078,543.3851484000043,544.3859218000143,"[0, 0, 0]",1,542.4018967000011,544.4028701000207,,,,,,,,,,,,,,,999,m,2,99,r,TEST,2021_Aug_07_1448,WASABI distractmap,2020.2.10,59.79752557858937,"['Left Arm', 'Left Face', 'Right Arm', 'Right Face']",
5,"[0, 0]",None,stimuli/orders/stimOrder7.xlsx,,,,,,,,,0,8,8,8,0,0,0,3,,,,,,,,,,,,,,,,,,,,,,None,None,"[0, 0, 0]",544.4187747000251,546.4199722000048,544.4187747000251,545.4195915000164,545.403111200023,546.4038629000133,"[0, 0, 0]",1,544.4187747000251,546.4199722000048,,,,,,,,,,,,,,,999,m,2,99,r,TEST,2021_Aug_07_1448,WASABI distractmap,2020.2.10,59.79752557858937,"['Left Arm', 'Left Face', 'Right Arm', 'Right Face']",
7,"[-0.2, -0.2]",None,stimuli/orders/stimOrder7.xlsx,,,,,,,,,0,9,9,9,0,0,0,3,,,,,,,,,,,,,,,,,,,,,,None,None,"[0, 0, 0]",546.4363680000242,None,546.4363680000242,547.4368708000111,547.4209875000233,548.423008600017,"[0, 0, 0]",1,546.4363680000242,None,,,,,,,,,,,,,,,999,m,2,99,r,TEST,2021_Aug_07_1448,WASABI distractmap,2020.2.10,59.79752557858937,"['Left Arm', 'Left Face', 'Right Arm', 'Right Face']",
5,"[0, 0]",1.0,stimuli/orders/stimOrder7.xlsx,,,,,,,,,0,10,10,10,0,0,0,3,,,,,,,,,,,,,,,,,,,,,,None,None,"[0, 0, 0]",548.4379034000158,550.4382375000278,548.4379034000158,549.4375529000245,549.4222479000164,550.4234505000059,"[0, 0, 0]",0,548.4379034000158,550.4382375000278,,,,,,,,,,,,,,,999,m,2,99,r,TEST,2021_Aug_07_1448,WASABI distractmap,2020.2.10,59.79752557858937,"['Left Arm', 'Left Face', 'Right Arm', 'Right Face']",
6,"[0.2, 0]",None,stimuli/orders/stimOrder7.xlsx,,,,,,,,,0,11,11,11,0,0,0,3,,,,,,,,,,,,,,,,,,,,,,None,None,"[0, 0, 0]",550.4555908000038,552.4579492000048,550.4555908000038,551.45581460002,551.4387471000082,552.4391797000135,"[0, 0, 0]",1,550.4555908000038,552.4579492000048,,,,,,,,,,,,,,,999,m,2,99,r,TEST,2021_Aug_07_1448,WASABI distractmap,2020.2.10,59.79752557858937,"['Left Arm', 'Left Face', 'Right Arm', 'Right Face']",
3,"[0.2, 0.2]",None,stimuli/orders/stimOrder7.xlsx,,,,,,,,,0,12,12,12,0,0,0,3,,,,,,,,,,,,,,,,,,,,,,None,None,"[0, 0, 0]",552.4728940000059,554.473999800015,552.4728940000059,553.4758290000027,553.457318300003,554.4574348000169,"[0, 0, 0]",1,552.4728940000059,554.473999800015,,,,,,,,,,,,,,,999,m,2,99,r,TEST,2021_Aug_07_1448,WASABI distractmap,2020.2.10,59.79752557858937,"['Left Arm', 'Left Face', 'Right Arm', 'Right Face']",
6,"[0.2, 0]",1.0,stimuli/orders/stimOrder7.xlsx,,,,,,,,,0,13,13,13,0,0,0,3,,,,,,,,,,,,,,,,,,,,,,None,None,"[0, 0, 0]",554.4907955000235,556.4922664000187,554.4907955000235,555.4909955000039,555.4744131000189,556.4749907000223,"[0, 0, 0]",0,554.4907955000235,556.4922664000187,,,,,,,,,,,,,,,999,m,2,99,r,TEST,2021_Aug_07_1448,WASABI distractmap,2020.2.10,59.79752557858937,"['Left Arm', 'Left Face', 'Right Arm', 'Right Face']",
8,"[0, -0.2]",None,stimuli/orders/stimOrder7.xlsx,,,,,,,,,0,14,14,14,0,0,0,3,,,,,,,,,,,,,,,,,,,,,,None,None,"[0, 0, 0]",556.508636500017,558.5091713000147,556.508636500017,557.5085583000036,557.4924378000142,558.4941767000128,"[0, 0, 0]",1,556.508636500017,558.5091713000147,,,,,,,,,,,,,,,999,m,2,99,r,TEST,2021_Aug_07_1448,WASABI distractmap,2020.2.10,59.79752557858937,"['Left Arm', 'Left Face', 'Right Arm', 'Right Face']",
9,"[0.2, -0.2]",None,stimuli/orders/stimOrder7.xlsx,,,,,,,,,0,15,15,15,0,0,0,3,,,,,,,,,,,,,,,,,,,,,,None,None,"[0, 0, 0]",558.5276754000224,560.5278200000175,558.5276754000224,559.5431122000155,559.5094861000252,560.5101476000273,"[0, 0, 0]",1,558.5276754000224,560.5278200000175,,,,,,,,,,,,,,,999,m,2,99,r,TEST,2021_Aug_07_1448,WASABI distractmap,2020.2.10,59.79752557858937,"['Left Arm', 'Left Face', 'Right Arm', 'Right Face']",
9,"[0.2, -0.2]",None,stimuli/orders/stimOrder7.xlsx,,,,,,,,,0,16,16,16,0,0,0,3,,,,,,,,,,,,,,,,,,,,,,None,None,"[0, 0, 0]",560.5465148000221,None,560.5465148000221,561.5621396000206,561.5277928000141,562.5279790000059,"[0, 0, 0]",1,560.5465148000221,None,,,,,,,,,,,,,,,999,m,2,99,r,TEST,2021_Aug_07_1448,WASABI distractmap,2020.2.10,59.79752557858937,"['Left Arm', 'Left Face', 'Right Arm', 'Right Face']",
1,"[-0.2, 0.2]",None,stimuli/orders/stimOrder7.xlsx,,,,,,,,,0,17,17,17,0,0,0,3,,,,,,,,,,,,,,,,,,,,,,None,None,"[0, 0, 0]",562.5614824000222,564.5640915000113,562.5614824000222,563.5625896000129,563.5451261000126,564.5458244000038,"[0, 0, 0]",1,562.5614824000222,564.5640915000113,,,,,,,,,,,,,,,999,m,2,99,r,TEST,2021_Aug_07_1448,WASABI distractmap,2020.2.10,59.79752557858937,"['Left Arm', 'Left Face', 'Right Arm', 'Right Face']",
3,"[0.2, 0.2]",None,stimuli/orders/stimOrder7.xlsx,,,,,,,,,0,18,18,18,0,0,0,3,,,,,,,,,,,,,,,,,,,,,,None,None,"[0, 0, 0]",564.5786458000075,566.5800380000146,564.5786458000075,565.5791407000215,565.5628981000045,566.5650898000167,"[0, 0, 0]",1,564.5786458000075,566.5800380000146,,,,,,,,,,,,,,,999,m,2,99,r,TEST,2021_Aug_07_1448,WASABI distractmap,2020.2.10,59.79752557858937,"['Left Arm', 'Left Face', 'Right Arm', 'Right Face']",
5,"[0, 0]",None,stimuli/orders/stimOrder7.xlsx,,,,,,,,,0,19,19,19,0,0,0,3,,,,,,,,,,,,,,,,,,,,,,None,None,"[0, 0, 0]",566.598621400015,568.5992934000096,566.598621400015,567.6160553000227,567.5802847000014,568.5810288000212,"[0, 0, 0]",1,566.598621400015,568.5992934000096,,,,,,,,,,,,,,,999,m,2,99,r,TEST,2021_Aug_07_1448,WASABI distractmap,2020.2.10,59.79752557858937,"['Left Arm', 'Left Face', 'Right Arm', 'Right Face']",
