square,location,corrAns,trials.thisRepN,trials.thisTrialN,trials.thisN,trials.thisIndex,trials_2.thisRepN,trials_2.thisTrialN,trials_2.thisN,trials_2.thisIndex,fixation_1.started,fixation_1.stopped,grid_lines.started,grid_lines.stopped,target_square.started,target_square.stopped,fixation_2.started,fixation_2.stopped,response.corr,response.x,response.y,response.leftButton,response.click_left,response.click_right,response.started,response.stopped,ScoreReportText.started,ScoreReportText.stopped,ScoreReportResponse.keys,ScoreReportResponse.started,ScoreReportResponse.stopped,response_2.x,response_2.y,response_2.leftButton,grid_lines_2.started,grid_lines_2.stopped,target_square_2.started,target_square_2.stopped,fixation_3.started,fixation_3.stopped,response_2.click,response_2.corr,response_2.started,response_2.stopped,BodySiteInstructionText.started,BodySiteImg.started,BodySiteImg.stopped,BodySiteInstructionRead.keys,BodySiteInstructionRead.rt,BodySiteInstructionRead.started,BodySiteInstructionRead.stopped,IntensityRating.response,IntensityRating.rt,IntensityRating.started,IntensityRating.stopped,response.click,subject number,gender,distractMap first- or second-half (1 or 2),session,handedness,scanner,date,psychopyVersion,expName,frameRate,body_site_order,
6,"[0.2, 0]",None,0,0,0,0,,,,,192.65712620015256,None,193.689523300156,None,193.689523300156,194.6908148000948,194.67418760014698,None,1,0.09027777777777778,0.3958333333333333,"[0, 0, 0]",0,0,193.689523300156,None,,,,,,,,,,,,,,,,,,,,,,,,,,,,,,,999,m,2,99,r,TEST,2021_Sep_03_1118,2020.2.10,distractmap2,59.84916813454082,"['Left Arm', 'Right Arm', 'Right Face', 'Abdomen']",
6,"[0.2, 0]",1,0,1,1,1,,,,,,,195.67419359995984,None,195.67419359995984,196.6742801000364,196.657364099985,197.65751100005582,0,0.09027777777777778,0.3958333333333333,"[0, 0, 0]",0,0,195.67419359995984,None,,,,,,,,,,,,,,,,,,,,,,,,,,,,,,,999,m,2,99,r,TEST,2021_Sep_03_1118,2020.2.10,distractmap2,59.84916813454082,"['Left Arm', 'Right Arm', 'Right Face', 'Abdomen']",
2,"[0, 0.2]",0,0,2,2,2,,,,,,,197.6741738000419,None,197.6741738000419,198.6740463001188,198.65751769999042,199.6574993999675,0,0.09027777777777778,0.3958333333333333,"[0, 0, 0]",0,0,197.6741738000419,None,,,,,,,,,,,,,,,,,,,,,,,,,,,,,,,999,m,2,99,r,TEST,2021_Sep_03_1118,2020.2.10,distractmap2,59.84916813454082,"['Left Arm', 'Right Arm', 'Right Face', 'Abdomen']",
9,"[0.2, -0.2]",0,0,3,3,3,,,,,,,199.67419699998572,None,199.67419699998572,200.67422819999047,200.6575382000301,201.6574725001119,0,0.09027777777777778,0.3958333333333333,"[0, 0, 0]",0,0,199.67419699998572,None,,,,,,,,,,,,,,,,,,,,,,,,,,,,,,,999,m,2,99,r,TEST,2021_Sep_03_1118,2020.2.10,distractmap2,59.84916813454082,"['Left Arm', 'Right Arm', 'Right Face', 'Abdomen']",
9,"[0.2, -0.2]",1,0,4,4,4,,,,,,,201.67422100016847,None,201.67422100016847,202.6742364000529,202.6575601999648,203.6575382000301,0,0.09027777777777778,0.3958333333333333,"[0, 0, 0]",0,0,201.67422100016847,None,,,,,,,,,,,,,,,,,,,,,,,,,,,,,,,999,m,2,99,r,TEST,2021_Sep_03_1118,2020.2.10,distractmap2,59.84916813454082,"['Left Arm', 'Right Arm', 'Right Face', 'Abdomen']",
6,"[0.2, 0]",0,0,5,5,5,,,,,,,203.67422430007719,None,203.67422430007719,204.67422899999656,204.65756910014898,205.6575482999906,0,0.09027777777777778,0.3958333333333333,"[0, 0, 0]",0,0,203.67422430007719,None,,,,,,,,,,,,,,,,,,,,,,,,,,,,,,,999,m,2,99,r,TEST,2021_Sep_03_1118,2020.2.10,distractmap2,59.84916813454082,"['Left Arm', 'Right Arm', 'Right Face', 'Abdomen']",
4,"[-0.2, 0]",0,0,6,6,6,,,,,,,205.67423880007118,None,205.67423880007118,206.67424040008336,206.65759139996953,207.6575597000774,0,0.09027777777777778,0.3958333333333333,"[0, 0, 0]",0,0,205.67423880007118,None,,,,,,,,,,,,,,,,,,,,,,,,,,,,,,,999,m,2,99,r,TEST,2021_Sep_03_1118,2020.2.10,distractmap2,59.84916813454082,"['Left Arm', 'Right Arm', 'Right Face', 'Abdomen']",
3,"[0.2, 0.2]",0,0,7,7,7,,,,,,,207.67422730010003,None,207.67422730010003,208.67425180017017,208.6575760000851,209.6575879000593,0,0.09027777777777778,0.3958333333333333,"[0, 0, 0]",0,0,207.67422730010003,None,,,,,,,,,,,,,,,,,,,,,,,,,,,,,,,999,m,2,99,r,TEST,2021_Sep_03_1118,2020.2.10,distractmap2,59.84916813454082,"['Left Arm', 'Right Arm', 'Right Face', 'Abdomen']",
3,"[0.2, 0.2]",1,0,8,8,8,,,,,,,209.67428550007753,None,209.67428550007753,210.67427540011704,210.65761620015837,211.65761830005795,0,0.09027777777777778,0.3958333333333333,"[0, 0, 0]",0,0,209.67428550007753,None,,,,,,,,,,,,,,,,,,,,,,,,,,,,,,,999,m,2,99,r,TEST,2021_Sep_03_1118,2020.2.10,distractmap2,59.84916813454082,"['Left Arm', 'Right Arm', 'Right Face', 'Abdomen']",
8,"[0, -0.2]",0,0,9,9,9,,,,,,,211.67429160000756,None,211.67429160000756,212.6742993001826,212.65760140004568,213.65763150015846,0,0.09027777777777778,0.3958333333333333,"[0, 0, 0]",0,0,211.67429160000756,None,,,,,,,,,,,,,,,,,,,,,,,,,,,,,,,999,m,2,99,r,TEST,2021_Sep_03_1118,2020.2.10,distractmap2,59.84916813454082,"['Left Arm', 'Right Arm', 'Right Face', 'Abdomen']",
1,"[-0.2, 0.2]",0,0,10,10,10,,,,,,,213.67430329998024,None,213.67430329998024,214.67429810017347,214.657627500128,215.65764780016616,0,0.09027777777777778,0.3958333333333333,"[0, 0, 0]",0,0,213.67430329998024,None,,,,,,,,,,,,,,,,,,,,,,,,,,,,,,,999,m,2,99,r,TEST,2021_Sep_03_1118,2020.2.10,distractmap2,59.84916813454082,"['Left Arm', 'Right Arm', 'Right Face', 'Abdomen']",
2,"[0, 0.2]",0,0,11,11,11,,,,,,,215.67431400017813,None,215.67431400017813,216.67426420003176,216.65764920017682,217.65767620014958,0,0.09027777777777778,0.3958333333333333,"[0, 0, 0]",0,0,215.67431400017813,None,,,,,,,,,,,,,,,,,,,,,,,,,,,,,,,999,m,2,99,r,TEST,2021_Sep_03_1118,2020.2.10,distractmap2,59.84916813454082,"['Left Arm', 'Right Arm', 'Right Face', 'Abdomen']",
4,"[-0.2, 0]",0,0,12,12,12,,,,,,,217.67432960006408,None,217.67432960006408,218.67439790000208,218.65771430009045,219.65766740008257,0,0.09027777777777778,0.3958333333333333,"[0, 0, 0]",0,0,217.67432960006408,None,,,,,,,,,,,,,,,,,,,,,,,,,,,,,,,999,m,2,99,r,TEST,2021_Sep_03_1118,2020.2.10,distractmap2,59.84916813454082,"['Left Arm', 'Right Arm', 'Right Face', 'Abdomen']",
4,"[-0.2, 0]",1,0,13,13,13,,,,,,,219.67436489998363,None,219.67436489998363,220.67436970002018,220.6576753000263,221.6577284000814,0,0.09027777777777778,0.3958333333333333,"[0, 0, 0]",0,0,219.67436489998363,None,,,,,,,,,,,,,,,,,,,,,,,,,,,,,,,999,m,2,99,r,TEST,2021_Sep_03_1118,2020.2.10,distractmap2,59.84916813454082,"['Left Arm', 'Right Arm', 'Right Face', 'Abdomen']",
8,"[0, -0.2]",0,0,14,14,14,,,,,,,221.67437410005368,None,221.67437410005368,222.67428230005316,222.65760050015524,223.65766780008562,0,0.09027777777777778,0.3958333333333333,"[0, 0, 0]",0,0,221.67437410005368,None,,,,,,,,,,,,,,,,,,,,,,,,,,,,,,,999,m,2,99,r,TEST,2021_Sep_03_1118,2020.2.10,distractmap2,59.84916813454082,"['Left Arm', 'Right Arm', 'Right Face', 'Abdomen']",
5,"[0, 0]",0,0,15,15,15,,,,,,,223.6743187000975,None,223.6743187000975,224.67436800012365,224.65773340011947,225.65772769995965,0,0.09027777777777778,0.3958333333333333,"[0, 0, 0]",0,0,223.6743187000975,None,,,,,,,,,,,,,,,,,,,,,,,,,,,,,,,999,m,2,99,r,TEST,2021_Sep_03_1118,2020.2.10,distractmap2,59.84916813454082,"['Left Arm', 'Right Arm', 'Right Face', 'Abdomen']",
5,"[0, 0]",1,0,16,16,16,,,,,,,225.67438900005072,None,225.67438900005072,226.67444400000386,226.65773049998097,227.6577755000908,0,0.09027777777777778,0.3958333333333333,"[0, 0, 0]",0,0,225.67438900005072,None,,,,,,,,,,,,,,,,,,,,,,,,,,,,,,,999,m,2,99,r,TEST,2021_Sep_03_1118,2020.2.10,distractmap2,59.84916813454082,"['Left Arm', 'Right Arm', 'Right Face', 'Abdomen']",
1,"[-0.2, 0.2]",0,0,17,17,17,,,,,,,227.67439409997314,None,227.67439409997314,228.6744129001163,228.65775150014088,229.65775670018047,0,0.09027777777777778,0.3958333333333333,"[0, 0, 0]",0,0,227.67439409997314,None,,,,,,,,,,,,,,,,,,,,,,,,,,,,,,,999,m,2,99,r,TEST,2021_Sep_03_1118,2020.2.10,distractmap2,59.84916813454082,"['Left Arm', 'Right Arm', 'Right Face', 'Abdomen']",
3,"[0.2, 0.2]",0,0,18,18,18,,,,,,,229.67441199999303,None,229.67441199999303,230.67442210018635,230.6578059999738,231.65778260002844,0,0.09027777777777778,0.3958333333333333,"[0, 0, 0]",0,0,229.67441199999303,None,,,,,,,,,,,,,,,,,,,,,,,,,,,,,,,999,m,2,99,r,TEST,2021_Sep_03_1118,2020.2.10,distractmap2,59.84916813454082,"['Left Arm', 'Right Arm', 'Right Face', 'Abdomen']",
6,"[0.2, 0]",0,0,19,19,19,,,,,,,231.67443710006773,None,231.67443710006773,232.67443350004032,232.65779300010763,233.6577284000814,0,0.09027777777777778,0.3958333333333333,"[0, 0, 0]",0,0,231.67443710006773,None,,,,,,,,,,,,,,,,,,,,,,,,,,,,,,,999,m,2,99,r,TEST,2021_Sep_03_1118,2020.2.10,distractmap2,59.84916813454082,"['Left Arm', 'Right Arm', 'Right Face', 'Abdomen']",
1,"[-0.2, 0.2]",0,0,20,20,20,,,,,,,233.67443560017273,None,233.67443560017273,234.67444790014997,234.65781310014427,235.6578324001748,0,0.09027777777777778,0.3958333333333333,"[0, 0, 0]",0,0,233.67443560017273,None,,,,,,,,,,,,,,,,,,,,,,,,,,,,,,,999,m,2,99,r,TEST,2021_Sep_03_1118,2020.2.10,distractmap2,59.84916813454082,"['Left Arm', 'Right Arm', 'Right Face', 'Abdomen']",
1,"[-0.2, 0.2]",1,0,21,21,21,,,,,,,235.67444870015606,None,235.67444870015606,236.67447119997814,236.65783479996026,237.65783350006677,0,0.09027777777777778,0.3958333333333333,"[0, 0, 0]",0,0,235.67444870015606,None,,,,,,,,,,,,,,,,,,,,,,,,,,,,,,,999,m,2,99,r,TEST,2021_Sep_03_1118,2020.2.10,distractmap2,59.84916813454082,"['Left Arm', 'Right Arm', 'Right Face', 'Abdomen']",
1,"[-0.2, 0.2]",1,0,22,22,22,,,,,,,237.67446500016376,None,237.67446500016376,238.67453210009262,238.65785550000146,239.65784890018404,0,0.09027777777777778,0.3958333333333333,"[0, 0, 0]",0,0,237.67446500016376,None,,,,,,,,,,,,,,,,,,,,,,,,,,,,,,,999,m,2,99,r,TEST,2021_Sep_03_1118,2020.2.10,distractmap2,59.84916813454082,"['Left Arm', 'Right Arm', 'Right Face', 'Abdomen']",
3,"[0.2, 0.2]",0,0,23,23,23,,,,,,,239.67449870007113,None,239.67449870007113,240.674498999957,240.6578640001826,241.6578814999666,0,0.09027777777777778,0.3958333333333333,"[0, 0, 0]",0,0,239.67449870007113,None,,,,,,,,,,,,,,,,,,,,,,,,,,,,,,,999,m,2,99,r,TEST,2021_Sep_03_1118,2020.2.10,distractmap2,59.84916813454082,"['Left Arm', 'Right Arm', 'Right Face', 'Abdomen']",
2,"[0, 0.2]",0,0,24,24,24,,,,,,,241.6745071001351,None,241.6745071001351,242.67450820002705,242.65773780015297,243.65788610000163,0,0.09027777777777778,0.3958333333333333,"[0, 0, 0]",0,0,241.6745071001351,None,,,,,,,,,,,,,,,,,,,,,,,,,,,,,,,999,m,2,99,r,TEST,2021_Sep_03_1118,2020.2.10,distractmap2,59.84916813454082,"['Left Arm', 'Right Arm', 'Right Face', 'Abdomen']",
1,"[-0.2, 0.2]",0,0,25,25,25,,,,,,,243.67448360007256,None,243.67448360007256,244.6745649999939,244.6578722000122,245.6578766000457,0,0.09027777777777778,0.3958333333333333,"[0, 0, 0]",0,0,243.67448360007256,None,,,,,,,,,,,,,,,,,,,,,,,,,,,,,,,999,m,2,99,r,TEST,2021_Sep_03_1118,2020.2.10,distractmap2,59.84916813454082,"['Left Arm', 'Right Arm', 'Right Face', 'Abdomen']",
7,"[-0.2, -0.2]",0,0,26,26,26,,,,,,,245.67452580016106,None,245.67452580016106,246.67452400014736,246.6578901000321,247.657874800032,0,0.09027777777777778,0.3958333333333333,"[0, 0, 0]",0,0,245.67452580016106,None,,,,,,,,,,,,,,,,,,,,,,,,,,,,,,,999,m,2,99,r,TEST,2021_Sep_03_1118,2020.2.10,distractmap2,59.84916813454082,"['Left Arm', 'Right Arm', 'Right Face', 'Abdomen']",
7,"[-0.2, -0.2]",1,0,27,27,27,,,,,,,247.67454860010184,None,247.67454860010184,248.67451509996317,248.6579303999897,249.65794109995477,0,0.09027777777777778,0.3958333333333333,"[0, 0, 0]",0,0,247.67454860010184,None,,,,,,,,,,,,,,,,,,,,,,,,,,,,,,,999,m,2,99,r,TEST,2021_Sep_03_1118,2020.2.10,distractmap2,59.84916813454082,"['Left Arm', 'Right Arm', 'Right Face', 'Abdomen']",
2,"[0, 0.2]",0,0,28,28,28,,,,,,,249.67458120011725,None,249.67458120011725,250.67455460014753,250.65794740011916,251.65790450014174,0,0.09027777777777778,0.3958333333333333,"[0, 0, 0]",0,0,249.67458120011725,None,,,,,,,,,,,,,,,,,,,,,,,,,,,,,,,999,m,2,99,r,TEST,2021_Sep_03_1118,2020.2.10,distractmap2,59.84916813454082,"['Left Arm', 'Right Arm', 'Right Face', 'Abdomen']",
6,"[0.2, 0]",0,0,29,29,29,,,,,,,251.67457829997875,None,251.67457829997875,252.6746217000764,252.65792999998666,253.6579538001679,0,0.09027777777777778,0.3958333333333333,"[0, 0, 0]",0,0,251.67457829997875,None,,,,,,,,,,,,,,,,,,,,,,,,,,,,,,,999,m,2,99,r,TEST,2021_Sep_03_1118,2020.2.10,distractmap2,59.84916813454082,"['Left Arm', 'Right Arm', 'Right Face', 'Abdomen']",
,,,,,,,,,,,,,,,,,,,,,,,,,,,253.7062828000635,None,space,253.7062828000635,None,,,,,,,,,,,,,,,,,,,,,,,,,,999,m,2,99,r,TEST,2021_Sep_03_1118,2020.2.10,distractmap2,59.84916813454082,"['Left Arm', 'Right Arm', 'Right Face', 'Abdomen']",
6,"[0.2, 0]",None,,,,,0,0,0,0,303.07459380012006,None,,,,,,,,,,,,,,,,,,,,None,None,"[0, 0, 0]",304.09033580007963,None,304.09033580007963,305.09159740014,305.0749937000219,306.07493820018135,"[0, 0, 0]",1,304.09033580007963,None,,,,,,,,,,,,,999,m,2,99,r,TEST,2021_Sep_03_1118,2020.2.10,distractmap2,59.84916813454082,"['Left Arm', 'Right Arm', 'Right Face', 'Abdomen']",
7,"[-0.2, -0.2]",None,,,,,0,1,1,1,,,,,,,,,,,,,,,,,,,,,,None,None,"[0, 0, 0]",306.09166280017234,308.0912202000618,306.09166280017234,307.09169280016795,307.07495060004294,308.0749729999807,"[0, 0, 0]",1,306.09166280017234,308.0912202000618,,,,,,,,,,,,,999,m,2,99,r,TEST,2021_Sep_03_1118,2020.2.10,distractmap2,59.84916813454082,"['Left Arm', 'Right Arm', 'Right Face', 'Abdomen']",
6,"[0.2, 0]",1,,,,,0,2,2,2,,,,,,,,,,,,,,,,,,,,,,None,None,"[0, 0, 0]",308.1083140000701,310.10788700007834,308.1083140000701,309.1083064000122,309.0915483001154,310.0915721000638,"[0, 0, 0]",0,308.1083140000701,310.10788700007834,,,,,,,,,,,,,999,m,2,99,r,TEST,2021_Sep_03_1118,2020.2.10,distractmap2,59.84916813454082,"['Left Arm', 'Right Arm', 'Right Face', 'Abdomen']",
2,"[0, 0.2]",0,,,,,0,3,3,3,,,,,,,,,,,,,,,,,,,,,,None,None,"[0, 0, 0]",310.12493290007114,312.12467420008034,310.12493290007114,311.1249563000165,311.1082399999723,312.1083541000262,"[0, 0, 0]",0,310.12493290007114,312.12467420008034,,,,,,,,,,,,,999,m,2,99,r,TEST,2021_Sep_03_1118,2020.2.10,distractmap2,59.84916813454082,"['Left Arm', 'Right Arm', 'Right Face', 'Abdomen']",
5,"[0, 0]",0,,,,,0,4,4,4,,,,,,,,,,,,,,,,,,,,,,None,None,"[0, 0, 0]",312.14172030007467,314.1413634000346,312.14172030007467,313.1417197000701,313.1251102001406,314.1250283999834,"[0, 0, 0]",0,312.14172030007467,314.1413634000346,,,,,,,,,,,,,999,m,2,99,r,TEST,2021_Sep_03_1118,2020.2.10,distractmap2,59.84916813454082,"['Left Arm', 'Right Arm', 'Right Face', 'Abdomen']",
4,"[-0.2, 0]",0,,,,,0,5,5,5,,,,,,,,,,,,,,,,,,,,,,None,None,"[0, 0, 0]",314.1583822001703,316.15803040005267,314.1583822001703,315.15841719997115,315.141731900163,316.1417600000277,"[0, 0, 0]",0,314.1583822001703,316.15803040005267,,,,,,,,,,,,,999,m,2,99,r,TEST,2021_Sep_03_1118,2020.2.10,distractmap2,59.84916813454082,"['Left Arm', 'Right Arm', 'Right Face', 'Abdomen']",
4,"[-0.2, 0]",0,,,,,0,6,6,6,,,,,,,,,,,,,,,,,,,,,,None,None,"[0, 0, 0]",316.1750307001639,318.1747203001287,316.1750307001639,317.1750770001672,317.15841030003503,318.1584046999924,"[0, 0, 0]",0,316.1750307001639,318.1747203001287,,,,,,,,,,,,,999,m,2,99,r,TEST,2021_Sep_03_1118,2020.2.10,distractmap2,59.84916813454082,"['Left Arm', 'Right Arm', 'Right Face', 'Abdomen']",
7,"[-0.2, -0.2]",0,,,,,0,7,7,7,,,,,,,,,,,,,,,,,,,,,,None,None,"[0, 0, 0]",318.19177330005914,320.1913489000872,318.19177330005914,319.1917787999846,319.1751060001552,320.1750829999801,"[0, 0, 0]",0,318.19177330005914,320.1913489000872,,,,,,,,,,,,,999,m,2,99,r,TEST,2021_Sep_03_1118,2020.2.10,distractmap2,59.84916813454082,"['Left Arm', 'Right Arm', 'Right Face', 'Abdomen']",
4,"[-0.2, 0]",1,,,,,0,8,8,8,,,,,,,,,,,,,,,,,,,,,,None,None,"[0, 0, 0]",320.208425699966,322.20802800008096,320.208425699966,321.20841219997965,321.1918358001858,322.1917678001337,"[0, 0, 0]",0,320.208425699966,322.20802800008096,,,,,,,,,,,,,999,m,2,99,r,TEST,2021_Sep_03_1118,2020.2.10,distractmap2,59.84916813454082,"['Left Arm', 'Right Arm', 'Right Face', 'Abdomen']",
3,"[0.2, 0.2]",0,,,,,0,9,9,9,,,,,,,,,,,,,,,,,,,,,,None,None,"[0, 0, 0]",322.2251429001335,324.2247799001634,322.2251429001335,323.2251421001274,323.2084519001655,324.20839640009217,"[0, 0, 0]",0,322.2251429001335,324.2247799001634,,,,,,,,,,,,,999,m,2,99,r,TEST,2021_Sep_03_1118,2020.2.10,distractmap2,59.84916813454082,"['Left Arm', 'Right Arm', 'Right Face', 'Abdomen']",
5,"[0, 0]",0,,,,,0,10,10,10,,,,,,,,,,,,,,,,,,,,,,None,None,"[0, 0, 0]",324.2417928001378,326.2416096001398,324.2417928001378,325.24175549997017,325.2251457001548,326.22636059997603,"[0, 0, 0]",0,324.2417928001378,326.2416096001398,,,,,,,,,,,,,999,m,2,99,r,TEST,2021_Sep_03_1118,2020.2.10,distractmap2,59.84916813454082,"['Left Arm', 'Right Arm', 'Right Face', 'Abdomen']",
3,"[0.2, 0.2]",1,,,,,0,11,11,11,,,,,,,,,,,,,,,,,,,,,,None,None,"[0, 0, 0]",326.25870550004765,328.258061400149,326.25870550004765,327.2585030000191,327.2418194001075,328.2417725000996,"[0, 0, 0]",0,326.25870550004765,328.258061400149,,,,,,,,,,,,,999,m,2,99,r,TEST,2021_Sep_03_1118,2020.2.10,distractmap2,59.84916813454082,"['Left Arm', 'Right Arm', 'Right Face', 'Abdomen']",
1,"[-0.2, 0.2]",0,,,,,0,12,12,12,,,,,,,,,,,,,,,,,,,,,,None,None,"[0, 0, 0]",328.27513310010545,330.27476000017487,328.27513310010545,329.2751782000996,329.25850970018655,330.2584932001773,"[0, 0, 0]",0,328.27513310010545,330.27476000017487,,,,,,,,,,,,,999,m,2,99,r,TEST,2021_Sep_03_1118,2020.2.10,distractmap2,59.84916813454082,"['Left Arm', 'Right Arm', 'Right Face', 'Abdomen']",
9,"[0.2, -0.2]",0,,,,,0,13,13,13,,,,,,,,,,,,,,,,,,,,,,None,None,"[0, 0, 0]",330.2918311001267,332.2914766999893,330.2918311001267,331.2918811000418,331.27496229996905,332.27515220013447,"[0, 0, 0]",0,330.2918311001267,332.2914766999893,,,,,,,,,,,,,999,m,2,99,r,TEST,2021_Sep_03_1118,2020.2.10,distractmap2,59.84916813454082,"['Left Arm', 'Right Arm', 'Right Face', 'Abdomen']",
9,"[0.2, -0.2]",0,,,,,0,14,14,14,,,,,,,,,,,,,,,,,,,,,,None,None,"[0, 0, 0]",332.30857990006916,334.30815719999373,332.30857990006916,333.3085341001861,333.2917908001691,334.2918124999851,"[0, 0, 0]",0,332.30857990006916,334.30815719999373,,,,,,,,,,,,,999,m,2,99,r,TEST,2021_Sep_03_1118,2020.2.10,distractmap2,59.84916813454082,"['Left Arm', 'Right Arm', 'Right Face', 'Abdomen']",
8,"[0, -0.2]",0,,,,,0,15,15,15,,,,,,,,,,,,,,,,,,,,,,None,None,"[0, 0, 0]",334.3252167000901,336.32485279999673,334.3252167000901,335.3252821001224,335.30855740001425,336.3085078999866,"[0, 0, 0]",0,334.3252167000901,336.32485279999673,,,,,,,,,,,,,999,m,2,99,r,TEST,2021_Sep_03_1118,2020.2.10,distractmap2,59.84916813454082,"['Left Arm', 'Right Arm', 'Right Face', 'Abdomen']",
6,"[0.2, 0]",0,,,,,0,16,16,16,,,,,,,,,,,,,,,,,,,,,,None,None,"[0, 0, 0]",336.34192789997905,338.341506900033,336.34192789997905,337.3419522000477,337.3252384001389,338.3252695000265,"[0, 0, 0]",0,336.34192789997905,338.341506900033,,,,,,,,,,,,,999,m,2,99,r,TEST,2021_Sep_03_1118,2020.2.10,distractmap2,59.84916813454082,"['Left Arm', 'Right Arm', 'Right Face', 'Abdomen']",
3,"[0.2, 0.2]",0,,,,,0,17,17,17,,,,,,,,,,,,,,,,,,,,,,None,None,"[0, 0, 0]",338.3585900000762,340.3580899001099,338.3585900000762,339.35855530016124,339.3419380001724,340.3419200000353,"[0, 0, 0]",0,338.3585900000762,340.3580899001099,,,,,,,,,,,,,999,m,2,99,r,TEST,2021_Sep_03_1118,2020.2.10,distractmap2,59.84916813454082,"['Left Arm', 'Right Arm', 'Right Face', 'Abdomen']",
6,"[0.2, 0]",1,,,,,0,18,18,18,,,,,,,,,,,,,,,,,,,,,,None,None,"[0, 0, 0]",340.3752858999651,342.3749441001564,340.3752858999651,341.3751620000694,341.35861530015245,342.3586077000946,"[0, 0, 0]",0,340.3752858999651,342.3749441001564,,,,,,,,,,,,,999,m,2,99,r,TEST,2021_Sep_03_1118,2020.2.10,distractmap2,59.84916813454082,"['Left Arm', 'Right Arm', 'Right Face', 'Abdomen']",
5,"[0, 0]",0,,,,,0,19,19,19,,,,,,,,,,,,,,,,,,,,,,None,None,"[0, 0, 0]",342.3919230001047,344.391423500143,342.3919230001047,343.39197750017047,343.37523120013066,344.37524490011856,"[0, 0, 0]",0,342.3919230001047,344.391423500143,,,,,,,,,,,,,999,m,2,99,r,TEST,2021_Sep_03_1118,2020.2.10,distractmap2,59.84916813454082,"['Left Arm', 'Right Arm', 'Right Face', 'Abdomen']",
7,"[-0.2, -0.2]",0,,,,,0,20,20,20,,,,,,,,,,,,,,,,,,,,,,None,None,"[0, 0, 0]",344.40864540007897,346.40836890018545,344.40864540007897,345.4086291999556,345.39196759997867,346.3918379000388,"[0, 0, 0]",0,344.40864540007897,346.40836890018545,,,,,,,,,,,,,999,m,2,99,r,TEST,2021_Sep_03_1118,2020.2.10,distractmap2,59.84916813454082,"['Left Arm', 'Right Arm', 'Right Face', 'Abdomen']",
5,"[0, 0]",1,,,,,0,21,21,21,,,,,,,,,,,,,,,,,,,,,,None,None,"[0, 0, 0]",346.42525800014846,348.4249242001679,346.42525800014846,347.42531069996767,347.40853080013767,348.4086422000546,"[0, 0, 0]",0,346.42525800014846,348.4249242001679,,,,,,,,,,,,,999,m,2,99,r,TEST,2021_Sep_03_1118,2020.2.10,distractmap2,59.84916813454082,"['Left Arm', 'Right Arm', 'Right Face', 'Abdomen']",
1,"[-0.2, 0.2]",0,,,,,0,22,22,22,,,,,,,,,,,,,,,,,,,,,,None,None,"[0, 0, 0]",348.4419840001501,350.44162100018,348.4419840001501,349.4419637999963,349.42532370006666,350.42526390007697,"[0, 0, 0]",0,348.4419840001501,350.44162100018,,,,,,,,,,,,,999,m,2,99,r,TEST,2021_Sep_03_1118,2020.2.10,distractmap2,59.84916813454082,"['Left Arm', 'Right Arm', 'Right Face', 'Abdomen']",
7,"[-0.2, -0.2]",0,,,,,0,23,23,23,,,,,,,,,,,,,,,,,,,,,,None,None,"[0, 0, 0]",350.45864069997333,352.45827709999867,350.45864069997333,351.4586982000619,351.4419784001075,352.44195570005104,"[0, 0, 0]",0,350.45864069997333,352.45827709999867,,,,,,,,,,,,,999,m,2,99,r,TEST,2021_Sep_03_1118,2020.2.10,distractmap2,59.84916813454082,"['Left Arm', 'Right Arm', 'Right Face', 'Abdomen']",
9,"[0.2, -0.2]",0,,,,,0,24,24,24,,,,,,,,,,,,,,,,,,,,,,None,None,"[0, 0, 0]",352.4753473000601,354.47503200010397,352.4753473000601,353.4753948999569,353.4585009999573,354.45866550016217,"[0, 0, 0]",0,352.4753473000601,354.47503200010397,,,,,,,,,,,,,999,m,2,99,r,TEST,2021_Sep_03_1118,2020.2.10,distractmap2,59.84916813454082,"['Left Arm', 'Right Arm', 'Right Face', 'Abdomen']",
3,"[0.2, 0.2]",0,,,,,0,25,25,25,,,,,,,,,,,,,,,,,,,,,,None,None,"[0, 0, 0]",354.49199670017697,356.4916779999621,354.49199670017697,355.49206550000235,355.47538310009986,356.4753921001684,"[0, 0, 0]",0,354.49199670017697,356.4916779999621,,,,,,,,,,,,,999,m,2,99,r,TEST,2021_Sep_03_1118,2020.2.10,distractmap2,59.84916813454082,"['Left Arm', 'Right Arm', 'Right Face', 'Abdomen']",
9,"[0.2, -0.2]",1,,,,,0,26,26,26,,,,,,,,,,,,,,,,,,,,,,None,None,"[0, 0, 0]",356.50868870015256,358.5083248000592,356.50868870015256,357.50872960011475,357.4920543001499,358.4920104001649,"[0, 0, 0]",0,356.50868870015256,358.5083248000592,,,,,,,,,,,,,999,m,2,99,r,TEST,2021_Sep_03_1118,2020.2.10,distractmap2,59.84916813454082,"['Left Arm', 'Right Arm', 'Right Face', 'Abdomen']",
6,"[0.2, 0]",0,,,,,0,27,27,27,,,,,,,,,,,,,,,,,,,,,,None,None,"[0, 0, 0]",358.52540630009025,360.5249924000818,358.52540630009025,359.52542389999144,359.5087654001545,360.5087401000783,"[0, 0, 0]",0,358.52540630009025,360.5249924000818,,,,,,,,,,,,,999,m,2,99,r,TEST,2021_Sep_03_1118,2020.2.10,distractmap2,59.84916813454082,"['Left Arm', 'Right Arm', 'Right Face', 'Abdomen']",
2,"[0, 0.2]",0,,,,,0,28,28,28,,,,,,,,,,,,,,,,,,,,,,None,None,"[0, 0, 0]",360.5421237000264,362.5417246001307,360.5421237000264,361.54216870013624,361.5254613000434,362.52544250013307,"[0, 0, 0]",0,360.5421237000264,362.5417246001307,,,,,,,,,,,,,999,m,2,99,r,TEST,2021_Sep_03_1118,2020.2.10,distractmap2,59.84916813454082,"['Left Arm', 'Right Arm', 'Right Face', 'Abdomen']",
5,"[0, 0]",0,,,,,0,29,29,29,,,,,,,,,,,,,,,,,,,,,,None,None,"[0, 0, 0]",362.55877010012046,364.55836310004815,362.55877010012046,363.55881100008264,363.54211980011314,364.54209080012515,"[0, 0, 0]",0,362.55877010012046,364.55836310004815,,,,,,,,,,,,,999,m,2,99,r,TEST,2021_Sep_03_1118,2020.2.10,distractmap2,59.84916813454082,"['Left Arm', 'Right Arm', 'Right Face', 'Abdomen']",
,,,,,,,,,,,,,,,,,,,,,,,,,,,364.6071593000088,None,space,364.6071593000088,None,,,,,,,,,,,,,,,,,,,,,,,,,,999,m,2,99,r,TEST,2021_Sep_03_1118,2020.2.10,distractmap2,59.84916813454082,"['Left Arm', 'Right Arm', 'Right Face', 'Abdomen']",
3,"[0.2, 0.2]",None,,,,,0,0,0,0,381.925844399957,None,,,,,,,,,,,,,,,,,,,,None,None,"[0, 0, 0]",388.157639299985,None,388.157639299985,389.1590039001312,389.1423200999852,None,"[0, 0, 0]",1,388.157639299985,None,370.6580326000694,370.6580326000694,None,space,0.7329581999219954,370.6580326000694,None,,,,,,999,m,2,99,r,TEST,2021_Sep_03_1118,2020.2.10,distractmap2,59.84916813454082,"['Left Arm', 'Right Arm', 'Right Face', 'Abdomen']",
3,"[0.2, 0.2]",None,,,,,0,1,1,1,,,,,,,,,,,,,,,,,,,,,,None,None,"[0, 0, 0]",390.14233579998836,392.14197600004263,390.14233579998836,391.14238300011493,391.1256949000526,392.12567620002665,"[0, 0, 0]",1,390.14233579998836,392.14197600004263,,,,,,,,,,,,,999,m,2,99,r,TEST,2021_Sep_03_1118,2020.2.10,distractmap2,59.84916813454082,"['Left Arm', 'Right Arm', 'Right Face', 'Abdomen']",
5,"[0, 0]",0,,,,,0,2,2,2,,,,,,,,,,,,,,,,,,,,,,None,None,"[0, 0, 0]",392.1591364000924,394.1586607999634,392.1591364000924,393.15900920005515,393.142344100168,394.1423160000704,"[0, 0, 0]",0,392.1591364000924,394.1586607999634,,,,,,,,,,,,,999,m,2,99,r,TEST,2021_Sep_03_1118,2020.2.10,distractmap2,59.84916813454082,"['Left Arm', 'Right Arm', 'Right Face', 'Abdomen']",
1,"[-0.2, 0.2]",0,,,,,0,3,3,3,,,,,,,,,,,,,,,,,,,,,,None,None,"[0, 0, 0]",394.1756855000276,396.1752926001791,394.1756855000276,395.17580570001155,395.1592047000304,396.15900850016624,"[0, 0, 0]",0,394.1756855000276,396.1752926001791,,,,,,,,,,,,,999,m,2,99,r,TEST,2021_Sep_03_1118,2020.2.10,distractmap2,59.84916813454082,"['Left Arm', 'Right Arm', 'Right Face', 'Abdomen']",
5,"[0, 0]",1,,,,,0,4,4,4,,,,,,,,,,,,,,,,,,,,,,None,None,"[0, 0, 0]",396.2079199999571,None,396.2079199999571,397.20913089998066,397.1923649001401,398.192399200052,"[0, 0, 0]",0,396.2079199999571,None,,,,,,,,,,,,,999,m,2,99,r,TEST,2021_Sep_03_1118,2020.2.10,distractmap2,59.84916813454082,"['Left Arm', 'Right Arm', 'Right Face', 'Abdomen']",
8,"[0, -0.2]",0,,,,,0,5,5,5,,,,,,,,,,,,,,,,,,,,,,None,None,"[0, 0, 0]",398.2090762001462,400.20872220001183,398.2090762001462,399.2090485000517,399.1923943001311,400.19244990008883,"[0, 0, 0]",0,398.2090762001462,400.20872220001183,,,,,,,,,,,,,999,m,2,99,r,TEST,2021_Sep_03_1118,2020.2.10,distractmap2,59.84916813454082,"['Left Arm', 'Right Arm', 'Right Face', 'Abdomen']",
5,"[0, 0]",1,,,,,0,6,6,6,,,,,,,,,,,,,,,,,,,,,,None,None,"[0, 0, 0]",400.2257191000972,402.2253941001836,400.2257191000972,401.2257660999894,401.20907920016907,402.2090892000124,"[0, 0, 0]",0,400.2257191000972,402.2253941001836,,,,,,,,,,,,,999,m,2,99,r,TEST,2021_Sep_03_1118,2020.2.10,distractmap2,59.84916813454082,"['Left Arm', 'Right Arm', 'Right Face', 'Abdomen']",
7,"[-0.2, -0.2]",0,,,,,0,7,7,7,,,,,,,,,,,,,,,,,,,,,,None,None,"[0, 0, 0]",402.24245829996653,404.2420495999977,402.24245829996653,403.24241150007583,403.2256653001532,404.2257750001736,"[0, 0, 0]",0,402.24245829996653,404.2420495999977,,,,,,,,,,,,,999,m,2,99,r,TEST,2021_Sep_03_1118,2020.2.10,distractmap2,59.84916813454082,"['Left Arm', 'Right Arm', 'Right Face', 'Abdomen']",
5,"[0, 0]",1,,,,,0,8,8,8,,,,,,,,,,,,,,,,,,,,,,None,None,"[0, 0, 0]",404.25914300000295,406.2587543001864,404.25914300000295,405.2591136000119,405.2425286001526,406.242455100175,"[0, 0, 0]",0,404.25914300000295,406.2587543001864,,,,,,,,,,,,,999,m,2,99,r,TEST,2021_Sep_03_1118,2020.2.10,distractmap2,59.84916813454082,"['Left Arm', 'Right Arm', 'Right Face', 'Abdomen']",
7,"[-0.2, -0.2]",1,,,,,0,9,9,9,,,,,,,,,,,,,,,,,,,,,,None,None,"[0, 0, 0]",406.2758082000073,408.275381000014,406.2758082000073,407.2758180000819,407.25914070010185,408.2591413001064,"[0, 0, 0]",0,406.2758082000073,408.275381000014,,,,,,,,,,,,,999,m,2,99,r,TEST,2021_Sep_03_1118,2020.2.10,distractmap2,59.84916813454082,"['Left Arm', 'Right Arm', 'Right Face', 'Abdomen']",
,,,,,,,,,,,408.29211980011314,None,,,,,,,,,,,,,,,,,,,,,,,,,,,,,,,,,,,,,,,,50.0,410.44961922010407,,,,999,m,2,99,r,TEST,2021_Sep_03_1118,2020.2.10,distractmap2,59.84916813454082,"['Left Arm', 'Right Arm', 'Right Face', 'Abdomen']",
6,"[0.2, 0]",None,,,,,0,0,0,0,422.09405470010825,None,,,,,,,,,,,,,,,,,,,,None,None,"[0, 0, 0]",428.34135770006105,None,428.34135770006105,429.3426383000333,429.32594590005465,None,"[0, 0, 0]",1,428.34135770006105,None,,,,,,,,,,0.014508380088955164,5.011871580034494,,999,m,2,99,r,TEST,2021_Sep_03_1118,2020.2.10,distractmap2,59.84916813454082,"['Left Arm', 'Right Arm', 'Right Face', 'Abdomen']",
1,"[-0.2, 0.2]",None,,,,,0,1,1,1,,,,,,,,,,,,,,,,,,,,,,None,None,"[0, 0, 0]",430.3259905001614,432.3256400001701,430.3259905001614,431.3259924000595,431.3093221001327,432.3093366001267,"[0, 0, 0]",1,430.3259905001614,432.3256400001701,,,,,,,,,,,,,999,m,2,99,r,TEST,2021_Sep_03_1118,2020.2.10,distractmap2,59.84916813454082,"['Left Arm', 'Right Arm', 'Right Face', 'Abdomen']",
6,"[0.2, 0]",1,,,,,0,2,2,2,,,,,,,,,,,,,,,,,,,,,,None,None,"[0, 0, 0]",432.3426802000031,434.3422893001698,432.3426802000031,433.34268790017813,433.3260139001068,434.3260090001859,"[0, 0, 0]",0,432.3426802000031,434.3422893001698,,,,,,,,,,,,,999,m,2,99,r,TEST,2021_Sep_03_1118,2020.2.10,distractmap2,59.84916813454082,"['Left Arm', 'Right Arm', 'Right Face', 'Abdomen']",
4,"[-0.2, 0]",0,,,,,0,3,3,3,,,,,,,,,,,,,,,,,,,,,,None,None,"[0, 0, 0]",434.35938190016896,436.35897390008904,434.35938190016896,435.359356299974,435.3427214999683,436.3426930999849,"[0, 0, 0]",0,434.35938190016896,436.35897390008904,,,,,,,,,,,,,999,m,2,99,r,TEST,2021_Sep_03_1118,2020.2.10,distractmap2,59.84916813454082,"['Left Arm', 'Right Arm', 'Right Face', 'Abdomen']",
1,"[-0.2, 0.2]",0,,,,,0,4,4,4,,,,,,,,,,,,,,,,,,,,,,None,None,"[0, 0, 0]",436.44175670016557,None,436.44175670016557,437.44277820014395,437.4260556001682,None,"[0, 0, 0]",0,436.44175670016557,None,,,,,,,,,,,,,999,m,2,99,r,TEST,2021_Sep_03_1118,2020.2.10,distractmap2,59.84916813454082,"['Left Arm', 'Right Arm', 'Right Face', 'Abdomen']",
8,"[0, -0.2]",0,,,,,0,5,5,5,,,,,,,,,,,,,,,,,,,,,,None,None,"[0, 0, 0]",438.3927115001716,440.3923327999655,438.3927115001716,439.39274949999526,439.37605080008507,440.3760478000622,"[0, 0, 0]",0,438.3927115001716,440.3923327999655,,,,,,,,,,,,,999,m,2,99,r,TEST,2021_Sep_03_1118,2020.2.10,distractmap2,59.84916813454082,"['Left Arm', 'Right Arm', 'Right Face', 'Abdomen']",
1,"[-0.2, 0.2]",1,,,,,0,6,6,6,,,,,,,,,,,,,,,,,,,,,,None,None,"[0, 0, 0]",440.40939890011214,442.4090182001237,440.40939890011214,441.409432800021,441.39272959996015,442.39270680001937,"[0, 0, 0]",0,440.40939890011214,442.4090182001237,,,,,,,,,,,,,999,m,2,99,r,TEST,2021_Sep_03_1118,2020.2.10,distractmap2,59.84916813454082,"['Left Arm', 'Right Arm', 'Right Face', 'Abdomen']",
8,"[0, -0.2]",1,,,,,0,7,7,7,,,,,,,,,,,,,,,,,,,,,,None,None,"[0, 0, 0]",442.4261132001411,444.42571340012364,442.4261132001411,443.42603780003265,443.4093661000952,444.4094163000118,"[0, 0, 0]",0,442.4261132001411,444.42571340012364,,,,,,,,,,,,,999,m,2,99,r,TEST,2021_Sep_03_1118,2020.2.10,distractmap2,59.84916813454082,"['Left Arm', 'Right Arm', 'Right Face', 'Abdomen']",
1,"[-0.2, 0.2]",1,,,,,0,8,8,8,,,,,,,,,,,,,,,,,,,,,,None,None,"[0, 0, 0]",444.44275100016966,446.44238070002757,444.44275100016966,445.44278830010444,445.4260967001319,446.4260333001148,"[0, 0, 0]",0,444.44275100016966,446.44238070002757,,,,,,,,,,,,,999,m,2,99,r,TEST,2021_Sep_03_1118,2020.2.10,distractmap2,59.84916813454082,"['Left Arm', 'Right Arm', 'Right Face', 'Abdomen']",
6,"[0.2, 0]",0,,,,,0,9,9,9,,,,,,,,,,,,,,,,,,,,,,None,None,"[0, 0, 0]",446.45949920010753,448.45904120011255,446.45949920010753,447.45936770015396,447.4428114001639,448.4427708000876,"[0, 0, 0]",0,446.45949920010753,448.45904120011255,,,,,,,,,,,,,999,m,2,99,r,TEST,2021_Sep_03_1118,2020.2.10,distractmap2,59.84916813454082,"['Left Arm', 'Right Arm', 'Right Face', 'Abdomen']",
,,,,,,,,,,,448.4758665000554,None,,,,,,,,,,,,,,,,,,,,,,,,,,,,,,,,,,,,,,,,50.0,452.63255811994895,,,,999,m,2,99,r,TEST,2021_Sep_03_1118,2020.2.10,distractmap2,59.84916813454082,"['Left Arm', 'Right Arm', 'Right Face', 'Abdomen']",
5,"[0, 0]",None,0,0,0,0,,,,,463.71099540009163,None,468.54172670003027,None,468.54172670003027,469.54286100016907,469.52619340014644,None,1,None,None,"[0, 0, 0]",,,468.54172670003027,None,,,,,,,,,,,,,,,,,,,,,,,,,,,,0.0152692801784724,5.013496480183676,"[0, 0, 0]",999,m,2,99,r,TEST,2021_Sep_03_1118,2020.2.10,distractmap2,59.84916813454082,"['Left Arm', 'Right Arm', 'Right Face', 'Abdomen']",
5,"[0, 0]",1,0,1,1,1,,,,,,,470.52631500014104,None,470.52631500014104,471.5263661001809,471.5096666000318,472.50966050010175,0,None,None,"[0, 0, 0]",,,470.52631500014104,None,,,,,,,,,,,,,,,,,,,,,,,,,,,,,,"[0, 0, 0]",999,m,2,99,r,TEST,2021_Sep_03_1118,2020.2.10,distractmap2,59.84916813454082,"['Left Arm', 'Right Arm', 'Right Face', 'Abdomen']",
4,"[-0.2, 0]",0,0,2,2,2,,,,,,,472.52631780016236,472.52631780016236,472.52631780016236,473.526335200062,473.5096748000942,474.50966039998457,0,None,None,"[0, 0, 0]",,,472.52631780016236,472.52631780016236,,,,,,,,,,,,,,,,,,,,,,,,,,,,,,"[0, 0, 0]",999,m,2,99,r,TEST,2021_Sep_03_1118,2020.2.10,distractmap2,59.84916813454082,"['Left Arm', 'Right Arm', 'Right Face', 'Abdomen']",
2,"[0, 0.2]",0,0,3,3,3,,,,,,,474.52634680015035,474.52634680015035,474.52634680015035,475.5263503000606,475.50967669999227,476.50968300015666,0,None,None,"[0, 0, 0]",,,474.52634680015035,474.52634680015035,,,,,,,,,,,,,,,,,,,,,,,,,,,,,,"[0, 0, 0]",999,m,2,99,r,TEST,2021_Sep_03_1118,2020.2.10,distractmap2,59.84916813454082,"['Left Arm', 'Right Arm', 'Right Face', 'Abdomen']",
6,"[0.2, 0]",0,0,4,4,4,,,,,,,476.5767070001457,476.5767070001457,476.5767070001457,477.57644440000877,477.55973340012133,None,0,None,None,"[0, 0, 0]",,,476.5767070001457,476.5767070001457,,,,,,,,,,,,,,,,,,,,,,,,,,,,,,"[0, 0, 0]",999,m,2,99,r,TEST,2021_Sep_03_1118,2020.2.10,distractmap2,59.84916813454082,"['Left Arm', 'Right Arm', 'Right Face', 'Abdomen']",
8,"[0, -0.2]",0,0,5,5,5,,,,,,,478.54305059998296,None,478.54305059998296,479.5430336999707,479.52637650002725,480.526348200161,0,None,None,"[0, 0, 0]",,,478.54305059998296,None,,,,,,,,,,,,,,,,,,,,,,,,,,,,,,"[0, 0, 0]",999,m,2,99,r,TEST,2021_Sep_03_1118,2020.2.10,distractmap2,59.84916813454082,"['Left Arm', 'Right Arm', 'Right Face', 'Abdomen']",
1,"[-0.2, 0.2]",0,0,6,6,6,,,,,,,480.5430862000212,480.5430862000212,480.5430862000212,481.5431504000444,481.5264028001111,482.526378700044,0,None,None,"[0, 0, 0]",,,480.5430862000212,480.5430862000212,,,,,,,,,,,,,,,,,,,,,,,,,,,,,,"[0, 0, 0]",999,m,2,99,r,TEST,2021_Sep_03_1118,2020.2.10,distractmap2,59.84916813454082,"['Left Arm', 'Right Arm', 'Right Face', 'Abdomen']",
4,"[-0.2, 0]",0,0,7,7,7,,,,,,,482.543122000061,482.543122000061,482.543122000061,483.54304779996164,483.52637310000136,484.52636130014434,0,None,None,"[0, 0, 0]",,,482.543122000061,482.543122000061,,,,,,,,,,,,,,,,,,,,,,,,,,,,,,"[0, 0, 0]",999,m,2,99,r,TEST,2021_Sep_03_1118,2020.2.10,distractmap2,59.84916813454082,"['Left Arm', 'Right Arm', 'Right Face', 'Abdomen']",
8,"[0, -0.2]",0,0,8,8,8,,,,,,,484.54310180014,484.54310180014,484.54310180014,485.5430825999938,485.52637890004553,486.52643760014325,0,None,None,"[0, 0, 0]",,,484.54310180014,484.54310180014,,,,,,,,,,,,,,,,,,,,,,,,,,,,,,"[0, 0, 0]",999,m,2,99,r,TEST,2021_Sep_03_1118,2020.2.10,distractmap2,59.84916813454082,"['Left Arm', 'Right Arm', 'Right Face', 'Abdomen']",
8,"[0, -0.2]",1,0,9,9,9,,,,,,,486.5431264000945,486.5431264000945,486.5431264000945,487.54309340007603,487.5264237001538,488.526432499988,0,None,None,"[0, 0, 0]",,,486.5431264000945,486.5431264000945,,,,,,,,,,,,,,,,,,,,,,,,,,,,,,"[0, 0, 0]",999,m,2,99,r,TEST,2021_Sep_03_1118,2020.2.10,distractmap2,59.84916813454082,"['Left Arm', 'Right Arm', 'Right Face', 'Abdomen']",
,,,,,,,,,,,488.54274080018513,None,,,,,,,,,,,,,,,,,,,,,,,,,,,,,,,,,,,,,,,,50.0,494.69950661971234,,,,999,m,2,99,r,TEST,2021_Sep_03_1118,2020.2.10,distractmap2,59.84916813454082,"['Left Arm', 'Right Arm', 'Right Face', 'Abdomen']",
7,"[-0.2, -0.2]",None,,,,,0,0,0,0,505.9781997001264,None,,,,,,,,,,,,,,,,,,,,None,None,"[0, 0, 0]",508.6086310001556,None,508.6086310001556,509.60993469995447,509.59329140000045,None,"[0, 0, 0]",1,508.6086310001556,None,,,,,,,,,,0.015289680333808064,5.01348428032361,,999,m,2,99,r,TEST,2021_Sep_03_1118,2020.2.10,distractmap2,59.84916813454082,"['Left Arm', 'Right Arm', 'Right Face', 'Abdomen']",
7,"[-0.2, -0.2]",None,,,,,0,1,1,1,,,,,,,,,,,,,,,,,,,,,,None,None,"[0, 0, 0]",510.59331010002643,512.5929231999908,510.59331010002643,511.5932909999974,511.57661570003256,512.5765899000689,"[0, 0, 0]",1,510.59331010002643,512.5929231999908,,,,,,,,,,,,,999,m,2,99,r,TEST,2021_Sep_03_1118,2020.2.10,distractmap2,59.84916813454082,"['Left Arm', 'Right Arm', 'Right Face', 'Abdomen']",
7,"[-0.2, -0.2]",1,,,,,0,2,2,2,,,,,,,,,,,,,,,,,,,,,,None,None,"[0, 0, 0]",512.6099953001831,514.6095745000057,512.6099953001831,513.6099936000537,513.5933086001314,514.5933183999732,"[0, 0, 0]",0,512.6099953001831,514.6095745000057,,,,,,,,,,,,,999,m,2,99,r,TEST,2021_Sep_03_1118,2020.2.10,distractmap2,59.84916813454082,"['Left Arm', 'Right Arm', 'Right Face', 'Abdomen']",
5,"[0, 0]",0,,,,,0,3,3,3,,,,,,,,,,,,,,,,,,,,,,None,None,"[0, 0, 0]",514.6266594000626,516.6262586000375,514.6266594000626,515.626615999965,515.6099982000887,516.6099954000674,"[0, 0, 0]",0,514.6266594000626,516.6262586000375,,,,,,,,,,,,,999,m,2,99,r,TEST,2021_Sep_03_1118,2020.2.10,distractmap2,59.84916813454082,"['Left Arm', 'Right Arm', 'Right Face', 'Abdomen']",
1,"[-0.2, 0.2]",0,,,,,0,4,4,4,,,,,,,,,,,,,,,,,,,,,,None,None,"[0, 0, 0]",516.6756456999574,None,516.6756456999574,517.6767023000866,517.6599642999936,None,"[0, 0, 0]",0,516.6756456999574,None,,,,,,,,,,,,,999,m,2,99,r,TEST,2021_Sep_03_1118,2020.2.10,distractmap2,59.84916813454082,"['Left Arm', 'Right Arm', 'Right Face', 'Abdomen']",
6,"[0.2, 0]",0,,,,,0,5,5,5,,,,,,,,,,,,,,,,,,,,,,None,None,"[0, 0, 0]",518.6600071000867,520.6596010001376,518.6600071000867,519.6600039000623,519.6433218000457,520.6432898000348,"[0, 0, 0]",0,518.6600071000867,520.6596010001376,,,,,,,,,,,,,999,m,2,99,r,TEST,2021_Sep_03_1118,2020.2.10,distractmap2,59.84916813454082,"['Left Arm', 'Right Arm', 'Right Face', 'Abdomen']",
1,"[-0.2, 0.2]",1,,,,,0,6,6,6,,,,,,,,,,,,,,,,,,,,,,None,None,"[0, 0, 0]",520.6767106000334,522.6763284001499,520.6767106000334,521.6766850999556,521.6600462000351,522.6600240999833,"[0, 0, 0]",0,520.6767106000334,522.6763284001499,,,,,,,,,,,,,999,m,2,99,r,TEST,2021_Sep_03_1118,2020.2.10,distractmap2,59.84916813454082,"['Left Arm', 'Right Arm', 'Right Face', 'Abdomen']",
7,"[-0.2, -0.2]",0,,,,,0,7,7,7,,,,,,,,,,,,,,,,,,,,,,None,None,"[0, 0, 0]",522.693516000174,524.6930067001376,522.693516000174,523.6934390000533,523.6767071001232,524.6766680001747,"[0, 0, 0]",0,522.693516000174,524.6930067001376,,,,,,,,,,,,,999,m,2,99,r,TEST,2021_Sep_03_1118,2020.2.10,distractmap2,59.84916813454082,"['Left Arm', 'Right Arm', 'Right Face', 'Abdomen']",
6,"[0.2, 0]",0,,,,,0,8,8,8,,,,,,,,,,,,,,,,,,,,,,None,None,"[0, 0, 0]",524.7100556001533,526.709653600119,524.7100556001533,525.7100406000391,525.6933711001184,526.6934001999907,"[0, 0, 0]",0,524.7100556001533,526.709653600119,,,,,,,,,,,,,999,m,2,99,r,TEST,2021_Sep_03_1118,2020.2.10,distractmap2,59.84916813454082,"['Left Arm', 'Right Arm', 'Right Face', 'Abdomen']",
7,"[-0.2, -0.2]",1,,,,,0,9,9,9,,,,,,,,,,,,,,,,,,,,,,None,None,"[0, 0, 0]",526.7267940000165,528.7263772001024,526.7267940000165,527.7267708000727,527.7100839000195,528.7100556001533,"[0, 0, 0]",0,526.7267940000165,528.7263772001024,,,,,,,,,,,,,999,m,2,99,r,TEST,2021_Sep_03_1118,2020.2.10,distractmap2,59.84916813454082,"['Left Arm', 'Right Arm', 'Right Face', 'Abdomen']",
,,,,,,,,,,,528.7430237999652,None,,,,,,,,,,,,,,,,,,,,,,,,,,,,,,,,,,,,,,,,50.0,534.9000361200888,,,,999,m,2,99,r,TEST,2021_Sep_03_1118,2020.2.10,distractmap2,59.84916813454082,"['Left Arm', 'Right Arm', 'Right Face', 'Abdomen']",
3,"[0.2, 0.2]",None,0,0,0,0,,,,,546.3619280001149,None,548.8089636999648,None,548.8089636999648,549.810299700126,549.7935866001062,None,1,None,None,"[0, 0, 0]",,,548.8089636999648,None,,,,,,,,,,,,,,,,,,,,,,,,,,,,0.015061380108818412,5.01305558020249,"[0, 0, 0]",999,m,2,99,r,TEST,2021_Sep_03_1118,2020.2.10,distractmap2,59.84916813454082,"['Left Arm', 'Right Arm', 'Right Face', 'Abdomen']",
4,"[-0.2, 0]",0,0,1,1,1,,,,,,,550.7936124000698,None,550.7936124000698,551.7935973999556,551.7769249000121,552.7769214999862,0,None,None,"[0, 0, 0]",,,550.7936124000698,None,,,,,,,,,,,,,,,,,,,,,,,,,,,,,,"[0, 0, 0]",999,m,2,99,r,TEST,2021_Sep_03_1118,2020.2.10,distractmap2,59.84916813454082,"['Left Arm', 'Right Arm', 'Right Face', 'Abdomen']",
1,"[-0.2, 0.2]",0,0,2,2,2,,,,,,,552.7936252001673,552.7936252001673,552.7936252001673,553.7936060000211,553.7769443001598,554.7769597000442,0,None,None,"[0, 0, 0]",,,552.7936252001673,552.7936252001673,,,,,,,,,,,,,,,,,,,,,,,,,,,,,,"[0, 0, 0]",999,m,2,99,r,TEST,2021_Sep_03_1118,2020.2.10,distractmap2,59.84916813454082,"['Left Arm', 'Right Arm', 'Right Face', 'Abdomen']",
2,"[0, 0.2]",0,0,3,3,3,,,,,,,554.7936059001368,554.7936059001368,554.7936059001368,555.7935359000694,555.7769086000044,556.7769603000488,0,None,None,"[0, 0, 0]",,,554.7936059001368,554.7936059001368,,,,,,,,,,,,,,,,,,,,,,,,,,,,,,"[0, 0, 0]",999,m,2,99,r,TEST,2021_Sep_03_1118,2020.2.10,distractmap2,59.84916813454082,"['Left Arm', 'Right Arm', 'Right Face', 'Abdomen']",
2,"[0, 0.2]",1,0,4,4,4,,,,,,,556.8088983001653,556.8088983001653,556.8088983001653,557.8103941001464,557.793641900178,558.7936356000137,0,None,None,"[0, 0, 0]",,,556.8088983001653,556.8088983001653,,,,,,,,,,,,,,,,,,,,,,,,,,,,,,"[0, 0, 0]",999,m,2,99,r,TEST,2021_Sep_03_1118,2020.2.10,distractmap2,59.84916813454082,"['Left Arm', 'Right Arm', 'Right Face', 'Abdomen']",
5,"[0, 0]",0,0,5,5,5,,,,,,,558.8103529000655,None,558.8103529000655,559.8103009001352,559.7935244999826,560.7937156001572,0,None,None,"[0, 0, 0]",,,558.8103529000655,None,,,,,,,,,,,,,,,,,,,,,,,,,,,,,,"[0, 0, 0]",999,m,2,99,r,TEST,2021_Sep_03_1118,2020.2.10,distractmap2,59.84916813454082,"['Left Arm', 'Right Arm', 'Right Face', 'Abdomen']",
1,"[-0.2, 0.2]",0,0,6,6,6,,,,,,,560.8103369001765,560.8103369001765,560.8103369001765,561.810343200108,561.7936619999819,562.7936998000368,0,None,None,"[0, 0, 0]",,,560.8103369001765,560.8103369001765,,,,,,,,,,,,,,,,,,,,,,,,,,,,,,"[0, 0, 0]",999,m,2,99,r,TEST,2021_Sep_03_1118,2020.2.10,distractmap2,59.84916813454082,"['Left Arm', 'Right Arm', 'Right Face', 'Abdomen']",
1,"[-0.2, 0.2]",1,0,7,7,7,,,,,,,562.8103744001128,562.8103744001128,562.8103744001128,563.810319900047,563.7937164001632,564.7936829000246,0,None,None,"[0, 0, 0]",,,562.8103744001128,562.8103744001128,,,,,,,,,,,,,,,,,,,,,,,,,,,,,,"[0, 0, 0]",999,m,2,99,r,TEST,2021_Sep_03_1118,2020.2.10,distractmap2,59.84916813454082,"['Left Arm', 'Right Arm', 'Right Face', 'Abdomen']",
8,"[0, -0.2]",0,0,8,8,8,,,,,,,564.810460699955,564.810460699955,564.810460699955,565.8104044999927,565.7937163000461,566.7937283001374,0,None,None,"[0, 0, 0]",,,564.810460699955,564.810460699955,,,,,,,,,,,,,,,,,,,,,,,,,,,,,,"[0, 0, 0]",999,m,2,99,r,TEST,2021_Sep_03_1118,2020.2.10,distractmap2,59.84916813454082,"['Left Arm', 'Right Arm', 'Right Face', 'Abdomen']",
7,"[-0.2, -0.2]",0,0,9,9,9,,,,,,,566.8104220000096,566.8104220000096,566.8104220000096,567.8103795000352,567.7937229999807,568.7937366000842,0,None,None,"[0, 0, 0]",,,566.8104220000096,566.8104220000096,,,,,,,,,,,,,,,,,,,,,,,,,,,,,,"[0, 0, 0]",999,m,2,99,r,TEST,2021_Sep_03_1118,2020.2.10,distractmap2,59.84916813454082,"['Left Arm', 'Right Arm', 'Right Face', 'Abdomen']",
,,,,,,,,,,,568.8100364001002,None,,,,,,,,,,,,,,,,,,,,,,,,,,,,,,,,,,,,,,,,50.0,570.966979320161,,,,999,m,2,99,r,TEST,2021_Sep_03_1118,2020.2.10,distractmap2,59.84916813454082,"['Left Arm', 'Right Arm', 'Right Face', 'Abdomen']",
4,"[-0.2, 0]",None,,,,,0,0,0,0,582.0107637001202,None,,,,,,,,,,,,,,,,,,,,None,None,"[0, 0, 0]",588.8759660001379,None,588.8759660001379,589.8771971999668,589.8605245000217,None,"[0, 0, 0]",1,588.8759660001379,None,,,,,,,,,,0.015060379868373275,5.013009979855269,,999,m,2,99,r,TEST,2021_Sep_03_1118,2020.2.10,distractmap2,59.84916813454082,"['Left Arm', 'Right Arm', 'Right Face', 'Abdomen']",
5,"[0, 0]",None,,,,,0,1,1,1,,,,,,,,,,,,,,,,,,,,,,None,None,"[0, 0, 0]",590.8607457999606,592.860170400003,590.8607457999606,591.8605434000492,591.8438371999655,592.8438864001073,"[0, 0, 0]",1,590.8607457999606,592.860170400003,,,,,,,,,,,,,999,m,2,99,r,TEST,2021_Sep_03_1118,2020.2.10,distractmap2,59.84916813454082,"['Left Arm', 'Right Arm', 'Right Face', 'Abdomen']",
6,"[0.2, 0]",0,,,,,0,2,2,2,,,,,,,,,,,,,,,,,,,,,,None,None,"[0, 0, 0]",592.8772062000353,594.8768617000896,592.8772062000353,593.8772177000064,593.8605995001271,594.8604721999727,"[0, 0, 0]",0,592.8772062000353,594.8768617000896,,,,,,,,,,,,,999,m,2,99,r,TEST,2021_Sep_03_1118,2020.2.10,distractmap2,59.84916813454082,"['Left Arm', 'Right Arm', 'Right Face', 'Abdomen']",
1,"[-0.2, 0.2]",0,,,,,0,3,3,3,,,,,,,,,,,,,,,,,,,,,,None,None,"[0, 0, 0]",594.8938978000078,596.893550200155,594.8938978000078,595.8938554001506,595.8772726000752,596.8771753001492,"[0, 0, 0]",0,594.8938978000078,596.893550200155,,,,,,,,,,,,,999,m,2,99,r,TEST,2021_Sep_03_1118,2020.2.10,distractmap2,59.84916813454082,"['Left Arm', 'Right Arm', 'Right Face', 'Abdomen']",
6,"[0.2, 0]",1,,,,,0,4,4,4,,,,,,,,,,,,,,,,,,,,,,None,None,"[0, 0, 0]",596.9775539999828,None,596.9775539999828,597.9773079000879,597.9605862000026,None,"[0, 0, 0]",0,596.9775539999828,None,,,,,,,,,,,,,999,m,2,99,r,TEST,2021_Sep_03_1118,2020.2.10,distractmap2,59.84916813454082,"['Left Arm', 'Right Arm', 'Right Face', 'Abdomen']",
1,"[-0.2, 0.2]",1,,,,,0,5,5,5,,,,,,,,,,,,,,,,,,,,,,None,None,"[0, 0, 0]",598.9272662999574,600.9267635999713,598.9272662999574,599.927314999979,599.910608000122,600.9106155000627,"[0, 0, 0]",0,598.9272662999574,600.9267635999713,,,,,,,,,,,,,999,m,2,99,r,TEST,2021_Sep_03_1118,2020.2.10,distractmap2,59.84916813454082,"['Left Arm', 'Right Arm', 'Right Face', 'Abdomen']",
2,"[0, 0.2]",0,,,,,0,6,6,6,,,,,,,,,,,,,,,,,,,,,,None,None,"[0, 0, 0]",600.9438243000768,602.9435903001577,600.9438243000768,601.9439581001643,601.9272547999863,602.9272833000869,"[0, 0, 0]",0,600.9438243000768,602.9435903001577,,,,,,,,,,,,,999,m,2,99,r,TEST,2021_Sep_03_1118,2020.2.10,distractmap2,59.84916813454082,"['Left Arm', 'Right Arm', 'Right Face', 'Abdomen']",
3,"[0.2, 0.2]",0,,,,,0,7,7,7,,,,,,,,,,,,,,,,,,,,,,None,None,"[0, 0, 0]",602.9605984999798,604.9602922000922,602.9605984999798,603.9606409000698,603.9439399000257,604.9439489000943,"[0, 0, 0]",0,602.9605984999798,604.9602922000922,,,,,,,,,,,,,999,m,2,99,r,TEST,2021_Sep_03_1118,2020.2.10,distractmap2,59.84916813454082,"['Left Arm', 'Right Arm', 'Right Face', 'Abdomen']",
6,"[0.2, 0]",0,,,,,0,8,8,8,,,,,,,,,,,,,,,,,,,,,,None,None,"[0, 0, 0]",604.9773586001247,606.9769890999887,604.9773586001247,605.9773252999876,605.960607400164,606.9606598999817,"[0, 0, 0]",0,604.9773586001247,606.9769890999887,,,,,,,,,,,,,999,m,2,99,r,TEST,2021_Sep_03_1118,2020.2.10,distractmap2,59.84916813454082,"['Left Arm', 'Right Arm', 'Right Face', 'Abdomen']",
3,"[0.2, 0.2]",1,,,,,0,9,9,9,,,,,,,,,,,,,,,,,,,,,,None,None,"[0, 0, 0]",606.9939772000071,608.9936744000297,606.9939772000071,607.9940551000182,607.9773699999787,608.9773024001624,"[0, 0, 0]",0,606.9939772000071,608.9936744000297,,,,,,,,,,,,,999,m,2,99,r,TEST,2021_Sep_03_1118,2020.2.10,distractmap2,59.84916813454082,"['Left Arm', 'Right Arm', 'Right Face', 'Abdomen']",
,,,,,,,,,,,609.0103927999735,None,,,,,,,,,,,,,,,,,,,,,,,,,,,,,,,,,,,,,,,,50.0,613.1672060198616,,,,999,m,2,99,r,TEST,2021_Sep_03_1118,2020.2.10,distractmap2,59.84916813454082,"['Left Arm', 'Right Arm', 'Right Face', 'Abdomen']",
6,"[0.2, 0]",None,0,0,0,0,,,,,624.4463174999692,None,629.0762379001826,None,629.0762379001826,630.0774754001759,630.0608459000941,None,1,None,None,"[0, 0, 0]",,,629.0762379001826,None,,,,,,,,,,,,,,,,,,,,,,,,,,,,0.015139880124479532,5.013344280188903,"[0, 0, 0]",999,m,2,99,r,TEST,2021_Sep_03_1118,2020.2.10,distractmap2,59.84916813454082,"['Left Arm', 'Right Arm', 'Right Face', 'Abdomen']",
6,"[0.2, 0]",1,0,1,1,1,,,,,,,631.0608822000213,None,631.0608822000213,632.0608673000243,632.044179599965,633.0441719000228,0,None,None,"[0, 0, 0]",,,631.0608822000213,None,,,,,,,,,,,,,,,,,,,,,,,,,,,,,,"[0, 0, 0]",999,m,2,99,r,TEST,2021_Sep_03_1118,2020.2.10,distractmap2,59.84916813454082,"['Left Arm', 'Right Arm', 'Right Face', 'Abdomen']",
1,"[-0.2, 0.2]",0,0,2,2,2,,,,,,,633.0608824000228,633.0608824000228,633.0608824000228,634.0608652001247,634.0442318001296,635.0442093000747,0,None,None,"[0, 0, 0]",,,633.0608824000228,633.0608824000228,,,,,,,,,,,,,,,,,,,,,,,,,,,,,,"[0, 0, 0]",999,m,2,99,r,TEST,2021_Sep_03_1118,2020.2.10,distractmap2,59.84916813454082,"['Left Arm', 'Right Arm', 'Right Face', 'Abdomen']",
8,"[0, -0.2]",0,0,3,3,3,,,,,,,635.0607321001589,635.0607321001589,635.0607321001589,636.0608789001126,636.0441757000517,637.044177000178,0,None,None,"[0, 0, 0]",,,635.0607321001589,635.0607321001589,,,,,,,,,,,,,,,,,,,,,,,,,,,,,,"[0, 0, 0]",999,m,2,99,r,TEST,2021_Sep_03_1118,2020.2.10,distractmap2,59.84916813454082,"['Left Arm', 'Right Arm', 'Right Face', 'Abdomen']",
1,"[-0.2, 0.2]",0,0,4,4,4,,,,,,,637.111372299958,637.111372299958,637.111372299958,638.1109205000103,638.0942478000652,None,0,None,None,"[0, 0, 0]",,,637.111372299958,637.111372299958,,,,,,,,,,,,,,,,,,,,,,,,,,,,,,"[0, 0, 0]",999,m,2,99,r,TEST,2021_Sep_03_1118,2020.2.10,distractmap2,59.84916813454082,"['Left Arm', 'Right Arm', 'Right Face', 'Abdomen']",
4,"[-0.2, 0]",0,0,5,5,5,,,,,,,639.0775011000223,None,639.0775011000223,640.0775814000517,640.0608721000608,641.0609456000384,0,None,None,"[0, 0, 0]",,,639.0775011000223,None,,,,,,,,,,,,,,,,,,,,,,,,,,,,,,"[0, 0, 0]",999,m,2,99,r,TEST,2021_Sep_03_1118,2020.2.10,distractmap2,59.84916813454082,"['Left Arm', 'Right Arm', 'Right Face', 'Abdomen']",
5,"[0, 0]",0,0,6,6,6,,,,,,,641.077607500134,641.077607500134,641.077607500134,642.0776368000079,642.0609458000399,643.0609979000874,0,None,None,"[0, 0, 0]",,,641.077607500134,641.077607500134,,,,,,,,,,,,,,,,,,,,,,,,,,,,,,"[0, 0, 0]",999,m,2,99,r,TEST,2021_Sep_03_1118,2020.2.10,distractmap2,59.84916813454082,"['Left Arm', 'Right Arm', 'Right Face', 'Abdomen']",
7,"[-0.2, -0.2]",0,0,7,7,7,,,,,,,643.0776260001585,643.0776260001585,643.0776260001585,644.0776359001175,644.0609919000417,645.0609983999748,0,None,None,"[0, 0, 0]",,,643.0776260001585,643.0776260001585,,,,,,,,,,,,,,,,,,,,,,,,,,,,,,"[0, 0, 0]",999,m,2,99,r,TEST,2021_Sep_03_1118,2020.2.10,distractmap2,59.84916813454082,"['Left Arm', 'Right Arm', 'Right Face', 'Abdomen']",
7,"[-0.2, -0.2]",1,0,8,8,8,,,,,,,645.0776796999853,645.0776796999853,645.0776796999853,646.0776003000792,646.0609729001299,647.060994700063,0,None,None,"[0, 0, 0]",,,645.0776796999853,645.0776796999853,,,,,,,,,,,,,,,,,,,,,,,,,,,,,,"[0, 0, 0]",999,m,2,99,r,TEST,2021_Sep_03_1118,2020.2.10,distractmap2,59.84916813454082,"['Left Arm', 'Right Arm', 'Right Face', 'Abdomen']",
7,"[-0.2, -0.2]",1,0,9,9,9,,,,,,,647.0776812001131,647.0776812001131,647.0776812001131,648.0775458000135,648.0609644001815,649.0610181000084,0,None,None,"[0, 0, 0]",,,647.0776812001131,647.0776812001131,,,,,,,,,,,,,,,,,,,,,,,,,,,,,,"[0, 0, 0]",999,m,2,99,r,TEST,2021_Sep_03_1118,2020.2.10,distractmap2,59.84916813454082,"['Left Arm', 'Right Arm', 'Right Face', 'Abdomen']",
,,,,,,,,,,,649.0773218001705,None,,,,,,,,,,,,,,,,,,,,,,,,,,,,,,,,,,,,,,,,50.0,653.2340126200579,,,,999,m,2,99,r,TEST,2021_Sep_03_1118,2020.2.10,distractmap2,59.84916813454082,"['Left Arm', 'Right Arm', 'Right Face', 'Abdomen']",
8,"[0, -0.2]",None,0,0,0,0,,,,,665.0129452999681,None,669.1265917001292,None,669.1265917001292,670.1278479001485,670.1112004001625,None,1,None,None,"[0, 0, 0]",,,669.1265917001292,None,,,,,,,,,,,,,,,,,,,,,,,,,,,,0.015350979985669255,5.01362777990289,"[0, 0, 0]",999,m,2,99,r,TEST,2021_Sep_03_1118,2020.2.10,distractmap2,59.84916813454082,"['Left Arm', 'Right Arm', 'Right Face', 'Abdomen']",
6,"[0.2, 0]",0,0,1,1,1,,,,,,,671.1112145001534,None,671.1112145001534,672.111157100182,672.0944680001121,673.0945201001596,0,None,None,"[0, 0, 0]",,,671.1112145001534,None,,,,,,,,,,,,,,,,,,,,,,,,,,,,,,"[0, 0, 0]",999,m,2,99,r,TEST,2021_Sep_03_1118,2020.2.10,distractmap2,59.84916813454082,"['Left Arm', 'Right Arm', 'Right Face', 'Abdomen']",
6,"[0.2, 0]",1,0,2,2,2,,,,,,,673.1112432000227,673.1112432000227,673.1112432000227,674.1112114000134,674.0945321000181,675.0945301000029,0,None,None,"[0, 0, 0]",,,673.1112432000227,673.1112432000227,,,,,,,,,,,,,,,,,,,,,,,,,,,,,,"[0, 0, 0]",999,m,2,99,r,TEST,2021_Sep_03_1118,2020.2.10,distractmap2,59.84916813454082,"['Left Arm', 'Right Arm', 'Right Face', 'Abdomen']",
2,"[0, 0.2]",0,0,3,3,3,,,,,,,675.1112764000427,675.1112764000427,675.1112764000427,676.1112624001689,676.0945810000412,677.0945231001824,0,None,None,"[0, 0, 0]",,,675.1112764000427,675.1112764000427,,,,,,,,,,,,,,,,,,,,,,,,,,,,,,"[0, 0, 0]",999,m,2,99,r,TEST,2021_Sep_03_1118,2020.2.10,distractmap2,59.84916813454082,"['Left Arm', 'Right Arm', 'Right Face', 'Abdomen']",
1,"[-0.2, 0.2]",0,0,4,4,4,,,,,,,677.1938479000237,677.1938479000237,677.1938479000237,678.1945822001435,678.1779086000752,None,0,None,None,"[0, 0, 0]",,,677.1938479000237,677.1938479000237,,,,,,,,,,,,,,,,,,,,,,,,,,,,,,"[0, 0, 0]",999,m,2,99,r,TEST,2021_Sep_03_1118,2020.2.10,distractmap2,59.84916813454082,"['Left Arm', 'Right Arm', 'Right Face', 'Abdomen']",
6,"[0.2, 0]",0,0,5,5,5,,,,,,,679.1279786999803,None,679.1279786999803,680.1279253000394,680.1112464000471,681.111255900003,0,None,None,"[0, 0, 0]",,,679.1279786999803,None,,,,,,,,,,,,,,,,,,,,,,,,,,,,,,"[0, 0, 0]",999,m,2,99,r,TEST,2021_Sep_03_1118,2020.2.10,distractmap2,59.84916813454082,"['Left Arm', 'Right Arm', 'Right Face', 'Abdomen']",
9,"[0.2, -0.2]",0,0,6,6,6,,,,,,,681.1279699001461,681.1279699001461,681.1279699001461,682.1279637000989,682.1112793001812,683.1112753001507,0,None,None,"[0, 0, 0]",,,681.1279699001461,681.1279699001461,,,,,,,,,,,,,,,,,,,,,,,,,,,,,,"[0, 0, 0]",999,m,2,99,r,TEST,2021_Sep_03_1118,2020.2.10,distractmap2,59.84916813454082,"['Left Arm', 'Right Arm', 'Right Face', 'Abdomen']",
1,"[-0.2, 0.2]",0,0,7,7,7,,,,,,,683.1279688000213,683.1279688000213,683.1279688000213,684.1279722000472,684.1112939000595,685.1113101001829,0,None,None,"[0, 0, 0]",,,683.1279688000213,683.1279688000213,,,,,,,,,,,,,,,,,,,,,,,,,,,,,,"[0, 0, 0]",999,m,2,99,r,TEST,2021_Sep_03_1118,2020.2.10,distractmap2,59.84916813454082,"['Left Arm', 'Right Arm', 'Right Face', 'Abdomen']",
6,"[0.2, 0]",0,0,8,8,8,,,,,,,685.1279939999804,685.1279939999804,685.1279939999804,686.1279607000761,686.1113322000019,687.1113404000644,0,None,None,"[0, 0, 0]",,,685.1279939999804,685.1279939999804,,,,,,,,,,,,,,,,,,,,,,,,,,,,,,"[0, 0, 0]",999,m,2,99,r,TEST,2021_Sep_03_1118,2020.2.10,distractmap2,59.84916813454082,"['Left Arm', 'Right Arm', 'Right Face', 'Abdomen']",
6,"[0.2, 0]",1,0,9,9,9,,,,,,,687.127983200131,687.127983200131,687.127983200131,688.127974400064,688.1113277000841,689.111312400084,0,None,None,"[0, 0, 0]",,,687.127983200131,687.127983200131,,,,,,,,,,,,,,,,,,,,,,,,,,,,,,"[0, 0, 0]",999,m,2,99,r,TEST,2021_Sep_03_1118,2020.2.10,distractmap2,59.84916813454082,"['Left Arm', 'Right Arm', 'Right Face', 'Abdomen']",
,,,,,,,,,,,689.1276921001263,None,,,,,,,,,,,,,,,,,,,,,,,,,,,,,,,,,,,,,,,,50.0,695.2845359204803,,,,999,m,2,99,r,TEST,2021_Sep_03_1118,2020.2.10,distractmap2,59.84916813454082,"['Left Arm', 'Right Arm', 'Right Face', 'Abdomen']",
2,"[0, 0.2]",None,,,,,0,0,0,0,707.4634873999748,None,,,,,,,,,,,,,,,,,,,,None,None,"[0, 0, 0]",709.1934995001648,None,709.1934995001648,710.1947929000016,710.1781769001391,None,"[0, 0, 0]",1,709.1934995001648,None,,,,,,,,,,0.015149079728871584,5.0132178796920925,,999,m,2,99,r,TEST,2021_Sep_03_1118,2020.2.10,distractmap2,59.84916813454082,"['Left Arm', 'Right Arm', 'Right Face', 'Abdomen']",
5,"[0, 0]",None,,,,,0,1,1,1,,,,,,,,,,,,,,,,,,,,,,None,None,"[0, 0, 0]",711.1781878001057,713.1777815001551,711.1781878001057,712.1781997999642,712.1614182000048,713.1614794000052,"[0, 0, 0]",1,711.1781878001057,713.1777815001551,,,,,,,,,,,,,999,m,2,99,r,TEST,2021_Sep_03_1118,2020.2.10,distractmap2,59.84916813454082,"['Left Arm', 'Right Arm', 'Right Face', 'Abdomen']",
6,"[0.2, 0]",0,,,,,0,2,2,2,,,,,,,,,,,,,,,,,,,,,,None,None,"[0, 0, 0]",713.1948408000171,715.1945009999909,713.1948408000171,714.1948985999916,714.1782335001044,715.178188299993,"[0, 0, 0]",0,713.1948408000171,715.1945009999909,,,,,,,,,,,,,999,m,2,99,r,TEST,2021_Sep_03_1118,2020.2.10,distractmap2,59.84916813454082,"['Left Arm', 'Right Arm', 'Right Face', 'Abdomen']",
1,"[-0.2, 0.2]",0,,,,,0,3,3,3,,,,,,,,,,,,,,,,,,,,,,None,None,"[0, 0, 0]",715.2115625001024,717.2110023000278,715.2115625001024,716.2115538001526,716.1948895000387,717.1947749999817,"[0, 0, 0]",0,715.2115625001024,717.2110023000278,,,,,,,,,,,,,999,m,2,99,r,TEST,2021_Sep_03_1118,2020.2.10,distractmap2,59.84916813454082,"['Left Arm', 'Right Arm', 'Right Face', 'Abdomen']",
6,"[0.2, 0]",1,,,,,0,4,4,4,,,,,,,,,,,,,,,,,,,,,,None,None,"[0, 0, 0]",717.2767813000828,None,717.2767813000828,718.2781204001512,718.2615009001456,None,"[0, 0, 0]",0,717.2767813000828,None,,,,,,,,,,,,,999,m,2,99,r,TEST,2021_Sep_03_1118,2020.2.10,distractmap2,59.84916813454082,"['Left Arm', 'Right Arm', 'Right Face', 'Abdomen']",
6,"[0.2, 0]",0,,,,,0,5,5,5,,,,,,,,,,,,,,,,,,,,,,None,None,"[0, 0, 0]",719.2448293000925,721.2445469000377,719.2448293000925,720.2448791000061,720.2281997001264,721.2282790001482,"[0, 0, 0]",0,719.2448293000925,721.2445469000377,,,,,,,,,,,,,999,m,2,99,r,TEST,2021_Sep_03_1118,2020.2.10,distractmap2,59.84916813454082,"['Left Arm', 'Right Arm', 'Right Face', 'Abdomen']",
9,"[0.2, -0.2]",0,,,,,0,6,6,6,,,,,,,,,,,,,,,,,,,,,,None,None,"[0, 0, 0]",721.2615956000518,723.2611396999564,721.2615956000518,722.2616032001097,722.2449423000216,723.2448132000864,"[0, 0, 0]",0,721.2615956000518,723.2611396999564,,,,,,,,,,,,,999,m,2,99,r,TEST,2021_Sep_03_1118,2020.2.10,distractmap2,59.84916813454082,"['Left Arm', 'Right Arm', 'Right Face', 'Abdomen']",
6,"[0.2, 0]",1,,,,,0,7,7,7,,,,,,,,,,,,,,,,,,,,,,None,None,"[0, 0, 0]",723.2781803000253,725.277738200035,723.2781803000253,724.2781538001727,724.2615110999905,725.2614882001653,"[0, 0, 0]",0,723.2781803000253,725.277738200035,,,,,,,,,,,,,999,m,2,99,r,TEST,2021_Sep_03_1118,2020.2.10,distractmap2,59.84916813454082,"['Left Arm', 'Right Arm', 'Right Face', 'Abdomen']",
3,"[0.2, 0.2]",0,,,,,0,8,8,8,,,,,,,,,,,,,,,,,,,,,,None,None,"[0, 0, 0]",725.2948577001225,727.2944971001707,725.2948577001225,726.2948631001636,726.278184800176,727.2781889000908,"[0, 0, 0]",0,725.2948577001225,727.2944971001707,,,,,,,,,,,,,999,m,2,99,r,TEST,2021_Sep_03_1118,2020.2.10,distractmap2,59.84916813454082,"['Left Arm', 'Right Arm', 'Right Face', 'Abdomen']",
9,"[0.2, -0.2]",0,,,,,0,9,9,9,,,,,,,,,,,,,,,,,,,,,,None,None,"[0, 0, 0]",727.3115402001422,729.3112474000081,727.3115402001422,728.3115608000662,728.2948899001349,729.2949695000425,"[0, 0, 0]",0,727.3115402001422,729.3112474000081,,,,,,,,,,,,,999,m,2,99,r,TEST,2021_Sep_03_1118,2020.2.10,distractmap2,59.84916813454082,"['Left Arm', 'Right Arm', 'Right Face', 'Abdomen']",
,,,,,,,,,,,729.327950200066,None,,,,,,,,,,,,,,,,,,,,,,,,,,,,,,,,,,,,,,,,50.0,735.4851784198545,,,,999,m,2,99,r,TEST,2021_Sep_03_1118,2020.2.10,distractmap2,59.84916813454082,"['Left Arm', 'Right Arm', 'Right Face', 'Abdomen']",
3,"[0.2, 0.2]",None,,,,,0,0,0,0,747.4638720001094,None,,,,,,,,,,,,,,,,,,,,None,None,"[0, 0, 0]",749.377269100165,None,749.377269100165,750.3784799000714,750.361812800169,None,"[0, 0, 0]",1,749.377269100165,None,,,,,,,,,,0.01484408020041883,5.012734680203721,,999,m,2,99,r,TEST,2021_Sep_03_1118,2020.2.10,distractmap2,59.84916813454082,"['Left Arm', 'Right Arm', 'Right Face', 'Abdomen']",
9,"[0.2, -0.2]",None,,,,,0,1,1,1,,,,,,,,,,,,,,,,,,,,,,None,None,"[0, 0, 0]",751.3618237001356,753.3614046999719,751.3618237001356,752.3617804001551,752.345102700172,753.3450685001444,"[0, 0, 0]",1,751.3618237001356,753.3614046999719,,,,,,,,,,,,,999,m,2,99,r,TEST,2021_Sep_03_1118,2020.2.10,distractmap2,59.84916813454082,"['Left Arm', 'Right Arm', 'Right Face', 'Abdomen']",
3,"[0.2, 0.2]",1,,,,,0,2,2,2,,,,,,,,,,,,,,,,,,,,,,None,None,"[0, 0, 0]",753.3785020001233,755.3780771000311,753.3785020001233,754.3784407000057,754.361791000003,755.3618000999559,"[0, 0, 0]",0,753.3785020001233,755.3780771000311,,,,,,,,,,,,,999,m,2,99,r,TEST,2021_Sep_03_1118,2020.2.10,distractmap2,59.84916813454082,"['Left Arm', 'Right Arm', 'Right Face', 'Abdomen']",
7,"[-0.2, -0.2]",0,,,,,0,3,3,3,,,,,,,,,,,,,,,,,,,,,,None,None,"[0, 0, 0]",755.39516309998,757.3947986001149,755.39516309998,756.3951214000117,756.3785310999956,757.3784833000973,"[0, 0, 0]",0,755.39516309998,757.3947986001149,,,,,,,,,,,,,999,m,2,99,r,TEST,2021_Sep_03_1118,2020.2.10,distractmap2,59.84916813454082,"['Left Arm', 'Right Arm', 'Right Face', 'Abdomen']",
8,"[0, -0.2]",0,,,,,0,4,4,4,,,,,,,,,,,,,,,,,,,,,,None,None,"[0, 0, 0]",757.4773658001795,None,757.4773658001795,758.4785134999547,758.4619381001685,None,"[0, 0, 0]",0,757.4773658001795,None,,,,,,,,,,,,,999,m,2,99,r,TEST,2021_Sep_03_1118,2020.2.10,distractmap2,59.84916813454082,"['Left Arm', 'Right Arm', 'Right Face', 'Abdomen']",
4,"[-0.2, 0]",0,,,,,0,5,5,5,,,,,,,,,,,,,,,,,,,,,,None,None,"[0, 0, 0]",759.4285428000148,761.42810930009,759.4285428000148,760.4285630001687,760.411857200088,761.4117630000692,"[0, 0, 0]",0,759.4285428000148,761.42810930009,,,,,,,,,,,,,999,m,2,99,r,TEST,2021_Sep_03_1118,2020.2.10,distractmap2,59.84916813454082,"['Left Arm', 'Right Arm', 'Right Face', 'Abdomen']",
4,"[-0.2, 0]",0,,,,,0,6,6,6,,,,,,,,,,,,,,,,,,,,,,None,None,"[0, 0, 0]",761.4451685000677,763.4448178000748,761.4451685000677,762.4451623000205,762.4285027000587,763.4285226000939,"[0, 0, 0]",0,761.4451685000677,763.4448178000748,,,,,,,,,,,,,999,m,2,99,r,TEST,2021_Sep_03_1118,2020.2.10,distractmap2,59.84916813454082,"['Left Arm', 'Right Arm', 'Right Face', 'Abdomen']",
1,"[-0.2, 0.2]",0,,,,,0,7,7,7,,,,,,,,,,,,,,,,,,,,,,None,None,"[0, 0, 0]",763.461857000133,765.461486000102,763.461857000133,764.461848200066,764.4452420000453,765.4452248001471,"[0, 0, 0]",0,763.461857000133,765.461486000102,,,,,,,,,,,,,999,m,2,99,r,TEST,2021_Sep_03_1118,2020.2.10,distractmap2,59.84916813454082,"['Left Arm', 'Right Arm', 'Right Face', 'Abdomen']",
4,"[-0.2, 0]",1,,,,,0,8,8,8,,,,,,,,,,,,,,,,,,,,,,None,None,"[0, 0, 0]",765.4786400999874,767.4781876001507,765.4786400999874,766.4785221000202,766.4618865000084,767.4619070000481,"[0, 0, 0]",0,765.4786400999874,767.4781876001507,,,,,,,,,,,,,999,m,2,99,r,TEST,2021_Sep_03_1118,2020.2.10,distractmap2,59.84916813454082,"['Left Arm', 'Right Arm', 'Right Face', 'Abdomen']",
8,"[0, -0.2]",0,,,,,0,9,9,9,,,,,,,,,,,,,,,,,,,,,,None,None,"[0, 0, 0]",767.495214600116,769.4948558001779,767.495214600116,768.4952432999853,768.4786273001228,769.4785368000157,"[0, 0, 0]",0,767.495214600116,769.4948558001779,,,,,,,,,,,,,999,m,2,99,r,TEST,2021_Sep_03_1118,2020.2.10,distractmap2,59.84916813454082,"['Left Arm', 'Right Arm', 'Right Face', 'Abdomen']",
,,,,,,,,,,,769.5115559999831,None,,,,,,,,,,,,,,,,,,,,,,,,,,,,,,,,,,,,,,,,50.0,775.6692094202153,,,,999,m,2,99,r,TEST,2021_Sep_03_1118,2020.2.10,distractmap2,59.84916813454082,"['Left Arm', 'Right Arm', 'Right Face', 'Abdomen']",
2,"[0, 0.2]",None,,,,,0,0,0,0,787.4972942001186,None,,,,,,,,,,,,,,,,,,,,None,None,"[0, 0, 0]",789.5607712001074,None,789.5607712001074,790.5619330999907,790.5453523001634,None,"[0, 0, 0]",1,789.5607712001074,None,,,,,,,,,,0.014413479948416352,5.01173378014937,,999,m,2,99,r,TEST,2021_Sep_03_1118,2020.2.10,distractmap2,59.84916813454082,"['Left Arm', 'Right Arm', 'Right Face', 'Abdomen']",
5,"[0, 0]",None,,,,,0,1,1,1,,,,,,,,,,,,,,,,,,,,,,None,None,"[0, 0, 0]",791.5454904001672,793.5450329000596,791.5454904001672,792.5454774000682,792.5287606001366,793.5287603000179,"[0, 0, 0]",1,791.5454904001672,793.5450329000596,,,,,,,,,,,,,999,m,2,99,r,TEST,2021_Sep_03_1118,2020.2.10,distractmap2,59.84916813454082,"['Left Arm', 'Right Arm', 'Right Face', 'Abdomen']",
3,"[0.2, 0.2]",0,,,,,0,2,2,2,,,,,,,,,,,,,,,,,,,,,,None,None,"[0, 0, 0]",793.5620505001862,795.561670599971,793.5620505001862,794.5620469001587,794.5454533000011,795.5453795001376,"[0, 0, 0]",0,793.5620505001862,795.561670599971,,,,,,,,,,,,,999,m,2,99,r,TEST,2021_Sep_03_1118,2020.2.10,distractmap2,59.84916813454082,"['Left Arm', 'Right Arm', 'Right Face', 'Abdomen']",
5,"[0, 0]",1,,,,,0,3,3,3,,,,,,,,,,,,,,,,,,,,,,None,None,"[0, 0, 0]",795.5787441001739,797.5784318000078,795.5787441001739,796.5787975999992,796.56207370013,797.5621490001213,"[0, 0, 0]",0,795.5787441001739,797.5784318000078,,,,,,,,,,,,,999,m,2,99,r,TEST,2021_Sep_03_1118,2020.2.10,distractmap2,59.84916813454082,"['Left Arm', 'Right Arm', 'Right Face', 'Abdomen']",
2,"[0, 0.2]",0,,,,,0,4,4,4,,,,,,,,,,,,,,,,,,,,,,None,None,"[0, 0, 0]",797.627974400064,None,797.627974400064,798.6288648000918,798.6121712999884,None,"[0, 0, 0]",0,797.627974400064,None,,,,,,,,,,,,,999,m,2,99,r,TEST,2021_Sep_03_1118,2020.2.10,distractmap2,59.84916813454082,"['Left Arm', 'Right Arm', 'Right Face', 'Abdomen']",
8,"[0, -0.2]",0,,,,,0,5,5,5,,,,,,,,,,,,,,,,,,,,,,None,None,"[0, 0, 0]",799.6121962000616,801.6116826999933,799.6121962000616,800.6121327001601,800.5955087000038,801.5954007001128,"[0, 0, 0]",0,799.6121962000616,801.6116826999933,,,,,,,,,,,,,999,m,2,99,r,TEST,2021_Sep_03_1118,2020.2.10,distractmap2,59.84916813454082,"['Left Arm', 'Right Arm', 'Right Face', 'Abdomen']",
4,"[-0.2, 0]",0,,,,,0,6,6,6,,,,,,,,,,,,,,,,,,,,,,None,None,"[0, 0, 0]",801.6287788001355,803.6285031000152,801.6287788001355,802.628860700177,802.6122052001301,803.6120543000288,"[0, 0, 0]",0,801.6287788001355,803.6285031000152,,,,,,,,,,,,,999,m,2,99,r,TEST,2021_Sep_03_1118,2020.2.10,distractmap2,59.84916813454082,"['Left Arm', 'Right Arm', 'Right Face', 'Abdomen']",
8,"[0, -0.2]",1,,,,,0,7,7,7,,,,,,,,,,,,,,,,,,,,,,None,None,"[0, 0, 0]",803.6455985000357,805.6450571001042,803.6455985000357,804.6454968000762,804.6288754001725,805.6288356999867,"[0, 0, 0]",0,803.6455985000357,805.6450571001042,,,,,,,,,,,,,999,m,2,99,r,TEST,2021_Sep_03_1118,2020.2.10,distractmap2,59.84916813454082,"['Left Arm', 'Right Arm', 'Right Face', 'Abdomen']",
7,"[-0.2, -0.2]",0,,,,,0,8,8,8,,,,,,,,,,,,,,,,,,,,,,None,None,"[0, 0, 0]",805.6621869001538,807.6618741999846,805.6621869001538,806.6621503001079,806.6455453999806,807.6455663000233,"[0, 0, 0]",0,805.6621869001538,807.6618741999846,,,,,,,,,,,,,999,m,2,99,r,TEST,2021_Sep_03_1118,2020.2.10,distractmap2,59.84916813454082,"['Left Arm', 'Right Arm', 'Right Face', 'Abdomen']",
8,"[0, -0.2]",1,,,,,0,9,9,9,,,,,,,,,,,,,,,,,,,,,,None,None,"[0, 0, 0]",807.6788936001249,809.6785175001714,807.6788936001249,808.6789099001326,808.6622542000841,809.662195000099,"[0, 0, 0]",0,807.6788936001249,809.6785175001714,,,,,,,,,,,,,999,m,2,99,r,TEST,2021_Sep_03_1118,2020.2.10,distractmap2,59.84916813454082,"['Left Arm', 'Right Arm', 'Right Face', 'Abdomen']",
,,,,,,,,,,,809.6952123001684,None,,,,,,,,,,,,,,,,,,,,,,,,,,,,,,,,,,,,,,,,50.0,811.8520114200655,,,,999,m,2,99,r,TEST,2021_Sep_03_1118,2020.2.10,distractmap2,59.84916813454082,"['Left Arm', 'Right Arm', 'Right Face', 'Abdomen']",
9,"[0.2, -0.2]",None,0,0,0,0,,,,,823.6309144999832,None,829.7611599999946,None,829.7611599999946,830.7623330000788,830.7457036999986,None,1,None,None,"[0, 0, 0]",,,829.7611599999946,None,,,,,,,,,,,,,,,,,,,,,,,,,,,,0.015089180087670684,5.013036480173469,"[0, 0, 0]",999,m,2,99,r,TEST,2021_Sep_03_1118,2020.2.10,distractmap2,59.84916813454082,"['Left Arm', 'Right Arm', 'Right Face', 'Abdomen']",
9,"[0.2, -0.2]",1,0,1,1,1,,,,,,,831.7457386001479,None,831.7457386001479,832.7456760001369,832.7290688999929,833.7291119999718,0,None,None,"[0, 0, 0]",,,831.7457386001479,None,,,,,,,,,,,,,,,,,,,,,,,,,,,,,,"[0, 0, 0]",999,m,2,99,r,TEST,2021_Sep_03_1118,2020.2.10,distractmap2,59.84916813454082,"['Left Arm', 'Right Arm', 'Right Face', 'Abdomen']",
9,"[0.2, -0.2]",1,0,2,2,2,,,,,,,833.7458110000007,833.7458110000007,833.7458110000007,834.7457812000066,834.7291034001391,835.7290570000187,0,None,None,"[0, 0, 0]",,,833.7458110000007,833.7458110000007,,,,,,,,,,,,,,,,,,,,,,,,,,,,,,"[0, 0, 0]",999,m,2,99,r,TEST,2021_Sep_03_1118,2020.2.10,distractmap2,59.84916813454082,"['Left Arm', 'Right Arm', 'Right Face', 'Abdomen']",
3,"[0.2, 0.2]",0,0,3,3,3,,,,,,,835.7457212000154,835.7457212000154,835.7457212000154,836.7457441000734,836.7290845001116,837.7289793000091,0,None,None,"[0, 0, 0]",,,835.7457212000154,835.7457212000154,,,,,,,,,,,,,,,,,,,,,,,,,,,,,,"[0, 0, 0]",999,m,2,99,r,TEST,2021_Sep_03_1118,2020.2.10,distractmap2,59.84916813454082,"['Left Arm', 'Right Arm', 'Right Face', 'Abdomen']",
5,"[0, 0]",0,0,4,4,4,,,,,,,837.8129908000119,837.8129908000119,837.8129908000119,838.8125691001769,838.7957525001839,None,0,None,None,"[0, 0, 0]",,,837.8129908000119,837.8129908000119,,,,,,,,,,,,,,,,,,,,,,,,,,,,,,"[0, 0, 0]",999,m,2,99,r,TEST,2021_Sep_03_1118,2020.2.10,distractmap2,59.84916813454082,"['Left Arm', 'Right Arm', 'Right Face', 'Abdomen']",
4,"[-0.2, 0]",0,0,5,5,5,,,,,,,839.7624266999774,None,839.7624266999774,840.7625045999885,840.7458210000768,841.7457967000082,0,None,None,"[0, 0, 0]",,,839.7624266999774,None,,,,,,,,,,,,,,,,,,,,,,,,,,,,,,"[0, 0, 0]",999,m,2,99,r,TEST,2021_Sep_03_1118,2020.2.10,distractmap2,59.84916813454082,"['Left Arm', 'Right Arm', 'Right Face', 'Abdomen']",
9,"[0.2, -0.2]",0,0,6,6,6,,,,,,,841.7625372000039,841.7625372000039,841.7625372000039,842.7624864000827,842.7458334001713,843.7458421001211,0,None,None,"[0, 0, 0]",,,841.7625372000039,841.7625372000039,,,,,,,,,,,,,,,,,,,,,,,,,,,,,,"[0, 0, 0]",999,m,2,99,r,TEST,2021_Sep_03_1118,2020.2.10,distractmap2,59.84916813454082,"['Left Arm', 'Right Arm', 'Right Face', 'Abdomen']",
6,"[0.2, 0]",0,0,7,7,7,,,,,,,843.7625381001271,843.7625381001271,843.7625381001271,844.7624828000553,844.7457374001388,845.7458807001822,0,None,None,"[0, 0, 0]",,,843.7625381001271,843.7625381001271,,,,,,,,,,,,,,,,,,,,,,,,,,,,,,"[0, 0, 0]",999,m,2,99,r,TEST,2021_Sep_03_1118,2020.2.10,distractmap2,59.84916813454082,"['Left Arm', 'Right Arm', 'Right Face', 'Abdomen']",
2,"[0, 0.2]",0,0,8,8,8,,,,,,,845.7625482000876,845.7625482000876,845.7625482000876,846.7625080000143,846.7458645000588,847.7458079000935,0,None,None,"[0, 0, 0]",,,845.7625482000876,845.7625482000876,,,,,,,,,,,,,,,,,,,,,,,,,,,,,,"[0, 0, 0]",999,m,2,99,r,TEST,2021_Sep_03_1118,2020.2.10,distractmap2,59.84916813454082,"['Left Arm', 'Right Arm', 'Right Face', 'Abdomen']",
2,"[0, 0.2]",1,0,9,9,9,,,,,,,847.7625210999977,847.7625210999977,847.7625210999977,848.762486499967,848.7458252001088,849.7459136000834,0,None,None,"[0, 0, 0]",,,847.7625210999977,847.7625210999977,,,,,,,,,,,,,,,,,,,,,,,,,,,,,,"[0, 0, 0]",999,m,2,99,r,TEST,2021_Sep_03_1118,2020.2.10,distractmap2,59.84916813454082,"['Left Arm', 'Right Arm', 'Right Face', 'Abdomen']",
,,,,,,,,,,,849.7622004000004,None,,,,,,,,,,,,,,,,,,,,,,,,,,,,,,,,,,,,,,,,50.0,855.9190271201078,,,,999,m,2,99,r,TEST,2021_Sep_03_1118,2020.2.10,distractmap2,59.84916813454082,"['Left Arm', 'Right Arm', 'Right Face', 'Abdomen']",
2,"[0, 0.2]",None,,,,,0,0,0,0,867.1634112000465,None,,,,,,,,,,,,,,,,,,,,None,None,"[0, 0, 0]",869.8280486001167,None,869.8280486001167,870.8293226000387,870.8125787000172,None,"[0, 0, 0]",1,869.8280486001167,None,,,,,,,,,,0.015177380060777068,5.013244879897684,,999,m,2,99,r,TEST,2021_Sep_03_1118,2020.2.10,distractmap2,59.84916813454082,"['Left Arm', 'Right Arm', 'Right Face', 'Abdomen']",
2,"[0, 0.2]",None,,,,,0,1,1,1,,,,,,,,,,,,,,,,,,,,,,None,None,"[0, 0, 0]",871.8126777000725,873.8123647000175,871.8126777000725,872.8127455001231,872.7960546000395,873.7960582000669,"[0, 0, 0]",1,871.8126777000725,873.8123647000175,,,,,,,,,,,,,999,m,2,99,r,TEST,2021_Sep_03_1118,2020.2.10,distractmap2,59.84916813454082,"['Left Arm', 'Right Arm', 'Right Face', 'Abdomen']",
2,"[0, 0.2]",1,,,,,0,2,2,2,,,,,,,,,,,,,,,,,,,,,,None,None,"[0, 0, 0]",873.8294391999952,875.8289302999619,873.8294391999952,874.8294295000378,874.8126890000422,875.8126621001866,"[0, 0, 0]",0,873.8294391999952,875.8289302999619,,,,,,,,,,,,,999,m,2,99,r,TEST,2021_Sep_03_1118,2020.2.10,distractmap2,59.84916813454082,"['Left Arm', 'Right Arm', 'Right Face', 'Abdomen']",
8,"[0, -0.2]",0,,,,,0,3,3,3,,,,,,,,,,,,,,,,,,,,,,None,None,"[0, 0, 0]",875.8461224001367,877.8457415001467,875.8461224001367,876.8460314001422,876.8293330001179,877.8294267000165,"[0, 0, 0]",0,875.8461224001367,877.8457415001467,,,,,,,,,,,,,999,m,2,99,r,TEST,2021_Sep_03_1118,2020.2.10,distractmap2,59.84916813454082,"['Left Arm', 'Right Arm', 'Right Face', 'Abdomen']",
2,"[0, 0.2]",1,,,,,0,4,4,4,,,,,,,,,,,,,,,,,,,,,,None,None,"[0, 0, 0]",877.9131619001273,None,877.9131619001273,878.912852599984,878.8961291001178,None,"[0, 0, 0]",0,877.9131619001273,None,,,,,,,,,,,,,999,m,2,99,r,TEST,2021_Sep_03_1118,2020.2.10,distractmap2,59.84916813454082,"['Left Arm', 'Right Arm', 'Right Face', 'Abdomen']",
5,"[0, 0]",0,,,,,0,5,5,5,,,,,,,,,,,,,,,,,,,,,,None,None,"[0, 0, 0]",879.8794053001329,881.8791176001541,879.8794053001329,880.8794855000451,880.8627375999931,881.8627647000831,"[0, 0, 0]",0,879.8794053001329,881.8791176001541,,,,,,,,,,,,,999,m,2,99,r,TEST,2021_Sep_03_1118,2020.2.10,distractmap2,59.84916813454082,"['Left Arm', 'Right Arm', 'Right Face', 'Abdomen']",
1,"[-0.2, 0.2]",0,,,,,0,6,6,6,,,,,,,,,,,,,,,,,,,,,,None,None,"[0, 0, 0]",881.89617000008,883.8956532999873,881.89617000008,882.8961296000052,882.8794855000451,883.8794815000147,"[0, 0, 0]",0,881.89617000008,883.8956532999873,,,,,,,,,,,,,999,m,2,99,r,TEST,2021_Sep_03_1118,2020.2.10,distractmap2,59.84916813454082,"['Left Arm', 'Right Arm', 'Right Face', 'Abdomen']",
1,"[-0.2, 0.2]",0,,,,,0,7,7,7,,,,,,,,,,,,,,,,,,,,,,None,None,"[0, 0, 0]",883.9128956000786,885.9124076999724,883.9128956000786,884.9127470999956,884.8961300000083,885.8961096999701,"[0, 0, 0]",0,883.9128956000786,885.9124076999724,,,,,,,,,,,,,999,m,2,99,r,TEST,2021_Sep_03_1118,2020.2.10,distractmap2,59.84916813454082,"['Left Arm', 'Right Arm', 'Right Face', 'Abdomen']",
6,"[0.2, 0]",0,,,,,0,8,8,8,,,,,,,,,,,,,,,,,,,,,,None,None,"[0, 0, 0]",885.9294961001724,887.929025700083,885.9294961001724,886.9294771000277,886.9128491999581,887.9127162999939,"[0, 0, 0]",0,885.9294961001724,887.929025700083,,,,,,,,,,,,,999,m,2,99,r,TEST,2021_Sep_03_1118,2020.2.10,distractmap2,59.84916813454082,"['Left Arm', 'Right Arm', 'Right Face', 'Abdomen']",
1,"[-0.2, 0.2]",1,,,,,0,9,9,9,,,,,,,,,,,,,,,,,,,,,,None,None,"[0, 0, 0]",887.9461288000457,889.9458163001109,887.9461288000457,888.9461576000322,888.9294976000674,889.929546300089,"[0, 0, 0]",0,887.9461288000457,889.9458163001109,,,,,,,,,,,,,999,m,2,99,r,TEST,2021_Sep_03_1118,2020.2.10,distractmap2,59.84916813454082,"['Left Arm', 'Right Arm', 'Right Face', 'Abdomen']",
,,,,,,,,,,,889.9625309000257,None,,,,,,,,,,,,,,,,,,,,,,,,,,,,,,,,,,,,,,,,50.0,894.1200313200243,,,,999,m,2,99,r,TEST,2021_Sep_03_1118,2020.2.10,distractmap2,59.84916813454082,"['Left Arm', 'Right Arm', 'Right Face', 'Abdomen']",
2,"[0, 0.2]",None,0,0,0,0,,,,,905.9317026000936,None,910.0283676001709,None,910.0283676001709,911.0297073000111,911.013044100022,None,1,None,None,"[0, 0, 0]",,,910.0283676001709,None,,,,,,,,,,,,,,,,,,,,,,,,,,,,0.01447178004309535,5.011825880035758,"[0, 0, 0]",999,m,2,99,r,TEST,2021_Sep_03_1118,2020.2.10,distractmap2,59.84916813454082,"['Left Arm', 'Right Arm', 'Right Face', 'Abdomen']",
8,"[0, -0.2]",0,0,1,1,1,,,,,,,912.013090700144,None,912.013090700144,913.0130219000857,912.9964016999584,913.9963597001042,0,None,None,"[0, 0, 0]",,,912.013090700144,None,,,,,,,,,,,,,,,,,,,,,,,,,,,,,,"[0, 0, 0]",999,m,2,99,r,TEST,2021_Sep_03_1118,2020.2.10,distractmap2,59.84916813454082,"['Left Arm', 'Right Arm', 'Right Face', 'Abdomen']",
1,"[-0.2, 0.2]",0,0,2,2,2,,,,,,,914.0130454001483,914.0130454001483,914.0130454001483,915.0130239999853,914.9963730000891,915.9963962000329,0,None,None,"[0, 0, 0]",,,914.0130454001483,914.0130454001483,,,,,,,,,,,,,,,,,,,,,,,,,,,,,,"[0, 0, 0]",999,m,2,99,r,TEST,2021_Sep_03_1118,2020.2.10,distractmap2,59.84916813454082,"['Left Arm', 'Right Arm', 'Right Face', 'Abdomen']",
2,"[0, 0.2]",0,0,3,3,3,,,,,,,916.0130970999599,916.0130970999599,916.0130970999599,917.0131072001532,916.9964487000834,917.9963722999673,0,None,None,"[0, 0, 0]",,,916.0130970999599,916.0130970999599,,,,,,,,,,,,,,,,,,,,,,,,,,,,,,"[0, 0, 0]",999,m,2,99,r,TEST,2021_Sep_03_1118,2020.2.10,distractmap2,59.84916813454082,"['Left Arm', 'Right Arm', 'Right Face', 'Abdomen']",
2,"[0, 0.2]",1,0,4,4,4,,,,,,,918.0802929999772,918.0802929999772,918.0802929999772,919.0799398999661,919.0630670001265,None,0,None,None,"[0, 0, 0]",,,918.0802929999772,918.0802929999772,,,,,,,,,,,,,,,,,,,,,,,,,,,,,,"[0, 0, 0]",999,m,2,99,r,TEST,2021_Sep_03_1118,2020.2.10,distractmap2,59.84916813454082,"['Left Arm', 'Right Arm', 'Right Face', 'Abdomen']",
7,"[-0.2, -0.2]",0,0,5,5,5,,,,,,,920.0297954999842,None,920.0297954999842,921.0297952999827,921.0131502000149,922.0131638001185,0,None,None,"[0, 0, 0]",,,920.0297954999842,None,,,,,,,,,,,,,,,,,,,,,,,,,,,,,,"[0, 0, 0]",999,m,2,99,r,TEST,2021_Sep_03_1118,2020.2.10,distractmap2,59.84916813454082,"['Left Arm', 'Right Arm', 'Right Face', 'Abdomen']",
9,"[0.2, -0.2]",0,0,6,6,6,,,,,,,922.0297683000099,922.0297683000099,922.0297683000099,923.0297292000614,923.0130978000816,924.013091100147,0,None,None,"[0, 0, 0]",,,922.0297683000099,922.0297683000099,,,,,,,,,,,,,,,,,,,,,,,,,,,,,,"[0, 0, 0]",999,m,2,99,r,TEST,2021_Sep_03_1118,2020.2.10,distractmap2,59.84916813454082,"['Left Arm', 'Right Arm', 'Right Face', 'Abdomen']",
9,"[0.2, -0.2]",1,0,7,7,7,,,,,,,924.0297368001193,924.0297368001193,924.0297368001193,925.0298492000438,925.0131722001825,926.0131543001626,0,None,None,"[0, 0, 0]",,,924.0297368001193,924.0297368001193,,,,,,,,,,,,,,,,,,,,,,,,,,,,,,"[0, 0, 0]",999,m,2,99,r,TEST,2021_Sep_03_1118,2020.2.10,distractmap2,59.84916813454082,"['Left Arm', 'Right Arm', 'Right Face', 'Abdomen']",
4,"[-0.2, 0]",0,0,8,8,8,,,,,,,926.0298748000059,926.0298748000059,926.0298748000059,927.029787100153,927.013149500126,928.0131246000528,0,None,None,"[0, 0, 0]",,,926.0298748000059,926.0298748000059,,,,,,,,,,,,,,,,,,,,,,,,,,,,,,"[0, 0, 0]",999,m,2,99,r,TEST,2021_Sep_03_1118,2020.2.10,distractmap2,59.84916813454082,"['Left Arm', 'Right Arm', 'Right Face', 'Abdomen']",
5,"[0, 0]",0,0,9,9,9,,,,,,,928.0297838000115,928.0297838000115,928.0297838000115,929.029686300084,929.0131412001792,930.0131016001105,0,None,None,"[0, 0, 0]",,,928.0297838000115,928.0297838000115,,,,,,,,,,,,,,,,,,,,,,,,,,,,,,"[0, 0, 0]",999,m,2,99,r,TEST,2021_Sep_03_1118,2020.2.10,distractmap2,59.84916813454082,"['Left Arm', 'Right Arm', 'Right Face', 'Abdomen']",
,,,,,,,,,,,930.0294556999579,None,,,,,,,,,,,,,,,,,,,,,,,,,,,,,,,,,,,,,,,,50.0,936.1861514206976,,,,999,m,2,99,r,TEST,2021_Sep_03_1118,2020.2.10,distractmap2,59.84916813454082,"['Left Arm', 'Right Arm', 'Right Face', 'Abdomen']",
2,"[0, 0.2]",None,0,0,0,0,,,,,947.3973352001049,None,950.0787051999941,None,950.0787051999941,951.0798690000083,951.0633390001021,None,1,None,None,"[0, 0, 0]",,,950.0787051999941,None,,,,,,,,,,,,,,,,,,,,,,,,,,,,0.015395479509606957,5.013860579580069,"[0, 0, 0]",999,m,2,99,r,TEST,2021_Sep_03_1118,2020.2.10,distractmap2,59.84916813454082,"['Left Arm', 'Right Arm', 'Right Face', 'Abdomen']",
2,"[0, 0.2]",1,0,1,1,1,,,,,,,952.0634388001636,None,952.0634388001636,953.0633883001283,953.0467095000204,954.046680400148,0,None,None,"[0, 0, 0]",,,952.0634388001636,None,,,,,,,,,,,,,,,,,,,,,,,,,,,,,,"[0, 0, 0]",999,m,2,99,r,TEST,2021_Sep_03_1118,2020.2.10,distractmap2,59.84916813454082,"['Left Arm', 'Right Arm', 'Right Face', 'Abdomen']",
1,"[-0.2, 0.2]",0,0,2,2,2,,,,,,,954.0633629001677,954.0633629001677,954.0633629001677,955.0633348999545,955.0466859000735,956.0466414999682,0,None,None,"[0, 0, 0]",,,954.0633629001677,954.0633629001677,,,,,,,,,,,,,,,,,,,,,,,,,,,,,,"[0, 0, 0]",999,m,2,99,r,TEST,2021_Sep_03_1118,2020.2.10,distractmap2,59.84916813454082,"['Left Arm', 'Right Arm', 'Right Face', 'Abdomen']",
2,"[0, 0.2]",0,0,3,3,3,,,,,,,956.0633429000154,956.0633429000154,956.0633429000154,957.0633308000397,957.0465934001841,958.0466905001085,0,None,None,"[0, 0, 0]",,,956.0633429000154,956.0633429000154,,,,,,,,,,,,,,,,,,,,,,,,,,,,,,"[0, 0, 0]",999,m,2,99,r,TEST,2021_Sep_03_1118,2020.2.10,distractmap2,59.84916813454082,"['Left Arm', 'Right Arm', 'Right Face', 'Abdomen']",
2,"[0, 0.2]",1,0,4,4,4,,,,,,,958.1140018999577,958.1140018999577,958.1140018999577,959.1135388000403,959.0967209001537,None,0,None,None,"[0, 0, 0]",,,958.1140018999577,958.1140018999577,,,,,,,,,,,,,,,,,,,,,,,,,,,,,,"[0, 0, 0]",999,m,2,99,r,TEST,2021_Sep_03_1118,2020.2.10,distractmap2,59.84916813454082,"['Left Arm', 'Right Arm', 'Right Face', 'Abdomen']",
4,"[-0.2, 0]",0,0,5,5,5,,,,,,,960.0801389000844,None,960.0801389000844,961.0800473999698,961.0633594000246,962.0633492001798,0,None,None,"[0, 0, 0]",,,960.0801389000844,None,,,,,,,,,,,,,,,,,,,,,,,,,,,,,,"[0, 0, 0]",999,m,2,99,r,TEST,2021_Sep_03_1118,2020.2.10,distractmap2,59.84916813454082,"['Left Arm', 'Right Arm', 'Right Face', 'Abdomen']",
6,"[0.2, 0]",0,0,6,6,6,,,,,,,962.080081500113,962.080081500113,962.080081500113,963.0799746999983,963.0633731000125,964.0634445999749,0,None,None,"[0, 0, 0]",,,962.080081500113,962.080081500113,,,,,,,,,,,,,,,,,,,,,,,,,,,,,,"[0, 0, 0]",999,m,2,99,r,TEST,2021_Sep_03_1118,2020.2.10,distractmap2,59.84916813454082,"['Left Arm', 'Right Arm', 'Right Face', 'Abdomen']",
8,"[0, -0.2]",0,0,7,7,7,,,,,,,964.0801319000311,964.0801319000311,964.0801319000311,965.0801030001603,965.0634854000527,966.0634027000051,0,None,None,"[0, 0, 0]",,,964.0801319000311,964.0801319000311,,,,,,,,,,,,,,,,,,,,,,,,,,,,,,"[0, 0, 0]",999,m,2,99,r,TEST,2021_Sep_03_1118,2020.2.10,distractmap2,59.84916813454082,"['Left Arm', 'Right Arm', 'Right Face', 'Abdomen']",
9,"[0.2, -0.2]",0,0,8,8,8,,,,,,,966.0801687999628,966.0801687999628,966.0801687999628,967.0801031000447,967.0634391000494,968.0634249001741,0,None,None,"[0, 0, 0]",,,966.0801687999628,966.0801687999628,,,,,,,,,,,,,,,,,,,,,,,,,,,,,,"[0, 0, 0]",999,m,2,99,r,TEST,2021_Sep_03_1118,2020.2.10,distractmap2,59.84916813454082,"['Left Arm', 'Right Arm', 'Right Face', 'Abdomen']",
9,"[0.2, -0.2]",1,0,9,9,9,,,,,,,968.0801154000219,968.0801154000219,968.0801154000219,969.0801379000768,969.0635035999585,970.063498100033,0,None,None,"[0, 0, 0]",,,968.0801154000219,968.0801154000219,,,,,,,,,,,,,,,,,,,,,,,,,,,,,,"[0, 0, 0]",999,m,2,99,r,TEST,2021_Sep_03_1118,2020.2.10,distractmap2,59.84916813454082,"['Left Arm', 'Right Arm', 'Right Face', 'Abdomen']",
,,,,,,,,,,,970.0798400000203,None,,,,,,,,,,,,,,,,,,,,,,,,,,,,,,,,,,,,,,,,50.0,974.2366185199935,,,,999,m,2,99,r,TEST,2021_Sep_03_1118,2020.2.10,distractmap2,59.84916813454082,"['Left Arm', 'Right Arm', 'Right Face', 'Abdomen']",
4,"[-0.2, 0]",None,0,0,0,0,,,,,985.4322812999599,None,990.1289798000362,None,990.1289798000362,991.1303032001015,991.1136795000639,None,1,None,None,"[0, 0, 0]",,,990.1289798000362,None,,,,,,,,,,,,,,,,,,,,,,,,,,,,0.01513568009249866,5.013262480031699,"[0, 0, 0]",999,m,2,99,r,TEST,2021_Sep_03_1118,2020.2.10,distractmap2,59.84916813454082,"['Left Arm', 'Right Arm', 'Right Face', 'Abdomen']",
7,"[-0.2, -0.2]",0,0,1,1,1,,,,,,,992.1136312000453,None,992.1136312000453,993.1136143000331,993.097022900125,994.0969970000442,0,None,None,"[0, 0, 0]",,,992.1136312000453,None,,,,,,,,,,,,,,,,,,,,,,,,,,,,,,"[0, 0, 0]",999,m,2,99,r,TEST,2021_Sep_03_1118,2020.2.10,distractmap2,59.84916813454082,"['Left Arm', 'Right Arm', 'Right Face', 'Abdomen']",
7,"[-0.2, -0.2]",1,0,2,2,2,,,,,,,994.1136753000319,994.1136753000319,994.1136753000319,995.1137225001585,995.097046200186,996.096995400032,0,None,None,"[0, 0, 0]",,,994.1136753000319,994.1136753000319,,,,,,,,,,,,,,,,,,,,,,,,,,,,,,"[0, 0, 0]",999,m,2,99,r,TEST,2021_Sep_03_1118,2020.2.10,distractmap2,59.84916813454082,"['Left Arm', 'Right Arm', 'Right Face', 'Abdomen']",
4,"[-0.2, 0]",0,0,3,3,3,,,,,,,996.1136960999575,996.1136960999575,996.1136960999575,997.113684900105,997.0970081000123,998.0969921001233,0,None,None,"[0, 0, 0]",,,996.1136960999575,996.1136960999575,,,,,,,,,,,,,,,,,,,,,,,,,,,,,,"[0, 0, 0]",999,m,2,99,r,TEST,2021_Sep_03_1118,2020.2.10,distractmap2,59.84916813454082,"['Left Arm', 'Right Arm', 'Right Face', 'Abdomen']",
8,"[0, -0.2]",0,0,4,4,4,,,,,,,998.1460053999908,998.1460053999908,998.1460053999908,999.147062700009,999.130294600036,None,0,None,None,"[0, 0, 0]",,,998.1460053999908,998.1460053999908,,,,,,,,,,,,,,,,,,,,,,,,,,,,,,"[0, 0, 0]",999,m,2,99,r,TEST,2021_Sep_03_1118,2020.2.10,distractmap2,59.84916813454082,"['Left Arm', 'Right Arm', 'Right Face', 'Abdomen']",
4,"[-0.2, 0]",0,0,5,5,5,,,,,,,1000.130434300052,None,1000.130434300052,1001.130347999977,1001.113704000134,1002.1137484000064,0,None,None,"[0, 0, 0]",,,1000.130434300052,None,,,,,,,,,,,,,,,,,,,,,,,,,,,,,,"[0, 0, 0]",999,m,2,99,r,TEST,2021_Sep_03_1118,2020.2.10,distractmap2,59.84916813454082,"['Left Arm', 'Right Arm', 'Right Face', 'Abdomen']",
7,"[-0.2, -0.2]",0,0,6,6,6,,,,,,,1002.1303974001203,1002.1303974001203,1002.1303974001203,1003.1303352999967,1003.1136358000804,1004.1137814000249,0,None,None,"[0, 0, 0]",,,1002.1303974001203,1002.1303974001203,,,,,,,,,,,,,,,,,,,,,,,,,,,,,,"[0, 0, 0]",999,m,2,99,r,TEST,2021_Sep_03_1118,2020.2.10,distractmap2,59.84916813454082,"['Left Arm', 'Right Arm', 'Right Face', 'Abdomen']",
6,"[0.2, 0]",0,0,7,7,7,,,,,,,1004.130433900049,1004.130433900049,1004.130433900049,1005.1303656999953,1005.1137292000931,1006.1136654000729,0,None,None,"[0, 0, 0]",,,1004.130433900049,1004.130433900049,,,,,,,,,,,,,,,,,,,,,,,,,,,,,,"[0, 0, 0]",999,m,2,99,r,TEST,2021_Sep_03_1118,2020.2.10,distractmap2,59.84916813454082,"['Left Arm', 'Right Arm', 'Right Face', 'Abdomen']",
6,"[0.2, 0]",1,0,8,8,8,,,,,,,1006.1303962001111,1006.1303962001111,1006.1303962001111,1007.1303745000623,1007.1137195001356,1008.1137644001283,0,None,None,"[0, 0, 0]",,,1006.1303962001111,1006.1303962001111,,,,,,,,,,,,,,,,,,,,,,,,,,,,,,"[0, 0, 0]",999,m,2,99,r,TEST,2021_Sep_03_1118,2020.2.10,distractmap2,59.84916813454082,"['Left Arm', 'Right Arm', 'Right Face', 'Abdomen']",
1,"[-0.2, 0.2]",0,0,9,9,9,,,,,,,1008.1304930001497,1008.1304930001497,1008.1304930001497,1009.1304502000567,1009.1138093001209,1010.1137870000675,0,None,None,"[0, 0, 0]",,,1008.1304930001497,1008.1304930001497,,,,,,,,,,,,,,,,,,,,,,,,,,,,,,"[0, 0, 0]",999,m,2,99,r,TEST,2021_Sep_03_1118,2020.2.10,distractmap2,59.84916813454082,"['Left Arm', 'Right Arm', 'Right Face', 'Abdomen']",
,,,,,,,,,,,1010.1300931000151,None,,,,,,,,,,,,,,,,,,,,,,,,,,,,,,,,,,,,,,,,50.0,1012.2876042204443,,,,999,m,2,99,r,TEST,2021_Sep_03_1118,2020.2.10,distractmap2,59.84916813454082,"['Left Arm', 'Right Arm', 'Right Face', 'Abdomen']",
5,"[0, 0]",None,0,0,0,0,,,,,1041.4990421000402,None,1043.5294925000053,None,1043.5294925000053,1044.530703900149,1044.4973693999927,1045.4974005001131,1,None,None,"[0, 0, 0]",,,1043.5294925000053,None,,,,,,,,,,,,,,,,,,,1029.6809470001608,1029.6809470001608,None,space,0.6145756000187248,1029.6809470001608,None,,,0.014525379752740264,5.012014579726383,"[0, 0, 0]",999,m,2,99,r,TEST,2021_Sep_03_1118,2020.2.10,distractmap2,59.84916813454082,"['Left Arm', 'Right Arm', 'Right Face', 'Abdomen']",
5,"[0, 0]",1,0,1,1,1,,,,,,,1045.5140672000125,None,1045.5140672000125,1046.5140834001359,1046.497361900052,1047.49743019999,0,None,None,"[0, 0, 0]",,,1045.5140672000125,None,,,,,,,,,,,,,,,,,,,,,,,,,,,,,,"[0, 0, 0]",999,m,2,99,r,TEST,2021_Sep_03_1118,2020.2.10,distractmap2,59.84916813454082,"['Left Arm', 'Right Arm', 'Right Face', 'Abdomen']",
4,"[-0.2, 0]",0,0,2,2,2,,,,,,,1047.5140871000476,1047.5140871000476,1047.5140871000476,1048.5140788999852,1048.497389400145,1049.4973822999746,0,None,None,"[0, 0, 0]",,,1047.5140871000476,1047.5140871000476,,,,,,,,,,,,,,,,,,,,,,,,,,,,,,"[0, 0, 0]",999,m,2,99,r,TEST,2021_Sep_03_1118,2020.2.10,distractmap2,59.84916813454082,"['Left Arm', 'Right Arm', 'Right Face', 'Abdomen']",
2,"[0, 0.2]",0,0,3,3,3,,,,,,,1049.5140976000112,1049.5140976000112,1049.5140976000112,1050.514133800054,1050.4974624000024,1051.4974454001058,0,None,None,"[0, 0, 0]",,,1049.5140976000112,1049.5140976000112,,,,,,,,,,,,,,,,,,,,,,,,,,,,,,"[0, 0, 0]",999,m,2,99,r,TEST,2021_Sep_03_1118,2020.2.10,distractmap2,59.84916813454082,"['Left Arm', 'Right Arm', 'Right Face', 'Abdomen']",
6,"[0.2, 0]",0,0,4,4,4,,,,,,,1051.5461589000188,1051.5461589000188,1051.5461589000188,1052.5474299001507,1052.5474299001507,None,0,None,None,"[0, 0, 0]",,,1051.5461589000188,1051.5461589000188,,,,,,,,,,,,,,,,,,,,,,,,,,,,,,"[0, 0, 0]",999,m,2,99,r,TEST,2021_Sep_03_1118,2020.2.10,distractmap2,59.84916813454082,"['Left Arm', 'Right Arm', 'Right Face', 'Abdomen']",
8,"[0, -0.2]",0,0,5,5,5,,,,,,,1053.5307616000064,None,1053.5307616000064,1054.5307838001754,1054.514061300084,1055.5141992999706,0,None,None,"[0, 0, 0]",,,1053.5307616000064,None,,,,,,,,,,,,,,,,,,,,,,,,,,,,,,"[0, 0, 0]",999,m,2,99,r,TEST,2021_Sep_03_1118,2020.2.10,distractmap2,59.84916813454082,"['Left Arm', 'Right Arm', 'Right Face', 'Abdomen']",
1,"[-0.2, 0.2]",0,0,6,6,6,,,,,,,1055.5310490000993,1055.5310490000993,1055.5310490000993,1056.5308523999993,1056.5141670999583,1057.5142261001747,0,None,None,"[0, 0, 0]",,,1055.5310490000993,1055.5310490000993,,,,,,,,,,,,,,,,,,,,,,,,,,,,,,"[0, 0, 0]",999,m,2,99,r,TEST,2021_Sep_03_1118,2020.2.10,distractmap2,59.84916813454082,"['Left Arm', 'Right Arm', 'Right Face', 'Abdomen']",
4,"[-0.2, 0]",0,0,7,7,7,,,,,,,1057.5308314000722,1057.5308314000722,1057.5308314000722,1058.5308277001604,1058.5141410999931,1059.5141952000558,0,None,None,"[0, 0, 0]",,,1057.5308314000722,1057.5308314000722,,,,,,,,,,,,,,,,,,,,,,,,,,,,,,"[0, 0, 0]",999,m,2,99,r,TEST,2021_Sep_03_1118,2020.2.10,distractmap2,59.84916813454082,"['Left Arm', 'Right Arm', 'Right Face', 'Abdomen']",
8,"[0, -0.2]",0,0,8,8,8,,,,,,,1059.530868700007,1059.530868700007,1059.530868700007,1060.530872900039,1060.5142002999783,1061.5142173001077,0,None,None,"[0, 0, 0]",,,1059.530868700007,1059.530868700007,,,,,,,,,,,,,,,,,,,,,,,,,,,,,,"[0, 0, 0]",999,m,2,99,r,TEST,2021_Sep_03_1118,2020.2.10,distractmap2,59.84916813454082,"['Left Arm', 'Right Arm', 'Right Face', 'Abdomen']",
8,"[0, -0.2]",1,0,9,9,9,,,,,,,1061.5308934000786,1061.5308934000786,1061.5308934000786,1062.5309115999844,1062.5142798000015,1063.5141885001212,0,None,None,"[0, 0, 0]",,,1061.5308934000786,1061.5308934000786,,,,,,,,,,,,,,,,,,,,,,,,,,,,,,"[0, 0, 0]",999,m,2,99,r,TEST,2021_Sep_03_1118,2020.2.10,distractmap2,59.84916813454082,"['Left Arm', 'Right Arm', 'Right Face', 'Abdomen']",
,,,,,,,,,,,1063.5305518000387,None,,,,,,,,,,,,,,,,,,,,,,,,,,,,,,,,,,,,,,,,50.0,1065.6875831200741,,,,999,m,2,99,r,TEST,2021_Sep_03_1118,2020.2.10,distractmap2,59.84916813454082,"['Left Arm', 'Right Arm', 'Right Face', 'Abdomen']",
3,"[0.2, 0.2]",None,,,,,0,0,0,0,1077.5002917000093,None,,,,,,,,,,,,,,,,,,,,None,None,"[0, 0, 0]",1083.5964063999709,None,1083.5964063999709,1084.5977396001108,1084.5809761001728,None,"[0, 0, 0]",1,1083.5964063999709,None,,,,,,,,,,0.014976080041378736,5.012842979980633,,999,m,2,99,r,TEST,2021_Sep_03_1118,2020.2.10,distractmap2,59.84916813454082,"['Left Arm', 'Right Arm', 'Right Face', 'Abdomen']",
3,"[0.2, 0.2]",None,,,,,0,1,1,1,,,,,,,,,,,,,,,,,,,,,,None,None,"[0, 0, 0]",1085.581295200158,1087.5807264000177,1085.581295200158,1086.5810438999906,1086.564505300019,1087.564427900128,"[0, 0, 0]",1,1085.581295200158,1087.5807264000177,,,,,,,,,,,,,999,m,2,99,r,TEST,2021_Sep_03_1118,2020.2.10,distractmap2,59.84916813454082,"['Left Arm', 'Right Arm', 'Right Face', 'Abdomen']",
5,"[0, 0]",0,,,,,0,2,2,2,,,,,,,,,,,,,,,,,,,,,,None,None,"[0, 0, 0]",1087.5977769000456,1089.597379700048,1087.5977769000456,1088.5976923000999,1088.5808727999683,1089.5810263999738,"[0, 0, 0]",0,1087.5977769000456,1089.597379700048,,,,,,,,,,,,,999,m,2,99,r,TEST,2021_Sep_03_1118,2020.2.10,distractmap2,59.84916813454082,"['Left Arm', 'Right Arm', 'Right Face', 'Abdomen']",
1,"[-0.2, 0.2]",0,,,,,0,3,3,3,,,,,,,,,,,,,,,,,,,,,,None,None,"[0, 0, 0]",1089.6143648000434,1091.6140346000902,1089.6143648000434,1090.6144503999967,1090.5977348000742,1091.5978097000625,"[0, 0, 0]",0,1089.6143648000434,1091.6140346000902,,,,,,,,,,,,,999,m,2,99,r,TEST,2021_Sep_03_1118,2020.2.10,distractmap2,59.84916813454082,"['Left Arm', 'Right Arm', 'Right Face', 'Abdomen']",
5,"[0, 0]",1,,,,,0,4,4,4,,,,,,,,,,,,,,,,,,,,,,None,None,"[0, 0, 0]",1091.7316589001566,None,1091.7316589001566,1092.731287700124,1092.7143270000815,None,"[0, 0, 0]",0,1091.7316589001566,None,,,,,,,,,,,,,999,m,2,99,r,TEST,2021_Sep_03_1118,2020.2.10,distractmap2,59.84916813454082,"['Left Arm', 'Right Arm', 'Right Face', 'Abdomen']",
8,"[0, -0.2]",0,,,,,0,5,5,5,,,,,,,,,,,,,,,,,,,,,,None,None,"[0, 0, 0]",1093.6477453000844,1095.6473674001172,1093.6477453000844,1094.6477397000417,1094.63108930015,1095.6310868000146,"[0, 0, 0]",0,1093.6477453000844,1095.6473674001172,,,,,,,,,,,,,999,m,2,99,r,TEST,2021_Sep_03_1118,2020.2.10,distractmap2,59.84916813454082,"['Left Arm', 'Right Arm', 'Right Face', 'Abdomen']",
5,"[0, 0]",1,,,,,0,6,6,6,,,,,,,,,,,,,,,,,,,,,,None,None,"[0, 0, 0]",1095.664370100014,1097.6640806000214,1095.664370100014,1096.6644699999597,1096.647741300054,1097.6476954000536,"[0, 0, 0]",0,1095.664370100014,1097.6640806000214,,,,,,,,,,,,,999,m,2,99,r,TEST,2021_Sep_03_1118,2020.2.10,distractmap2,59.84916813454082,"['Left Arm', 'Right Arm', 'Right Face', 'Abdomen']",
7,"[-0.2, -0.2]",0,,,,,0,7,7,7,,,,,,,,,,,,,,,,,,,,,,None,None,"[0, 0, 0]",1097.6811260001268,1099.6807838000823,1097.6811260001268,1098.6811874001287,1098.6644594999962,1099.6645111001562,"[0, 0, 0]",0,1097.6811260001268,1099.6807838000823,,,,,,,,,,,,,999,m,2,99,r,TEST,2021_Sep_03_1118,2020.2.10,distractmap2,59.84916813454082,"['Left Arm', 'Right Arm', 'Right Face', 'Abdomen']",
5,"[0, 0]",1,,,,,0,8,8,8,,,,,,,,,,,,,,,,,,,,,,None,None,"[0, 0, 0]",1099.6977435001172,1101.697475100169,1099.6977435001172,1100.6978019999806,1100.6811144000385,1101.6811973000877,"[0, 0, 0]",0,1099.6977435001172,1101.697475100169,,,,,,,,,,,,,999,m,2,99,r,TEST,2021_Sep_03_1118,2020.2.10,distractmap2,59.84916813454082,"['Left Arm', 'Right Arm', 'Right Face', 'Abdomen']",
7,"[-0.2, -0.2]",1,,,,,0,9,9,9,,,,,,,,,,,,,,,,,,,,,,None,None,"[0, 0, 0]",1101.7145490001421,1103.7142010000534,1101.7145490001421,1102.7144560001325,1102.6978707001545,1103.6978722000495,"[0, 0, 0]",0,1101.7145490001421,1103.7142010000534,,,,,,,,,,,,,999,m,2,99,r,TEST,2021_Sep_03_1118,2020.2.10,distractmap2,59.84916813454082,"['Left Arm', 'Right Arm', 'Right Face', 'Abdomen']",
,,,,,,,,,,,1103.7308545000851,None,,,,,,,,,,,,,,,,,,,,,,,,,,,,,,,,,,,,,,,,50.0,1107.8876087197568,,,,999,m,2,99,r,TEST,2021_Sep_03_1118,2020.2.10,distractmap2,59.84916813454082,"['Left Arm', 'Right Arm', 'Right Face', 'Abdomen']",
6,"[0.2, 0]",None,,,,,0,0,0,0,1119.8342790000606,None,,,,,,,,,,,,,,,,,,,,None,None,"[0, 0, 0]",1123.7800456001423,None,1123.7800456001423,1124.7813796000555,1124.7647158000618,None,"[0, 0, 0]",1,1123.7800456001423,None,,,,,,,,,,0.015294980257749557,5.01349638029933,,999,m,2,99,r,TEST,2021_Sep_03_1118,2020.2.10,distractmap2,59.84916813454082,"['Left Arm', 'Right Arm', 'Right Face', 'Abdomen']",
1,"[-0.2, 0.2]",None,,,,,0,1,1,1,,,,,,,,,,,,,,,,,,,,,,None,None,"[0, 0, 0]",1125.7647826001048,1127.764290299965,1125.7647826001048,1126.7647198999766,1126.7480597000103,1127.748021000065,"[0, 0, 0]",1,1125.7647826001048,1127.764290299965,,,,,,,,,,,,,999,m,2,99,r,TEST,2021_Sep_03_1118,2020.2.10,distractmap2,59.84916813454082,"['Left Arm', 'Right Arm', 'Right Face', 'Abdomen']",
6,"[0.2, 0]",1,,,,,0,2,2,2,,,,,,,,,,,,,,,,,,,,,,None,None,"[0, 0, 0]",1127.7813470000401,1129.7809882999863,1127.7813470000401,1128.7811857000925,1128.7647263000254,1129.7647343000863,"[0, 0, 0]",0,1127.7813470000401,1129.7809882999863,,,,,,,,,,,,,999,m,2,99,r,TEST,2021_Sep_03_1118,2020.2.10,distractmap2,59.84916813454082,"['Left Arm', 'Right Arm', 'Right Face', 'Abdomen']",
4,"[-0.2, 0]",0,,,,,0,3,3,3,,,,,,,,,,,,,,,,,,,,,,None,None,"[0, 0, 0]",1129.7980935000814,1131.7977412000764,1129.7980935000814,1130.7980826001149,1130.7814128999598,1131.7814398000482,"[0, 0, 0]",0,1129.7980935000814,1131.7977412000764,,,,,,,,,,,,,999,m,2,99,r,TEST,2021_Sep_03_1118,2020.2.10,distractmap2,59.84916813454082,"['Left Arm', 'Right Arm', 'Right Face', 'Abdomen']",
1,"[-0.2, 0.2]",0,,,,,0,4,4,4,,,,,,,,,,,,,,,,,,,,,,None,None,"[0, 0, 0]",1131.8635664000176,None,1131.8635664000176,1132.8648141000886,1132.8481246000156,None,"[0, 0, 0]",0,1131.8635664000176,None,,,,,,,,,,,,,999,m,2,99,r,TEST,2021_Sep_03_1118,2020.2.10,distractmap2,59.84916813454082,"['Left Arm', 'Right Arm', 'Right Face', 'Abdomen']",
8,"[0, -0.2]",0,,,,,0,5,5,5,,,,,,,,,,,,,,,,,,,,,,None,None,"[0, 0, 0]",1133.8315110001713,1135.8310514001641,1133.8315110001713,1134.8314559999853,1134.814783200156,1135.8147849000525,"[0, 0, 0]",0,1133.8315110001713,1135.8310514001641,,,,,,,,,,,,,999,m,2,99,r,TEST,2021_Sep_03_1118,2020.2.10,distractmap2,59.84916813454082,"['Left Arm', 'Right Arm', 'Right Face', 'Abdomen']",
1,"[-0.2, 0.2]",1,,,,,0,6,6,6,,,,,,,,,,,,,,,,,,,,,,None,None,"[0, 0, 0]",1135.8480614,1137.8476974000223,1135.8480614,1136.848059900105,1136.8314390000887,1137.8313442000654,"[0, 0, 0]",0,1135.8480614,1137.8476974000223,,,,,,,,,,,,,999,m,2,99,r,TEST,2021_Sep_03_1118,2020.2.10,distractmap2,59.84916813454082,"['Left Arm', 'Right Arm', 'Right Face', 'Abdomen']",
8,"[0, -0.2]",1,,,,,0,7,7,7,,,,,,,,,,,,,,,,,,,,,,None,None,"[0, 0, 0]",1137.8648282000795,1139.8644113000482,1137.8648282000795,1138.8647072000895,1138.8481429000385,1139.8480980000459,"[0, 0, 0]",0,1137.8648282000795,1139.8644113000482,,,,,,,,,,,,,999,m,2,99,r,TEST,2021_Sep_03_1118,2020.2.10,distractmap2,59.84916813454082,"['Left Arm', 'Right Arm', 'Right Face', 'Abdomen']",
1,"[-0.2, 0.2]",1,,,,,0,8,8,8,,,,,,,,,,,,,,,,,,,,,,None,None,"[0, 0, 0]",1139.881453000009,1141.881066699978,1139.881453000009,1140.8814638999756,1140.8647325001657,1141.864702800056,"[0, 0, 0]",0,1139.881453000009,1141.881066699978,,,,,,,,,,,,,999,m,2,99,r,TEST,2021_Sep_03_1118,2020.2.10,distractmap2,59.84916813454082,"['Left Arm', 'Right Arm', 'Right Face', 'Abdomen']",
6,"[0.2, 0]",0,,,,,0,9,9,9,,,,,,,,,,,,,,,,,,,,,,None,None,"[0, 0, 0]",1141.8981214000378,1143.8978977000806,1141.8981214000378,1142.8981929000001,1142.881558299996,1143.8815754000098,"[0, 0, 0]",0,1141.8981214000378,1143.8978977000806,,,,,,,,,,,,,999,m,2,99,r,TEST,2021_Sep_03_1118,2020.2.10,distractmap2,59.84916813454082,"['Left Arm', 'Right Arm', 'Right Face', 'Abdomen']",
,,,,,,,,,,,1143.9145659999922,None,,,,,,,,,,,,,,,,,,,,,,,,,,,,,,,,,,,,,,,,50.0,1150.071534120245,,,,999,m,2,99,r,TEST,2021_Sep_03_1118,2020.2.10,distractmap2,59.84916813454082,"['Left Arm', 'Right Arm', 'Right Face', 'Abdomen']",
3,"[0.2, 0.2]",None,0,0,0,0,,,,,1161.932408099994,None,1163.9804478001315,None,1163.9804478001315,1164.9816768001765,1164.96490120003,None,1,None,None,"[0, 0, 0]",,,1163.9804478001315,None,,,,,,,,,,,,,,,,,,,,,,,,,,,,0.015011479845270514,5.012867480050772,"[0, 0, 0]",999,m,2,99,r,TEST,2021_Sep_03_1118,2020.2.10,distractmap2,59.84916813454082,"['Left Arm', 'Right Arm', 'Right Face', 'Abdomen']",
4,"[-0.2, 0]",0,0,1,1,1,,,,,,,1165.9650709000416,None,1165.9650709000416,1166.9650767999701,1166.948455300182,1167.9483722001314,0,None,None,"[0, 0, 0]",,,1165.9650709000416,None,,,,,,,,,,,,,,,,,,,,,,,,,,,,,,"[0, 0, 0]",999,m,2,99,r,TEST,2021_Sep_03_1118,2020.2.10,distractmap2,59.84916813454082,"['Left Arm', 'Right Arm', 'Right Face', 'Abdomen']",
1,"[-0.2, 0.2]",0,0,2,2,2,,,,,,,1167.9650171000976,1167.9650171000976,1167.9650171000976,1168.9650372001342,1168.9483797999565,1169.9483932000585,0,None,None,"[0, 0, 0]",,,1167.9650171000976,1167.9650171000976,,,,,,,,,,,,,,,,,,,,,,,,,,,,,,"[0, 0, 0]",999,m,2,99,r,TEST,2021_Sep_03_1118,2020.2.10,distractmap2,59.84916813454082,"['Left Arm', 'Right Arm', 'Right Face', 'Abdomen']",
