square,location,corrAns,runSeq,TaskT1Loop.thisRepN,TaskT1Loop.thisTrialN,TaskT1Loop.thisN,TaskT1Loop.thisIndex,trials.thisRepN,trials.thisTrialN,trials.thisN,trials.thisIndex,trials_2.thisRepN,trials_2.thisTrialN,trials_2.thisN,trials_2.thisIndex,runLoop.thisRepN,runLoop.thisTrialN,runLoop.thisN,runLoop.thisIndex,fixation_1.started,fixation_1.stopped,grid_lines.started,grid_lines.stopped,target_square.started,target_square.stopped,fixation_2.started,fixation_2.stopped,response.corr,response.x,response.y,response.leftButton,response.click_left,response.click_right,response.started,response.stopped,ScoreReportText.started,ScoreReportText.stopped,ScoreReportResponse.keys,ScoreReportResponse.started,ScoreReportResponse.stopped,response_2.x,response_2.y,response_2.leftButton,grid_lines_2.started,grid_lines_2.stopped,target_square_2.started,target_square_2.stopped,fixation_3.started,fixation_3.stopped,response_2.click,response_2.corr,response_2.started,response_2.stopped,BodySiteInstructionText.started,BodySiteImg.started,BodySiteImg.stopped,BodySiteInstructionRead.keys,BodySiteInstructionRead.rt,BodySiteInstructionRead.started,BodySiteInstructionRead.stopped,response.click,IntensityRating.response,IntensityRating.rt,IntensityRating.started,IntensityRating.stopped,subject number,gender,bodymap first- or second-half (1 or 2),session,handedness,scanner,date,expName,psychopyVersion,frameRate,body_site_order,
6,"[0.2, 0]",None,,0,0,0,0,0,0,0,0,,,,,,,,,53.472135599993635,None,54.533309199963696,None,54.533309199963696,55.54003299999749,55.52325349999592,None,1,-0.18194444444444444,0.013888888888888888,"[0, 0, 0]",0,0,54.533309199963696,None,,,,,,,,,,,,,,,,,,,,,,,,,,,,,,,999,m,2,99,r,TEST,2021_Aug_08_2022,WASABI distractmap,2020.2.10,60.78994095936548,"['Right Arm', 'Abdomen', 'Right Face', 'Left Face']",
6,"[0.2, 0]",1.0,,0,0,0,0,0,1,1,1,,,,,,,,,,,56.49041249998845,None,56.49041249998845,57.49088649998885,57.49088649998885,None,1,-0.18194444444444444,0.013888888888888888,"[0, 0, 0]",0,0,56.49041249998845,None,,,,,,,,,,,,,,,,,,,,,,,,,,,,,,,999,m,2,99,r,TEST,2021_Aug_08_2022,WASABI distractmap,2020.2.10,60.78994095936548,"['Right Arm', 'Abdomen', 'Right Face', 'Left Face']",
2,"[0, 0.2]",0.0,,0,0,0,0,0,2,2,2,,,,,,,,,,,58.491437099990435,None,58.491437099990435,59.491824199969415,59.4752862000023,None,1,-0.18194444444444444,0.013888888888888888,"[0, 0, 0]",0,0,58.491437099990435,None,,,,,,,,,,,,,,,,,,,,,,,,,,,,,,,999,m,2,99,r,TEST,2021_Aug_08_2022,WASABI distractmap,2020.2.10,60.78994095936548,"['Right Arm', 'Abdomen', 'Right Face', 'Left Face']",
9,"[0.2, -0.2]",0.0,,0,0,0,0,0,3,3,3,,,,,,,,,,,60.475910099979956,None,60.475910099979956,61.4763272999553,61.45949129998917,62.4601819999516,1,-0.18194444444444444,0.013888888888888888,"[0, 0, 0]",0,0,60.475910099979956,None,,,,,,,,,,,,,,,,,,,,,,,,,,,,,,,999,m,2,99,r,TEST,2021_Aug_08_2022,WASABI distractmap,2020.2.10,60.78994095936548,"['Right Arm', 'Abdomen', 'Right Face', 'Left Face']",
9,"[0.2, -0.2]",1.0,,0,0,0,0,0,4,4,4,,,,,,,,,,,62.47713259997545,None,62.47713259997545,63.47737439995399,63.46054269996239,64.4612088999711,0,-0.18194444444444444,0.013888888888888888,"[0, 0, 0]",0,0,62.47713259997545,None,,,,,,,,,,,,,,,,,,,,,,,,,,,,,,,999,m,2,99,r,TEST,2021_Aug_08_2022,WASABI distractmap,2020.2.10,60.78994095936548,"['Right Arm', 'Abdomen', 'Right Face', 'Left Face']",
6,"[0.2, 0]",0.0,,0,0,0,0,0,5,5,5,,,,,,,,,,,64.47892729996238,None,64.47892729996238,65.47830719995545,65.46148899995023,66.46221849997528,1,-0.18194444444444444,0.013888888888888888,"[0, 0, 0]",0,0,64.47892729996238,None,,,,,,,,,,,,,,,,,,,,,,,,,,,,,,,999,m,2,99,r,TEST,2021_Aug_08_2022,WASABI distractmap,2020.2.10,60.78994095936548,"['Right Arm', 'Abdomen', 'Right Face', 'Left Face']",
4,"[-0.2, 0]",0.0,,0,0,0,0,0,6,6,6,,,,,,,,,,,66.4790071999887,None,66.4790071999887,67.4794477999676,67.46266520000063,68.4630763999885,1,-0.18194444444444444,0.013888888888888888,"[0, 0, 0]",0,0,66.4790071999887,None,,,,,,,,,,,,,,,,,,,,,,,,,,,,,,,999,m,2,99,r,TEST,2021_Aug_08_2022,WASABI distractmap,2020.2.10,60.78994095936548,"['Right Arm', 'Abdomen', 'Right Face', 'Left Face']",
3,"[0.2, 0.2]",0.0,,0,0,0,0,0,7,7,7,,,,,,,,,,,68.4811985999695,None,68.4811985999695,69.48056279995944,69.46360819996335,70.46453639998799,1,-0.18194444444444444,0.013888888888888888,"[0, 0, 0]",0,0,68.4811985999695,None,,,,,,,,,,,,,,,,,,,,,,,,,,,,,,,999,m,2,99,r,TEST,2021_Aug_08_2022,WASABI distractmap,2020.2.10,60.78994095936548,"['Right Arm', 'Abdomen', 'Right Face', 'Left Face']",
3,"[0.2, 0.2]",1.0,,0,0,0,0,0,8,8,8,,,,,,,,,,,70.48122669995064,None,70.48122669995064,71.48141730000498,71.46448639995651,72.46537289995467,0,-0.18194444444444444,0.013888888888888888,"[0, 0, 0]",0,0,70.48122669995064,None,,,,,,,,,,,,,,,,,,,,,,,,,,,,,,,999,m,2,99,r,TEST,2021_Aug_08_2022,WASABI distractmap,2020.2.10,60.78994095936548,"['Right Arm', 'Abdomen', 'Right Face', 'Left Face']",
8,"[0, -0.2]",0.0,,0,0,0,0,0,9,9,9,,,,,,,,,,,72.48197699995944,None,72.48197699995944,73.48263069998939,73.46560949995182,74.46627340000123,1,-0.18194444444444444,0.013888888888888888,"[0, 0, 0]",0,0,72.48197699995944,None,,,,,,,,,,,,,,,,,,,,,,,,,,,,,,,999,m,2,99,r,TEST,2021_Aug_08_2022,WASABI distractmap,2020.2.10,60.78994095936548,"['Right Arm', 'Abdomen', 'Right Face', 'Left Face']",
1,"[-0.2, 0.2]",0.0,,0,0,0,0,0,10,10,10,,,,,,,,,,,74.48296969995135,None,74.48296969995135,75.48340919998009,75.46668939996744,76.46722509997198,1,-0.18194444444444444,0.013888888888888888,"[0, 0, 0]",0,0,74.48296969995135,None,,,,,,,,,,,,,,,,,,,,,,,,,,,,,,,999,m,2,99,r,TEST,2021_Aug_08_2022,WASABI distractmap,2020.2.10,60.78994095936548,"['Right Arm', 'Abdomen', 'Right Face', 'Left Face']",
2,"[0, 0.2]",0.0,,0,0,0,0,0,11,11,11,,,,,,,,,,,76.48402709997026,None,76.48402709997026,77.48459949996322,77.46766079997178,78.4683574999799,1,-0.18194444444444444,0.013888888888888888,"[0, 0, 0]",0,0,76.48402709997026,None,,,,,,,,,,,,,,,,,,,,,,,,,,,,,,,999,m,2,99,r,TEST,2021_Aug_08_2022,WASABI distractmap,2020.2.10,60.78994095936548,"['Right Arm', 'Abdomen', 'Right Face', 'Left Face']",
4,"[-0.2, 0]",0.0,,0,0,0,0,0,12,12,12,,,,,,,,,,,78.48502480000025,None,78.48502480000025,79.48533579998184,79.46853269997519,80.46934029995464,1,-0.18194444444444444,0.013888888888888888,"[0, 0, 0]",0,0,78.48502480000025,None,,,,,,,,,,,,,,,,,,,,,,,,,,,,,,,999,m,2,99,r,TEST,2021_Aug_08_2022,WASABI distractmap,2020.2.10,60.78994095936548,"['Right Arm', 'Abdomen', 'Right Face', 'Left Face']",
4,"[-0.2, 0]",1.0,,0,0,0,0,0,13,13,13,,,,,,,,,,,80.48602079995908,None,80.48602079995908,81.48647359997267,81.46964119997574,82.47031740000239,1,-0.18194444444444444,0.013888888888888888,"[0, 0, 0]",0,0,80.48602079995908,None,,,,,,,,,,,,,,,,,,,,,,,,,,,,,,,999,m,2,99,r,TEST,2021_Aug_08_2022,WASABI distractmap,2020.2.10,60.78994095936548,"['Right Arm', 'Abdomen', 'Right Face', 'Left Face']",
8,"[0, -0.2]",0.0,,0,0,0,0,0,14,14,14,,,,,,,,,,,82.48689790000208,None,82.48689790000208,83.48739579995163,83.47068399999989,84.47126510000089,1,-0.18194444444444444,0.013888888888888888,"[0, 0, 0]",0,0,82.48689790000208,None,,,,,,,,,,,,,,,,,,,,,,,,,,,,,,,999,m,2,99,r,TEST,2021_Aug_08_2022,WASABI distractmap,2020.2.10,60.78994095936548,"['Right Arm', 'Abdomen', 'Right Face', 'Left Face']",
5,"[0, 0]",0.0,,0,0,0,0,0,15,15,15,,,,,,,,,,,84.4880206999951,None,84.4880206999951,85.4884194000042,85.47171279997565,86.47233189997496,1,-0.18194444444444444,0.013888888888888888,"[0, 0, 0]",0,0,84.4880206999951,None,,,,,,,,,,,,,,,,,,,,,,,,,,,,,,,999,m,2,99,r,TEST,2021_Aug_08_2022,WASABI distractmap,2020.2.10,60.78994095936548,"['Right Arm', 'Abdomen', 'Right Face', 'Left Face']",
5,"[0, 0]",1.0,,0,0,0,0,0,16,16,16,,,,,,,,,,,86.4889370999881,None,86.4889370999881,87.4892692999565,87.47286069998518,88.47340069996426,0,-0.18194444444444444,0.013888888888888888,"[0, 0, 0]",0,0,86.4889370999881,None,,,,,,,,,,,,,,,,,,,,,,,,,,,,,,,999,m,2,99,r,TEST,2021_Aug_08_2022,WASABI distractmap,2020.2.10,60.78994095936548,"['Right Arm', 'Abdomen', 'Right Face', 'Left Face']",
1,"[-0.2, 0.2]",0.0,,0,0,0,0,0,17,17,17,,,,,,,,,,,88.48993779998273,None,88.48993779998273,89.49027049995493,89.47369329998037,90.47440000000643,1,-0.18194444444444444,0.013888888888888888,"[0, 0, 0]",0,0,88.48993779998273,None,,,,,,,,,,,,,,,,,,,,,,,,,,,,,,,999,m,2,99,r,TEST,2021_Aug_08_2022,WASABI distractmap,2020.2.10,60.78994095936548,"['Right Arm', 'Abdomen', 'Right Face', 'Left Face']",
3,"[0.2, 0.2]",0.0,,0,0,0,0,0,18,18,18,,,,,,,,,,,90.49087169999257,None,90.49087169999257,91.49119549995521,91.47476989997085,None,1,-0.18194444444444444,0.013888888888888888,"[0, 0, 0]",0,0,90.49087169999257,None,,,,,,,,,,,,,,,,,,,,,,,,,,,,,,,999,m,2,99,r,TEST,2021_Aug_08_2022,WASABI distractmap,2020.2.10,60.78994095936548,"['Right Arm', 'Abdomen', 'Right Face', 'Left Face']",
6,"[0.2, 0]",0.0,,0,0,0,0,0,19,19,19,,,,,,,,,,,92.47564269998111,None,92.47564269998111,93.4759091999731,93.45891119999578,94.45971460000146,1,-0.18194444444444444,0.013888888888888888,"[0, 0, 0]",0,0,92.47564269998111,None,,,,,,,,,,,,,,,,,,,,,,,,,,,,,,,999,m,2,99,r,TEST,2021_Aug_08_2022,WASABI distractmap,2020.2.10,60.78994095936548,"['Right Arm', 'Abdomen', 'Right Face', 'Left Face']",
1,"[-0.2, 0.2]",0.0,,0,0,0,0,0,20,20,20,,,,,,,,,,,94.47638829995412,None,94.47638829995412,95.47672199999215,95.4598911999492,96.46041529998183,1,-0.18194444444444444,0.013888888888888888,"[0, 0, 0]",0,0,94.47638829995412,None,,,,,,,,,,,,,,,,,,,,,,,,,,,,,,,999,m,2,99,r,TEST,2021_Aug_08_2022,WASABI distractmap,2020.2.10,60.78994095936548,"['Right Arm', 'Abdomen', 'Right Face', 'Left Face']",
1,"[-0.2, 0.2]",1.0,,0,0,0,0,0,21,21,21,,,,,,,,,,,96.47757429996273,None,96.47757429996273,97.47789270000067,97.46108079998521,98.4615154999774,1,-0.18194444444444444,0.013888888888888888,"[0, 0, 0]",0,0,96.47757429996273,None,,,,,,,,,,,,,,,,,,,,,,,,,,,,,,,999,m,2,99,r,TEST,2021_Aug_08_2022,WASABI distractmap,2020.2.10,60.78994095936548,"['Right Arm', 'Abdomen', 'Right Face', 'Left Face']",
1,"[-0.2, 0.2]",1.0,,0,0,0,0,0,22,22,22,,,,,,,,,,,98.47856580000371,None,98.47856580000371,99.47876959998393,99.46189109998522,100.46269570000004,1,-0.18194444444444444,0.013888888888888888,"[0, 0, 0]",0,0,98.47856580000371,None,,,,,,,,,,,,,,,,,,,,,,,,,,,,,,,999,m,2,99,r,TEST,2021_Aug_08_2022,WASABI distractmap,2020.2.10,60.78994095936548,"['Right Arm', 'Abdomen', 'Right Face', 'Left Face']",
3,"[0.2, 0.2]",0.0,,0,0,0,0,0,23,23,23,,,,,,,,,,,100.47931579995202,None,100.47931579995202,101.4798252999899,101.4628988999757,102.46354539995082,1,-0.18194444444444444,0.013888888888888888,"[0, 0, 0]",0,0,100.47931579995202,None,,,,,,,,,,,,,,,,,,,,,,,,,,,,,,,999,m,2,99,r,TEST,2021_Aug_08_2022,WASABI distractmap,2020.2.10,60.78994095936548,"['Right Arm', 'Abdomen', 'Right Face', 'Left Face']",
2,"[0, 0.2]",0.0,,0,0,0,0,0,24,24,24,,,,,,,,,,,102.48033409996424,None,102.48033409996424,103.4807760999538,103.46390229999088,104.46458789997268,1,-0.18194444444444444,0.013888888888888888,"[0, 0, 0]",0,0,102.48033409996424,None,,,,,,,,,,,,,,,,,,,,,,,,,,,,,,,999,m,2,99,r,TEST,2021_Aug_08_2022,WASABI distractmap,2020.2.10,60.78994095936548,"['Right Arm', 'Abdomen', 'Right Face', 'Left Face']",
1,"[-0.2, 0.2]",0.0,,0,0,0,0,0,25,25,25,,,,,,,,,,,104.48124689998804,None,104.48124689998804,105.48181969998404,105.46494899998652,106.46573389996774,0,-0.18194444444444444,0.013888888888888888,"[0, 0, 0]",0,0,104.48124689998804,None,,,,,,,,,,,,,,,,,,,,,,,,,,,,,,,999,m,2,99,r,TEST,2021_Aug_08_2022,WASABI distractmap,2020.2.10,60.78994095936548,"['Right Arm', 'Abdomen', 'Right Face', 'Left Face']",
7,"[-0.2, -0.2]",0.0,,0,0,0,0,0,26,26,26,,,,,,,,,,,106.48242469999241,None,106.48242469999241,107.48288299998967,107.4661000999622,108.4666048999643,1,-0.18194444444444444,0.013888888888888888,"[0, 0, 0]",0,0,106.48242469999241,None,,,,,,,,,,,,,,,,,,,,,,,,,,,,,,,999,m,2,99,r,TEST,2021_Aug_08_2022,WASABI distractmap,2020.2.10,60.78994095936548,"['Right Arm', 'Abdomen', 'Right Face', 'Left Face']",
7,"[-0.2, -0.2]",1.0,,0,0,0,0,0,27,27,27,,,,,,,,,,,108.48345479997806,None,108.48345479997806,109.48383679997642,109.46689379995223,110.46781109995209,1,-0.18194444444444444,0.013888888888888888,"[0, 0, 0]",0,0,108.48345479997806,None,,,,,,,,,,,,,,,,,,,,,,,,,,,,,,,999,m,2,99,r,TEST,2021_Aug_08_2022,WASABI distractmap,2020.2.10,60.78994095936548,"['Right Arm', 'Abdomen', 'Right Face', 'Left Face']",
2,"[0, 0.2]",0.0,,0,0,0,0,0,28,28,28,,,,,,,,,,,110.48441350000212,None,110.48441350000212,111.48474359995453,111.46792729996378,112.46878870000364,1,-0.18194444444444444,0.013888888888888888,"[0, 0, 0]",0,0,110.48441350000212,None,,,,,,,,,,,,,,,,,,,,,,,,,,,,,,,999,m,2,99,r,TEST,2021_Aug_08_2022,WASABI distractmap,2020.2.10,60.78994095936548,"['Right Arm', 'Abdomen', 'Right Face', 'Left Face']",
6,"[0.2, 0]",0.0,,0,0,0,0,0,29,29,29,,,,,,,,,,,112.48537869995926,None,112.48537869995926,113.48598309996305,113.46890919998987,114.4697395999683,1,-0.18194444444444444,0.013888888888888888,"[0, 0, 0]",0,0,112.48537869995926,None,,,,,,,,,,,,,,,,,,,,,,,,,,,,,,,999,m,2,99,r,TEST,2021_Aug_08_2022,WASABI distractmap,2020.2.10,60.78994095936548,"['Right Arm', 'Abdomen', 'Right Face', 'Left Face']",
,,,,0,0,0,0,,,,,,,,,,,,,,,,,,,,,,,,,,,,,114.50137099996209,None,space,114.50137099996209,None,,,,,,,,,,,,,,,,,,,,,,,,,,999,m,2,99,r,TEST,2021_Aug_08_2022,WASABI distractmap,2020.2.10,60.78994095936548,"['Right Arm', 'Abdomen', 'Right Face', 'Left Face']",
6,"[0.2, 0]",None,,,,,,,,,,0,0,0,0,,,,,165.39500769996084,None,,,,,,,,,,,,,,,,,,,,None,None,"[0, 0, 0]",166.3976941999863,168.39643939997768,166.3976941999863,167.41292159998557,167.39610369998263,168.39643939997768,"[0, 0, 0]",1,166.3976941999863,168.39643939997768,,,,,,,,,,,,,999,m,2,99,r,TEST,2021_Aug_08_2022,WASABI distractmap,2020.2.10,60.78994095936548,"['Right Arm', 'Abdomen', 'Right Face', 'Left Face']",
7,"[-0.2, -0.2]",None,,,,,,,,,,0,1,1,1,,,,,,,,,,,,,,,,,,,,,,,,,,None,None,"[0, 0, 0]",168.41319950000616,170.41425689996686,168.41319950000616,169.4138968999614,169.39693019998958,170.39752850000514,"[0, 0, 0]",1,168.41319950000616,170.41425689996686,,,,,,,,,,,,,999,m,2,99,r,TEST,2021_Aug_08_2022,WASABI distractmap,2020.2.10,60.78994095936548,"['Right Arm', 'Abdomen', 'Right Face', 'Left Face']",
6,"[0.2, 0]",1.0,,,,,,,,,,0,2,2,2,,,,,,,,,,,,,,,,,,,,,,,,,,None,None,"[0, 0, 0]",170.43095179996453,172.43195899995044,170.43095179996453,171.43145829997957,171.4150300999754,172.41544680000516,"[0, 0, 0]",1,170.43095179996453,172.43195899995044,,,,,,,,,,,,,999,m,2,99,r,TEST,2021_Aug_08_2022,WASABI distractmap,2020.2.10,60.78994095936548,"['Right Arm', 'Abdomen', 'Right Face', 'Left Face']",
2,"[0, 0.2]",0.0,,,,,,,,,,0,3,3,3,,,,,,,,,,,,,,,,,,,,,,,,,,None,None,"[0, 0, 0]",172.44874439999694,174.4498295999947,172.44874439999694,173.44920420000562,173.43248649995076,174.4330371999531,"[0, 0, 0]",1,172.44874439999694,174.4498295999947,,,,,,,,,,,,,999,m,2,99,r,TEST,2021_Aug_08_2022,WASABI distractmap,2020.2.10,60.78994095936548,"['Right Arm', 'Abdomen', 'Right Face', 'Left Face']",
5,"[0, 0]",0.0,,,,,,,,,,0,4,4,4,,,,,,,,,,,,,,,,,,,,,,,,,,None,None,"[0, 0, 0]",174.46638820000226,176.46736489998875,174.46638820000226,175.46680479997303,175.4502085999702,176.45083210000303,"[0, 0, 0]",1,174.46638820000226,176.46736489998875,,,,,,,,,,,,,999,m,2,99,r,TEST,2021_Aug_08_2022,WASABI distractmap,2020.2.10,60.78994095936548,"['Right Arm', 'Abdomen', 'Right Face', 'Left Face']",
4,"[-0.2, 0]",0.0,,,,,,,,,,0,5,5,5,,,,,,,,,,,,,,,,,,,,,,,,,,None,None,"[0, 0, 0]",176.4841314999503,178.48558949999278,176.4841314999503,177.4846212999546,177.46784319996368,178.4684956999845,"[0, 0, 0]",1,176.4841314999503,178.48558949999278,,,,,,,,,,,,,999,m,2,99,r,TEST,2021_Aug_08_2022,WASABI distractmap,2020.2.10,60.78994095936548,"['Right Arm', 'Abdomen', 'Right Face', 'Left Face']",
4,"[-0.2, 0]",0.0,,,,,,,,,,0,6,6,6,,,,,,,,,,,,,,,,,,,,,,,,,,None,None,"[0, 0, 0]",178.50159239995992,180.50266919995192,178.50159239995992,179.5021132999682,179.48558229999617,180.4861425999552,"[0, 0, 0]",1,178.50159239995992,180.50266919995192,,,,,,,,,,,,,999,m,2,99,r,TEST,2021_Aug_08_2022,WASABI distractmap,2020.2.10,60.78994095936548,"['Right Arm', 'Abdomen', 'Right Face', 'Left Face']",
7,"[-0.2, -0.2]",0.0,,,,,,,,,,0,7,7,7,,,,,,,,,,,,,,,,,,,,,,,,,,None,None,"[0, 0, 0]",180.51947539998218,182.52061199996388,180.51947539998218,181.51998389995424,181.50309219997143,182.50382439995883,"[0, 0, 0]",1,180.51947539998218,182.52061199996388,,,,,,,,,,,,,999,m,2,99,r,TEST,2021_Aug_08_2022,WASABI distractmap,2020.2.10,60.78994095936548,"['Right Arm', 'Abdomen', 'Right Face', 'Left Face']",
4,"[-0.2, 0]",1.0,,,,,,,,,,0,8,8,8,,,,,,,,,,,,,,,,,,,,,,,,,,None,None,"[0, 0, 0]",182.53705559996888,184.53788339998573,182.53705559996888,183.53744849999202,183.52089409995824,184.5215844999766,"[0, 0, 0]",1,182.53705559996888,184.53788339998573,,,,,,,,,,,,,999,m,2,99,r,TEST,2021_Aug_08_2022,WASABI distractmap,2020.2.10,60.78994095936548,"['Right Arm', 'Abdomen', 'Right Face', 'Left Face']",
3,"[0.2, 0.2]",0.0,,,,,,,,,,0,9,9,9,,,,,,,,,,,,,,,,,,,,,,,,,,None,None,"[0, 0, 0]",184.5548918999848,186.5557373999618,184.5548918999848,185.5553774999571,185.53847099997802,186.5389152999851,"[0, 0, 0]",1,184.5548918999848,186.5557373999618,,,,,,,,,,,,,999,m,2,99,r,TEST,2021_Aug_08_2022,WASABI distractmap,2020.2.10,60.78994095936548,"['Right Arm', 'Abdomen', 'Right Face', 'Left Face']",
5,"[0, 0]",0.0,,,,,,,,,,0,10,10,10,,,,,,,,,,,,,,,,,,,,,,,,,,None,None,"[0, 0, 0]",186.57225999998627,188.5733576999628,186.57225999998627,187.57286399998702,187.55630019999808,188.5566370000015,"[0, 0, 0]",1,186.57225999998627,188.5733576999628,,,,,,,,,,,,,999,m,2,99,r,TEST,2021_Aug_08_2022,WASABI distractmap,2020.2.10,60.78994095936548,"['Right Arm', 'Abdomen', 'Right Face', 'Left Face']",
3,"[0.2, 0.2]",1.0,,,,,,,,,,0,11,11,11,,,,,,,,,,,,,,,,,,,,,,,,,,None,None,"[0, 0, 0]",188.58995719999075,190.59090999996988,188.58995719999075,189.59047169995029,189.57404939999105,190.5744016999961,"[0, 0, 0]",1,188.58995719999075,190.59090999996988,,,,,,,,,,,,,999,m,2,99,r,TEST,2021_Aug_08_2022,WASABI distractmap,2020.2.10,60.78994095936548,"['Right Arm', 'Abdomen', 'Right Face', 'Left Face']",
1,"[-0.2, 0.2]",0.0,,,,,,,,,,0,12,12,12,,,,,,,,,,,,,,,,,,,,,,,,,,None,None,"[0, 0, 0]",190.60792399995262,192.60888929996872,190.60792399995262,191.60835209995275,191.59151499997824,192.59208059997763,"[0, 0, 0]",1,190.60792399995262,192.60888929996872,,,,,,,,,,,,,999,m,2,99,r,TEST,2021_Aug_08_2022,WASABI distractmap,2020.2.10,60.78994095936548,"['Right Arm', 'Abdomen', 'Right Face', 'Left Face']",
9,"[0.2, -0.2]",0.0,,,,,,,,,,0,13,13,13,,,,,,,,,,,,,,,,,,,,,,,,,,None,None,"[0, 0, 0]",192.62529949995223,194.6262669999851,192.62529949995223,193.62588339997455,193.60939319996396,194.60981890000403,"[0, 0, 0]",1,192.62529949995223,194.6262669999851,,,,,,,,,,,,,999,m,2,99,r,TEST,2021_Aug_08_2022,WASABI distractmap,2020.2.10,60.78994095936548,"['Right Arm', 'Abdomen', 'Right Face', 'Left Face']",
9,"[0.2, -0.2]",0.0,,,,,,,,,,0,14,14,14,,,,,,,,,,,,,,,,,,,,,,,,,,None,None,"[0, 0, 0]",194.6432295999839,196.64430109999375,194.6432295999839,195.64353840000695,195.62679019995267,196.62733409996144,"[0, 0, 0]",1,194.6432295999839,196.64430109999375,,,,,,,,,,,,,999,m,2,99,r,TEST,2021_Aug_08_2022,WASABI distractmap,2020.2.10,60.78994095936548,"['Right Arm', 'Abdomen', 'Right Face', 'Left Face']",
8,"[0, -0.2]",0.0,,,,,,,,,,0,15,15,15,,,,,,,,,,,,,,,,,,,,,,,,,,None,None,"[0, 0, 0]",196.66079779999563,198.66167689999565,196.66079779999563,197.6612291999627,197.64469559997087,198.64516549999826,"[0, 0, 0]",1,196.66079779999563,198.66167689999565,,,,,,,,,,,,,999,m,2,99,r,TEST,2021_Aug_08_2022,WASABI distractmap,2020.2.10,60.78994095936548,"['Right Arm', 'Abdomen', 'Right Face', 'Left Face']",
6,"[0.2, 0]",0.0,,,,,,,,,,0,16,16,16,,,,,,,,,,,,,,,,,,,,,,,,,,None,None,"[0, 0, 0]",198.67870839999523,200.67968689999543,198.67870839999523,199.67916219995823,199.66213650000282,200.662646199984,"[0, 0, 0]",1,198.67870839999523,200.67968689999543,,,,,,,,,,,,,999,m,2,99,r,TEST,2021_Aug_08_2022,WASABI distractmap,2020.2.10,60.78994095936548,"['Right Arm', 'Abdomen', 'Right Face', 'Left Face']",
3,"[0.2, 0.2]",0.0,,,,,,,,,,0,17,17,17,,,,,,,,,,,,,,,,,,,,,,,,,,None,None,"[0, 0, 0]",200.6960320000071,202.69718709995504,200.6960320000071,201.69654809997883,201.6801257999614,202.68072119995486,"[0, 0, 0]",1,200.6960320000071,202.69718709995504,,,,,,,,,,,,,999,m,2,99,r,TEST,2021_Aug_08_2022,WASABI distractmap,2020.2.10,60.78994095936548,"['Right Arm', 'Abdomen', 'Right Face', 'Left Face']",
6,"[0.2, 0]",1.0,,,,,,,,,,0,18,18,18,,,,,,,,,,,,,,,,,,,,,,,,,,None,None,"[0, 0, 0]",202.71382139995694,204.7148545999662,202.71382139995694,203.71471430000383,203.69762769999215,204.69809659995371,"[0, 0, 0]",1,202.71382139995694,204.7148545999662,,,,,,,,,,,,,999,m,2,99,r,TEST,2021_Aug_08_2022,WASABI distractmap,2020.2.10,60.78994095936548,"['Right Arm', 'Abdomen', 'Right Face', 'Left Face']",
5,"[0, 0]",0.0,,,,,,,,,,0,19,19,19,,,,,,,,,,,,,,,,,,,,,,,,,,None,None,"[0, 0, 0]",204.73130179999862,206.73234749998664,204.73130179999862,205.73189159994945,205.7153207999654,206.71597550000297,"[0, 0, 0]",1,204.73130179999862,206.73234749998664,,,,,,,,,,,,,999,m,2,99,r,TEST,2021_Aug_08_2022,WASABI distractmap,2020.2.10,60.78994095936548,"['Right Arm', 'Abdomen', 'Right Face', 'Left Face']",
7,"[-0.2, -0.2]",0.0,,,,,,,,,,0,20,20,20,,,,,,,,,,,,,,,,,,,,,,,,,,None,None,"[0, 0, 0]",206.7493471999769,208.75027669995325,206.7493471999769,207.74986250000075,207.7329480999615,208.7333956999937,"[0, 0, 0]",1,206.7493471999769,208.75027669995325,,,,,,,,,,,,,999,m,2,99,r,TEST,2021_Aug_08_2022,WASABI distractmap,2020.2.10,60.78994095936548,"['Right Arm', 'Abdomen', 'Right Face', 'Left Face']",
5,"[0, 0]",1.0,,,,,,,,,,0,21,21,21,,,,,,,,,,,,,,,,,,,,,,,,,,None,None,"[0, 0, 0]",208.76672939996934,210.76798239996424,208.76672939996934,209.7672448999947,209.75089359999401,210.75131989998044,"[0, 0, 0]",0,208.76672939996934,210.76798239996424,,,,,,,,,,,,,999,m,2,99,r,TEST,2021_Aug_08_2022,WASABI distractmap,2020.2.10,60.78994095936548,"['Right Arm', 'Abdomen', 'Right Face', 'Left Face']",
1,"[-0.2, 0.2]",0.0,,,,,,,,,,0,22,22,22,,,,,,,,,,,,,,,,,,,,,,,,,,None,None,"[0, 0, 0]",210.78489670000272,212.78588409995427,210.78489670000272,211.7849808000028,211.76821829995606,212.7687653999892,"[0, 0, 0]",1,210.78489670000272,212.78588409995427,,,,,,,,,,,,,999,m,2,99,r,TEST,2021_Aug_08_2022,WASABI distractmap,2020.2.10,60.78994095936548,"['Right Arm', 'Abdomen', 'Right Face', 'Left Face']",
7,"[-0.2, -0.2]",0.0,,,,,,,,,,0,23,23,23,,,,,,,,,,,,,,,,,,,,,,,,,,None,None,"[0, 0, 0]",212.80211180000333,214.80307879997417,212.80211180000333,213.80266929999925,213.7861200000043,214.7867812999757,"[0, 0, 0]",1,212.80211180000333,214.80307879997417,,,,,,,,,,,,,999,m,2,99,r,TEST,2021_Aug_08_2022,WASABI distractmap,2020.2.10,60.78994095936548,"['Right Arm', 'Abdomen', 'Right Face', 'Left Face']",
9,"[0.2, -0.2]",0.0,,,,,,,,,,0,24,24,24,,,,,,,,,,,,,,,,,,,,,,,,,,None,None,"[0, 0, 0]",214.81994759995723,216.82117279997328,214.81994759995723,215.82069389999378,215.80363209999632,216.8042649999843,"[0, 0, 0]",1,214.81994759995723,216.82117279997328,,,,,,,,,,,,,999,m,2,99,r,TEST,2021_Aug_08_2022,WASABI distractmap,2020.2.10,60.78994095936548,"['Right Arm', 'Abdomen', 'Right Face', 'Left Face']",
3,"[0.2, 0.2]",0.0,,,,,,,,,,0,25,25,25,,,,,,,,,,,,,,,,,,,,,,,,,,None,None,"[0, 0, 0]",216.8374476999743,218.83842379995622,216.8374476999743,217.83805479999864,217.82291099999566,218.83842379995622,"[0, 0, 0]",1,216.8374476999743,218.83842379995622,,,,,,,,,,,,,999,m,2,99,r,TEST,2021_Aug_08_2022,WASABI distractmap,2020.2.10,60.78994095936548,"['Right Arm', 'Abdomen', 'Right Face', 'Left Face']",
9,"[0.2, -0.2]",1.0,,,,,,,,,,0,26,26,26,,,,,,,,,,,,,,,,,,,,,,,,,,None,None,"[0, 0, 0]",218.8551261999528,220.85623229999328,218.8551261999528,219.85597849998157,219.83891559997573,220.8395055999863,"[0, 0, 0]",0,218.8551261999528,220.85623229999328,,,,,,,,,,,,,999,m,2,99,r,TEST,2021_Aug_08_2022,WASABI distractmap,2020.2.10,60.78994095936548,"['Right Arm', 'Abdomen', 'Right Face', 'Left Face']",
6,"[0.2, 0]",0.0,,,,,,,,,,0,27,27,27,,,,,,,,,,,,,,,,,,,,,,,,,,None,None,"[0, 0, 0]",220.87283969996497,222.87398539995775,220.87283969996497,221.8735451999819,221.85662739997497,222.85722299996996,"[0, 0, 0]",1,220.87283969996497,222.87398539995775,,,,,,,,,,,,,999,m,2,99,r,TEST,2021_Aug_08_2022,WASABI distractmap,2020.2.10,60.78994095936548,"['Right Arm', 'Abdomen', 'Right Face', 'Left Face']",
2,"[0, 0.2]",0.0,,,,,,,,,,0,28,28,28,,,,,,,,,,,,,,,,,,,,,,,,,,None,None,"[0, 0, 0]",222.89067069999874,224.89153609995265,222.89067069999874,223.89101609995123,223.87457889999496,224.8747986999806,"[0, 0, 0]",1,222.89067069999874,224.89153609995265,,,,,,,,,,,,,999,m,2,99,r,TEST,2021_Aug_08_2022,WASABI distractmap,2020.2.10,60.78994095936548,"['Right Arm', 'Abdomen', 'Right Face', 'Left Face']",
5,"[0, 0]",0.0,,,,,,,,,,0,29,29,29,,,,,,,,,,,,,,,,,,,,,,,,,,None,None,"[0, 0, 0]",224.90838589996565,226.90941119997296,224.90838589996565,225.9089937999961,225.89200190000702,226.89254199998686,"[0, 0, 0]",1,224.90838589996565,226.90941119997296,,,,,,,,,,,,,999,m,2,99,r,TEST,2021_Aug_08_2022,WASABI distractmap,2020.2.10,60.78994095936548,"['Right Arm', 'Abdomen', 'Right Face', 'Left Face']",
,,,,,,,,,,,,,,,,,,,,,,,,,,,,,,,,,,,,226.92591789999278,None,space,226.92591789999278,None,,,,,,,,,,,,,,,,,,,,,,,,,,999,m,2,99,r,TEST,2021_Aug_08_2022,WASABI distractmap,2020.2.10,60.78994095936548,"['Right Arm', 'Abdomen', 'Right Face', 'Left Face']",
4,"[-0.2, 0]",None,stimuli/orders/stimOrder7.xlsx,,,,,0,0,0,0,,,,,0,0,0,3,247.75716709997505,None,248.77117349999025,None,248.77117349999025,249.77058099996066,249.77058099996066,None,0,None,None,"[0, 0, 0]",,,248.77117349999025,None,,,,,,,,,,,,,,,,,,,230.22632119996706,230.22632119996706,None,space,1.2711110999807715,230.22632119996706,None,"[0, 0, 0]",,,,,999,m,2,99,r,TEST,2021_Aug_08_2022,WASABI distractmap,2020.2.10,60.78994095936548,"['Right Arm', 'Abdomen', 'Right Face', 'Left Face']",
7,"[-0.2, -0.2]",0.0,stimuli/orders/stimOrder7.xlsx,,,,,0,1,1,1,,,,,0,0,0,3,,,250.77117369999178,None,250.77117369999178,251.77166179998312,251.75535369996214,252.75566460000118,1,None,None,"[0, 0, 0]",,,250.77117369999178,None,,,,,,,,,,,,,,,,,,,,,,,,,,"[0, 0, 0]",,,,,999,m,2,99,r,TEST,2021_Aug_08_2022,WASABI distractmap,2020.2.10,60.78994095936548,"['Right Arm', 'Abdomen', 'Right Face', 'Left Face']",
7,"[-0.2, -0.2]",1.0,stimuli/orders/stimOrder7.xlsx,,,,,0,2,2,2,,,,,0,0,0,3,,,252.7721612000023,252.7721612000023,252.7721612000023,253.77265289996285,253.75608799996553,254.75650729995687,1,None,None,"[0, 0, 0]",,,252.7721612000023,252.7721612000023,,,,,,,,,,,,,,,,,,,,,,,,,,"[0, 0, 0]",,,,,999,m,2,99,r,TEST,2021_Aug_08_2022,WASABI distractmap,2020.2.10,60.78994095936548,"['Right Arm', 'Abdomen', 'Right Face', 'Left Face']",
4,"[-0.2, 0]",0.0,stimuli/orders/stimOrder7.xlsx,,,,,0,3,3,3,,,,,0,0,0,3,,,254.77333669998916,254.77333669998916,254.77333669998916,255.77404099999694,255.7569489000016,256.75770679995185,0,None,None,"[0, 0, 0]",,,254.77333669998916,254.77333669998916,,,,,,,,,,,,,,,,,,,,,,,,,,"[0, 0, 0]",,,,,999,m,2,99,r,TEST,2021_Aug_08_2022,WASABI distractmap,2020.2.10,60.78994095936548,"['Right Arm', 'Abdomen', 'Right Face', 'Left Face']",
8,"[0, -0.2]",0.0,stimuli/orders/stimOrder7.xlsx,,,,,0,4,4,4,,,,,0,0,0,3,,,256.77430509997066,256.77430509997066,256.77430509997066,257.77489269996295,257.7580558999907,258.75876159995096,0,None,None,"[0, 0, 0]",,,256.77430509997066,256.77430509997066,,,,,,,,,,,,,,,,,,,,,,,,,,"[0, 0, 0]",,,,,999,m,2,99,r,TEST,2021_Aug_08_2022,WASABI distractmap,2020.2.10,60.78994095936548,"['Right Arm', 'Abdomen', 'Right Face', 'Left Face']",
4,"[-0.2, 0]",0.0,stimuli/orders/stimOrder7.xlsx,,,,,0,5,5,5,,,,,0,0,0,3,,,258.77639979997184,258.77639979997184,258.77639979997184,259.7761208000011,259.758941099979,260.7596087999991,0,None,None,"[0, 0, 0]",,,258.77639979997184,258.77639979997184,,,,,,,,,,,,,,,,,,,,,,,,,,"[0, 0, 0]",,,,,999,m,2,99,r,TEST,2021_Aug_08_2022,WASABI distractmap,2020.2.10,60.78994095936548,"['Right Arm', 'Abdomen', 'Right Face', 'Left Face']",
7,"[-0.2, -0.2]",0.0,stimuli/orders/stimOrder7.xlsx,,,,,0,6,6,6,,,,,0,0,0,3,,,260.77701109996997,260.77701109996997,260.77701109996997,261.7767956999596,261.7600186999771,262.7605505999527,0,None,None,"[0, 0, 0]",,,260.77701109996997,260.77701109996997,,,,,,,,,,,,,,,,,,,,,,,,,,"[0, 0, 0]",,,,,999,m,2,99,r,TEST,2021_Aug_08_2022,WASABI distractmap,2020.2.10,60.78994095936548,"['Right Arm', 'Abdomen', 'Right Face', 'Left Face']",
,,,stimuli/orders/stimOrder7.xlsx,,,,,,,,,,,,,0,0,0,3,,,,,,,,,,,,,,,,,,,,,,,,,,,,,,,,,,,,,,,,,,,26.29629629629629,253.93850737001048,,,999,m,2,99,r,TEST,2021_Aug_08_2022,WASABI distractmap,2020.2.10,60.78994095936548,"['Right Arm', 'Abdomen', 'Right Face', 'Left Face']",
2,"[0, 0.2]",None,stimuli/orders/stimOrder7.xlsx,,,,,,,,,0,0,0,0,0,0,0,3,None,None,,,,,,,,,,,,,,,,,,,,None,None,"[0, 0, 0]",266.9645637999638,268.9636372999521,266.9645637999638,267.9800656999578,267.9632740999805,268.9636372999521,"[0, 0, 0]",1,266.9645637999638,268.9636372999521,,,,,,,,,,,0.011222029977943748,None,999,m,2,99,r,TEST,2021_Aug_08_2022,WASABI distractmap,2020.2.10,60.78994095936548,"['Right Arm', 'Abdomen', 'Right Face', 'Left Face']",
2,"[0, 0.2]",None,stimuli/orders/stimOrder7.xlsx,,,,,,,,,0,1,1,1,0,0,0,3,,,,,,,,,,,,,,,,,,,,,,None,None,"[0, 0, 0]",268.98046449996764,270.9815211999812,268.98046449996764,269.9809353000019,269.96409249998396,270.96466609998606,"[0, 0, 0]",0,268.98046449996764,270.9815211999812,,,,,,,,,,,,,999,m,2,99,r,TEST,2021_Aug_08_2022,WASABI distractmap,2020.2.10,60.78994095936548,"['Right Arm', 'Abdomen', 'Right Face', 'Left Face']",
2,"[0, 0.2]",1.0,stimuli/orders/stimOrder7.xlsx,,,,,,,,,0,2,2,2,0,0,0,3,,,,,,,,,,,,,,,,,,,,,,None,None,"[0, 0, 0]",270.9979469999671,272.99896810000064,270.9979469999671,271.9986882999656,271.98189110000385,272.9826561999507,"[0, 0, 0]",0,270.9979469999671,272.99896810000064,,,,,,,,,,,,,999,m,2,99,r,TEST,2021_Aug_08_2022,WASABI distractmap,2020.2.10,60.78994095936548,"['Right Arm', 'Abdomen', 'Right Face', 'Left Face']",
8,"[0, -0.2]",0.0,stimuli/orders/stimOrder7.xlsx,,,,,,,,,0,3,3,3,0,0,0,3,,,,,,,,,,,,,,,,,,,,,,None,None,"[0, 0, 0]",273.0159806999727,275.0168063999736,273.0159806999727,274.01620569999795,273.99941099999705,274.999945699994,"[0, 0, 0]",0,273.0159806999727,275.0168063999736,,,,,,,,,,,,,999,m,2,99,r,TEST,2021_Aug_08_2022,WASABI distractmap,2020.2.10,60.78994095936548,"['Right Arm', 'Abdomen', 'Right Face', 'Left Face']",
2,"[0, 0.2]",1.0,stimuli/orders/stimOrder7.xlsx,,,,,,,,,0,4,4,4,0,0,0,3,,,,,,,,,,,,,,,,,,,,,,None,None,"[0, 0, 0]",275.0332836000016,277.0342788999551,275.0332836000016,276.03383579995716,276.0173169999616,277.01780509995297,"[0, 0, 0]",0,275.0332836000016,277.0342788999551,,,,,,,,,,,,,999,m,2,99,r,TEST,2021_Aug_08_2022,WASABI distractmap,2020.2.10,60.78994095936548,"['Right Arm', 'Abdomen', 'Right Face', 'Left Face']",
5,"[0, 0]",0.0,stimuli/orders/stimOrder7.xlsx,,,,,,,,,0,5,5,5,0,0,0,3,,,,,,,,,,,,,,,,,,,,,,None,None,"[0, 0, 0]",277.05091769999126,279.0520766999689,277.05091769999126,278.0516556999646,278.03488059999654,279.0353038999601,"[0, 0, 0]",0,277.05091769999126,279.0520766999689,,,,,,,,,,,,,999,m,2,99,r,TEST,2021_Aug_08_2022,WASABI distractmap,2020.2.10,60.78994095936548,"['Right Arm', 'Abdomen', 'Right Face', 'Left Face']",
1,"[-0.2, 0.2]",0.0,stimuli/orders/stimOrder7.xlsx,,,,,,,,,0,6,6,6,0,0,0,3,,,,,,,,,,,,,,,,,,,,,,None,None,"[0, 0, 0]",279.0686744999839,281.0698646999663,279.0686744999839,280.06930199998897,280.05288039997686,281.0532355000032,"[0, 0, 0]",1,279.0686744999839,281.0698646999663,,,,,,,,,,,,,999,m,2,99,r,TEST,2021_Aug_08_2022,WASABI distractmap,2020.2.10,60.78994095936548,"['Right Arm', 'Abdomen', 'Right Face', 'Left Face']",
,,,stimuli/orders/stimOrder7.xlsx,,,,,,,,,,,,,0,0,0,3,,,,,,,,,,,,,,,,,,,,,,,,,,,,,,,,,,,,,,,,,,,40.27777777777777,271.446228470013,,,999,m,2,99,r,TEST,2021_Aug_08_2022,WASABI distractmap,2020.2.10,60.78994095936548,"['Right Arm', 'Abdomen', 'Right Face', 'Left Face']",
2,"[0, 0.2]",None,stimuli/orders/stimOrder7.xlsx,,,,,0,0,0,0,,,,,0,0,0,3,283.41054939996684,None,283.7419282000046,None,283.7419282000046,284.75522789999377,284.7381994999596,None,0,None,None,"[0, 0, 0]",,,283.7419282000046,None,,,,,,,,,,,,,,,,,,,,,,,,,,"[0, 0, 0]",,,0.012350929959211498,None,999,m,2,99,r,TEST,2021_Aug_08_2022,WASABI distractmap,2020.2.10,60.78994095936548,"['Right Arm', 'Abdomen', 'Right Face', 'Left Face']",
2,"[0, 0.2]",1.0,stimuli/orders/stimOrder7.xlsx,,,,,0,1,1,1,,,,,0,0,0,3,,,285.7387412999524,None,285.7387412999524,286.7392382999533,286.723521399952,287.7232774999575,0,None,None,"[0, 0, 0]",,,285.7387412999524,None,,,,,,,,,,,,,,,,,,,,,,,,,,"[0, 0, 0]",,,,,999,m,2,99,r,TEST,2021_Aug_08_2022,WASABI distractmap,2020.2.10,60.78994095936548,"['Right Arm', 'Abdomen', 'Right Face', 'Left Face']",
1,"[-0.2, 0.2]",0.0,stimuli/orders/stimOrder7.xlsx,,,,,0,2,2,2,,,,,0,0,0,3,,,287.739850599959,287.739850599959,287.739850599959,288.74051569995936,288.7234740999993,289.72409699996933,0,None,None,"[0, 0, 0]",,,287.739850599959,287.739850599959,,,,,,,,,,,,,,,,,,,,,,,,,,"[0, 0, 0]",,,,,999,m,2,99,r,TEST,2021_Aug_08_2022,WASABI distractmap,2020.2.10,60.78994095936548,"['Right Arm', 'Abdomen', 'Right Face', 'Left Face']",
2,"[0, 0.2]",0.0,stimuli/orders/stimOrder7.xlsx,,,,,0,3,3,3,,,,,0,0,0,3,,,289.7408882000018,289.7408882000018,289.7408882000018,290.7415745999897,290.72455699997954,291.7249718999956,0,None,None,"[0, 0, 0]",,,289.7408882000018,289.7408882000018,,,,,,,,,,,,,,,,,,,,,,,,,,"[0, 0, 0]",,,,,999,m,2,99,r,TEST,2021_Aug_08_2022,WASABI distractmap,2020.2.10,60.78994095936548,"['Right Arm', 'Abdomen', 'Right Face', 'Left Face']",
2,"[0, 0.2]",1.0,stimuli/orders/stimOrder7.xlsx,,,,,0,4,4,4,,,,,0,0,0,3,,,291.7417838999536,291.7417838999536,291.7417838999536,292.74273329996504,292.72570859995903,293.7262895999593,0,None,None,"[0, 0, 0]",,,291.7417838999536,291.7417838999536,,,,,,,,,,,,,,,,,,,,,,,,,,"[0, 0, 0]",,,,,999,m,2,99,r,TEST,2021_Aug_08_2022,WASABI distractmap,2020.2.10,60.78994095936548,"['Right Arm', 'Abdomen', 'Right Face', 'Left Face']",
4,"[-0.2, 0]",0.0,stimuli/orders/stimOrder7.xlsx,,,,,0,5,5,5,,,,,0,0,0,3,,,293.7430942999781,293.7430942999781,293.7430942999781,294.7462489999598,294.7267587999813,295.72704389999853,0,None,None,"[0, 0, 0]",,,293.7430942999781,293.7430942999781,,,,,,,,,,,,,,,,,,,,,,,,,,"[0, 0, 0]",,,,,999,m,2,99,r,TEST,2021_Aug_08_2022,WASABI distractmap,2020.2.10,60.78994095936548,"['Right Arm', 'Abdomen', 'Right Face', 'Left Face']",
6,"[0.2, 0]",0.0,stimuli/orders/stimOrder7.xlsx,,,,,0,6,6,6,,,,,0,0,0,3,,,295.74384009995265,295.74384009995265,295.74384009995265,296.745617699984,296.7281834000023,297.72813519998454,0,None,None,"[0, 0, 0]",,,295.74384009995265,295.74384009995265,,,,,,,,,,,,,,,,,,,,,,,,,,"[0, 0, 0]",,,,,999,m,2,99,r,TEST,2021_Aug_08_2022,WASABI distractmap,2020.2.10,60.78994095936548,"['Right Arm', 'Abdomen', 'Right Face', 'Left Face']",
,,,stimuli/orders/stimOrder7.xlsx,,,,,,,,,,,,,0,0,0,3,,,,,,,,,,,,,,,,,,,,,,,,,,,,,,,,,,,,,,,,,,,32.68518518518518,287.85556626995094,,,999,m,2,99,r,TEST,2021_Aug_08_2022,WASABI distractmap,2020.2.10,60.78994095936548,"['Right Arm', 'Abdomen', 'Right Face', 'Left Face']",
4,"[-0.2, 0]",None,stimuli/orders/stimOrder3.xlsx,,,,,0,0,0,0,,,,,0,1,1,1,311.7911250999896,None,312.81058479996864,None,312.81058479996864,313.81970749999164,313.80276839999715,314.80326179997064,0,None,None,"[0, 0, 0]",,,312.81058479996864,None,,,,,,,,,,,,,,,,,,,300.6018874999718,300.6018874999718,None,space,0.6577262000064366,300.6018874999718,None,"[0, 0, 0]",,,0.01171963004162535,None,999,m,2,99,r,TEST,2021_Aug_08_2022,WASABI distractmap,2020.2.10,60.78994095936548,"['Right Arm', 'Abdomen', 'Right Face', 'Left Face']",
7,"[-0.2, -0.2]",0.0,stimuli/orders/stimOrder3.xlsx,,,,,0,1,1,1,,,,,0,1,1,1,,,314.82017550000455,None,314.82017550000455,315.8208291999763,315.8037930999999,316.8043151999591,1,None,None,"[0, 0, 0]",,,314.82017550000455,None,,,,,,,,,,,,,,,,,,,,,,,,,,"[0, 0, 0]",,,,,999,m,2,99,r,TEST,2021_Aug_08_2022,WASABI distractmap,2020.2.10,60.78994095936548,"['Right Arm', 'Abdomen', 'Right Face', 'Left Face']",
7,"[-0.2, -0.2]",1.0,stimuli/orders/stimOrder3.xlsx,,,,,0,2,2,2,,,,,0,1,1,1,,,316.8211018999573,316.8211018999573,316.8211018999573,317.8217004999751,317.8048965999624,318.8053582999855,1,None,None,"[0, 0, 0]",,,316.8211018999573,316.8211018999573,,,,,,,,,,,,,,,,,,,,,,,,,,"[0, 0, 0]",,,,,999,m,2,99,r,TEST,2021_Aug_08_2022,WASABI distractmap,2020.2.10,60.78994095936548,"['Right Arm', 'Abdomen', 'Right Face', 'Left Face']",
4,"[-0.2, 0]",0.0,stimuli/orders/stimOrder3.xlsx,,,,,0,3,3,3,,,,,0,1,1,1,,,318.8220192999579,318.8220192999579,318.8220192999579,319.82272809999995,319.80585499998415,320.8064392999513,0,None,None,"[0, 0, 0]",,,318.8220192999579,318.8220192999579,,,,,,,,,,,,,,,,,,,,,,,,,,"[0, 0, 0]",,,,,999,m,2,99,r,TEST,2021_Aug_08_2022,WASABI distractmap,2020.2.10,60.78994095936548,"['Right Arm', 'Abdomen', 'Right Face', 'Left Face']",
8,"[0, -0.2]",0.0,stimuli/orders/stimOrder3.xlsx,,,,,0,4,4,4,,,,,0,1,1,1,,,320.8231845999835,320.8231845999835,320.8231845999835,321.8234800999635,321.80706609995104,322.8075732999714,1,None,None,"[0, 0, 0]",,,320.8231845999835,320.8231845999835,,,,,,,,,,,,,,,,,,,,,,,,,,"[0, 0, 0]",,,,,999,m,2,99,r,TEST,2021_Aug_08_2022,WASABI distractmap,2020.2.10,60.78994095936548,"['Right Arm', 'Abdomen', 'Right Face', 'Left Face']",
4,"[-0.2, 0]",0.0,stimuli/orders/stimOrder3.xlsx,,,,,0,5,5,5,,,,,0,1,1,1,,,322.82405100000324,322.82405100000324,322.82405100000324,323.8244072999805,323.8080360000022,324.80861399997957,0,None,None,"[0, 0, 0]",,,322.82405100000324,322.82405100000324,,,,,,,,,,,,,,,,,,,,,,,,,,"[0, 0, 0]",,,,,999,m,2,99,r,TEST,2021_Aug_08_2022,WASABI distractmap,2020.2.10,60.78994095936548,"['Right Arm', 'Abdomen', 'Right Face', 'Left Face']",
7,"[-0.2, -0.2]",0.0,stimuli/orders/stimOrder3.xlsx,,,,,0,6,6,6,,,,,0,1,1,1,,,324.82494119997136,324.82494119997136,324.82494119997136,325.82555879995925,325.80920859996695,326.80955139995785,0,None,None,"[0, 0, 0]",,,324.82494119997136,324.82494119997136,,,,,,,,,,,,,,,,,,,,,,,,,,"[0, 0, 0]",,,,,999,m,2,99,r,TEST,2021_Aug_08_2022,WASABI distractmap,2020.2.10,60.78994095936548,"['Right Arm', 'Abdomen', 'Right Face', 'Left Face']",
,,,stimuli/orders/stimOrder3.xlsx,,,,,,,,,,,,,0,1,1,1,,,,,,,,,,,,,,,,,,,,,,,,,,,,,,,,,,,,,,,,,,,30.09259259259259,322.5887017699424,,,999,m,2,99,r,TEST,2021_Aug_08_2022,WASABI distractmap,2020.2.10,60.78994095936548,"['Right Arm', 'Abdomen', 'Right Face', 'Left Face']",
2,"[0, 0.2]",None,stimuli/orders/stimOrder3.xlsx,,,,,,,,,0,0,0,0,0,1,1,1,334.81449459999567,None,,,,,,,,,,,,,,,,,,,,None,None,"[0, 0, 0]",334.8809421999613,None,334.8809421999613,335.88072729995474,335.88072729995474,None,"[0, 0, 0]",1,334.8809421999613,None,,,,,,,,,,,0.012323130038566887,None,999,m,2,99,r,TEST,2021_Aug_08_2022,WASABI distractmap,2020.2.10,60.78994095936548,"['Right Arm', 'Abdomen', 'Right Face', 'Left Face']",
2,"[0, 0.2]",None,stimuli/orders/stimOrder3.xlsx,,,,,,,,,0,1,1,1,0,1,1,1,,,,,,,,,,,,,,,,,,,,,,None,None,"[0, 0, 0]",336.8811311000027,338.8822705000057,336.8811311000027,337.8816064999555,337.86489759996766,338.86524509999435,"[0, 0, 0]",0,336.8811311000027,338.8822705000057,,,,,,,,,,,,,999,m,2,99,r,TEST,2021_Aug_08_2022,WASABI distractmap,2020.2.10,60.78994095936548,"['Right Arm', 'Abdomen', 'Right Face', 'Left Face']",
2,"[0, 0.2]",1.0,stimuli/orders/stimOrder3.xlsx,,,,,,,,,0,2,2,2,0,1,1,1,,,,,,,,,,,,,,,,,,,,,,None,None,"[0, 0, 0]",338.89862079999875,340.89972119999584,338.89862079999875,339.89916279999306,339.88264629995683,340.8834825999802,"[0, 0, 0]",0,338.89862079999875,340.89972119999584,,,,,,,,,,,,,999,m,2,99,r,TEST,2021_Aug_08_2022,WASABI distractmap,2020.2.10,60.78994095936548,"['Right Arm', 'Abdomen', 'Right Face', 'Left Face']",
8,"[0, -0.2]",0.0,stimuli/orders/stimOrder3.xlsx,,,,,,,,,0,3,3,3,0,1,1,1,,,,,,,,,,,,,,,,,,,,,,None,None,"[0, 0, 0]",340.9166228999966,342.9175874000066,340.9166228999966,341.9169237999595,341.90012809995096,342.9008008999517,"[0, 0, 0]",0,340.9166228999966,342.9175874000066,,,,,,,,,,,,,999,m,2,99,r,TEST,2021_Aug_08_2022,WASABI distractmap,2020.2.10,60.78994095936548,"['Right Arm', 'Abdomen', 'Right Face', 'Left Face']",
2,"[0, 0.2]",1.0,stimuli/orders/stimOrder3.xlsx,,,,,,,,,0,4,4,4,0,1,1,1,,,,,,,,,,,,,,,,,,,,,,None,None,"[0, 0, 0]",342.934157199983,344.9351939999615,342.934157199983,343.9346616999828,343.9181495999801,344.9184683999629,"[0, 0, 0]",0,342.934157199983,344.9351939999615,,,,,,,,,,,,,999,m,2,99,r,TEST,2021_Aug_08_2022,WASABI distractmap,2020.2.10,60.78994095936548,"['Right Arm', 'Abdomen', 'Right Face', 'Left Face']",
5,"[0, 0]",0.0,stimuli/orders/stimOrder3.xlsx,,,,,,,,,0,5,5,5,0,1,1,1,,,,,,,,,,,,,,,,,,,,,,None,None,"[0, 0, 0]",344.9523155000061,346.955450999958,344.9523155000061,345.95264729997143,345.93613230000483,346.93652599997586,"[0, 0, 0]",0,344.9523155000061,346.955450999958,,,,,,,,,,,,,999,m,2,99,r,TEST,2021_Aug_08_2022,WASABI distractmap,2020.2.10,60.78994095936548,"['Right Arm', 'Abdomen', 'Right Face', 'Left Face']",
1,"[-0.2, 0.2]",0.0,stimuli/orders/stimOrder3.xlsx,,,,,,,,,0,6,6,6,0,1,1,1,,,,,,,,,,,,,,,,,,,,,,None,None,"[0, 0, 0]",346.9694521999918,348.9704280999722,346.9694521999918,347.97016769996844,347.95401749998564,348.9543363999692,"[0, 0, 0]",0,346.9694521999918,348.9704280999722,,,,,,,,,,,,,999,m,2,99,r,TEST,2021_Aug_08_2022,WASABI distractmap,2020.2.10,60.78994095936548,"['Right Arm', 'Abdomen', 'Right Face', 'Left Face']",
,,,stimuli/orders/stimOrder3.xlsx,,,,,,,,,,,,,0,1,1,1,,,,,,,,,,,,,,,,,,,,,,,,,,,,,,,,,,,,,,,,,,,39.074074074074076,339.37947857001564,,,999,m,2,99,r,TEST,2021_Aug_08_2022,WASABI distractmap,2020.2.10,60.78994095936548,"['Right Arm', 'Abdomen', 'Right Face', 'Left Face']",
2,"[0, 0.2]",None,stimuli/orders/stimOrder3.xlsx,,,,,0,0,0,0,,,,,0,1,1,1,351.52950189996045,None,351.67164039995987,None,351.67164039995987,352.67244689998915,352.67244689998915,None,0,None,None,"[0, 0, 0]",,,351.67164039995987,None,,,,,,,,,,,,,,,,,,,,,,,,,,"[0, 0, 0]",,,0.013240029977168888,None,999,m,2,99,r,TEST,2021_Aug_08_2022,WASABI distractmap,2020.2.10,60.78994095936548,"['Right Arm', 'Abdomen', 'Right Face', 'Left Face']",
2,"[0, 0.2]",1.0,stimuli/orders/stimOrder3.xlsx,,,,,0,1,1,1,,,,,0,1,1,1,,,353.6729271999793,None,353.6729271999793,354.6733991999645,354.6569768000045,355.6571042999858,0,None,None,"[0, 0, 0]",,,353.6729271999793,None,,,,,,,,,,,,,,,,,,,,,,,,,,"[0, 0, 0]",,,,,999,m,2,99,r,TEST,2021_Aug_08_2022,WASABI distractmap,2020.2.10,60.78994095936548,"['Right Arm', 'Abdomen', 'Right Face', 'Left Face']",
1,"[-0.2, 0.2]",0.0,stimuli/orders/stimOrder3.xlsx,,,,,0,2,2,2,,,,,0,1,1,1,,,355.67388979997486,355.67388979997486,355.67388979997486,356.67448329995386,356.65759679995244,357.6582403999637,0,None,None,"[0, 0, 0]",,,355.67388979997486,355.67388979997486,,,,,,,,,,,,,,,,,,,,,,,,,,"[0, 0, 0]",,,,,999,m,2,99,r,TEST,2021_Aug_08_2022,WASABI distractmap,2020.2.10,60.78994095936548,"['Right Arm', 'Abdomen', 'Right Face', 'Left Face']",
2,"[0, 0.2]",0.0,stimuli/orders/stimOrder3.xlsx,,,,,0,3,3,3,,,,,0,1,1,1,,,357.675230199995,357.675230199995,357.675230199995,358.6755423999857,358.6586648999946,359.65918309998233,1,None,None,"[0, 0, 0]",,,357.675230199995,357.675230199995,,,,,,,,,,,,,,,,,,,,,,,,,,"[0, 0, 0]",,,,,999,m,2,99,r,TEST,2021_Aug_08_2022,WASABI distractmap,2020.2.10,60.78994095936548,"['Right Arm', 'Abdomen', 'Right Face', 'Left Face']",
2,"[0, 0.2]",1.0,stimuli/orders/stimOrder3.xlsx,,,,,0,4,4,4,,,,,0,1,1,1,,,359.67608979996294,359.67608979996294,359.67608979996294,360.67659200000344,360.6596482999739,361.6601368999691,1,None,None,"[0, 0, 0]",,,359.67608979996294,359.67608979996294,,,,,,,,,,,,,,,,,,,,,,,,,,"[0, 0, 0]",,,,,999,m,2,99,r,TEST,2021_Aug_08_2022,WASABI distractmap,2020.2.10,60.78994095936548,"['Right Arm', 'Abdomen', 'Right Face', 'Left Face']",
4,"[-0.2, 0]",0.0,stimuli/orders/stimOrder3.xlsx,,,,,0,5,5,5,,,,,0,1,1,1,,,361.6768632999738,361.6768632999738,361.6768632999738,362.6777739999816,362.66070700000273,363.6611561999889,0,None,None,"[0, 0, 0]",,,361.6768632999738,361.6768632999738,,,,,,,,,,,,,,,,,,,,,,,,,,"[0, 0, 0]",,,,,999,m,2,99,r,TEST,2021_Aug_08_2022,WASABI distractmap,2020.2.10,60.78994095936548,"['Right Arm', 'Abdomen', 'Right Face', 'Left Face']",
6,"[0.2, 0]",0.0,stimuli/orders/stimOrder3.xlsx,,,,,0,6,6,6,,,,,0,1,1,1,,,363.6780746000004,363.6780746000004,363.6780746000004,364.67842269997345,364.6616889999714,365.66205649997573,0,None,None,"[0, 0, 0]",,,363.6780746000004,363.6780746000004,,,,,,,,,,,,,,,,,,,,,,,,,,"[0, 0, 0]",,,,,999,m,2,99,r,TEST,2021_Aug_08_2022,WASABI distractmap,2020.2.10,60.78994095936548,"['Right Arm', 'Abdomen', 'Right Face', 'Left Face']",
,,,stimuli/orders/stimOrder3.xlsx,,,,,,,,,,,,,0,1,1,1,,,,,,,,,,,,,,,,,,,,,,,,,,,,,,,,,,,,,,,,,,,26.296296296296294,355.5046802699799,,,999,m,2,99,r,TEST,2021_Aug_08_2022,WASABI distractmap,2020.2.10,60.78994095936548,"['Right Arm', 'Abdomen', 'Right Face', 'Left Face']",
4,"[-0.2, 0]",None,stimuli/orders/stimOrder5.xlsx,,,,,0,0,0,0,,,,,0,2,2,2,483.89968129998306,None,484.9122911999584,None,484.9122911999584,485.92254499997944,485.90581520000705,486.90620739996666,1,None,None,"[0, 0, 0]",,,484.9122911999584,None,,,,,,,,,,,,,,,,,,,478.5242185999523,478.5242185999523,None,space,0.47105870000086725,478.5242185999523,None,"[0, 0, 0]",,,0.01259383000433445,None,999,m,2,99,r,TEST,2021_Aug_08_2022,WASABI distractmap,2020.2.10,60.78994095936548,"['Right Arm', 'Abdomen', 'Right Face', 'Left Face']",
7,"[-0.2, -0.2]",0.0,stimuli/orders/stimOrder5.xlsx,,,,,0,1,1,1,,,,,0,2,2,2,,,486.923201699974,None,486.923201699974,487.9236632999964,487.9068472000072,488.9072251999751,0,None,None,"[0, 0, 0]",,,486.923201699974,None,,,,,,,,,,,,,,,,,,,,,,,,,,"[0, 0, 0]",,,,,999,m,2,99,r,TEST,2021_Aug_08_2022,WASABI distractmap,2020.2.10,60.78994095936548,"['Right Arm', 'Abdomen', 'Right Face', 'Left Face']",
7,"[-0.2, -0.2]",1.0,stimuli/orders/stimOrder5.xlsx,,,,,0,2,2,2,,,,,0,2,2,2,,,488.92415529995924,488.92415529995924,488.92415529995924,489.924592699972,489.9079590999754,490.9086124000023,0,None,None,"[0, 0, 0]",,,488.92415529995924,488.92415529995924,,,,,,,,,,,,,,,,,,,,,,,,,,"[0, 0, 0]",,,,,999,m,2,99,r,TEST,2021_Aug_08_2022,WASABI distractmap,2020.2.10,60.78994095936548,"['Right Arm', 'Abdomen', 'Right Face', 'Left Face']",
4,"[-0.2, 0]",0.0,stimuli/orders/stimOrder5.xlsx,,,,,0,3,3,3,,,,,0,2,2,2,,,490.92510789999506,490.92510789999506,490.92510789999506,491.92556349997176,491.9090213999734,492.91083109995816,0,None,None,"[0, 0, 0]",,,490.92510789999506,490.92510789999506,,,,,,,,,,,,,,,,,,,,,,,,,,"[0, 0, 0]",,,,,999,m,2,99,r,TEST,2021_Aug_08_2022,WASABI distractmap,2020.2.10,60.78994095936548,"['Right Arm', 'Abdomen', 'Right Face', 'Left Face']",
8,"[0, -0.2]",0.0,stimuli/orders/stimOrder5.xlsx,,,,,0,4,4,4,,,,,0,2,2,2,,,492.92623209999874,492.92623209999874,492.92623209999874,493.92705509997904,493.910892099957,494.91090429999167,0,None,None,"[0, 0, 0]",,,492.92623209999874,492.92623209999874,,,,,,,,,,,,,,,,,,,,,,,,,,"[0, 0, 0]",,,,,999,m,2,99,r,TEST,2021_Aug_08_2022,WASABI distractmap,2020.2.10,60.78994095936548,"['Right Arm', 'Abdomen', 'Right Face', 'Left Face']",
4,"[-0.2, 0]",0.0,stimuli/orders/stimOrder5.xlsx,,,,,0,5,5,5,,,,,0,2,2,2,,,494.9272629999905,494.9272629999905,494.9272629999905,495.9280724999844,495.91149089997634,496.91160289995605,0,None,None,"[0, 0, 0]",,,494.9272629999905,494.9272629999905,,,,,,,,,,,,,,,,,,,,,,,,,,"[0, 0, 0]",,,,,999,m,2,99,r,TEST,2021_Aug_08_2022,WASABI distractmap,2020.2.10,60.78994095936548,"['Right Arm', 'Abdomen', 'Right Face', 'Left Face']",
7,"[-0.2, -0.2]",0.0,stimuli/orders/stimOrder5.xlsx,,,,,0,6,6,6,,,,,0,2,2,2,,,496.92814099998213,496.92814099998213,496.92814099998213,497.92875099997036,497.9125107,498.91508750000503,0,None,None,"[0, 0, 0]",,,496.92814099998213,496.92814099998213,,,,,,,,,,,,,,,,,,,,,,,,,,"[0, 0, 0]",,,,,999,m,2,99,r,TEST,2021_Aug_08_2022,WASABI distractmap,2020.2.10,60.78994095936548,"['Right Arm', 'Abdomen', 'Right Face', 'Left Face']",
,,,stimuli/orders/stimOrder5.xlsx,,,,,,,,,,,,,0,2,2,2,,,,,,,,,,,,,,,,,,,,,,,,,,,,,,,,,,,,,,,,,,,0.370370370370369,490.4920582699706,,,999,m,2,99,r,TEST,2021_Aug_08_2022,WASABI distractmap,2020.2.10,60.78994095936548,"['Right Arm', 'Abdomen', 'Right Face', 'Left Face']",
2,"[0, 0.2]",None,stimuli/orders/stimOrder5.xlsx,,,,,,,,,0,0,0,0,0,2,2,2,None,None,,,,,,,,,,,,,,,,,,,,None,None,"[0, 0, 0]",503.50328780000564,None,503.50328780000564,504.515395800001,504.49859390000347,505.4989083999535,"[0, 0, 0]",1,503.50328780000564,None,,,,,,,,,,,0.012424330052454025,None,999,m,2,99,r,TEST,2021_Aug_08_2022,WASABI distractmap,2020.2.10,60.78994095936548,"['Right Arm', 'Abdomen', 'Right Face', 'Left Face']",
2,"[0, 0.2]",None,stimuli/orders/stimOrder5.xlsx,,,,,,,,,0,1,1,1,0,2,2,2,,,,,,,,,,,,,,,,,,,,,,None,None,"[0, 0, 0]",505.515808199998,507.5167506999569,505.515808199998,506.5165020999848,506.49955539999064,507.4998814999708,"[0, 0, 0]",1,505.515808199998,507.5167506999569,,,,,,,,,,,,,999,m,2,99,r,TEST,2021_Aug_08_2022,WASABI distractmap,2020.2.10,60.78994095936548,"['Right Arm', 'Abdomen', 'Right Face', 'Left Face']",
2,"[0, 0.2]",1.0,stimuli/orders/stimOrder5.xlsx,,,,,,,,,0,2,2,2,0,2,2,2,,,,,,,,,,,,,,,,,,,,,,None,None,"[0, 0, 0]",507.5332581999828,509.5342410999583,507.5332581999828,508.5337961000041,508.5174288999988,509.5177133999532,"[0, 0, 0]",0,507.5332581999828,509.5342410999583,,,,,,,,,,,,,999,m,2,99,r,TEST,2021_Aug_08_2022,WASABI distractmap,2020.2.10,60.78994095936548,"['Right Arm', 'Abdomen', 'Right Face', 'Left Face']",
8,"[0, -0.2]",0.0,stimuli/orders/stimOrder5.xlsx,,,,,,,,,0,3,3,3,0,2,2,2,,,,,,,,,,,,,,,,,,,,,,None,None,"[0, 0, 0]",509.5510828999686,511.55208479997236,509.5510828999686,510.55166649998864,510.5348359000054,511.5351805999526,"[0, 0, 0]",0,509.5510828999686,511.55208479997236,,,,,,,,,,,,,999,m,2,99,r,TEST,2021_Aug_08_2022,WASABI distractmap,2020.2.10,60.78994095936548,"['Right Arm', 'Abdomen', 'Right Face', 'Left Face']",
2,"[0, 0.2]",1.0,stimuli/orders/stimOrder5.xlsx,,,,,,,,,0,4,4,4,0,2,2,2,,,,,,,,,,,,,,,,,,,,,,None,None,"[0, 0, 0]",511.56858819996705,513.5696112999576,511.56858819996705,512.569170999981,512.5527490999666,513.5530719999806,"[0, 0, 0]",0,511.56858819996705,513.5696112999576,,,,,,,,,,,,,999,m,2,99,r,TEST,2021_Aug_08_2022,WASABI distractmap,2020.2.10,60.78994095936548,"['Right Arm', 'Abdomen', 'Right Face', 'Left Face']",
5,"[0, 0]",0.0,stimuli/orders/stimOrder5.xlsx,,,,,,,,,0,5,5,5,0,2,2,2,,,,,,,,,,,,,,,,,,,,,,None,None,"[0, 0, 0]",513.5863572999951,515.5874926999677,513.5863572999951,514.5871104999678,514.570158699993,515.5705761999707,"[0, 0, 0]",0,513.5863572999951,515.5874926999677,,,,,,,,,,,,,999,m,2,99,r,TEST,2021_Aug_08_2022,WASABI distractmap,2020.2.10,60.78994095936548,"['Right Arm', 'Abdomen', 'Right Face', 'Left Face']",
1,"[-0.2, 0.2]",0.0,stimuli/orders/stimOrder5.xlsx,,,,,,,,,0,6,6,6,0,2,2,2,,,,,,,,,,,,,,,,,,,,,,None,None,"[0, 0, 0]",515.6040856000036,517.6050072999788,515.6040856000036,516.6044376000063,516.5880775999976,517.5886100999778,"[0, 0, 0]",0,515.6040856000036,517.6050072999788,,,,,,,,,,,,,999,m,2,99,r,TEST,2021_Aug_08_2022,WASABI distractmap,2020.2.10,60.78994095936548,"['Right Arm', 'Abdomen', 'Right Face', 'Left Face']",
,,,stimuli/orders/stimOrder5.xlsx,,,,,,,,,,,,,0,2,2,2,,,,,,,,,,,,,,,,,,,,,,,,,,,,,,,,,,,,,,,,,,,37.407407407407405,513.4500785699929,,,999,m,2,99,r,TEST,2021_Aug_08_2022,WASABI distractmap,2020.2.10,60.78994095936548,"['Right Arm', 'Abdomen', 'Right Face', 'Left Face']",
2,"[0, 0.2]",None,stimuli/orders/stimOrder5.xlsx,,,,,0,0,0,0,,,,,0,2,2,2,None,None,525.9988510999829,None,525.9988510999829,527.0098616000032,527.0098616000032,None,1,None,None,"[0, 0, 0]",,,525.9988510999829,None,,,,,,,,,,,,,,,,,,,,,,,,,,"[0, 0, 0]",,,0.01337902998784557,None,999,m,2,99,r,TEST,2021_Aug_08_2022,WASABI distractmap,2020.2.10,60.78994095936548,"['Right Arm', 'Abdomen', 'Right Face', 'Left Face']",
2,"[0, 0.2]",1.0,stimuli/orders/stimOrder5.xlsx,,,,,0,1,1,1,,,,,0,2,2,2,,,528.010562099982,None,528.010562099982,529.0109288999811,528.9940124999848,529.9945452999673,0,None,None,"[0, 0, 0]",,,528.010562099982,None,,,,,,,,,,,,,,,,,,,,,,,,,,"[0, 0, 0]",,,,,999,m,2,99,r,TEST,2021_Aug_08_2022,WASABI distractmap,2020.2.10,60.78994095936548,"['Right Arm', 'Abdomen', 'Right Face', 'Left Face']",
1,"[-0.2, 0.2]",0.0,stimuli/orders/stimOrder5.xlsx,,,,,0,2,2,2,,,,,0,2,2,2,,,530.0115172999795,530.0115172999795,530.0115172999795,531.0118305999786,530.9950671999832,531.9955131000024,0,None,None,"[0, 0, 0]",,,530.0115172999795,530.0115172999795,,,,,,,,,,,,,,,,,,,,,,,,,,"[0, 0, 0]",,,,,999,m,2,99,r,TEST,2021_Aug_08_2022,WASABI distractmap,2020.2.10,60.78994095936548,"['Right Arm', 'Abdomen', 'Right Face', 'Left Face']",
2,"[0, 0.2]",0.0,stimuli/orders/stimOrder5.xlsx,,,,,0,3,3,3,,,,,0,2,2,2,,,532.0124774999567,532.0124774999567,532.0124774999567,533.013104499958,532.9960775999934,533.9965301000047,0,None,None,"[0, 0, 0]",,,532.0124774999567,532.0124774999567,,,,,,,,,,,,,,,,,,,,,,,,,,"[0, 0, 0]",,,,,999,m,2,99,r,TEST,2021_Aug_08_2022,WASABI distractmap,2020.2.10,60.78994095936548,"['Right Arm', 'Abdomen', 'Right Face', 'Left Face']",
2,"[0, 0.2]",1.0,stimuli/orders/stimOrder5.xlsx,,,,,0,4,4,4,,,,,0,2,2,2,,,534.0134402999538,534.0134402999538,534.0134402999538,535.0140091999783,534.9970696999808,535.9978673000005,0,None,None,"[0, 0, 0]",,,534.0134402999538,534.0134402999538,,,,,,,,,,,,,,,,,,,,,,,,,,"[0, 0, 0]",,,,,999,m,2,99,r,TEST,2021_Aug_08_2022,WASABI distractmap,2020.2.10,60.78994095936548,"['Right Arm', 'Abdomen', 'Right Face', 'Left Face']",
4,"[-0.2, 0]",0.0,stimuli/orders/stimOrder5.xlsx,,,,,0,5,5,5,,,,,0,2,2,2,,,536.0150962999905,536.0150962999905,536.0150962999905,537.0149339999771,536.998133599991,537.9985340999556,0,None,None,"[0, 0, 0]",,,536.0150962999905,536.0150962999905,,,,,,,,,,,,,,,,,,,,,,,,,,"[0, 0, 0]",,,,,999,m,2,99,r,TEST,2021_Aug_08_2022,WASABI distractmap,2020.2.10,60.78994095936548,"['Right Arm', 'Abdomen', 'Right Face', 'Left Face']",
6,"[0.2, 0]",0.0,stimuli/orders/stimOrder5.xlsx,,,,,0,6,6,6,,,,,0,2,2,2,,,538.0157382999896,538.0157382999896,538.0157382999896,539.0161245999625,538.9990588999935,539.9994867999922,0,None,None,"[0, 0, 0]",,,538.0157382999896,538.0157382999896,,,,,,,,,,,,,,,,,,,,,,,,,,"[0, 0, 0]",,,,,999,m,2,99,r,TEST,2021_Aug_08_2022,WASABI distractmap,2020.2.10,60.78994095936548,"['Right Arm', 'Abdomen', 'Right Face', 'Left Face']",
,,,stimuli/orders/stimOrder5.xlsx,,,,,,,,,,,,,0,2,2,2,,,,,,,,,,,,,,,,,,,,,,,,,,,,,,,,,,,,,,,,,,,32.870370370370374,531.2934693699353,,,999,m,2,99,r,TEST,2021_Aug_08_2022,WASABI distractmap,2020.2.10,60.78994095936548,"['Right Arm', 'Abdomen', 'Right Face', 'Left Face']",
4,"[-0.2, 0]",None,stimuli/orders/stimOrder1.xlsx,,,,,0,0,0,0,,,,,0,3,3,0,554.9255222000065,None,555.9407667999621,None,555.9407667999621,556.9414929999621,556.9414929999621,None,1,None,None,"[0, 0, 0]",,,555.9407667999621,None,,,,,,,,,,,,,,,,,,,544.5821891999803,544.5821891999803,None,space,3.7492335000424646,544.5821891999803,None,"[0, 0, 0]",,,0.012333830061834306,None,999,m,2,99,r,TEST,2021_Aug_08_2022,WASABI distractmap,2020.2.10,60.78994095936548,"['Right Arm', 'Abdomen', 'Right Face', 'Left Face']",
7,"[-0.2, -0.2]",0.0,stimuli/orders/stimOrder1.xlsx,,,,,0,1,1,1,,,,,0,3,3,0,,,557.9421181000071,None,557.9421181000071,558.9425186999724,558.925842800003,559.9262788000051,0,None,None,"[0, 0, 0]",,,557.9421181000071,None,,,,,,,,,,,,,,,,,,,,,,,,,,"[0, 0, 0]",,,,,999,m,2,99,r,TEST,2021_Aug_08_2022,WASABI distractmap,2020.2.10,60.78994095936548,"['Right Arm', 'Abdomen', 'Right Face', 'Left Face']",
7,"[-0.2, -0.2]",1.0,stimuli/orders/stimOrder1.xlsx,,,,,0,2,2,2,,,,,0,3,3,0,,,559.9430682999664,559.9430682999664,559.9430682999664,560.9434655999648,560.9266880999785,561.9274180999491,0,None,None,"[0, 0, 0]",,,559.9430682999664,559.9430682999664,,,,,,,,,,,,,,,,,,,,,,,,,,"[0, 0, 0]",,,,,999,m,2,99,r,TEST,2021_Aug_08_2022,WASABI distractmap,2020.2.10,60.78994095936548,"['Right Arm', 'Abdomen', 'Right Face', 'Left Face']",
4,"[-0.2, 0]",0.0,stimuli/orders/stimOrder1.xlsx,,,,,0,3,3,3,,,,,0,3,3,0,,,561.9442606999655,561.9442606999655,561.9442606999655,562.9470925999922,562.9280330999754,563.9283360999543,0,None,None,"[0, 0, 0]",,,561.9442606999655,561.9442606999655,,,,,,,,,,,,,,,,,,,,,,,,,,"[0, 0, 0]",,,,,999,m,2,99,r,TEST,2021_Aug_08_2022,WASABI distractmap,2020.2.10,60.78994095936548,"['Right Arm', 'Abdomen', 'Right Face', 'Left Face']",
8,"[0, -0.2]",0.0,stimuli/orders/stimOrder1.xlsx,,,,,0,4,4,4,,,,,0,3,3,0,,,563.9453637999832,563.9453637999832,563.9453637999832,564.945595600002,564.9289985999931,565.9292769999593,0,None,None,"[0, 0, 0]",,,563.9453637999832,563.9453637999832,,,,,,,,,,,,,,,,,,,,,,,,,,"[0, 0, 0]",,,,,999,m,2,99,r,TEST,2021_Aug_08_2022,WASABI distractmap,2020.2.10,60.78994095936548,"['Right Arm', 'Abdomen', 'Right Face', 'Left Face']",
4,"[-0.2, 0]",0.0,stimuli/orders/stimOrder1.xlsx,,,,,0,5,5,5,,,,,0,3,3,0,,,565.9459136999794,565.9459136999794,565.9459136999794,566.9463346999837,566.9296593999607,567.9302884999779,0,None,None,"[0, 0, 0]",,,565.9459136999794,565.9459136999794,,,,,,,,,,,,,,,,,,,,,,,,,,"[0, 0, 0]",,,,,999,m,2,99,r,TEST,2021_Aug_08_2022,WASABI distractmap,2020.2.10,60.78994095936548,"['Right Arm', 'Abdomen', 'Right Face', 'Left Face']",
7,"[-0.2, -0.2]",0.0,stimuli/orders/stimOrder1.xlsx,,,,,0,6,6,6,,,,,0,3,3,0,,,567.9467963000061,567.9467963000061,567.9467963000061,568.9473783999565,568.9307735000039,569.9311282999697,0,None,None,"[0, 0, 0]",,,567.9467963000061,567.9467963000061,,,,,,,,,,,,,,,,,,,,,,,,,,"[0, 0, 0]",,,,,999,m,2,99,r,TEST,2021_Aug_08_2022,WASABI distractmap,2020.2.10,60.78994095936548,"['Right Arm', 'Abdomen', 'Right Face', 'Left Face']",
,,,stimuli/orders/stimOrder1.xlsx,,,,,,,,,,,,,0,3,3,0,,,,,,,,,,,,,,,,,,,,,,,,,,,,,,,,,,,,,,,,,,,21.944444444444443,564.9594276699354,,,999,m,2,99,r,TEST,2021_Aug_08_2022,WASABI distractmap,2020.2.10,60.78994095936548,"['Right Arm', 'Abdomen', 'Right Face', 'Left Face']",
2,"[0, 0.2]",None,stimuli/orders/stimOrder1.xlsx,,,,,,,,,0,0,0,0,0,3,3,0,None,None,,,,,,,,,,,,,,,,,,,,None,None,"[0, 0, 0]",577.2884559999802,None,577.2884559999802,578.3024190999568,578.2856551999575,None,"[0, 0, 0]",1,577.2884559999802,None,,,,,,,,,,,0.013096930051688105,None,999,m,2,99,r,TEST,2021_Aug_08_2022,WASABI distractmap,2020.2.10,60.78994095936548,"['Right Arm', 'Abdomen', 'Right Face', 'Left Face']",
2,"[0, 0.2]",None,stimuli/orders/stimOrder1.xlsx,,,,,,,,,0,1,1,1,0,3,3,0,,,,,,,,,,,,,,,,,,,,,,None,None,"[0, 0, 0]",579.2859328999766,581.2870039999834,579.2859328999766,580.2863776999875,580.2698063999997,581.2702749999589,"[0, 0, 0]",1,579.2859328999766,581.2870039999834,,,,,,,,,,,,,999,m,2,99,r,TEST,2021_Aug_08_2022,WASABI distractmap,2020.2.10,60.78994095936548,"['Right Arm', 'Abdomen', 'Right Face', 'Left Face']",
2,"[0, 0.2]",1.0,stimuli/orders/stimOrder1.xlsx,,,,,,,,,0,2,2,2,0,3,3,0,,,,,,,,,,,,,,,,,,,,,,None,None,"[0, 0, 0]",581.3035284999642,583.3046904999646,581.3035284999642,582.3040379000013,582.2873715999885,583.2880616000039,"[0, 0, 0]",1,581.3035284999642,583.3046904999646,,,,,,,,,,,,,999,m,2,99,r,TEST,2021_Aug_08_2022,WASABI distractmap,2020.2.10,60.78994095936548,"['Right Arm', 'Abdomen', 'Right Face', 'Left Face']",
8,"[0, -0.2]",0.0,stimuli/orders/stimOrder1.xlsx,,,,,,,,,0,3,3,3,0,3,3,0,,,,,,,,,,,,,,,,,,,,,,None,None,"[0, 0, 0]",583.321380999987,585.3221981999814,583.321380999987,584.339511499973,584.3053022999666,585.3056062999531,"[0, 0, 0]",0,583.321380999987,585.3221981999814,,,,,,,,,,,,,999,m,2,99,r,TEST,2021_Aug_08_2022,WASABI distractmap,2020.2.10,60.78994095936548,"['Right Arm', 'Abdomen', 'Right Face', 'Left Face']",
2,"[0, 0.2]",1.0,stimuli/orders/stimOrder1.xlsx,,,,,,,,,0,4,4,4,0,3,3,0,,,,,,,,,,,,,,,,,,,,,,None,None,"[0, 0, 0]",585.3389401999884,587.3399919999647,585.3389401999884,586.3396690999507,586.3231448999722,587.3232990999823,"[0, 0, 0]",0,585.3389401999884,587.3399919999647,,,,,,,,,,,,,999,m,2,99,r,TEST,2021_Aug_08_2022,WASABI distractmap,2020.2.10,60.78994095936548,"['Right Arm', 'Abdomen', 'Right Face', 'Left Face']",
5,"[0, 0]",0.0,stimuli/orders/stimOrder1.xlsx,,,,,,,,,0,5,5,5,0,3,3,0,,,,,,,,,,,,,,,,,,,,,,None,None,"[0, 0, 0]",587.3565845999983,589.3578006000025,587.3565845999983,588.3571927999728,588.3406067999895,589.3409905000008,"[0, 0, 0]",0,587.3565845999983,589.3578006000025,,,,,,,,,,,,,999,m,2,99,r,TEST,2021_Aug_08_2022,WASABI distractmap,2020.2.10,60.78994095936548,"['Right Arm', 'Abdomen', 'Right Face', 'Left Face']",
1,"[-0.2, 0.2]",0.0,stimuli/orders/stimOrder1.xlsx,,,,,,,,,0,6,6,6,0,3,3,0,,,,,,,,,,,,,,,,,,,,,,None,None,"[0, 0, 0]",589.3745217999676,591.3753332999768,589.3745217999676,590.3749011000036,590.3582499999902,591.3587915999815,"[0, 0, 0]",0,589.3745217999676,591.3753332999768,,,,,,,,,,,,,999,m,2,99,r,TEST,2021_Aug_08_2022,WASABI distractmap,2020.2.10,60.78994095936548,"['Right Arm', 'Abdomen', 'Right Face', 'Left Face']",
,,,stimuli/orders/stimOrder1.xlsx,,,,,,,,,,,,,0,3,3,0,,,,,,,,,,,,,,,,,,,,,,,,,,,,,,,,,,,,,,,,,,,31.01851851851852,584.6682953700074,,,999,m,2,99,r,TEST,2021_Aug_08_2022,WASABI distractmap,2020.2.10,60.78994095936548,"['Right Arm', 'Abdomen', 'Right Face', 'Left Face']",
2,"[0, 0.2]",None,stimuli/orders/stimOrder1.xlsx,,,,,0,0,0,0,,,,,0,3,3,0,None,None,597.5406086999574,None,597.5406086999574,598.5459674999584,598.5290413000039,599.5293851000024,1,None,None,"[0, 0, 0]",,,597.5406086999574,None,,,,,,,,,,,,,,,,,,,,,,,,,,"[0, 0, 0]",,,0.014076530002057552,None,999,m,2,99,r,TEST,2021_Aug_08_2022,WASABI distractmap,2020.2.10,60.78994095936548,"['Right Arm', 'Abdomen', 'Right Face', 'Left Face']",
2,"[0, 0.2]",1.0,stimuli/orders/stimOrder1.xlsx,,,,,0,1,1,1,,,,,0,3,3,0,,,599.6310343999648,None,599.6310343999648,600.6467249999987,600.5299378999625,601.5303598999744,0,None,None,"[0, 0, 0]",,,599.6310343999648,None,,,,,,,,,,,,,,,,,,,,,,,,,,"[0, 0, 0]",,,,,999,m,2,99,r,TEST,2021_Aug_08_2022,WASABI distractmap,2020.2.10,60.78994095936548,"['Right Arm', 'Abdomen', 'Right Face', 'Left Face']",
1,"[-0.2, 0.2]",0.0,stimuli/orders/stimOrder1.xlsx,,,,,0,2,2,2,,,,,0,3,3,0,,,601.5638767000055,None,601.5638767000055,602.5642807999975,602.5476434999728,603.5484109999961,0,None,None,"[0, 0, 0]",,,601.5638767000055,None,,,,,,,,,,,,,,,,,,,,,,,,,,"[0, 0, 0]",,,,,999,m,2,99,r,TEST,2021_Aug_08_2022,WASABI distractmap,2020.2.10,60.78994095936548,"['Right Arm', 'Abdomen', 'Right Face', 'Left Face']",
2,"[0, 0.2]",0.0,stimuli/orders/stimOrder1.xlsx,,,,,0,3,3,3,,,,,0,3,3,0,,,603.5649427999742,603.5649427999742,603.5649427999742,604.567029799975,604.5490039999713,605.5495388999698,0,None,None,"[0, 0, 0]",,,603.5649427999742,603.5649427999742,,,,,,,,,,,,,,,,,,,,,,,,,,"[0, 0, 0]",,,,,999,m,2,99,r,TEST,2021_Aug_08_2022,WASABI distractmap,2020.2.10,60.78994095936548,"['Right Arm', 'Abdomen', 'Right Face', 'Left Face']",
2,"[0, 0.2]",1.0,stimuli/orders/stimOrder1.xlsx,,,,,0,4,4,4,,,,,0,3,3,0,,,605.5658094999962,605.5658094999962,605.5658094999962,606.5680353000062,606.5495844999678,607.550144399982,0,None,None,"[0, 0, 0]",,,605.5658094999962,605.5658094999962,,,,,,,,,,,,,,,,,,,,,,,,,,"[0, 0, 0]",,,,,999,m,2,99,r,TEST,2021_Aug_08_2022,WASABI distractmap,2020.2.10,60.78994095936548,"['Right Arm', 'Abdomen', 'Right Face', 'Left Face']",
4,"[-0.2, 0]",0.0,stimuli/orders/stimOrder1.xlsx,,,,,0,5,5,5,,,,,0,3,3,0,,,607.5667418999947,607.5667418999947,607.5667418999947,608.5673409999581,608.5506893999991,609.5510320999892,0,None,None,"[0, 0, 0]",,,607.5667418999947,607.5667418999947,,,,,,,,,,,,,,,,,,,,,,,,,,"[0, 0, 0]",,,,,999,m,2,99,r,TEST,2021_Aug_08_2022,WASABI distractmap,2020.2.10,60.78994095936548,"['Right Arm', 'Abdomen', 'Right Face', 'Left Face']",
6,"[0.2, 0]",0.0,stimuli/orders/stimOrder1.xlsx,,,,,0,6,6,6,,,,,0,3,3,0,,,609.5677911999519,609.5677911999519,609.5677911999519,610.5682305999799,610.551596299978,611.5520329999854,0,None,None,"[0, 0, 0]",,,609.5677911999519,609.5677911999519,,,,,,,,,,,,,,,,,,,,,,,,,,"[0, 0, 0]",,,,,999,m,2,99,r,TEST,2021_Aug_08_2022,WASABI distractmap,2020.2.10,60.78994095936548,"['Right Arm', 'Abdomen', 'Right Face', 'Left Face']",
,,,stimuli/orders/stimOrder1.xlsx,,,,,,,,,,,,,0,3,3,0,,,,,,,,,,,,,,,,,,,,,,,,,,,,,,,,,,,,,,,,,,,47.592592592592595,604.0957661699504,,,999,m,2,99,r,TEST,2021_Aug_08_2022,WASABI distractmap,2020.2.10,60.78994095936548,"['Right Arm', 'Abdomen', 'Right Face', 'Left Face']",
,,,,,,,,,,,,,,,,,,,,,,,,,,,,,,,,,,,,,,,,,,,,,,,,,,,,,,,,,,,,,,,,0.01315093005541712,None,,,,,,,,,,,,
