square,location,corrAns,trials.thisRepN,trials.thisTrialN,trials.thisN,trials.thisIndex,trials_2.thisRepN,trials_2.thisTrialN,trials_2.thisN,trials_2.thisIndex,fixation_1.started,fixation_1.stopped,grid_lines.started,grid_lines.stopped,target_square.started,target_square.stopped,fixation_2.started,fixation_2.stopped,response.corr,response.x,response.y,response.leftButton,response.click_left,response.click_right,response.started,response.stopped,ScoreReportText.started,ScoreReportText.stopped,ScoreReportResponse.keys,ScoreReportResponse.started,ScoreReportResponse.stopped,response_2.x,response_2.y,response_2.leftButton,grid_lines_2.started,grid_lines_2.stopped,target_square_2.started,target_square_2.stopped,fixation_3.started,fixation_3.stopped,response_2.click,response_2.corr,response_2.started,response_2.stopped,BodySiteInstructionText.started,BodySiteImg.started,BodySiteImg.stopped,BodySiteInstructionRead.keys,BodySiteInstructionRead.rt,BodySiteInstructionRead.started,BodySiteInstructionRead.stopped,response.click,IntensityRating.response,IntensityRating.rt,IntensityRating.started,IntensityRating.stopped,subject number,gender,bodymap first- or second-half (1 or 2),session,handedness,scanner,date,expName,psychopyVersion,frameRate,body_site_order,
6,"[0.2, 0]",None,0,0,0,0,,,,,19.974477699986892,None,21.006888599978993,None,21.006888599978993,22.008113399992,21.991437199991196,None,1,0.5458333333333333,0.059722222222222225,"[0, 0, 0]",0,0,21.006888599978993,None,,,,,,,,,,,,,,,,,,,,,,,,,,,,,,,999,m,2,99,r,TEST,2021_Aug_13_1443,distractmap,2020.2.10,59.942694783577224,"['Left Leg', 'Left Arm', 'Left Face', 'Right Leg', 'Right Face', 'Right Arm', 'Abdomen', 'Chest']",
6,"[0.2, 0]",1,0,1,1,1,,,,,,,22.991443299979437,None,22.991443299979437,23.99149679997936,23.974814299988793,24.974709899979644,0,0.5458333333333333,0.059722222222222225,"[0, 0, 0]",0,0,22.991443299979437,None,,,,,,,,,,,,,,,,,,,,,,,,,,,,,,,999,m,2,99,r,TEST,2021_Aug_13_1443,distractmap,2020.2.10,59.942694783577224,"['Left Leg', 'Left Arm', 'Left Face', 'Right Leg', 'Right Face', 'Right Arm', 'Abdomen', 'Chest']",
2,"[0, 0.2]",0,0,2,2,2,,,,,,,24.99144179999712,None,24.99144179999712,25.991497899987735,25.974806799989892,26.974949800001923,0,0.5458333333333333,0.059722222222222225,"[0, 0, 0]",0,0,24.99144179999712,None,,,,,,,,,,,,,,,,,,,,,,,,,,,,,,,999,m,2,99,r,TEST,2021_Aug_13_1443,distractmap,2020.2.10,59.942694783577224,"['Left Leg', 'Left Arm', 'Left Face', 'Right Leg', 'Right Face', 'Right Arm', 'Abdomen', 'Chest']",
9,"[0.2, -0.2]",0,0,3,3,3,,,,,,,26.991647499991814,None,26.991647499991814,27.9914565999934,27.97484730000724,28.97482810000656,0,0.5458333333333333,0.059722222222222225,"[0, 0, 0]",0,0,26.991647499991814,None,,,,,,,,,,,,,,,,,,,,,,,,,,,,,,,999,m,2,99,r,TEST,2021_Aug_13_1443,distractmap,2020.2.10,59.942694783577224,"['Left Leg', 'Left Arm', 'Left Face', 'Right Leg', 'Right Face', 'Right Arm', 'Abdomen', 'Chest']",
9,"[0.2, -0.2]",1,0,4,4,4,,,,,,,28.991475599992555,None,28.991475599992555,29.991524799988838,29.974834199994802,30.974841099989135,0,0.5458333333333333,0.059722222222222225,"[0, 0, 0]",0,0,28.991475599992555,None,,,,,,,,,,,,,,,,,,,,,,,,,,,,,,,999,m,2,99,r,TEST,2021_Aug_13_1443,distractmap,2020.2.10,59.942694783577224,"['Left Leg', 'Left Arm', 'Left Face', 'Right Leg', 'Right Face', 'Right Arm', 'Abdomen', 'Chest']",
6,"[0.2, 0]",0,0,5,5,5,,,,,,,30.991479299991624,None,30.991479299991624,31.991489599982742,31.97486309998203,32.97500979999313,0,0.5458333333333333,0.059722222222222225,"[0, 0, 0]",0,0,30.991479299991624,None,,,,,,,,,,,,,,,,,,,,,,,,,,,,,,,999,m,2,99,r,TEST,2021_Aug_13_1443,distractmap,2020.2.10,59.942694783577224,"['Left Leg', 'Left Arm', 'Left Face', 'Right Leg', 'Right Face', 'Right Arm', 'Abdomen', 'Chest']",
4,"[-0.2, 0]",0,0,6,6,6,,,,,,,32.99153729999671,None,32.99153729999671,33.991573599982075,33.97488609998254,34.974832000007154,0,0.5458333333333333,0.059722222222222225,"[0, 0, 0]",0,0,32.99153729999671,None,,,,,,,,,,,,,,,,,,,,,,,,,,,,,,,999,m,2,99,r,TEST,2021_Aug_13_1443,distractmap,2020.2.10,59.942694783577224,"['Left Leg', 'Left Arm', 'Left Face', 'Right Leg', 'Right Face', 'Right Arm', 'Abdomen', 'Chest']",
3,"[0.2, 0.2]",0,0,7,7,7,,,,,,,34.99153969998588,None,34.99153969998588,35.991535699984524,35.97487649999675,36.974885699979495,0,0.5458333333333333,0.059722222222222225,"[0, 0, 0]",0,0,34.99153969998588,None,,,,,,,,,,,,,,,,,,,,,,,,,,,,,,,999,m,2,99,r,TEST,2021_Aug_13_1443,distractmap,2020.2.10,59.942694783577224,"['Left Leg', 'Left Arm', 'Left Face', 'Right Leg', 'Right Face', 'Right Arm', 'Abdomen', 'Chest']",
3,"[0.2, 0.2]",1,0,8,8,8,,,,,,,36.991594899998745,None,36.991594899998745,37.991537099995185,37.974883299990324,38.974892800004454,0,0.5458333333333333,0.059722222222222225,"[0, 0, 0]",0,0,36.991594899998745,None,,,,,,,,,,,,,,,,,,,,,,,,,,,,,,,999,m,2,99,r,TEST,2021_Aug_13_1443,distractmap,2020.2.10,59.942694783577224,"['Left Leg', 'Left Arm', 'Left Face', 'Right Leg', 'Right Face', 'Right Arm', 'Abdomen', 'Chest']",
8,"[0, -0.2]",0,0,9,9,9,,,,,,,38.991571199992904,None,38.991571199992904,39.99158489998081,39.97490169998491,40.97494819998974,0,0.5458333333333333,0.059722222222222225,"[0, 0, 0]",0,0,38.991571199992904,None,,,,,,,,,,,,,,,,,,,,,,,,,,,,,,,999,m,2,99,r,TEST,2021_Aug_13_1443,distractmap,2020.2.10,59.942694783577224,"['Left Leg', 'Left Arm', 'Left Face', 'Right Leg', 'Right Face', 'Right Arm', 'Abdomen', 'Chest']",
1,"[-0.2, 0.2]",0,0,10,10,10,,,,,,,40.99160259999917,None,40.99160259999917,41.99161309999181,41.974929899995914,42.974981100007426,0,0.5458333333333333,0.059722222222222225,"[0, 0, 0]",0,0,40.99160259999917,None,,,,,,,,,,,,,,,,,,,,,,,,,,,,,,,999,m,2,99,r,TEST,2021_Aug_13_1443,distractmap,2020.2.10,59.942694783577224,"['Left Leg', 'Left Arm', 'Left Face', 'Right Leg', 'Right Face', 'Right Arm', 'Abdomen', 'Chest']",
2,"[0, 0.2]",0,0,11,11,11,,,,,,,42.991591900005005,None,42.991591900005005,43.99164399999427,43.974966499983566,44.97497680000379,0,0.5458333333333333,0.059722222222222225,"[0, 0, 0]",0,0,42.991591900005005,None,,,,,,,,,,,,,,,,,,,,,,,,,,,,,,,999,m,2,99,r,TEST,2021_Aug_13_1443,distractmap,2020.2.10,59.942694783577224,"['Left Leg', 'Left Arm', 'Left Face', 'Right Leg', 'Right Face', 'Right Arm', 'Abdomen', 'Chest']",
4,"[-0.2, 0]",0,0,12,12,12,,,,,,,44.991606800002046,None,44.991606800002046,45.991603700007545,45.97501249998459,46.97505999999703,0,0.5458333333333333,0.059722222222222225,"[0, 0, 0]",0,0,44.991606800002046,None,,,,,,,,,,,,,,,,,,,,,,,,,,,,,,,999,m,2,99,r,TEST,2021_Aug_13_1443,distractmap,2020.2.10,59.942694783577224,"['Left Leg', 'Left Arm', 'Left Face', 'Right Leg', 'Right Face', 'Right Arm', 'Abdomen', 'Chest']",
4,"[-0.2, 0]",1,0,13,13,13,,,,,,,46.99164550000569,None,46.99164550000569,47.99166329999571,47.97493249998661,48.97498239998822,0,0.5458333333333333,0.059722222222222225,"[0, 0, 0]",0,0,46.99164550000569,None,,,,,,,,,,,,,,,,,,,,,,,,,,,,,,,999,m,2,99,r,TEST,2021_Aug_13_1443,distractmap,2020.2.10,59.942694783577224,"['Left Leg', 'Left Arm', 'Left Face', 'Right Leg', 'Right Face', 'Right Arm', 'Abdomen', 'Chest']",
8,"[0, -0.2]",0,0,14,14,14,,,,,,,48.99164560000645,None,48.99164560000645,49.99168279999867,49.97502240000176,50.97499160000007,0,0.5458333333333333,0.059722222222222225,"[0, 0, 0]",0,0,48.99164560000645,None,,,,,,,,,,,,,,,,,,,,,,,,,,,,,,,999,m,2,99,r,TEST,2021_Aug_13_1443,distractmap,2020.2.10,59.942694783577224,"['Left Leg', 'Left Arm', 'Left Face', 'Right Leg', 'Right Face', 'Right Arm', 'Abdomen', 'Chest']",
5,"[0, 0]",0,0,15,15,15,,,,,,,50.9916464999842,None,50.9916464999842,51.99164229998132,51.97499190000235,52.97501289998763,0,0.5458333333333333,0.059722222222222225,"[0, 0, 0]",0,0,50.9916464999842,None,,,,,,,,,,,,,,,,,,,,,,,,,,,,,,,999,m,2,99,r,TEST,2021_Aug_13_1443,distractmap,2020.2.10,59.942694783577224,"['Left Leg', 'Left Arm', 'Left Face', 'Right Leg', 'Right Face', 'Right Arm', 'Abdomen', 'Chest']",
5,"[0, 0]",1,0,16,16,16,,,,,,,52.99168519998784,None,52.99168519998784,53.991732399998,53.975031699985266,54.97500659999787,0,0.5458333333333333,0.059722222222222225,"[0, 0, 0]",0,0,52.99168519998784,None,,,,,,,,,,,,,,,,,,,,,,,,,,,,,,,999,m,2,99,r,TEST,2021_Aug_13_1443,distractmap,2020.2.10,59.942694783577224,"['Left Leg', 'Left Arm', 'Left Face', 'Right Leg', 'Right Face', 'Right Arm', 'Abdomen', 'Chest']",
1,"[-0.2, 0.2]",0,0,17,17,17,,,,,,,54.99167819999275,None,54.99167819999275,55.99169080000138,55.97503279999364,56.9752729999891,0,0.5458333333333333,0.059722222222222225,"[0, 0, 0]",0,0,54.99167819999275,None,,,,,,,,,,,,,,,,,,,,,,,,,,,,,,,999,m,2,99,r,TEST,2021_Aug_13_1443,distractmap,2020.2.10,59.942694783577224,"['Left Leg', 'Left Arm', 'Left Face', 'Right Leg', 'Right Face', 'Right Arm', 'Abdomen', 'Chest']",
3,"[0.2, 0.2]",0,0,18,18,18,,,,,,,56.99200659999042,None,56.99200659999042,57.991653699980816,57.97498599998653,58.97505849998561,0,0.5458333333333333,0.059722222222222225,"[0, 0, 0]",0,0,56.99200659999042,None,,,,,,,,,,,,,,,,,,,,,,,,,,,,,,,999,m,2,99,r,TEST,2021_Aug_13_1443,distractmap,2020.2.10,59.942694783577224,"['Left Leg', 'Left Arm', 'Left Face', 'Right Leg', 'Right Face', 'Right Arm', 'Abdomen', 'Chest']",
6,"[0.2, 0]",0,0,19,19,19,,,,,,,58.991713399998844,None,58.991713399998844,59.991745499981334,59.975051599991275,60.97508549998747,0,0.5458333333333333,0.059722222222222225,"[0, 0, 0]",0,0,58.991713399998844,None,,,,,,,,,,,,,,,,,,,,,,,,,,,,,,,999,m,2,99,r,TEST,2021_Aug_13_1443,distractmap,2020.2.10,59.942694783577224,"['Left Leg', 'Left Arm', 'Left Face', 'Right Leg', 'Right Face', 'Right Arm', 'Abdomen', 'Chest']",
1,"[-0.2, 0.2]",0,0,20,20,20,,,,,,,60.99169510000502,None,60.99169510000502,61.99173489998793,61.97508810000727,62.975086399994325,0,0.5458333333333333,0.059722222222222225,"[0, 0, 0]",0,0,60.99169510000502,None,,,,,,,,,,,,,,,,,,,,,,,,,,,,,,,999,m,2,99,r,TEST,2021_Aug_13_1443,distractmap,2020.2.10,59.942694783577224,"['Left Leg', 'Left Arm', 'Left Face', 'Right Leg', 'Right Face', 'Right Arm', 'Abdomen', 'Chest']",
1,"[-0.2, 0.2]",1,0,21,21,21,,,,,,,62.99175089999335,None,62.99175089999335,63.99171329999808,63.97508979999111,64.97509269998409,0,0.5458333333333333,0.059722222222222225,"[0, 0, 0]",0,0,62.99175089999335,None,,,,,,,,,,,,,,,,,,,,,,,,,,,,,,,999,m,2,99,r,TEST,2021_Aug_13_1443,distractmap,2020.2.10,59.942694783577224,"['Left Leg', 'Left Arm', 'Left Face', 'Right Leg', 'Right Face', 'Right Arm', 'Abdomen', 'Chest']",
1,"[-0.2, 0.2]",1,0,22,22,22,,,,,,,64.99176020000596,None,64.99176020000596,65.99179539998295,65.97508589999052,66.97514559997944,0,0.5458333333333333,0.059722222222222225,"[0, 0, 0]",0,0,64.99176020000596,None,,,,,,,,,,,,,,,,,,,,,,,,,,,,,,,999,m,2,99,r,TEST,2021_Aug_13_1443,distractmap,2020.2.10,59.942694783577224,"['Left Leg', 'Left Arm', 'Left Face', 'Right Leg', 'Right Face', 'Right Arm', 'Abdomen', 'Chest']",
3,"[0.2, 0.2]",0,0,23,23,23,,,,,,,66.99178579999716,None,66.99178579999716,67.99178240000037,67.97511119997944,68.975134599983,0,0.5458333333333333,0.059722222222222225,"[0, 0, 0]",0,0,66.99178579999716,None,,,,,,,,,,,,,,,,,,,,,,,,,,,,,,,999,m,2,99,r,TEST,2021_Aug_13_1443,distractmap,2020.2.10,59.942694783577224,"['Left Leg', 'Left Arm', 'Left Face', 'Right Leg', 'Right Face', 'Right Arm', 'Abdomen', 'Chest']",
2,"[0, 0.2]",0,0,24,24,24,,,,,,,68.99178779998329,None,68.99178779998329,69.99183689997881,69.97505159999127,70.97512129999814,0,0.5458333333333333,0.059722222222222225,"[0, 0, 0]",0,0,68.99178779998329,None,,,,,,,,,,,,,,,,,,,,,,,,,,,,,,,999,m,2,99,r,TEST,2021_Aug_13_1443,distractmap,2020.2.10,59.942694783577224,"['Left Leg', 'Left Arm', 'Left Face', 'Right Leg', 'Right Face', 'Right Arm', 'Abdomen', 'Chest']",
1,"[-0.2, 0.2]",0,0,25,25,25,,,,,,,70.9917393999931,None,70.9917393999931,71.99204489999101,71.9753192999924,72.9751777999918,0,0.5458333333333333,0.059722222222222225,"[0, 0, 0]",0,0,70.9917393999931,None,,,,,,,,,,,,,,,,,,,,,,,,,,,,,,,999,m,2,99,r,TEST,2021_Aug_13_1443,distractmap,2020.2.10,59.942694783577224,"['Left Leg', 'Left Arm', 'Left Face', 'Right Leg', 'Right Face', 'Right Arm', 'Abdomen', 'Chest']",
7,"[-0.2, -0.2]",0,0,26,26,26,,,,,,,72.99182639998617,None,72.99182639998617,73.99179599998752,73.97515230000135,74.97500849998323,0,0.5458333333333333,0.059722222222222225,"[0, 0, 0]",0,0,72.99182639998617,None,,,,,,,,,,,,,,,,,,,,,,,,,,,,,,,999,m,2,99,r,TEST,2021_Aug_13_1443,distractmap,2020.2.10,59.942694783577224,"['Left Leg', 'Left Arm', 'Left Face', 'Right Leg', 'Right Face', 'Right Arm', 'Abdomen', 'Chest']",
7,"[-0.2, -0.2]",1,0,27,27,27,,,,,,,74.99178119999124,None,74.99178119999124,75.99181529998896,75.97518649999984,76.9751500999846,0,0.5458333333333333,0.059722222222222225,"[0, 0, 0]",0,0,74.99178119999124,None,,,,,,,,,,,,,,,,,,,,,,,,,,,,,,,999,m,2,99,r,TEST,2021_Aug_13_1443,distractmap,2020.2.10,59.942694783577224,"['Left Leg', 'Left Arm', 'Left Face', 'Right Leg', 'Right Face', 'Right Arm', 'Abdomen', 'Chest']",
2,"[0, 0.2]",0,0,28,28,28,,,,,,,76.99190639998415,None,76.99190639998415,77.99188600000343,77.97516689999611,78.97521999999299,0,0.5458333333333333,0.059722222222222225,"[0, 0, 0]",0,0,76.99190639998415,None,,,,,,,,,,,,,,,,,,,,,,,,,,,,,,,999,m,2,99,r,TEST,2021_Aug_13_1443,distractmap,2020.2.10,59.942694783577224,"['Left Leg', 'Left Arm', 'Left Face', 'Right Leg', 'Right Face', 'Right Arm', 'Abdomen', 'Chest']",
6,"[0.2, 0]",0,0,29,29,29,,,,,,,78.99187309999252,None,78.99187309999252,79.99179259999073,79.97525329998462,80.97511489997851,0,0.5458333333333333,0.059722222222222225,"[0, 0, 0]",0,0,78.99187309999252,None,,,,,,,,,,,,,,,,,,,,,,,,,,,,,,,999,m,2,99,r,TEST,2021_Aug_13_1443,distractmap,2020.2.10,59.942694783577224,"['Left Leg', 'Left Arm', 'Left Face', 'Right Leg', 'Right Face', 'Right Arm', 'Abdomen', 'Chest']",
,,,,,,,,,,,,,,,,,,,,,,,,,,,81.02371869998751,None,space,81.02371869998751,None,,,,,,,,,,,,,,,,,,,,,,,,,,999,m,2,99,r,TEST,2021_Aug_13_1443,distractmap,2020.2.10,59.942694783577224,"['Left Leg', 'Left Arm', 'Left Face', 'Right Leg', 'Right Face', 'Right Arm', 'Abdomen', 'Chest']",
6,"[0.2, 0]",None,,,,,0,0,0,0,166.19222959998297,None,,,,,,,,,,,,,,,,,,,,None,None,"[0, 0, 0]",167.20804529997986,None,167.20804529997986,168.209165999986,168.1925407999952,169.1925704999885,"[0, 0, 0]",1,167.20804529997986,None,,,,,,,,,,,,,999,m,2,99,r,TEST,2021_Aug_13_1443,distractmap,2020.2.10,59.942694783577224,"['Left Leg', 'Left Arm', 'Left Face', 'Right Leg', 'Right Face', 'Right Arm', 'Abdomen', 'Chest']",
7,"[-0.2, -0.2]",None,,,,,0,1,1,1,,,,,,,,,,,,,,,,,,,,,,None,None,"[0, 0, 0]",169.20923370000673,171.2088143999863,169.20923370000673,170.20928019998246,170.19262349998462,171.19255849998444,"[0, 0, 0]",1,169.20923370000673,171.2088143999863,,,,,,,,,,,,,999,m,2,99,r,TEST,2021_Aug_13_1443,distractmap,2020.2.10,59.942694783577224,"['Left Leg', 'Left Arm', 'Left Face', 'Right Leg', 'Right Face', 'Right Arm', 'Abdomen', 'Chest']",
6,"[0.2, 0]",1,,,,,0,2,2,2,,,,,,,,,,,,,,,,,,,,,,None,None,"[0, 0, 0]",171.2258946999791,173.22555209998973,171.2258946999791,172.22583119999035,172.20920320000732,173.20925610000268,"[0, 0, 0]",0,171.2258946999791,173.22555209998973,,,,,,,,,,,,,999,m,2,99,r,TEST,2021_Aug_13_1443,distractmap,2020.2.10,59.942694783577224,"['Left Leg', 'Left Arm', 'Left Face', 'Right Leg', 'Right Face', 'Right Arm', 'Abdomen', 'Chest']",
2,"[0, 0.2]",0,,,,,0,3,3,3,,,,,,,,,,,,,,,,,,,,,,None,None,"[0, 0, 0]",173.2425768999965,175.24219900000026,173.2425768999965,174.24259670000174,174.2259034999879,175.22595209997962,"[0, 0, 0]",0,173.2425768999965,175.24219900000026,,,,,,,,,,,,,999,m,2,99,r,TEST,2021_Aug_13_1443,distractmap,2020.2.10,59.942694783577224,"['Left Leg', 'Left Arm', 'Left Face', 'Right Leg', 'Right Face', 'Right Arm', 'Abdomen', 'Chest']",
5,"[0, 0]",0,,,,,0,4,4,4,,,,,,,,,,,,,,,,,,,,,,None,None,"[0, 0, 0]",175.25929429999087,177.25889789999928,175.25929429999087,176.2591312000004,176.24255699999048,177.24260159998084,"[0, 0, 0]",0,175.25929429999087,177.25889789999928,,,,,,,,,,,,,999,m,2,99,r,TEST,2021_Aug_13_1443,distractmap,2020.2.10,59.942694783577224,"['Left Leg', 'Left Arm', 'Left Face', 'Right Leg', 'Right Face', 'Right Arm', 'Abdomen', 'Chest']",
4,"[-0.2, 0]",0,,,,,0,5,5,5,,,,,,,,,,,,,,,,,,,,,,None,None,"[0, 0, 0]",177.27592169999843,179.275578700006,177.27592169999843,178.27594749999116,178.25916469999356,179.25926150000305,"[0, 0, 0]",0,177.27592169999843,179.275578700006,,,,,,,,,,,,,999,m,2,99,r,TEST,2021_Aug_13_1443,distractmap,2020.2.10,59.942694783577224,"['Left Leg', 'Left Arm', 'Left Face', 'Right Leg', 'Right Face', 'Right Arm', 'Abdomen', 'Chest']",
4,"[-0.2, 0]",0,,,,,0,6,6,6,,,,,,,,,,,,,,,,,,,,,,None,None,"[0, 0, 0]",179.2926257000072,181.29218489999766,179.2926257000072,180.29262120000203,180.27598529998795,181.27586039999733,"[0, 0, 0]",0,179.2926257000072,181.29218489999766,,,,,,,,,,,,,999,m,2,99,r,TEST,2021_Aug_13_1443,distractmap,2020.2.10,59.942694783577224,"['Left Leg', 'Left Arm', 'Left Face', 'Right Leg', 'Right Face', 'Right Arm', 'Abdomen', 'Chest']",
7,"[-0.2, -0.2]",0,,,,,0,7,7,7,,,,,,,,,,,,,,,,,,,,,,None,None,"[0, 0, 0]",181.30924349999987,183.30894009998883,181.30924349999987,182.30924459997914,182.2925733999873,183.2926557000028,"[0, 0, 0]",0,181.30924349999987,183.30894009998883,,,,,,,,,,,,,999,m,2,99,r,TEST,2021_Aug_13_1443,distractmap,2020.2.10,59.942694783577224,"['Left Leg', 'Left Arm', 'Left Face', 'Right Leg', 'Right Face', 'Right Arm', 'Abdomen', 'Chest']",
4,"[-0.2, 0]",1,,,,,0,8,8,8,,,,,,,,,,,,,,,,,,,,,,None,None,"[0, 0, 0]",183.32604719998199,185.32564060000004,183.32604719998199,184.32603669998934,184.309314299986,185.30933049999294,"[0, 0, 0]",0,183.32604719998199,185.32564060000004,,,,,,,,,,,,,999,m,2,99,r,TEST,2021_Aug_13_1443,distractmap,2020.2.10,59.942694783577224,"['Left Leg', 'Left Arm', 'Left Face', 'Right Leg', 'Right Face', 'Right Arm', 'Abdomen', 'Chest']",
3,"[0.2, 0.2]",0,,,,,0,9,9,9,,,,,,,,,,,,,,,,,,,,,,None,None,"[0, 0, 0]",185.34266339999158,187.34218179999152,185.34266339999158,186.34267749998253,186.3260767000029,187.32599990000017,"[0, 0, 0]",0,185.34266339999158,187.34218179999152,,,,,,,,,,,,,999,m,2,99,r,TEST,2021_Aug_13_1443,distractmap,2020.2.10,59.942694783577224,"['Left Leg', 'Left Arm', 'Left Face', 'Right Leg', 'Right Face', 'Right Arm', 'Abdomen', 'Chest']",
5,"[0, 0]",0,,,,,0,10,10,10,,,,,,,,,,,,,,,,,,,,,,None,None,"[0, 0, 0]",187.35933519998798,189.35900589998346,187.35933519998798,188.35934589998215,188.34270519998972,189.34269369998947,"[0, 0, 0]",0,187.35933519998798,189.35900589998346,,,,,,,,,,,,,999,m,2,99,r,TEST,2021_Aug_13_1443,distractmap,2020.2.10,59.942694783577224,"['Left Leg', 'Left Arm', 'Left Face', 'Right Leg', 'Right Face', 'Right Arm', 'Abdomen', 'Chest']",
3,"[0.2, 0.2]",1,,,,,0,11,11,11,,,,,,,,,,,,,,,,,,,,,,None,None,"[0, 0, 0]",189.37604790000478,191.3756221999938,189.37604790000478,190.37615539997933,190.35943779998343,191.35929180000676,"[0, 0, 0]",0,189.37604790000478,191.3756221999938,,,,,,,,,,,,,999,m,2,99,r,TEST,2021_Aug_13_1443,distractmap,2020.2.10,59.942694783577224,"['Left Leg', 'Left Arm', 'Left Face', 'Right Leg', 'Right Face', 'Right Arm', 'Abdomen', 'Chest']",
1,"[-0.2, 0.2]",0,,,,,0,12,12,12,,,,,,,,,,,,,,,,,,,,,,None,None,"[0, 0, 0]",191.39269809998223,193.39255530000082,191.39269809998223,192.3927208999812,192.37606599999708,193.3762788999884,"[0, 0, 0]",0,191.39269809998223,193.39255530000082,,,,,,,,,,,,,999,m,2,99,r,TEST,2021_Aug_13_1443,distractmap,2020.2.10,59.942694783577224,"['Left Leg', 'Left Arm', 'Left Face', 'Right Leg', 'Right Face', 'Right Arm', 'Abdomen', 'Chest']",
9,"[0.2, -0.2]",0,,,,,0,13,13,13,,,,,,,,,,,,,,,,,,,,,,None,None,"[0, 0, 0]",193.40956450000522,195.4090237999917,193.40956450000522,194.40937649999978,194.3926709999796,195.39272390000406,"[0, 0, 0]",0,193.40956450000522,195.4090237999917,,,,,,,,,,,,,999,m,2,99,r,TEST,2021_Aug_13_1443,distractmap,2020.2.10,59.942694783577224,"['Left Leg', 'Left Arm', 'Left Face', 'Right Leg', 'Right Face', 'Right Arm', 'Abdomen', 'Chest']",
9,"[0.2, -0.2]",0,,,,,0,14,14,14,,,,,,,,,,,,,,,,,,,,,,None,None,"[0, 0, 0]",195.4261131999956,197.42570110000088,195.4261131999956,196.42605710000498,196.40945010000723,197.40941299998667,"[0, 0, 0]",0,195.4261131999956,197.42570110000088,,,,,,,,,,,,,999,m,2,99,r,TEST,2021_Aug_13_1443,distractmap,2020.2.10,59.942694783577224,"['Left Leg', 'Left Arm', 'Left Face', 'Right Leg', 'Right Face', 'Right Arm', 'Abdomen', 'Chest']",
8,"[0, -0.2]",0,,,,,0,15,15,15,,,,,,,,,,,,,,,,,,,,,,None,None,"[0, 0, 0]",197.44269739999436,199.44229429998086,197.44269739999436,198.44268789998023,198.42605479998747,199.4260047999851,"[0, 0, 0]",0,197.44269739999436,199.44229429998086,,,,,,,,,,,,,999,m,2,99,r,TEST,2021_Aug_13_1443,distractmap,2020.2.10,59.942694783577224,"['Left Leg', 'Left Arm', 'Left Face', 'Right Leg', 'Right Face', 'Right Arm', 'Abdomen', 'Chest']",
6,"[0.2, 0]",0,,,,,0,16,16,16,,,,,,,,,,,,,,,,,,,,,,None,None,"[0, 0, 0]",199.45945349999238,201.45914769999217,199.45945349999238,200.45942379999906,200.44277249998413,201.4428064999811,"[0, 0, 0]",0,199.45945349999238,201.45914769999217,,,,,,,,,,,,,999,m,2,99,r,TEST,2021_Aug_13_1443,distractmap,2020.2.10,59.942694783577224,"['Left Leg', 'Left Arm', 'Left Face', 'Right Leg', 'Right Face', 'Right Arm', 'Abdomen', 'Chest']",
3,"[0.2, 0.2]",0,,,,,0,17,17,17,,,,,,,,,,,,,,,,,,,,,,None,None,"[0, 0, 0]",201.4761262999964,203.47583690000465,201.4761262999964,202.476176199998,202.45947219998925,203.45959300000686,"[0, 0, 0]",0,201.4761262999964,203.47583690000465,,,,,,,,,,,,,999,m,2,99,r,TEST,2021_Aug_13_1443,distractmap,2020.2.10,59.942694783577224,"['Left Leg', 'Left Arm', 'Left Face', 'Right Leg', 'Right Face', 'Right Arm', 'Abdomen', 'Chest']",
6,"[0.2, 0]",1,,,,,0,18,18,18,,,,,,,,,,,,,,,,,,,,,,None,None,"[0, 0, 0]",203.49287630000617,205.4924371999805,203.49287630000617,204.49281769999652,204.47614329998032,205.47622909999336,"[0, 0, 0]",0,203.49287630000617,205.4924371999805,,,,,,,,,,,,,999,m,2,99,r,TEST,2021_Aug_13_1443,distractmap,2020.2.10,59.942694783577224,"['Left Leg', 'Left Arm', 'Left Face', 'Right Leg', 'Right Face', 'Right Arm', 'Abdomen', 'Chest']",
5,"[0, 0]",0,,,,,0,19,19,19,,,,,,,,,,,,,,,,,,,,,,None,None,"[0, 0, 0]",205.50938730000053,207.50902569998289,205.50938730000053,206.50938339999993,206.49271099999896,207.49277059998713,"[0, 0, 0]",0,205.50938730000053,207.50902569998289,,,,,,,,,,,,,999,m,2,99,r,TEST,2021_Aug_13_1443,distractmap,2020.2.10,59.942694783577224,"['Left Leg', 'Left Arm', 'Left Face', 'Right Leg', 'Right Face', 'Right Arm', 'Abdomen', 'Chest']",
7,"[-0.2, -0.2]",0,,,,,0,20,20,20,,,,,,,,,,,,,,,,,,,,,,None,None,"[0, 0, 0]",207.5260935999977,209.52585390000604,207.5260935999977,208.52643649998936,208.50975909997942,209.50953419998405,"[0, 0, 0]",0,207.5260935999977,209.52585390000604,,,,,,,,,,,,,999,m,2,99,r,TEST,2021_Aug_13_1443,distractmap,2020.2.10,59.942694783577224,"['Left Leg', 'Left Arm', 'Left Face', 'Right Leg', 'Right Face', 'Right Arm', 'Abdomen', 'Chest']",
5,"[0, 0]",1,,,,,0,21,21,21,,,,,,,,,,,,,,,,,,,,,,None,None,"[0, 0, 0]",209.54285470000468,211.542491900007,209.54285470000468,210.54286089999368,210.52616789998137,211.52627010000288,"[0, 0, 0]",0,209.54285470000468,211.542491900007,,,,,,,,,,,,,999,m,2,99,r,TEST,2021_Aug_13_1443,distractmap,2020.2.10,59.942694783577224,"['Left Leg', 'Left Arm', 'Left Face', 'Right Leg', 'Right Face', 'Right Arm', 'Abdomen', 'Chest']",
1,"[-0.2, 0.2]",0,,,,,0,22,22,22,,,,,,,,,,,,,,,,,,,,,,None,None,"[0, 0, 0]",211.55953649998992,213.55927129997872,211.55953649998992,212.5595403999905,212.5428747999831,213.54290239998954,"[0, 0, 0]",0,211.55953649998992,213.55927129997872,,,,,,,,,,,,,999,m,2,99,r,TEST,2021_Aug_13_1443,distractmap,2020.2.10,59.942694783577224,"['Left Leg', 'Left Arm', 'Left Face', 'Right Leg', 'Right Face', 'Right Arm', 'Abdomen', 'Chest']",
7,"[-0.2, -0.2]",0,,,,,0,23,23,23,,,,,,,,,,,,,,,,,,,,,,None,None,"[0, 0, 0]",213.57627029999276,215.57585219998145,213.57627029999276,214.57613939998555,214.5594495999976,215.55956520000473,"[0, 0, 0]",0,213.57627029999276,215.57585219998145,,,,,,,,,,,,,999,m,2,99,r,TEST,2021_Aug_13_1443,distractmap,2020.2.10,59.942694783577224,"['Left Leg', 'Left Arm', 'Left Face', 'Right Leg', 'Right Face', 'Right Arm', 'Abdomen', 'Chest']",
9,"[0.2, -0.2]",0,,,,,0,24,24,24,,,,,,,,,,,,,,,,,,,,,,None,None,"[0, 0, 0]",215.59295150000253,217.59246859999257,215.59295150000253,216.59296019998146,216.57621499997913,217.57617929999833,"[0, 0, 0]",0,215.59295150000253,217.59246859999257,,,,,,,,,,,,,999,m,2,99,r,TEST,2021_Aug_13_1443,distractmap,2020.2.10,59.942694783577224,"['Left Leg', 'Left Arm', 'Left Face', 'Right Leg', 'Right Face', 'Right Arm', 'Abdomen', 'Chest']",
3,"[0.2, 0.2]",0,,,,,0,25,25,25,,,,,,,,,,,,,,,,,,,,,,None,None,"[0, 0, 0]",217.60952410000027,219.60925069998484,217.60952410000027,218.60959449998336,218.59291409997968,219.59295510000084,"[0, 0, 0]",0,217.60952410000027,219.60925069998484,,,,,,,,,,,,,999,m,2,99,r,TEST,2021_Aug_13_1443,distractmap,2020.2.10,59.942694783577224,"['Left Leg', 'Left Arm', 'Left Face', 'Right Leg', 'Right Face', 'Right Arm', 'Abdomen', 'Chest']",
9,"[0.2, -0.2]",1,,,,,0,26,26,26,,,,,,,,,,,,,,,,,,,,,,None,None,"[0, 0, 0]",219.6262974999845,221.62588489998598,219.6262974999845,220.62625410000328,220.60958849999588,221.60957169998437,"[0, 0, 0]",0,219.6262974999845,221.62588489998598,,,,,,,,,,,,,999,m,2,99,r,TEST,2021_Aug_13_1443,distractmap,2020.2.10,59.942694783577224,"['Left Leg', 'Left Arm', 'Left Face', 'Right Leg', 'Right Face', 'Right Arm', 'Abdomen', 'Chest']",
6,"[0.2, 0]",0,,,,,0,27,27,27,,,,,,,,,,,,,,,,,,,,,,None,None,"[0, 0, 0]",221.6429589999898,223.64281389999087,221.6429589999898,222.64301959998556,222.62624829998822,223.6264550999913,"[0, 0, 0]",0,221.6429589999898,223.64281389999087,,,,,,,,,,,,,999,m,2,99,r,TEST,2021_Aug_13_1443,distractmap,2020.2.10,59.942694783577224,"['Left Leg', 'Left Arm', 'Left Face', 'Right Leg', 'Right Face', 'Right Arm', 'Abdomen', 'Chest']",
2,"[0, 0.2]",0,,,,,0,28,28,28,,,,,,,,,,,,,,,,,,,,,,None,None,"[0, 0, 0]",223.65980920000584,225.65928309998708,223.65980920000584,224.65961569998763,224.64296789999935,225.6430197999871,"[0, 0, 0]",0,223.65980920000584,225.65928309998708,,,,,,,,,,,,,999,m,2,99,r,TEST,2021_Aug_13_1443,distractmap,2020.2.10,59.942694783577224,"['Left Leg', 'Left Arm', 'Left Face', 'Right Leg', 'Right Face', 'Right Arm', 'Abdomen', 'Chest']",
5,"[0, 0]",0,,,,,0,29,29,29,,,,,,,,,,,,,,,,,,,,,,None,None,"[0, 0, 0]",225.67628699998022,227.67590909998398,225.67628699998022,226.67641580000054,226.6596532999829,227.65964440000243,"[0, 0, 0]",0,225.67628699998022,227.67590909998398,,,,,,,,,,,,,999,m,2,99,r,TEST,2021_Aug_13_1443,distractmap,2020.2.10,59.942694783577224,"['Left Leg', 'Left Arm', 'Left Face', 'Right Leg', 'Right Face', 'Right Arm', 'Abdomen', 'Chest']",
,,,,,,,,,,,,,,,,,,,,,,,,,,,227.7081285000022,None,space,227.7081285000022,None,,,,,,,,,,,,,,,,,,,,,,,,,,999,m,2,99,r,TEST,2021_Aug_13_1443,distractmap,2020.2.10,59.942694783577224,"['Left Leg', 'Left Arm', 'Left Face', 'Right Leg', 'Right Face', 'Right Arm', 'Abdomen', 'Chest']",
5,"[0, 0]",None,0,0,0,0,,,,,285.6103855999827,None,290.49226629998884,None,290.49226629998884,291.49350579999737,291.46015259998967,292.4602443999902,1,None,None,"[0, 0, 0]",,,290.49226629998884,None,,,,,,,,,,,,,,,,,,,271.8926067999855,271.8926067999855,None,space,7.840677500003949,271.8926067999855,None,"[0, 0, 0]",,,,,999,m,2,99,r,TEST,2021_Aug_13_1443,distractmap,2020.2.10,59.942694783577224,"['Left Leg', 'Left Arm', 'Left Face', 'Right Leg', 'Right Face', 'Right Arm', 'Abdomen', 'Chest']",
5,"[0, 0]",1,0,1,1,1,,,,,,,292.4768805000058,None,292.4768805000058,293.4767715999915,293.46016739998595,294.4601696000027,0,None,None,"[0, 0, 0]",,,292.4768805000058,None,,,,,,,,,,,,,,,,,,,,,,,,,,"[0, 0, 0]",,,,,999,m,2,99,r,TEST,2021_Aug_13_1443,distractmap,2020.2.10,59.942694783577224,"['Left Leg', 'Left Arm', 'Left Face', 'Right Leg', 'Right Face', 'Right Arm', 'Abdomen', 'Chest']",
4,"[-0.2, 0]",0,0,2,2,2,,,,,,,294.47682209999766,294.47682209999766,294.47682209999766,295.47689869999886,295.4602218999935,296.4601780999801,0,None,None,"[0, 0, 0]",,,294.47682209999766,294.47682209999766,,,,,,,,,,,,,,,,,,,,,,,,,,"[0, 0, 0]",,,,,999,m,2,99,r,TEST,2021_Aug_13_1443,distractmap,2020.2.10,59.942694783577224,"['Left Leg', 'Left Arm', 'Left Face', 'Right Leg', 'Right Face', 'Right Arm', 'Abdomen', 'Chest']",
2,"[0, 0.2]",0,0,3,3,3,,,,,,,296.47683609998785,296.47683609998785,296.47683609998785,297.47682879999047,297.46020959998714,298.460251099983,0,None,None,"[0, 0, 0]",,,296.47683609998785,296.47683609998785,,,,,,,,,,,,,,,,,,,,,,,,,,"[0, 0, 0]",,,,,999,m,2,99,r,TEST,2021_Aug_13_1443,distractmap,2020.2.10,59.942694783577224,"['Left Leg', 'Left Arm', 'Left Face', 'Right Leg', 'Right Face', 'Right Arm', 'Abdomen', 'Chest']",
6,"[0.2, 0]",0,0,4,4,4,,,,,,,298.52742929998203,298.52742929998203,298.52742929998203,299.52701530000195,299.510182500002,None,0,None,None,"[0, 0, 0]",,,298.52742929998203,298.52742929998203,,,,,,,,,,,,,,,,,,,,,,,,,,"[0, 0, 0]",,,,,999,m,2,99,r,TEST,2021_Aug_13_1443,distractmap,2020.2.10,59.942694783577224,"['Left Leg', 'Left Arm', 'Left Face', 'Right Leg', 'Right Face', 'Right Arm', 'Abdomen', 'Chest']",
8,"[0, -0.2]",0,0,5,5,5,,,,,,,300.4935256000026,None,300.4935256000026,301.49352580000414,301.4768935999891,302.47696179998457,0,None,None,"[0, 0, 0]",,,300.4935256000026,None,,,,,,,,,,,,,,,,,,,,,,,,,,"[0, 0, 0]",,,,,999,m,2,99,r,TEST,2021_Aug_13_1443,distractmap,2020.2.10,59.942694783577224,"['Left Leg', 'Left Arm', 'Left Face', 'Right Leg', 'Right Face', 'Right Arm', 'Abdomen', 'Chest']",
1,"[-0.2, 0.2]",0,0,6,6,6,,,,,,,302.49355809998815,302.49355809998815,302.49355809998815,303.4935329,303.47687129999395,304.4768853999849,0,None,None,"[0, 0, 0]",,,302.49355809998815,302.49355809998815,,,,,,,,,,,,,,,,,,,,,,,,,,"[0, 0, 0]",,,,,999,m,2,99,r,TEST,2021_Aug_13_1443,distractmap,2020.2.10,59.942694783577224,"['Left Leg', 'Left Arm', 'Left Face', 'Right Leg', 'Right Face', 'Right Arm', 'Abdomen', 'Chest']",
4,"[-0.2, 0]",0,0,7,7,7,,,,,,,304.49346749999677,304.49346749999677,304.49346749999677,305.49362799999653,305.47691919998033,306.47689769999124,0,None,None,"[0, 0, 0]",,,304.49346749999677,304.49346749999677,,,,,,,,,,,,,,,,,,,,,,,,,,"[0, 0, 0]",,,,,999,m,2,99,r,TEST,2021_Aug_13_1443,distractmap,2020.2.10,59.942694783577224,"['Left Leg', 'Left Arm', 'Left Face', 'Right Leg', 'Right Face', 'Right Arm', 'Abdomen', 'Chest']",
8,"[0, -0.2]",0,0,8,8,8,,,,,,,306.49356820000685,306.49356820000685,306.49356820000685,307.49358789998223,307.4769318999897,308.4769416000054,0,None,None,"[0, 0, 0]",,,306.49356820000685,306.49356820000685,,,,,,,,,,,,,,,,,,,,,,,,,,"[0, 0, 0]",,,,,999,m,2,99,r,TEST,2021_Aug_13_1443,distractmap,2020.2.10,59.942694783577224,"['Left Leg', 'Left Arm', 'Left Face', 'Right Leg', 'Right Face', 'Right Arm', 'Abdomen', 'Chest']",
8,"[0, -0.2]",1,0,9,9,9,,,,,,,308.49360539999907,308.49360539999907,308.49360539999907,309.49358239999856,309.476906099997,310.47693539998727,0,None,None,"[0, 0, 0]",,,308.49360539999907,308.49360539999907,,,,,,,,,,,,,,,,,,,,,,,,,,"[0, 0, 0]",,,,,999,m,2,99,r,TEST,2021_Aug_13_1443,distractmap,2020.2.10,59.942694783577224,"['Left Leg', 'Left Arm', 'Left Face', 'Right Leg', 'Right Face', 'Right Arm', 'Abdomen', 'Chest']",
,,,,,,,,,,,310.4932565999916,None,,,,,,,,,,,,,,,,,,,,,,,,,,,,,,,,,,,,,,,,,50.0,314.88730942000984,,,999,m,2,99,r,TEST,2021_Aug_13_1443,distractmap,2020.2.10,59.942694783577224,"['Left Leg', 'Left Arm', 'Left Face', 'Right Leg', 'Right Face', 'Right Arm', 'Abdomen', 'Chest']",
3,"[0.2, 0.2]",None,0,0,0,0,,,,,320.6440911999962,None,328.0260431999923,None,328.0260431999923,329.0270635999914,328.9937480999797,329.99374309999985,1,None,None,"[0, 0, 0]",,,328.0260431999923,None,,,,,,,,,,,,,,,,,,,,,,,,,,"[0, 0, 0]",,,0.014214280003216118,5.0119526800117455,999,m,2,99,r,TEST,2021_Aug_13_1443,distractmap,2020.2.10,59.942694783577224,"['Left Leg', 'Left Arm', 'Left Face', 'Right Leg', 'Right Face', 'Right Arm', 'Abdomen', 'Chest']",
4,"[-0.2, 0]",0,0,1,1,1,,,,,,,330.01041019998956,None,330.01041019998956,331.0104623999796,330.9937929000007,331.9937708999787,0,None,None,"[0, 0, 0]",,,330.01041019998956,None,,,,,,,,,,,,,,,,,,,,,,,,,,"[0, 0, 0]",,,,,999,m,2,99,r,TEST,2021_Aug_13_1443,distractmap,2020.2.10,59.942694783577224,"['Left Leg', 'Left Arm', 'Left Face', 'Right Leg', 'Right Face', 'Right Arm', 'Abdomen', 'Chest']",
1,"[-0.2, 0.2]",0,0,2,2,2,,,,,,,332.0104272000026,332.0104272000026,332.0104272000026,333.01043840000057,332.99376399998437,333.9937558999809,0,None,None,"[0, 0, 0]",,,332.0104272000026,332.0104272000026,,,,,,,,,,,,,,,,,,,,,,,,,,"[0, 0, 0]",,,,,999,m,2,99,r,TEST,2021_Aug_13_1443,distractmap,2020.2.10,59.942694783577224,"['Left Leg', 'Left Arm', 'Left Face', 'Right Leg', 'Right Face', 'Right Arm', 'Abdomen', 'Chest']",
2,"[0, 0.2]",0,0,3,3,3,,,,,,,334.0104427000042,334.0104427000042,334.0104427000042,335.01039009998203,334.993765399995,335.9938213999849,0,None,None,"[0, 0, 0]",,,334.0104427000042,334.0104427000042,,,,,,,,,,,,,,,,,,,,,,,,,,"[0, 0, 0]",,,,,999,m,2,99,r,TEST,2021_Aug_13_1443,distractmap,2020.2.10,59.942694783577224,"['Left Leg', 'Left Arm', 'Left Face', 'Right Leg', 'Right Face', 'Right Arm', 'Abdomen', 'Chest']",
2,"[0, 0.2]",1,0,4,4,4,,,,,,,336.0427462999942,336.0427462999942,336.0427462999942,337.0438026000047,337.0271434999886,None,0,None,None,"[0, 0, 0]",,,336.0427462999942,336.0427462999942,,,,,,,,,,,,,,,,,,,,,,,,,,"[0, 0, 0]",,,,,999,m,2,99,r,TEST,2021_Aug_13_1443,distractmap,2020.2.10,59.942694783577224,"['Left Leg', 'Left Arm', 'Left Face', 'Right Leg', 'Right Face', 'Right Arm', 'Abdomen', 'Chest']",
5,"[0, 0]",0,0,5,5,5,,,,,,,338.0272190999822,None,338.0272190999822,339.02716919998056,339.0104586999805,340.0104927000066,0,None,None,"[0, 0, 0]",,,338.0272190999822,None,,,,,,,,,,,,,,,,,,,,,,,,,,"[0, 0, 0]",,,,,999,m,2,99,r,TEST,2021_Aug_13_1443,distractmap,2020.2.10,59.942694783577224,"['Left Leg', 'Left Arm', 'Left Face', 'Right Leg', 'Right Face', 'Right Arm', 'Abdomen', 'Chest']",
1,"[-0.2, 0.2]",0,0,6,6,6,,,,,,,340.0271841000067,340.0271841000067,340.0271841000067,341.02719180000713,341.01050449998,342.01050360000227,0,None,None,"[0, 0, 0]",,,340.0271841000067,340.0271841000067,,,,,,,,,,,,,,,,,,,,,,,,,,"[0, 0, 0]",,,,,999,m,2,99,r,TEST,2021_Aug_13_1443,distractmap,2020.2.10,59.942694783577224,"['Left Leg', 'Left Arm', 'Left Face', 'Right Leg', 'Right Face', 'Right Arm', 'Abdomen', 'Chest']",
1,"[-0.2, 0.2]",1,0,7,7,7,,,,,,,342.0271049999865,342.0271049999865,342.0271049999865,343.0274553000054,343.01075819999096,344.01051530000404,0,None,None,"[0, 0, 0]",,,342.0271049999865,342.0271049999865,,,,,,,,,,,,,,,,,,,,,,,,,,"[0, 0, 0]",,,,,999,m,2,99,r,TEST,2021_Aug_13_1443,distractmap,2020.2.10,59.942694783577224,"['Left Leg', 'Left Arm', 'Left Face', 'Right Leg', 'Right Face', 'Right Arm', 'Abdomen', 'Chest']",
8,"[0, -0.2]",0,0,8,8,8,,,,,,,344.02718809997896,344.02718809997896,344.02718809997896,345.027285499993,345.01062829999137,346.01050669999677,0,None,None,"[0, 0, 0]",,,344.02718809997896,344.02718809997896,,,,,,,,,,,,,,,,,,,,,,,,,,"[0, 0, 0]",,,,,999,m,2,99,r,TEST,2021_Aug_13_1443,distractmap,2020.2.10,59.942694783577224,"['Left Leg', 'Left Arm', 'Left Face', 'Right Leg', 'Right Face', 'Right Arm', 'Abdomen', 'Chest']",
7,"[-0.2, -0.2]",0,0,9,9,9,,,,,,,346.0272907000035,346.0272907000035,346.0272907000035,347.0271612999786,347.01050879998365,348.01059520000126,0,None,None,"[0, 0, 0]",,,346.0272907000035,346.0272907000035,,,,,,,,,,,,,,,,,,,,,,,,,,"[0, 0, 0]",,,,,999,m,2,99,r,TEST,2021_Aug_13_1443,distractmap,2020.2.10,59.942694783577224,"['Left Leg', 'Left Arm', 'Left Face', 'Right Leg', 'Right Face', 'Right Arm', 'Abdomen', 'Chest']",
,,,,,,,,,,,348.02687199998763,None,,,,,,,,,,,,,,,,,,,,,,,,,,,,,,,,,,,,,,,,,50.0,352.4204288200417,,,999,m,2,99,r,TEST,2021_Aug_13_1443,distractmap,2020.2.10,59.942694783577224,"['Left Leg', 'Left Arm', 'Left Face', 'Right Leg', 'Right Face', 'Right Arm', 'Abdomen', 'Chest']",
6,"[0.2, 0]",None,0,0,0,0,,,,,358.177426499984,None,368.0595431999827,None,368.0595431999827,369.0607374999963,369.0441603999934,None,1,None,None,"[0, 0, 0]",,,368.0595431999827,None,,,,,,,,,,,,,,,,,,,,,,,,,,"[0, 0, 0]",,,0.014964279980631545,5.013763080001809,999,m,2,99,r,TEST,2021_Aug_13_1443,distractmap,2020.2.10,59.942694783577224,"['Left Leg', 'Left Arm', 'Left Face', 'Right Leg', 'Right Face', 'Right Arm', 'Abdomen', 'Chest']",
6,"[0.2, 0]",1,0,1,1,1,,,,,,,370.0440525999875,None,370.0440525999875,371.0439386999933,371.0274234999961,372.0289022999932,0,None,None,"[0, 0, 0]",,,370.0440525999875,None,,,,,,,,,,,,,,,,,,,,,,,,,,"[0, 0, 0]",,,,,999,m,2,99,r,TEST,2021_Aug_13_1443,distractmap,2020.2.10,59.942694783577224,"['Left Leg', 'Left Arm', 'Left Face', 'Right Leg', 'Right Face', 'Right Arm', 'Abdomen', 'Chest']",
1,"[-0.2, 0.2]",0,0,2,2,2,,,,,,,372.04550979999476,372.04550979999476,372.04550979999476,373.0446791999857,373.027857899986,374.02752780000446,0,None,None,"[0, 0, 0]",,,372.04550979999476,372.04550979999476,,,,,,,,,,,,,,,,,,,,,,,,,,"[0, 0, 0]",,,,,999,m,2,99,r,TEST,2021_Aug_13_1443,distractmap,2020.2.10,59.942694783577224,"['Left Leg', 'Left Arm', 'Left Face', 'Right Leg', 'Right Face', 'Right Arm', 'Abdomen', 'Chest']",
8,"[0, -0.2]",0,0,3,3,3,,,,,,,374.0608490000013,None,374.0608490000013,375.0609625999932,375.0443205999909,376.04417300000205,0,None,None,"[0, 0, 0]",,,374.0608490000013,None,,,,,,,,,,,,,,,,,,,,,,,,,,"[0, 0, 0]",,,,,999,m,2,99,r,TEST,2021_Aug_13_1443,distractmap,2020.2.10,59.942694783577224,"['Left Leg', 'Left Arm', 'Left Face', 'Right Leg', 'Right Face', 'Right Arm', 'Abdomen', 'Chest']",
1,"[-0.2, 0.2]",0,0,4,4,4,,,,,,,376.1113508999988,376.1113508999988,376.1113508999988,377.11133499999414,377.09420389999286,None,0,None,None,"[0, 0, 0]",,,376.1113508999988,376.1113508999988,,,,,,,,,,,,,,,,,,,,,,,,,,"[0, 0, 0]",,,,,999,m,2,99,r,TEST,2021_Aug_13_1443,distractmap,2020.2.10,59.942694783577224,"['Left Leg', 'Left Arm', 'Left Face', 'Right Leg', 'Right Face', 'Right Arm', 'Abdomen', 'Chest']",
4,"[-0.2, 0]",0,0,5,5,5,,,,,,,378.07753759998013,None,378.07753759998013,379.0782297999831,379.0609535999829,380.06142280000495,0,None,None,"[0, 0, 0]",,,378.07753759998013,None,,,,,,,,,,,,,,,,,,,,,,,,,,"[0, 0, 0]",,,,,999,m,2,99,r,TEST,2021_Aug_13_1443,distractmap,2020.2.10,59.942694783577224,"['Left Leg', 'Left Arm', 'Left Face', 'Right Leg', 'Right Face', 'Right Arm', 'Abdomen', 'Chest']",
5,"[0, 0]",0,0,6,6,6,,,,,,,380.0776317999989,380.0776317999989,380.0776317999989,381.0781652999867,381.0628671000013,None,0,None,None,"[0, 0, 0]",,,380.0776317999989,380.0776317999989,,,,,,,,,,,,,,,,,,,,,,,,,,"[0, 0, 0]",,,,,999,m,2,99,r,TEST,2021_Aug_13_1443,distractmap,2020.2.10,59.942694783577224,"['Left Leg', 'Left Arm', 'Left Face', 'Right Leg', 'Right Face', 'Right Arm', 'Abdomen', 'Chest']",
7,"[-0.2, -0.2]",0,0,7,7,7,,,,,,,382.07766310000443,382.07766310000443,382.07766310000443,383.07753159999265,383.06090429998585,384.0612349000003,0,None,None,"[0, 0, 0]",,,382.07766310000443,382.07766310000443,,,,,,,,,,,,,,,,,,,,,,,,,,"[0, 0, 0]",,,,,999,m,2,99,r,TEST,2021_Aug_13_1443,distractmap,2020.2.10,59.942694783577224,"['Left Leg', 'Left Arm', 'Left Face', 'Right Leg', 'Right Face', 'Right Arm', 'Abdomen', 'Chest']",
7,"[-0.2, -0.2]",1,0,8,8,8,,,,,,,384.0781860999996,384.0781860999996,384.0781860999996,385.07812309998553,385.06154259998584,386.06110869999975,0,None,None,"[0, 0, 0]",,,384.0781860999996,384.0781860999996,,,,,,,,,,,,,,,,,,,,,,,,,,"[0, 0, 0]",,,,,999,m,2,99,r,TEST,2021_Aug_13_1443,distractmap,2020.2.10,59.942694783577224,"['Left Leg', 'Left Arm', 'Left Face', 'Right Leg', 'Right Face', 'Right Arm', 'Abdomen', 'Chest']",
7,"[-0.2, -0.2]",1,0,9,9,9,,,,,,,386.07772979998845,386.07772979998845,386.07772979998845,387.0776455999876,387.0609732999874,388.0615863999992,0,None,None,"[0, 0, 0]",,,386.07772979998845,386.07772979998845,,,,,,,,,,,,,,,,,,,,,,,,,,"[0, 0, 0]",,,,,999,m,2,99,r,TEST,2021_Aug_13_1443,distractmap,2020.2.10,59.942694783577224,"['Left Leg', 'Left Arm', 'Left Face', 'Right Leg', 'Right Face', 'Right Arm', 'Abdomen', 'Chest']",
,,,,,,,,,,,388.0773904999951,None,,,,,,,,,,,,,,,,,,,,,,,,,,,,,,,,,,,,,,,,,50.0,397.4707360200118,,,999,m,2,99,r,TEST,2021_Aug_13_1443,distractmap,2020.2.10,59.942694783577224,"['Left Leg', 'Left Arm', 'Left Face', 'Right Leg', 'Right Face', 'Right Arm', 'Abdomen', 'Chest']",
8,"[0, -0.2]",None,0,0,0,0,,,,,403.2112852999999,None,410.6098531000025,None,410.6098531000025,411.61101699998835,411.5943699000054,None,1,None,None,"[0, 0, 0]",,,410.6098531000025,None,,,,,,,,,,,,,,,,,,,,,,,,,,"[0, 0, 0]",,,0.01472957999794744,5.013004379987251,999,m,2,99,r,TEST,2021_Aug_13_1443,distractmap,2020.2.10,59.942694783577224,"['Left Leg', 'Left Arm', 'Left Face', 'Right Leg', 'Right Face', 'Right Arm', 'Abdomen', 'Chest']",
6,"[0.2, 0]",0,0,1,1,1,,,,,,,412.5944246999861,None,412.5944246999861,413.5944053999847,413.57770059999893,414.577770599979,0,None,None,"[0, 0, 0]",,,412.5944246999861,None,,,,,,,,,,,,,,,,,,,,,,,,,,"[0, 0, 0]",,,,,999,m,2,99,r,TEST,2021_Aug_13_1443,distractmap,2020.2.10,59.942694783577224,"['Left Leg', 'Left Arm', 'Left Face', 'Right Leg', 'Right Face', 'Right Arm', 'Abdomen', 'Chest']",
6,"[0.2, 0]",1,0,2,2,2,,,,,,,414.5944828999927,414.5944828999927,414.5944828999927,415.5944002000033,415.5777311999991,416.57768349998514,0,None,None,"[0, 0, 0]",,,414.5944828999927,414.5944828999927,,,,,,,,,,,,,,,,,,,,,,,,,,"[0, 0, 0]",,,,,999,m,2,99,r,TEST,2021_Aug_13_1443,distractmap,2020.2.10,59.942694783577224,"['Left Leg', 'Left Arm', 'Left Face', 'Right Leg', 'Right Face', 'Right Arm', 'Abdomen', 'Chest']",
2,"[0, 0.2]",0,0,3,3,3,,,,,,,416.59432859998196,416.59432859998196,416.59432859998196,417.5946883999859,417.5780367999978,418.57771889999276,0,None,None,"[0, 0, 0]",,,416.59432859998196,416.59432859998196,,,,,,,,,,,,,,,,,,,,,,,,,,"[0, 0, 0]",,,,,999,m,2,99,r,TEST,2021_Aug_13_1443,distractmap,2020.2.10,59.942694783577224,"['Left Leg', 'Left Arm', 'Left Face', 'Right Leg', 'Right Face', 'Right Arm', 'Abdomen', 'Chest']",
1,"[-0.2, 0.2]",0,0,4,4,4,,,,,,,418.6450902999786,418.6450902999786,418.6450902999786,419.644415799994,419.62776589998975,None,0,None,None,"[0, 0, 0]",,,418.6450902999786,418.6450902999786,,,,,,,,,,,,,,,,,,,,,,,,,,"[0, 0, 0]",,,,,999,m,2,99,r,TEST,2021_Aug_13_1443,distractmap,2020.2.10,59.942694783577224,"['Left Leg', 'Left Arm', 'Left Face', 'Right Leg', 'Right Face', 'Right Arm', 'Abdomen', 'Chest']",
6,"[0.2, 0]",0,0,5,5,5,,,,,,,420.61107439998887,None,420.61107439998887,421.611107899982,421.59443470000406,422.59442129998934,0,None,None,"[0, 0, 0]",,,420.61107439998887,None,,,,,,,,,,,,,,,,,,,,,,,,,,"[0, 0, 0]",,,,,999,m,2,99,r,TEST,2021_Aug_13_1443,distractmap,2020.2.10,59.942694783577224,"['Left Leg', 'Left Arm', 'Left Face', 'Right Leg', 'Right Face', 'Right Arm', 'Abdomen', 'Chest']",
9,"[0.2, -0.2]",0,0,6,6,6,,,,,,,422.61112149999826,422.61112149999826,422.61112149999826,423.611118300003,423.5944979999913,424.59455039998284,0,None,None,"[0, 0, 0]",,,422.61112149999826,422.61112149999826,,,,,,,,,,,,,,,,,,,,,,,,,,"[0, 0, 0]",,,,,999,m,2,99,r,TEST,2021_Aug_13_1443,distractmap,2020.2.10,59.942694783577224,"['Left Leg', 'Left Arm', 'Left Face', 'Right Leg', 'Right Face', 'Right Arm', 'Abdomen', 'Chest']",
1,"[-0.2, 0.2]",0,0,7,7,7,,,,,,,424.6111525000015,424.6111525000015,424.6111525000015,425.6111074000073,425.5944618000067,426.5944528999971,0,None,None,"[0, 0, 0]",,,424.6111525000015,424.6111525000015,,,,,,,,,,,,,,,,,,,,,,,,,,"[0, 0, 0]",,,,,999,m,2,99,r,TEST,2021_Aug_13_1443,distractmap,2020.2.10,59.942694783577224,"['Left Leg', 'Left Arm', 'Left Face', 'Right Leg', 'Right Face', 'Right Arm', 'Abdomen', 'Chest']",
6,"[0.2, 0]",0,0,8,8,8,,,,,,,426.6111386999837,426.6111386999837,426.6111386999837,427.6111951000057,427.5945238999848,428.5944954000006,0,None,None,"[0, 0, 0]",,,426.6111386999837,426.6111386999837,,,,,,,,,,,,,,,,,,,,,,,,,,"[0, 0, 0]",,,,,999,m,2,99,r,TEST,2021_Aug_13_1443,distractmap,2020.2.10,59.942694783577224,"['Left Leg', 'Left Arm', 'Left Face', 'Right Leg', 'Right Face', 'Right Arm', 'Abdomen', 'Chest']",
6,"[0.2, 0]",1,0,9,9,9,,,,,,,428.6111407999997,428.6111407999997,428.6111407999997,429.61116159998346,429.59443759999704,430.59450740000466,0,None,None,"[0, 0, 0]",,,428.6111407999997,428.6111407999997,,,,,,,,,,,,,,,,,,,,,,,,,,"[0, 0, 0]",,,,,999,m,2,99,r,TEST,2021_Aug_13_1443,distractmap,2020.2.10,59.942694783577224,"['Left Leg', 'Left Arm', 'Left Face', 'Right Leg', 'Right Face', 'Right Arm', 'Abdomen', 'Chest']",
,,,,,,,,,,,430.61084389997995,None,,,,,,,,,,,,,,,,,,,,,,,,,,,,,,,,,,,,,,,,,50.0,440.00485811999533,,,999,m,2,99,r,TEST,2021_Aug_13_1443,distractmap,2020.2.10,59.942694783577224,"['Left Leg', 'Left Arm', 'Left Face', 'Right Leg', 'Right Face', 'Right Arm', 'Abdomen', 'Chest']",
3,"[0.2, 0.2]",None,,,,,0,0,0,0,445.9431181999971,None,,,,,,,,,,,,,,,,,,,,None,None,"[0, 0, 0]",455.6768564999802,None,455.6768564999802,456.67803459998686,456.66137319998234,None,"[0, 0, 0]",1,455.6768564999802,None,,,,,,,,,,,0.014300880022346973,5.0123076800082345,999,m,2,99,r,TEST,2021_Aug_13_1443,distractmap,2020.2.10,59.942694783577224,"['Left Leg', 'Left Arm', 'Left Face', 'Right Leg', 'Right Face', 'Right Arm', 'Abdomen', 'Chest']",
3,"[0.2, 0.2]",None,,,,,0,1,1,1,,,,,,,,,,,,,,,,,,,,,,None,None,"[0, 0, 0]",457.6614019999979,459.6610074999917,457.6614019999979,458.6614188999811,458.64473189998535,459.6446916999994,"[0, 0, 0]",1,457.6614019999979,459.6610074999917,,,,,,,,,,,,,999,m,2,99,r,TEST,2021_Aug_13_1443,distractmap,2020.2.10,59.942694783577224,"['Left Leg', 'Left Arm', 'Left Face', 'Right Leg', 'Right Face', 'Right Arm', 'Abdomen', 'Chest']",
5,"[0, 0]",0,,,,,0,2,2,2,,,,,,,,,,,,,,,,,,,,,,None,None,"[0, 0, 0]",459.67807160000666,461.67771409999114,459.67807160000666,460.6780546999944,460.6614342999819,461.6614364999987,"[0, 0, 0]",0,459.67807160000666,461.67771409999114,,,,,,,,,,,,,999,m,2,99,r,TEST,2021_Aug_13_1443,distractmap,2020.2.10,59.942694783577224,"['Left Leg', 'Left Arm', 'Left Face', 'Right Leg', 'Right Face', 'Right Arm', 'Abdomen', 'Chest']",
1,"[-0.2, 0.2]",0,,,,,0,3,3,3,,,,,,,,,,,,,,,,,,,,,,None,None,"[0, 0, 0]",461.6947760999901,463.69438509998145,461.6947760999901,462.69475920000696,462.6780926999927,463.67807520000497,"[0, 0, 0]",0,461.6947760999901,463.69438509998145,,,,,,,,,,,,,999,m,2,99,r,TEST,2021_Aug_13_1443,distractmap,2020.2.10,59.942694783577224,"['Left Leg', 'Left Arm', 'Left Face', 'Right Leg', 'Right Face', 'Right Arm', 'Abdomen', 'Chest']",
5,"[0, 0]",1,,,,,0,4,4,4,,,,,,,,,,,,,,,,,,,,,,None,None,"[0, 0, 0]",463.74546750000445,None,463.74546750000445,464.7448999999906,464.7280824999907,None,"[0, 0, 0]",0,463.74546750000445,None,,,,,,,,,,,,,999,m,2,99,r,TEST,2021_Aug_13_1443,distractmap,2020.2.10,59.942694783577224,"['Left Leg', 'Left Arm', 'Left Face', 'Right Leg', 'Right Face', 'Right Arm', 'Abdomen', 'Chest']",
8,"[0, -0.2]",0,,,,,0,5,5,5,,,,,,,,,,,,,,,,,,,,,,None,None,"[0, 0, 0]",465.7280613000039,467.7276566000073,465.7280613000039,466.7281143,466.71146590000717,467.71143100000336,"[0, 0, 0]",0,465.7280613000039,467.7276566000073,,,,,,,,,,,,,999,m,2,99,r,TEST,2021_Aug_13_1443,distractmap,2020.2.10,59.942694783577224,"['Left Leg', 'Left Arm', 'Left Face', 'Right Leg', 'Right Face', 'Right Arm', 'Abdomen', 'Chest']",
5,"[0, 0]",1,,,,,0,6,6,6,,,,,,,,,,,,,,,,,,,,,,None,None,"[0, 0, 0]",467.7448025000049,469.7445429999789,467.7448025000049,468.74480719998246,468.72819160000654,469.72821589998784,"[0, 0, 0]",0,467.7448025000049,469.7445429999789,,,,,,,,,,,,,999,m,2,99,r,TEST,2021_Aug_13_1443,distractmap,2020.2.10,59.942694783577224,"['Left Leg', 'Left Arm', 'Left Face', 'Right Leg', 'Right Face', 'Right Arm', 'Abdomen', 'Chest']",
7,"[-0.2, -0.2]",0,,,,,0,7,7,7,,,,,,,,,,,,,,,,,,,,,,None,None,"[0, 0, 0]",469.76151029998437,471.7611323999881,469.76151029998437,470.7614332999801,470.74472160000005,471.7448383999872,"[0, 0, 0]",0,469.76151029998437,471.7611323999881,,,,,,,,,,,,,999,m,2,99,r,TEST,2021_Aug_13_1443,distractmap,2020.2.10,59.942694783577224,"['Left Leg', 'Left Arm', 'Left Face', 'Right Leg', 'Right Face', 'Right Arm', 'Abdomen', 'Chest']",
5,"[0, 0]",1,,,,,0,8,8,8,,,,,,,,,,,,,,,,,,,,,,None,None,"[0, 0, 0]",471.77820780000184,473.7778036999807,471.77820780000184,472.77815259998897,472.761460299982,473.76150160000543,"[0, 0, 0]",0,471.77820780000184,473.7778036999807,,,,,,,,,,,,,999,m,2,99,r,TEST,2021_Aug_13_1443,distractmap,2020.2.10,59.942694783577224,"['Left Leg', 'Left Arm', 'Left Face', 'Right Leg', 'Right Face', 'Right Arm', 'Abdomen', 'Chest']",
7,"[-0.2, -0.2]",1,,,,,0,9,9,9,,,,,,,,,,,,,,,,,,,,,,None,None,"[0, 0, 0]",473.794848199992,475.7945744000026,473.794848199992,474.7948679999972,474.77818959997967,475.7782218999928,"[0, 0, 0]",0,473.794848199992,475.7945744000026,,,,,,,,,,,,,999,m,2,99,r,TEST,2021_Aug_13_1443,distractmap,2020.2.10,59.942694783577224,"['Left Leg', 'Left Arm', 'Left Face', 'Right Leg', 'Right Face', 'Right Arm', 'Abdomen', 'Chest']",
,,,,,,,,,,,475.81121660000645,None,,,,,,,,,,,,,,,,,,,,,,,,,,,,,,,,,,,,,,,,,50.0,485.2048534200003,,,999,m,2,99,r,TEST,2021_Aug_13_1443,distractmap,2020.2.10,59.942694783577224,"['Left Leg', 'Left Arm', 'Left Face', 'Right Leg', 'Right Face', 'Right Arm', 'Abdomen', 'Chest']",
6,"[0.2, 0]",None,,,,,0,0,0,0,490.9768126999843,None,,,,,,,,,,,,,,,,,,,,None,None,"[0, 0, 0]",500.84386989998166,None,500.84386989998166,501.845080900006,501.8283642999886,None,"[0, 0, 0]",1,500.84386989998166,None,,,,,,,,,,,0.014651380013674498,5.012943180016009,999,m,2,99,r,TEST,2021_Aug_13_1443,distractmap,2020.2.10,59.942694783577224,"['Left Leg', 'Left Arm', 'Left Face', 'Right Leg', 'Right Face', 'Right Arm', 'Abdomen', 'Chest']",
1,"[-0.2, 0.2]",None,,,,,0,1,1,1,,,,,,,,,,,,,,,,,,,,,,None,None,"[0, 0, 0]",502.82848189998185,504.8280722000054,502.82848189998185,503.82837559998734,503.81170510000084,504.81175219998113,"[0, 0, 0]",1,502.82848189998185,504.8280722000054,,,,,,,,,,,,,999,m,2,99,r,TEST,2021_Aug_13_1443,distractmap,2020.2.10,59.942694783577224,"['Left Leg', 'Left Arm', 'Left Face', 'Right Leg', 'Right Face', 'Right Arm', 'Abdomen', 'Chest']",
6,"[0.2, 0]",1,,,,,0,2,2,2,,,,,,,,,,,,,,,,,,,,,,None,None,"[0, 0, 0]",504.8450770000054,506.84481039998354,504.8450770000054,505.8450879000011,505.82842419997905,506.8284693000023,"[0, 0, 0]",0,504.8450770000054,506.84481039998354,,,,,,,,,,,,,999,m,2,99,r,TEST,2021_Aug_13_1443,distractmap,2020.2.10,59.942694783577224,"['Left Leg', 'Left Arm', 'Left Face', 'Right Leg', 'Right Face', 'Right Arm', 'Abdomen', 'Chest']",
4,"[-0.2, 0]",0,,,,,0,3,3,3,,,,,,,,,,,,,,,,,,,,,,None,None,"[0, 0, 0]",506.8618123999913,508.86142040000414,506.8618123999913,507.86172719998285,507.845075899997,508.84515919999103,"[0, 0, 0]",0,506.8618123999913,508.86142040000414,,,,,,,,,,,,,999,m,2,99,r,TEST,2021_Aug_13_1443,distractmap,2020.2.10,59.942694783577224,"['Left Leg', 'Left Arm', 'Left Face', 'Right Leg', 'Right Face', 'Right Arm', 'Abdomen', 'Chest']",
1,"[-0.2, 0.2]",0,,,,,0,4,4,4,,,,,,,,,,,,,,,,,,,,,,None,None,"[0, 0, 0]",508.92902089998825,None,508.92902089998825,509.92863049998414,509.91177449998213,None,"[0, 0, 0]",0,508.92902089998825,None,,,,,,,,,,,,,999,m,2,99,r,TEST,2021_Aug_13_1443,distractmap,2020.2.10,59.942694783577224,"['Left Leg', 'Left Arm', 'Left Face', 'Right Leg', 'Right Face', 'Right Arm', 'Abdomen', 'Chest']",
8,"[0, -0.2]",0,,,,,0,5,5,5,,,,,,,,,,,,,,,,,,,,,,None,None,"[0, 0, 0]",510.89513389999047,512.8947800000024,510.89513389999047,511.8951208999788,511.8784474999993,512.878478300001,"[0, 0, 0]",0,510.89513389999047,512.8947800000024,,,,,,,,,,,,,999,m,2,99,r,TEST,2021_Aug_13_1443,distractmap,2020.2.10,59.942694783577224,"['Left Leg', 'Left Arm', 'Left Face', 'Right Leg', 'Right Face', 'Right Arm', 'Abdomen', 'Chest']",
1,"[-0.2, 0.2]",1,,,,,0,6,6,6,,,,,,,,,,,,,,,,,,,,,,None,None,"[0, 0, 0]",512.9119110000029,514.9113549999893,512.9119110000029,513.9117629999819,513.8951476000075,514.8950893000001,"[0, 0, 0]",0,512.9119110000029,514.9113549999893,,,,,,,,,,,,,999,m,2,99,r,TEST,2021_Aug_13_1443,distractmap,2020.2.10,59.942694783577224,"['Left Leg', 'Left Arm', 'Left Face', 'Right Leg', 'Right Face', 'Right Arm', 'Abdomen', 'Chest']",
8,"[0, -0.2]",1,,,,,0,7,7,7,,,,,,,,,,,,,,,,,,,,,,None,None,"[0, 0, 0]",514.9285210999951,516.9281286000041,514.9285210999951,515.9285270999826,515.9118298999965,516.9119323999912,"[0, 0, 0]",0,514.9285210999951,516.9281286000041,,,,,,,,,,,,,999,m,2,99,r,TEST,2021_Aug_13_1443,distractmap,2020.2.10,59.942694783577224,"['Left Leg', 'Left Arm', 'Left Face', 'Right Leg', 'Right Face', 'Right Arm', 'Abdomen', 'Chest']",
1,"[-0.2, 0.2]",1,,,,,0,8,8,8,,,,,,,,,,,,,,,,,,,,,,None,None,"[0, 0, 0]",516.9452406000055,518.9448088000063,516.9452406000055,517.945161199983,517.9284839000029,518.9285245999927,"[0, 0, 0]",0,516.9452406000055,518.9448088000063,,,,,,,,,,,,,999,m,2,99,r,TEST,2021_Aug_13_1443,distractmap,2020.2.10,59.942694783577224,"['Left Leg', 'Left Arm', 'Left Face', 'Right Leg', 'Right Face', 'Right Arm', 'Abdomen', 'Chest']",
6,"[0.2, 0]",0,,,,,0,9,9,9,,,,,,,,,,,,,,,,,,,,,,None,None,"[0, 0, 0]",518.9618363000045,520.9614721999969,518.9618363000045,519.9618496999901,519.9452231999894,520.9452247000008,"[0, 0, 0]",0,518.9618363000045,520.9614721999969,,,,,,,,,,,,,999,m,2,99,r,TEST,2021_Aug_13_1443,distractmap,2020.2.10,59.942694783577224,"['Left Leg', 'Left Arm', 'Left Face', 'Right Leg', 'Right Face', 'Right Arm', 'Abdomen', 'Chest']",
,,,,,,,,,,,520.9782067000051,None,,,,,,,,,,,,,,,,,,,,,,,,,,,,,,,,,,,,,,,,,50.0,530.3718533200154,,,999,m,2,99,r,TEST,2021_Aug_13_1443,distractmap,2020.2.10,59.942694783577224,"['Left Leg', 'Left Arm', 'Left Face', 'Right Leg', 'Right Face', 'Right Arm', 'Abdomen', 'Chest']",
7,"[-0.2, -0.2]",None,,,,,0,0,0,0,536.6122558999923,None,,,,,,,,,,,,,,,,,,,,None,None,"[0, 0, 0]",543.510836899979,None,543.510836899979,544.5120424999914,544.4952443999937,None,"[0, 0, 0]",1,543.510836899979,None,,,,,,,,,,,0.014676580001832917,5.01296947998344,999,m,2,99,r,TEST,2021_Aug_13_1443,distractmap,2020.2.10,59.942694783577224,"['Left Leg', 'Left Arm', 'Left Face', 'Right Leg', 'Right Face', 'Right Arm', 'Abdomen', 'Chest']",
7,"[-0.2, -0.2]",None,,,,,0,1,1,1,,,,,,,,,,,,,,,,,,,,,,None,None,"[0, 0, 0]",545.495482600003,547.4950313000008,545.495482600003,546.4952928999846,546.4786293999932,547.4787366999954,"[0, 0, 0]",1,545.495482600003,547.4950313000008,,,,,,,,,,,,,999,m,2,99,r,TEST,2021_Aug_13_1443,distractmap,2020.2.10,59.942694783577224,"['Left Leg', 'Left Arm', 'Left Face', 'Right Leg', 'Right Face', 'Right Arm', 'Abdomen', 'Chest']",
7,"[-0.2, -0.2]",1,,,,,0,2,2,2,,,,,,,,,,,,,,,,,,,,,,None,None,"[0, 0, 0]",547.512092399993,549.5117443999916,547.512092399993,548.5120493999857,548.495511599991,549.4954924999911,"[0, 0, 0]",0,547.512092399993,549.5117443999916,,,,,,,,,,,,,999,m,2,99,r,TEST,2021_Aug_13_1443,distractmap,2020.2.10,59.942694783577224,"['Left Leg', 'Left Arm', 'Left Face', 'Right Leg', 'Right Face', 'Right Arm', 'Abdomen', 'Chest']",
5,"[0, 0]",0,,,,,0,3,3,3,,,,,,,,,,,,,,,,,,,,,,None,None,"[0, 0, 0]",549.5288280999812,551.528550499992,549.5288280999812,550.5287576999981,550.5120524999802,551.5122636999877,"[0, 0, 0]",0,549.5288280999812,551.528550499992,,,,,,,,,,,,,999,m,2,99,r,TEST,2021_Aug_13_1443,distractmap,2020.2.10,59.942694783577224,"['Left Leg', 'Left Arm', 'Left Face', 'Right Leg', 'Right Face', 'Right Arm', 'Abdomen', 'Chest']",
1,"[-0.2, 0.2]",0,,,,,0,4,4,4,,,,,,,,,,,,,,,,,,,,,,None,None,"[0, 0, 0]",551.5793969999941,None,551.5793969999941,552.5789470000018,552.5455347999814,553.5453913999954,"[0, 0, 0]",0,551.5793969999941,None,,,,,,,,,,,,,999,m,2,99,r,TEST,2021_Aug_13_1443,distractmap,2020.2.10,59.942694783577224,"['Left Leg', 'Left Arm', 'Left Face', 'Right Leg', 'Right Face', 'Right Arm', 'Abdomen', 'Chest']",
6,"[0.2, 0]",0,,,,,0,5,5,5,,,,,,,,,,,,,,,,,,,,,,None,None,"[0, 0, 0]",553.5620754999982,555.5616596000036,553.5620754999982,554.5621019999962,554.5454796999984,555.5453877999971,"[0, 0, 0]",0,553.5620754999982,555.5616596000036,,,,,,,,,,,,,999,m,2,99,r,TEST,2021_Aug_13_1443,distractmap,2020.2.10,59.942694783577224,"['Left Leg', 'Left Arm', 'Left Face', 'Right Leg', 'Right Face', 'Right Arm', 'Abdomen', 'Chest']",
1,"[-0.2, 0.2]",1,,,,,0,6,6,6,,,,,,,,,,,,,,,,,,,,,,None,None,"[0, 0, 0]",555.5786896999925,557.5784478999849,555.5786896999925,556.5788876999868,556.5621532999794,557.5621286999958,"[0, 0, 0]",0,555.5786896999925,557.5784478999849,,,,,,,,,,,,,999,m,2,99,r,TEST,2021_Aug_13_1443,distractmap,2020.2.10,59.942694783577224,"['Left Leg', 'Left Arm', 'Left Face', 'Right Leg', 'Right Face', 'Right Arm', 'Abdomen', 'Chest']",
7,"[-0.2, -0.2]",0,,,,,0,7,7,7,,,,,,,,,,,,,,,,,,,,,,None,None,"[0, 0, 0]",557.5954920999939,559.5951731999812,557.5954920999939,558.5954736999993,558.5788445000071,559.5787222999788,"[0, 0, 0]",0,557.5954920999939,559.5951731999812,,,,,,,,,,,,,999,m,2,99,r,TEST,2021_Aug_13_1443,distractmap,2020.2.10,59.942694783577224,"['Left Leg', 'Left Arm', 'Left Face', 'Right Leg', 'Right Face', 'Right Arm', 'Abdomen', 'Chest']",
6,"[0.2, 0]",0,,,,,0,8,8,8,,,,,,,,,,,,,,,,,,,,,,None,None,"[0, 0, 0]",559.6121227999975,561.6118016999972,559.6121227999975,560.61213579998,560.5954939000076,561.5955175999843,"[0, 0, 0]",0,559.6121227999975,561.6118016999972,,,,,,,,,,,,,999,m,2,99,r,TEST,2021_Aug_13_1443,distractmap,2020.2.10,59.942694783577224,"['Left Leg', 'Left Arm', 'Left Face', 'Right Leg', 'Right Face', 'Right Arm', 'Abdomen', 'Chest']",
7,"[-0.2, -0.2]",1,,,,,0,9,9,9,,,,,,,,,,,,,,,,,,,,,,None,None,"[0, 0, 0]",561.6288622999855,563.6284900000028,561.6288622999855,562.6288379000034,562.6122350999794,563.6122420000029,"[0, 0, 0]",0,561.6288622999855,563.6284900000028,,,,,,,,,,,,,999,m,2,99,r,TEST,2021_Aug_13_1443,distractmap,2020.2.10,59.942694783577224,"['Left Leg', 'Left Arm', 'Left Face', 'Right Leg', 'Right Face', 'Right Arm', 'Abdomen', 'Chest']",
,,,,,,,,,,,563.6452435999818,None,,,,,,,,,,,,,,,,,,,,,,,,,,,,,,,,,,,,,,,,,50.0,568.0386914199917,,,999,m,2,99,r,TEST,2021_Aug_13_1443,distractmap,2020.2.10,59.942694783577224,"['Left Leg', 'Left Arm', 'Left Face', 'Right Leg', 'Right Face', 'Right Arm', 'Abdomen', 'Chest']",
4,"[-0.2, 0]",None,,,,,0,0,0,0,573.7958316000004,None,,,,,,,,,,,,,,,,,,,,None,None,"[0, 0, 0]",583.6779094999947,None,583.6779094999947,584.6790826999932,584.6623774000036,None,"[0, 0, 0]",1,583.6779094999947,None,,,,,,,,,,,0.014713080017827451,5.013113280030666,999,m,2,99,r,TEST,2021_Aug_13_1443,distractmap,2020.2.10,59.942694783577224,"['Left Leg', 'Left Arm', 'Left Face', 'Right Leg', 'Right Face', 'Right Arm', 'Abdomen', 'Chest']",
5,"[0, 0]",None,,,,,0,1,1,1,,,,,,,,,,,,,,,,,,,,,,None,None,"[0, 0, 0]",585.662341999996,587.6619715999987,585.662341999996,586.662431899982,586.6457255999849,587.6455933999969,"[0, 0, 0]",1,585.662341999996,587.6619715999987,,,,,,,,,,,,,999,m,2,99,r,TEST,2021_Aug_13_1443,distractmap,2020.2.10,59.942694783577224,"['Left Leg', 'Left Arm', 'Left Face', 'Right Leg', 'Right Face', 'Right Arm', 'Abdomen', 'Chest']",
6,"[0.2, 0]",0,,,,,0,2,2,2,,,,,,,,,,,,,,,,,,,,,,None,None,"[0, 0, 0]",587.6789902999881,589.6786964999919,587.6789902999881,588.6790222999989,588.6624050999817,589.6624110999983,"[0, 0, 0]",0,587.6789902999881,589.6786964999919,,,,,,,,,,,,,999,m,2,99,r,TEST,2021_Aug_13_1443,distractmap,2020.2.10,59.942694783577224,"['Left Leg', 'Left Arm', 'Left Face', 'Right Leg', 'Right Face', 'Right Arm', 'Abdomen', 'Chest']",
1,"[-0.2, 0.2]",0,,,,,0,3,3,3,,,,,,,,,,,,,,,,,,,,,,None,None,"[0, 0, 0]",589.6957129999937,591.6953199999989,589.6957129999937,590.695791599981,590.6790508999838,591.6790627999872,"[0, 0, 0]",0,589.6957129999937,591.6953199999989,,,,,,,,,,,,,999,m,2,99,r,TEST,2021_Aug_13_1443,distractmap,2020.2.10,59.942694783577224,"['Left Leg', 'Left Arm', 'Left Face', 'Right Leg', 'Right Face', 'Right Arm', 'Abdomen', 'Chest']",
6,"[0.2, 0]",1,,,,,0,4,4,4,,,,,,,,,,,,,,,,,,,,,,None,None,"[0, 0, 0]",591.744870399998,None,591.744870399998,592.7457447999914,592.7290906999842,None,"[0, 0, 0]",0,591.744870399998,None,,,,,,,,,,,,,999,m,2,99,r,TEST,2021_Aug_13_1443,distractmap,2020.2.10,59.942694783577224,"['Left Leg', 'Left Arm', 'Left Face', 'Right Leg', 'Right Face', 'Right Arm', 'Abdomen', 'Chest']",
1,"[-0.2, 0.2]",1,,,,,0,5,5,5,,,,,,,,,,,,,,,,,,,,,,None,None,"[0, 0, 0]",593.7290813,595.7286662999832,593.7290813,594.7290329999814,594.7124453999859,595.7123950999812,"[0, 0, 0]",0,593.7290813,595.7286662999832,,,,,,,,,,,,,999,m,2,99,r,TEST,2021_Aug_13_1443,distractmap,2020.2.10,59.942694783577224,"['Left Leg', 'Left Arm', 'Left Face', 'Right Leg', 'Right Face', 'Right Arm', 'Abdomen', 'Chest']",
2,"[0, 0.2]",0,,,,,0,6,6,6,,,,,,,,,,,,,,,,,,,,,,None,None,"[0, 0, 0]",595.7457748999877,597.7454125999939,595.7457748999877,596.7457912999962,596.7291287999833,597.7290312999976,"[0, 0, 0]",0,595.7457748999877,597.7454125999939,,,,,,,,,,,,,999,m,2,99,r,TEST,2021_Aug_13_1443,distractmap,2020.2.10,59.942694783577224,"['Left Leg', 'Left Arm', 'Left Face', 'Right Leg', 'Right Face', 'Right Arm', 'Abdomen', 'Chest']",
3,"[0.2, 0.2]",0,,,,,0,7,7,7,,,,,,,,,,,,,,,,,,,,,,None,None,"[0, 0, 0]",597.7626266999869,599.7620825000049,597.7626266999869,598.7623813999817,598.7457434999815,599.7457775000075,"[0, 0, 0]",0,597.7626266999869,599.7620825000049,,,,,,,,,,,,,999,m,2,99,r,TEST,2021_Aug_13_1443,distractmap,2020.2.10,59.942694783577224,"['Left Leg', 'Left Arm', 'Left Face', 'Right Leg', 'Right Face', 'Right Arm', 'Abdomen', 'Chest']",
6,"[0.2, 0]",0,,,,,0,8,8,8,,,,,,,,,,,,,,,,,,,,,,None,None,"[0, 0, 0]",599.7791828000045,601.7787374999898,599.7791828000045,600.7792262999865,600.762547899998,601.7624599999981,"[0, 0, 0]",0,599.7791828000045,601.7787374999898,,,,,,,,,,,,,999,m,2,99,r,TEST,2021_Aug_13_1443,distractmap,2020.2.10,59.942694783577224,"['Left Leg', 'Left Arm', 'Left Face', 'Right Leg', 'Right Face', 'Right Arm', 'Abdomen', 'Chest']",
3,"[0.2, 0.2]",1,,,,,0,9,9,9,,,,,,,,,,,,,,,,,,,,,,None,None,"[0, 0, 0]",601.7957843999902,603.795355899987,601.7957843999902,602.7958018000063,602.7791461999877,603.7791166999959,"[0, 0, 0]",0,601.7957843999902,603.795355899987,,,,,,,,,,,,,999,m,2,99,r,TEST,2021_Aug_13_1443,distractmap,2020.2.10,59.942694783577224,"['Left Leg', 'Left Arm', 'Left Face', 'Right Leg', 'Right Face', 'Right Arm', 'Abdomen', 'Chest']",
,,,,,,,,,,,603.8121524000017,None,,,,,,,,,,,,,,,,,,,,,,,,,,,,,,,,,,,,,,,,,50.0,608.2055550200166,,,999,m,2,99,r,TEST,2021_Aug_13_1443,distractmap,2020.2.10,59.942694783577224,"['Left Leg', 'Left Arm', 'Left Face', 'Right Leg', 'Right Face', 'Right Arm', 'Abdomen', 'Chest']",
2,"[0, 0.2]",None,,,,,0,0,0,0,613.9628584999882,None,,,,,,,,,,,,,,,,,,,,None,None,"[0, 0, 0]",618.8447605999827,None,618.8447605999827,619.8460598999809,619.829266899993,None,"[0, 0, 0]",1,618.8447605999827,None,,,,,,,,,,,0.014829980005742982,5.01322568001342,999,m,2,99,r,TEST,2021_Aug_13_1443,distractmap,2020.2.10,59.942694783577224,"['Left Leg', 'Left Arm', 'Left Face', 'Right Leg', 'Right Face', 'Right Arm', 'Abdomen', 'Chest']",
5,"[0, 0]",None,,,,,0,1,1,1,,,,,,,,,,,,,,,,,,,,,,None,None,"[0, 0, 0]",620.8293039999844,622.8289234999975,620.8293039999844,621.8292546999874,621.8126040000061,622.8126854999864,"[0, 0, 0]",1,620.8293039999844,622.8289234999975,,,,,,,,,,,,,999,m,2,99,r,TEST,2021_Aug_13_1443,distractmap,2020.2.10,59.942694783577224,"['Left Leg', 'Left Arm', 'Left Face', 'Right Leg', 'Right Face', 'Right Arm', 'Abdomen', 'Chest']",
6,"[0.2, 0]",0,,,,,0,2,2,2,,,,,,,,,,,,,,,,,,,,,,None,None,"[0, 0, 0]",622.8459509999957,624.8456564999942,622.8459509999957,623.8459799999837,623.829324899998,624.8293545999913,"[0, 0, 0]",0,622.8459509999957,624.8456564999942,,,,,,,,,,,,,999,m,2,99,r,TEST,2021_Aug_13_1443,distractmap,2020.2.10,59.942694783577224,"['Left Leg', 'Left Arm', 'Left Face', 'Right Leg', 'Right Face', 'Right Arm', 'Abdomen', 'Chest']",
1,"[-0.2, 0.2]",0,,,,,0,3,3,3,,,,,,,,,,,,,,,,,,,,,,None,None,"[0, 0, 0]",624.8626923999982,626.8622740999854,624.8626923999982,625.8627092999814,625.8460691999935,626.8459467999928,"[0, 0, 0]",0,624.8626923999982,626.8622740999854,,,,,,,,,,,,,999,m,2,99,r,TEST,2021_Aug_13_1443,distractmap,2020.2.10,59.942694783577224,"['Left Leg', 'Left Arm', 'Left Face', 'Right Leg', 'Right Face', 'Right Arm', 'Abdomen', 'Chest']",
6,"[0.2, 0]",1,,,,,0,4,4,4,,,,,,,,,,,,,,,,,,,,,,None,None,"[0, 0, 0]",626.9132282999926,None,626.9132282999926,627.9127143999794,627.8960072000045,None,"[0, 0, 0]",0,626.9132282999926,None,,,,,,,,,,,,,999,m,2,99,r,TEST,2021_Aug_13_1443,distractmap,2020.2.10,59.942694783577224,"['Left Leg', 'Left Arm', 'Left Face', 'Right Leg', 'Right Face', 'Right Arm', 'Abdomen', 'Chest']",
6,"[0.2, 0]",0,,,,,0,5,5,5,,,,,,,,,,,,,,,,,,,,,,None,None,"[0, 0, 0]",628.8959902999923,630.8956379999872,628.8959902999923,629.8960103999998,629.8793393999804,630.8793731000042,"[0, 0, 0]",0,628.8959902999923,630.8956379999872,,,,,,,,,,,,,999,m,2,99,r,TEST,2021_Aug_13_1443,distractmap,2020.2.10,59.942694783577224,"['Left Leg', 'Left Arm', 'Left Face', 'Right Leg', 'Right Face', 'Right Arm', 'Abdomen', 'Chest']",
9,"[0.2, -0.2]",0,,,,,0,6,6,6,,,,,,,,,,,,,,,,,,,,,,None,None,"[0, 0, 0]",630.9127092999988,632.9124222999963,630.9127092999988,631.9127267999866,631.8960534999787,632.8960433999891,"[0, 0, 0]",0,630.9127092999988,632.9124222999963,,,,,,,,,,,,,999,m,2,99,r,TEST,2021_Aug_13_1443,distractmap,2020.2.10,59.942694783577224,"['Left Leg', 'Left Arm', 'Left Face', 'Right Leg', 'Right Face', 'Right Arm', 'Abdomen', 'Chest']",
6,"[0.2, 0]",1,,,,,0,7,7,7,,,,,,,,,,,,,,,,,,,,,,None,None,"[0, 0, 0]",632.9293834999844,634.9290070999996,632.9293834999844,633.9294166000036,633.9127205999976,634.9127523000061,"[0, 0, 0]",0,632.9293834999844,634.9290070999996,,,,,,,,,,,,,999,m,2,99,r,TEST,2021_Aug_13_1443,distractmap,2020.2.10,59.942694783577224,"['Left Leg', 'Left Arm', 'Left Face', 'Right Leg', 'Right Face', 'Right Arm', 'Abdomen', 'Chest']",
3,"[0.2, 0.2]",0,,,,,0,8,8,8,,,,,,,,,,,,,,,,,,,,,,None,None,"[0, 0, 0]",634.9460885000008,636.9457007999881,634.9460885000008,635.9461127999821,635.9294112999924,636.9294190999935,"[0, 0, 0]",0,634.9460885000008,636.9457007999881,,,,,,,,,,,,,999,m,2,99,r,TEST,2021_Aug_13_1443,distractmap,2020.2.10,59.942694783577224,"['Left Leg', 'Left Arm', 'Left Face', 'Right Leg', 'Right Face', 'Right Arm', 'Abdomen', 'Chest']",
9,"[0.2, -0.2]",0,,,,,0,9,9,9,,,,,,,,,,,,,,,,,,,,,,None,None,"[0, 0, 0]",636.9627413999988,638.9624336999841,636.9627413999988,637.9627989,637.9461214999901,638.946099599998,"[0, 0, 0]",0,636.9627413999988,638.9624336999841,,,,,,,,,,,,,999,m,2,99,r,TEST,2021_Aug_13_1443,distractmap,2020.2.10,59.942694783577224,"['Left Leg', 'Left Arm', 'Left Face', 'Right Leg', 'Right Face', 'Right Arm', 'Abdomen', 'Chest']",
,,,,,,,,,,,638.9791459999979,None,,,,,,,,,,,,,,,,,,,,,,,,,,,,,,,,,,,,,,,,,50.0,643.3730415200116,,,999,m,2,99,r,TEST,2021_Aug_13_1443,distractmap,2020.2.10,59.942694783577224,"['Left Leg', 'Left Arm', 'Left Face', 'Right Leg', 'Right Face', 'Right Arm', 'Abdomen', 'Chest']",
3,"[0.2, 0.2]",None,,,,,0,0,0,0,649.630053300003,None,,,,,,,,,,,,,,,,,,,,None,None,"[0, 0, 0]",659.0117802000022,None,659.0117802000022,660.012822299992,659.9961314999964,None,"[0, 0, 0]",1,659.0117802000022,None,,,,,,,,,,,0.014339379995362833,5.0123809799843,999,m,2,99,r,TEST,2021_Aug_13_1443,distractmap,2020.2.10,59.942694783577224,"['Left Leg', 'Left Arm', 'Left Face', 'Right Leg', 'Right Face', 'Right Arm', 'Abdomen', 'Chest']",
9,"[0.2, -0.2]",None,,,,,0,1,1,1,,,,,,,,,,,,,,,,,,,,,,None,None,"[0, 0, 0]",660.9963078000001,662.9959360999928,660.9963078000001,661.9962181999872,661.9795941000048,662.9795931999979,"[0, 0, 0]",1,660.9963078000001,662.9959360999928,,,,,,,,,,,,,999,m,2,99,r,TEST,2021_Aug_13_1443,distractmap,2020.2.10,59.942694783577224,"['Left Leg', 'Left Arm', 'Left Face', 'Right Leg', 'Right Face', 'Right Arm', 'Abdomen', 'Chest']",
3,"[0.2, 0.2]",1,,,,,0,2,2,2,,,,,,,,,,,,,,,,,,,,,,None,None,"[0, 0, 0]",663.0129551999853,665.0124712999968,663.0129551999853,664.0129738999822,663.9963121000037,664.9961928999983,"[0, 0, 0]",0,663.0129551999853,665.0124712999968,,,,,,,,,,,,,999,m,2,99,r,TEST,2021_Aug_13_1443,distractmap,2020.2.10,59.942694783577224,"['Left Leg', 'Left Arm', 'Left Face', 'Right Leg', 'Right Face', 'Right Arm', 'Abdomen', 'Chest']",
7,"[-0.2, -0.2]",0,,,,,0,3,3,3,,,,,,,,,,,,,,,,,,,,,,None,None,"[0, 0, 0]",665.0295973999891,667.0293092000065,665.0295973999891,666.0296262000047,666.0129833999963,667.0130343000055,"[0, 0, 0]",0,665.0295973999891,667.0293092000065,,,,,,,,,,,,,999,m,2,99,r,TEST,2021_Aug_13_1443,distractmap,2020.2.10,59.942694783577224,"['Left Leg', 'Left Arm', 'Left Face', 'Right Leg', 'Right Face', 'Right Arm', 'Abdomen', 'Chest']",
8,"[0, -0.2]",0,,,,,0,4,4,4,,,,,,,,,,,,,,,,,,,,,,None,None,"[0, 0, 0]",667.1136360999953,None,667.1136360999953,668.1130236999888,668.0963415000006,None,"[0, 0, 0]",0,667.1136360999953,None,,,,,,,,,,,,,999,m,2,99,r,TEST,2021_Aug_13_1443,distractmap,2020.2.10,59.942694783577224,"['Left Leg', 'Left Arm', 'Left Face', 'Right Leg', 'Right Face', 'Right Arm', 'Abdomen', 'Chest']",
4,"[-0.2, 0]",0,,,,,0,5,5,5,,,,,,,,,,,,,,,,,,,,,,None,None,"[0, 0, 0]",669.0630169000069,671.0626835000003,669.0630169000069,670.0630086000019,670.0463326000026,671.046345699986,"[0, 0, 0]",0,669.0630169000069,671.0626835000003,,,,,,,,,,,,,999,m,2,99,r,TEST,2021_Aug_13_1443,distractmap,2020.2.10,59.942694783577224,"['Left Leg', 'Left Arm', 'Left Face', 'Right Leg', 'Right Face', 'Right Arm', 'Abdomen', 'Chest']",
4,"[-0.2, 0]",0,,,,,0,6,6,6,,,,,,,,,,,,,,,,,,,,,,None,None,"[0, 0, 0]",671.0797099999909,673.0793228999828,671.0797099999909,672.0797634999908,672.0630521999847,673.063023499999,"[0, 0, 0]",0,671.0797099999909,673.0793228999828,,,,,,,,,,,,,999,m,2,99,r,TEST,2021_Aug_13_1443,distractmap,2020.2.10,59.942694783577224,"['Left Leg', 'Left Arm', 'Left Face', 'Right Leg', 'Right Face', 'Right Arm', 'Abdomen', 'Chest']",
1,"[-0.2, 0.2]",0,,,,,0,7,7,7,,,,,,,,,,,,,,,,,,,,,,None,None,"[0, 0, 0]",673.096346699982,675.095940500003,673.096346699982,674.0963561999961,674.0797225999995,675.0796757999924,"[0, 0, 0]",0,673.096346699982,675.095940500003,,,,,,,,,,,,,999,m,2,99,r,TEST,2021_Aug_13_1443,distractmap,2020.2.10,59.942694783577224,"['Left Leg', 'Left Arm', 'Left Face', 'Right Leg', 'Right Face', 'Right Arm', 'Abdomen', 'Chest']",
4,"[-0.2, 0]",1,,,,,0,8,8,8,,,,,,,,,,,,,,,,,,,,,,None,None,"[0, 0, 0]",675.1130645999801,677.1128110999998,675.1130645999801,676.1130605999788,676.096383199998,677.0964725999802,"[0, 0, 0]",0,675.1130645999801,677.1128110999998,,,,,,,,,,,,,999,m,2,99,r,TEST,2021_Aug_13_1443,distractmap,2020.2.10,59.942694783577224,"['Left Leg', 'Left Arm', 'Left Face', 'Right Leg', 'Right Face', 'Right Arm', 'Abdomen', 'Chest']",
8,"[0, -0.2]",0,,,,,0,9,9,9,,,,,,,,,,,,,,,,,,,,,,None,None,"[0, 0, 0]",677.1297959999938,679.1294433999865,677.1297959999938,678.1297245000023,678.1130677000037,679.1130594999995,"[0, 0, 0]",0,677.1297959999938,679.1294433999865,,,,,,,,,,,,,999,m,2,99,r,TEST,2021_Aug_13_1443,distractmap,2020.2.10,59.942694783577224,"['Left Leg', 'Left Arm', 'Left Face', 'Right Leg', 'Right Face', 'Right Arm', 'Abdomen', 'Chest']",
,,,,,,,,,,,679.1460594999953,None,,,,,,,,,,,,,,,,,,,,,,,,,,,,,,,,,,,,,,,,,50.0,688.5400146200263,,,999,m,2,99,r,TEST,2021_Aug_13_1443,distractmap,2020.2.10,59.942694783577224,"['Left Leg', 'Left Arm', 'Left Face', 'Right Leg', 'Right Face', 'Right Arm', 'Abdomen', 'Chest']",
2,"[0, 0.2]",None,,,,,0,0,0,0,694.2954357999843,None,,,,,,,,,,,,,,,,,,,,None,None,"[0, 0, 0]",701.6787410999823,None,701.6787410999823,702.6799052999995,702.6631841000053,None,"[0, 0, 0]",1,701.6787410999823,None,,,,,,,,,,,0.014492079993942752,5.012705579982139,999,m,2,99,r,TEST,2021_Aug_13_1443,distractmap,2020.2.10,59.942694783577224,"['Left Leg', 'Left Arm', 'Left Face', 'Right Leg', 'Right Face', 'Right Arm', 'Abdomen', 'Chest']",
5,"[0, 0]",None,,,,,0,1,1,1,,,,,,,,,,,,,,,,,,,,,,None,None,"[0, 0, 0]",703.663175099995,705.6629058999824,703.663175099995,704.663238499983,704.6466288999945,705.646639899991,"[0, 0, 0]",1,703.663175099995,705.6629058999824,,,,,,,,,,,,,999,m,2,99,r,TEST,2021_Aug_13_1443,distractmap,2020.2.10,59.942694783577224,"['Left Leg', 'Left Arm', 'Left Face', 'Right Leg', 'Right Face', 'Right Arm', 'Abdomen', 'Chest']",
3,"[0.2, 0.2]",0,,,,,0,2,2,2,,,,,,,,,,,,,,,,,,,,,,None,None,"[0, 0, 0]",705.6800029999868,707.6794960999978,705.6800029999868,706.6799948999833,706.6633513999986,707.6632067000028,"[0, 0, 0]",0,705.6800029999868,707.6794960999978,,,,,,,,,,,,,999,m,2,99,r,TEST,2021_Aug_13_1443,distractmap,2020.2.10,59.942694783577224,"['Left Leg', 'Left Arm', 'Left Face', 'Right Leg', 'Right Face', 'Right Arm', 'Abdomen', 'Chest']",
5,"[0, 0]",1,,,,,0,3,3,3,,,,,,,,,,,,,,,,,,,,,,None,None,"[0, 0, 0]",707.6966606999922,709.6962735999841,707.6966606999922,708.6966566999909,708.679954399995,709.6799560000072,"[0, 0, 0]",0,707.6966606999922,709.6962735999841,,,,,,,,,,,,,999,m,2,99,r,TEST,2021_Aug_13_1443,distractmap,2020.2.10,59.942694783577224,"['Left Leg', 'Left Arm', 'Left Face', 'Right Leg', 'Right Face', 'Right Arm', 'Abdomen', 'Chest']",
2,"[0, 0.2]",0,,,,,0,4,4,4,,,,,,,,,,,,,,,,,,,,,,None,None,"[0, 0, 0]",709.7638257999788,None,709.7638257999788,710.7634673999855,710.7466762999829,None,"[0, 0, 0]",0,709.7638257999788,None,,,,,,,,,,,,,999,m,2,99,r,TEST,2021_Aug_13_1443,distractmap,2020.2.10,59.942694783577224,"['Left Leg', 'Left Arm', 'Left Face', 'Right Leg', 'Right Face', 'Right Arm', 'Abdomen', 'Chest']",
8,"[0, -0.2]",0,,,,,0,5,5,5,,,,,,,,,,,,,,,,,,,,,,None,None,"[0, 0, 0]",711.7300260000047,713.7296232999943,711.7300260000047,712.7299763000046,712.7133294999949,713.7133415999997,"[0, 0, 0]",0,711.7300260000047,713.7296232999943,,,,,,,,,,,,,999,m,2,99,r,TEST,2021_Aug_13_1443,distractmap,2020.2.10,59.942694783577224,"['Left Leg', 'Left Arm', 'Left Face', 'Right Leg', 'Right Face', 'Right Arm', 'Abdomen', 'Chest']",
4,"[-0.2, 0]",0,,,,,0,6,6,6,,,,,,,,,,,,,,,,,,,,,,None,None,"[0, 0, 0]",713.7466843999864,715.7463257999916,713.7466843999864,714.7469363999844,714.7302391999983,715.7300263999787,"[0, 0, 0]",0,713.7466843999864,715.7463257999916,,,,,,,,,,,,,999,m,2,99,r,TEST,2021_Aug_13_1443,distractmap,2020.2.10,59.942694783577224,"['Left Leg', 'Left Arm', 'Left Face', 'Right Leg', 'Right Face', 'Right Arm', 'Abdomen', 'Chest']",
8,"[0, -0.2]",1,,,,,0,7,7,7,,,,,,,,,,,,,,,,,,,,,,None,None,"[0, 0, 0]",715.7635263999982,717.7629671999894,715.7635263999982,716.7633479999786,716.7467117999913,717.746702400007,"[0, 0, 0]",0,715.7635263999982,717.7629671999894,,,,,,,,,,,,,999,m,2,99,r,TEST,2021_Aug_13_1443,distractmap,2020.2.10,59.942694783577224,"['Left Leg', 'Left Arm', 'Left Face', 'Right Leg', 'Right Face', 'Right Arm', 'Abdomen', 'Chest']",
7,"[-0.2, -0.2]",0,,,,,0,8,8,8,,,,,,,,,,,,,,,,,,,,,,None,None,"[0, 0, 0]",717.7800677999912,719.779681999993,717.7800677999912,718.7800038999994,718.7633900000073,719.7633646999893,"[0, 0, 0]",0,717.7800677999912,719.779681999993,,,,,,,,,,,,,999,m,2,99,r,TEST,2021_Aug_13_1443,distractmap,2020.2.10,59.942694783577224,"['Left Leg', 'Left Arm', 'Left Face', 'Right Leg', 'Right Face', 'Right Arm', 'Abdomen', 'Chest']",
8,"[0, -0.2]",1,,,,,0,9,9,9,,,,,,,,,,,,,,,,,,,,,,None,None,"[0, 0, 0]",719.796814500005,721.7963320999988,719.796814500005,720.796677699982,720.780030199996,721.7800339999958,"[0, 0, 0]",0,719.796814500005,721.7963320999988,,,,,,,,,,,,,999,m,2,99,r,TEST,2021_Aug_13_1443,distractmap,2020.2.10,59.942694783577224,"['Left Leg', 'Left Arm', 'Left Face', 'Right Leg', 'Right Face', 'Right Arm', 'Abdomen', 'Chest']",
,,,,,,,,,,,721.8130469000025,None,,,,,,,,,,,,,,,,,,,,,,,,,,,,,,,,,,,,,,,,,50.0,728.7069830200053,,,999,m,2,99,r,TEST,2021_Aug_13_1443,distractmap,2020.2.10,59.942694783577224,"['Left Leg', 'Left Arm', 'Left Face', 'Right Leg', 'Right Face', 'Right Arm', 'Abdomen', 'Chest']",
2,"[0, 0.2]",None,,,,,0,0,0,0,734.5637416999962,None,,,,,,,,,,,,,,,,,,,,None,None,"[0, 0, 0]",739.3457045999821,None,739.3457045999821,740.3468653000018,740.3303086999804,None,"[0, 0, 0]",1,739.3457045999821,None,,,,,,,,,,,0.014372780016856268,5.012365580012556,999,m,2,99,r,TEST,2021_Aug_13_1443,distractmap,2020.2.10,59.942694783577224,"['Left Leg', 'Left Arm', 'Left Face', 'Right Leg', 'Right Face', 'Right Arm', 'Abdomen', 'Chest']",
2,"[0, 0.2]",None,,,,,0,1,1,1,,,,,,,,,,,,,,,,,,,,,,None,None,"[0, 0, 0]",741.3302116999985,743.3297280999832,741.3302116999985,742.3302575999987,742.3135600999813,743.3135085999966,"[0, 0, 0]",1,741.3302116999985,743.3297280999832,,,,,,,,,,,,,999,m,2,99,r,TEST,2021_Aug_13_1443,distractmap,2020.2.10,59.942694783577224,"['Left Leg', 'Left Arm', 'Left Face', 'Right Leg', 'Right Face', 'Right Arm', 'Abdomen', 'Chest']",
2,"[0, 0.2]",1,,,,,0,2,2,2,,,,,,,,,,,,,,,,,,,,,,None,None,"[0, 0, 0]",743.3468016999832,745.3465353999927,743.3468016999832,744.347021900001,744.3303314999794,745.3302592999826,"[0, 0, 0]",0,743.3468016999832,745.3465353999927,,,,,,,,,,,,,999,m,2,99,r,TEST,2021_Aug_13_1443,distractmap,2020.2.10,59.942694783577224,"['Left Leg', 'Left Arm', 'Left Face', 'Right Leg', 'Right Face', 'Right Arm', 'Abdomen', 'Chest']",
8,"[0, -0.2]",0,,,,,0,3,3,3,,,,,,,,,,,,,,,,,,,,,,None,None,"[0, 0, 0]",745.3636101000011,747.3631932999997,745.3636101000011,746.3635286999925,746.3467985999887,747.3468110999966,"[0, 0, 0]",0,745.3636101000011,747.3631932999997,,,,,,,,,,,,,999,m,2,99,r,TEST,2021_Aug_13_1443,distractmap,2020.2.10,59.942694783577224,"['Left Leg', 'Left Arm', 'Left Face', 'Right Leg', 'Right Face', 'Right Arm', 'Abdomen', 'Chest']",
2,"[0, 0.2]",1,,,,,0,4,4,4,,,,,,,,,,,,,,,,,,,,,,None,None,"[0, 0, 0]",747.4308660999814,None,747.4308660999814,748.4304126999923,748.413642200001,None,"[0, 0, 0]",0,747.4308660999814,None,,,,,,,,,,,,,999,m,2,99,r,TEST,2021_Aug_13_1443,distractmap,2020.2.10,59.942694783577224,"['Left Leg', 'Left Arm', 'Left Face', 'Right Leg', 'Right Face', 'Right Arm', 'Abdomen', 'Chest']",
5,"[0, 0]",0,,,,,0,5,5,5,,,,,,,,,,,,,,,,,,,,,,None,None,"[0, 0, 0]",749.3969085999997,751.3966046999849,749.3969085999997,750.3969438000058,750.3802892999956,751.3802937,"[0, 0, 0]",0,749.3969085999997,751.3966046999849,,,,,,,,,,,,,999,m,2,99,r,TEST,2021_Aug_13_1443,distractmap,2020.2.10,59.942694783577224,"['Left Leg', 'Left Arm', 'Left Face', 'Right Leg', 'Right Face', 'Right Arm', 'Abdomen', 'Chest']",
1,"[-0.2, 0.2]",0,,,,,0,6,6,6,,,,,,,,,,,,,,,,,,,,,,None,None,"[0, 0, 0]",751.4136627999833,753.4132716000022,751.4136627999833,752.413705599989,752.3971363999881,753.3969593000074,"[0, 0, 0]",0,751.4136627999833,753.4132716000022,,,,,,,,,,,,,999,m,2,99,r,TEST,2021_Aug_13_1443,distractmap,2020.2.10,59.942694783577224,"['Left Leg', 'Left Arm', 'Left Face', 'Right Leg', 'Right Face', 'Right Arm', 'Abdomen', 'Chest']",
1,"[-0.2, 0.2]",0,,,,,0,7,7,7,,,,,,,,,,,,,,,,,,,,,,None,None,"[0, 0, 0]",753.4303553999925,755.4299634000054,753.4303553999925,754.4303197999834,754.4136697000067,755.413673300005,"[0, 0, 0]",0,753.4303553999925,755.4299634000054,,,,,,,,,,,,,999,m,2,99,r,TEST,2021_Aug_13_1443,distractmap,2020.2.10,59.942694783577224,"['Left Leg', 'Left Arm', 'Left Face', 'Right Leg', 'Right Face', 'Right Arm', 'Abdomen', 'Chest']",
6,"[0.2, 0]",0,,,,,0,8,8,8,,,,,,,,,,,,,,,,,,,,,,None,None,"[0, 0, 0]",755.4469963999873,757.4466291999852,755.4469963999873,756.4470423999883,756.4303249999939,757.430320799991,"[0, 0, 0]",0,755.4469963999873,757.4466291999852,,,,,,,,,,,,,999,m,2,99,r,TEST,2021_Aug_13_1443,distractmap,2020.2.10,59.942694783577224,"['Left Leg', 'Left Arm', 'Left Face', 'Right Leg', 'Right Face', 'Right Arm', 'Abdomen', 'Chest']",
1,"[-0.2, 0.2]",1,,,,,0,9,9,9,,,,,,,,,,,,,,,,,,,,,,None,None,"[0, 0, 0]",757.4637176999822,759.463562799996,757.4637176999822,758.4637155999953,758.4470143999788,759.4472834999906,"[0, 0, 0]",0,757.4637176999822,759.463562799996,,,,,,,,,,,,,999,m,2,99,r,TEST,2021_Aug_13_1443,distractmap,2020.2.10,59.942694783577224,"['Left Leg', 'Left Arm', 'Left Face', 'Right Leg', 'Right Face', 'Right Arm', 'Abdomen', 'Chest']",
,,,,,,,,,,,759.4802560999815,None,,,,,,,,,,,,,,,,,,,,,,,,,,,,,,,,,,,,,,,,,50.0,763.8739562199917,,,999,m,2,99,r,TEST,2021_Aug_13_1443,distractmap,2020.2.10,59.942694783577224,"['Left Leg', 'Left Arm', 'Left Face', 'Right Leg', 'Right Face', 'Right Arm', 'Abdomen', 'Chest']",
9,"[0.2, -0.2]",None,0,0,0,0,,,,,769.780771699996,None,779.5460243999842,None,779.5460243999842,780.5471747999836,780.530508099997,None,1,None,None,"[0, 0, 0]",,,779.5460243999842,None,,,,,,,,,,,,,,,,,,,,,,,,,,"[0, 0, 0]",,,0.014376080012880266,5.012403480039211,999,m,2,99,r,TEST,2021_Aug_13_1443,distractmap,2020.2.10,59.942694783577224,"['Left Leg', 'Left Arm', 'Left Face', 'Right Leg', 'Right Face', 'Right Arm', 'Abdomen', 'Chest']",
9,"[0.2, -0.2]",1,0,1,1,1,,,,,,,781.5305243000039,None,781.5305243000039,782.5305107999884,782.51376479998,783.5138088999956,0,None,None,"[0, 0, 0]",,,781.5305243000039,None,,,,,,,,,,,,,,,,,,,,,,,,,,"[0, 0, 0]",,,,,999,m,2,99,r,TEST,2021_Aug_13_1443,distractmap,2020.2.10,59.942694783577224,"['Left Leg', 'Left Arm', 'Left Face', 'Right Leg', 'Right Face', 'Right Arm', 'Abdomen', 'Chest']",
9,"[0.2, -0.2]",1,0,2,2,2,,,,,,,783.5305268999946,783.5305268999946,783.5305268999946,784.5305309999967,784.5139007999969,785.5139109999873,0,None,None,"[0, 0, 0]",,,783.5305268999946,783.5305268999946,,,,,,,,,,,,,,,,,,,,,,,,,,"[0, 0, 0]",,,,,999,m,2,99,r,TEST,2021_Aug_13_1443,distractmap,2020.2.10,59.942694783577224,"['Left Leg', 'Left Arm', 'Left Face', 'Right Leg', 'Right Face', 'Right Arm', 'Abdomen', 'Chest']",
3,"[0.2, 0.2]",0,0,3,3,3,,,,,,,785.5305515000073,785.5305515000073,785.5305515000073,786.5305973000068,786.5139357000007,787.5138091999979,0,None,None,"[0, 0, 0]",,,785.5305515000073,785.5305515000073,,,,,,,,,,,,,,,,,,,,,,,,,,"[0, 0, 0]",,,,,999,m,2,99,r,TEST,2021_Aug_13_1443,distractmap,2020.2.10,59.942694783577224,"['Left Leg', 'Left Arm', 'Left Face', 'Right Leg', 'Right Face', 'Right Arm', 'Abdomen', 'Chest']",
5,"[0, 0]",0,0,4,4,4,,,,,,,787.5645181,787.5645181,787.5645181,788.5639951000048,788.5472418999998,None,0,None,None,"[0, 0, 0]",,,787.5645181,787.5645181,,,,,,,,,,,,,,,,,,,,,,,,,,"[0, 0, 0]",,,,,999,m,2,99,r,TEST,2021_Aug_13_1443,distractmap,2020.2.10,59.942694783577224,"['Left Leg', 'Left Arm', 'Left Face', 'Right Leg', 'Right Face', 'Right Arm', 'Abdomen', 'Chest']",
4,"[-0.2, 0]",0,0,5,5,5,,,,,,,789.5473331999965,None,789.5473331999965,790.5472565999953,790.5306243999803,791.5306021999859,0,None,None,"[0, 0, 0]",,,789.5473331999965,None,,,,,,,,,,,,,,,,,,,,,,,,,,"[0, 0, 0]",,,,,999,m,2,99,r,TEST,2021_Aug_13_1443,distractmap,2020.2.10,59.942694783577224,"['Left Leg', 'Left Arm', 'Left Face', 'Right Leg', 'Right Face', 'Right Arm', 'Abdomen', 'Chest']",
9,"[0.2, -0.2]",0,0,6,6,6,,,,,,,791.5472636999912,791.5472636999912,791.5472636999912,792.5472067999945,792.5305608999915,793.5305370999849,0,None,None,"[0, 0, 0]",,,791.5472636999912,791.5472636999912,,,,,,,,,,,,,,,,,,,,,,,,,,"[0, 0, 0]",,,,,999,m,2,99,r,TEST,2021_Aug_13_1443,distractmap,2020.2.10,59.942694783577224,"['Left Leg', 'Left Arm', 'Left Face', 'Right Leg', 'Right Face', 'Right Arm', 'Abdomen', 'Chest']",
6,"[0.2, 0]",0,0,7,7,7,,,,,,,793.5473753999977,793.5473753999977,793.5473753999977,794.547160999995,794.5305190999934,795.5306670999853,0,None,None,"[0, 0, 0]",,,793.5473753999977,793.5473753999977,,,,,,,,,,,,,,,,,,,,,,,,,,"[0, 0, 0]",,,,,999,m,2,99,r,TEST,2021_Aug_13_1443,distractmap,2020.2.10,59.942694783577224,"['Left Leg', 'Left Arm', 'Left Face', 'Right Leg', 'Right Face', 'Right Arm', 'Abdomen', 'Chest']",
2,"[0, 0.2]",0,0,8,8,8,,,,,,,795.5473306000058,795.5473306000058,795.5473306000058,796.5473193000071,796.5306524999905,797.5306197000027,0,None,None,"[0, 0, 0]",,,795.5473306000058,795.5473306000058,,,,,,,,,,,,,,,,,,,,,,,,,,"[0, 0, 0]",,,,,999,m,2,99,r,TEST,2021_Aug_13_1443,distractmap,2020.2.10,59.942694783577224,"['Left Leg', 'Left Arm', 'Left Face', 'Right Leg', 'Right Face', 'Right Arm', 'Abdomen', 'Chest']",
2,"[0, 0.2]",1,0,9,9,9,,,,,,,797.547285299981,797.547285299981,797.547285299981,798.5472917000006,798.5306723999965,799.5305971000053,0,None,None,"[0, 0, 0]",,,797.547285299981,797.547285299981,,,,,,,,,,,,,,,,,,,,,,,,,,"[0, 0, 0]",,,,,999,m,2,99,r,TEST,2021_Aug_13_1443,distractmap,2020.2.10,59.942694783577224,"['Left Leg', 'Left Arm', 'Left Face', 'Right Leg', 'Right Face', 'Right Arm', 'Abdomen', 'Chest']",
,,,,,,,,,,,799.5469800999854,None,,,,,,,,,,,,,,,,,,,,,,,,,,,,,,,,,,,,,,,,,50.0,803.9410293200053,,,999,m,2,99,r,TEST,2021_Aug_13_1443,distractmap,2020.2.10,59.942694783577224,"['Left Leg', 'Left Arm', 'Left Face', 'Right Leg', 'Right Face', 'Right Arm', 'Abdomen', 'Chest']",
2,"[0, 0.2]",None,0,0,0,0,,,,,809.8143547999789,None,814.5796202000056,None,814.5796202000056,815.5808604999911,815.5641030999832,None,1,None,None,"[0, 0, 0]",,,814.5796202000056,None,,,,,,,,,,,,,,,,,,,,,,,,,,"[0, 0, 0]",,,0.014331479993415996,5.012366179988021,999,m,2,99,r,TEST,2021_Aug_13_1443,distractmap,2020.2.10,59.942694783577224,"['Left Leg', 'Left Arm', 'Left Face', 'Right Leg', 'Right Face', 'Right Arm', 'Abdomen', 'Chest']",
8,"[0, -0.2]",0,0,1,1,1,,,,,,,816.5641281999997,None,816.5641281999997,817.564166600001,817.5475299999816,818.5474881999835,0,None,None,"[0, 0, 0]",,,816.5641281999997,None,,,,,,,,,,,,,,,,,,,,,,,,,,"[0, 0, 0]",,,,,999,m,2,99,r,TEST,2021_Aug_13_1443,distractmap,2020.2.10,59.942694783577224,"['Left Leg', 'Left Arm', 'Left Face', 'Right Leg', 'Right Face', 'Right Arm', 'Abdomen', 'Chest']",
1,"[-0.2, 0.2]",0,0,2,2,2,,,,,,,818.5641669000033,818.5641669000033,818.5641669000033,819.5641388999938,819.5474888999888,820.5475634000031,0,None,None,"[0, 0, 0]",,,818.5641669000033,818.5641669000033,,,,,,,,,,,,,,,,,,,,,,,,,,"[0, 0, 0]",,,,,999,m,2,99,r,TEST,2021_Aug_13_1443,distractmap,2020.2.10,59.942694783577224,"['Left Leg', 'Left Arm', 'Left Face', 'Right Leg', 'Right Face', 'Right Arm', 'Abdomen', 'Chest']",
2,"[0, 0.2]",0,0,3,3,3,,,,,,,820.5642076999939,820.5642076999939,820.5642076999939,821.5640784999996,821.5474492000067,822.5475183999806,0,None,None,"[0, 0, 0]",,,820.5642076999939,820.5642076999939,,,,,,,,,,,,,,,,,,,,,,,,,,"[0, 0, 0]",,,,,999,m,2,99,r,TEST,2021_Aug_13_1443,distractmap,2020.2.10,59.942694783577224,"['Left Leg', 'Left Arm', 'Left Face', 'Right Leg', 'Right Face', 'Right Arm', 'Abdomen', 'Chest']",
2,"[0, 0.2]",1,0,4,4,4,,,,,,,822.6146932999836,822.6146932999836,822.6146932999836,823.6141868999985,823.5975475999876,None,0,None,None,"[0, 0, 0]",,,822.6146932999836,822.6146932999836,,,,,,,,,,,,,,,,,,,,,,,,,,"[0, 0, 0]",,,,,999,m,2,99,r,TEST,2021_Aug_13_1443,distractmap,2020.2.10,59.942694783577224,"['Left Leg', 'Left Arm', 'Left Face', 'Right Leg', 'Right Face', 'Right Arm', 'Abdomen', 'Chest']",
7,"[-0.2, -0.2]",0,0,5,5,5,,,,,,,824.5808590999804,None,824.5808590999804,825.5808634999848,825.5641938000044,826.564198099979,0,None,None,"[0, 0, 0]",,,824.5808590999804,None,,,,,,,,,,,,,,,,,,,,,,,,,,"[0, 0, 0]",,,,,999,m,2,99,r,TEST,2021_Aug_13_1443,distractmap,2020.2.10,59.942694783577224,"['Left Leg', 'Left Arm', 'Left Face', 'Right Leg', 'Right Face', 'Right Arm', 'Abdomen', 'Chest']",
9,"[0.2, -0.2]",0,0,6,6,6,,,,,,,826.5808674999862,826.5808674999862,826.5808674999862,827.5809011999809,827.5642476000066,828.5642228999932,0,None,None,"[0, 0, 0]",,,826.5808674999862,826.5808674999862,,,,,,,,,,,,,,,,,,,,,,,,,,"[0, 0, 0]",,,,,999,m,2,99,r,TEST,2021_Aug_13_1443,distractmap,2020.2.10,59.942694783577224,"['Left Leg', 'Left Arm', 'Left Face', 'Right Leg', 'Right Face', 'Right Arm', 'Abdomen', 'Chest']",
9,"[0.2, -0.2]",1,0,7,7,7,,,,,,,828.5808509000053,828.5808509000053,828.5808509000053,829.5808930000057,829.5642265999923,830.564238299994,0,None,None,"[0, 0, 0]",,,828.5808509000053,828.5808509000053,,,,,,,,,,,,,,,,,,,,,,,,,,"[0, 0, 0]",,,,,999,m,2,99,r,TEST,2021_Aug_13_1443,distractmap,2020.2.10,59.942694783577224,"['Left Leg', 'Left Arm', 'Left Face', 'Right Leg', 'Right Face', 'Right Arm', 'Abdomen', 'Chest']",
4,"[-0.2, 0]",0,0,8,8,8,,,,,,,830.5808991999947,830.5808991999947,830.5808991999947,831.580875899992,831.5642323000066,832.5642098999815,0,None,None,"[0, 0, 0]",,,830.5808991999947,830.5808991999947,,,,,,,,,,,,,,,,,,,,,,,,,,"[0, 0, 0]",,,,,999,m,2,99,r,TEST,2021_Aug_13_1443,distractmap,2020.2.10,59.942694783577224,"['Left Leg', 'Left Arm', 'Left Face', 'Right Leg', 'Right Face', 'Right Arm', 'Abdomen', 'Chest']",
5,"[0, 0]",0,0,9,9,9,,,,,,,832.580905299983,832.580905299983,832.580905299983,833.5808888000029,833.5642395000032,834.5643536999996,0,None,None,"[0, 0, 0]",,,832.580905299983,832.580905299983,,,,,,,,,,,,,,,,,,,,,,,,,,"[0, 0, 0]",,,,,999,m,2,99,r,TEST,2021_Aug_13_1443,distractmap,2020.2.10,59.942694783577224,"['Left Leg', 'Left Arm', 'Left Face', 'Right Leg', 'Right Face', 'Right Arm', 'Abdomen', 'Chest']",
,,,,,,,,,,,834.580622599984,None,,,,,,,,,,,,,,,,,,,,,,,,,,,,,,,,,,,,,,,,,50.0,838.973922420002,,,999,m,2,99,r,TEST,2021_Aug_13_1443,distractmap,2020.2.10,59.942694783577224,"['Left Leg', 'Left Arm', 'Left Face', 'Right Leg', 'Right Face', 'Right Arm', 'Abdomen', 'Chest']",
2,"[0, 0.2]",None,0,0,0,0,,,,,844.8481336999976,None,852.1132155999949,None,852.1132155999949,853.1143600000069,853.0979053000046,None,1,None,None,"[0, 0, 0]",,,852.1132155999949,None,,,,,,,,,,,,,,,,,,,,,,,,,,"[0, 0, 0]",,,0.014907980017596856,5.013402580021648,999,m,2,99,r,TEST,2021_Aug_13_1443,distractmap,2020.2.10,59.942694783577224,"['Left Leg', 'Left Arm', 'Left Face', 'Right Leg', 'Right Face', 'Right Arm', 'Abdomen', 'Chest']",
2,"[0, 0.2]",1,0,1,1,1,,,,,,,854.097772899986,None,854.097772899986,855.0977909000067,855.081079800002,856.0810797000013,0,None,None,"[0, 0, 0]",,,854.097772899986,None,,,,,,,,,,,,,,,,,,,,,,,,,,"[0, 0, 0]",,,,,999,m,2,99,r,TEST,2021_Aug_13_1443,distractmap,2020.2.10,59.942694783577224,"['Left Leg', 'Left Arm', 'Left Face', 'Right Leg', 'Right Face', 'Right Arm', 'Abdomen', 'Chest']",
1,"[-0.2, 0.2]",0,0,2,2,2,,,,,,,856.0977825000009,856.0977825000009,856.0977825000009,857.0977309999871,857.0810836000019,858.0810752999969,0,None,None,"[0, 0, 0]",,,856.0977825000009,856.0977825000009,,,,,,,,,,,,,,,,,,,,,,,,,,"[0, 0, 0]",,,,,999,m,2,99,r,TEST,2021_Aug_13_1443,distractmap,2020.2.10,59.942694783577224,"['Left Leg', 'Left Arm', 'Left Face', 'Right Leg', 'Right Face', 'Right Arm', 'Abdomen', 'Chest']",
2,"[0, 0.2]",0,0,3,3,3,,,,,,,858.0977755000058,858.0977755000058,858.0977755000058,859.0978616999928,859.0810894999886,860.081093899993,0,None,None,"[0, 0, 0]",,,858.0977755000058,858.0977755000058,,,,,,,,,,,,,,,,,,,,,,,,,,"[0, 0, 0]",,,,,999,m,2,99,r,TEST,2021_Aug_13_1443,distractmap,2020.2.10,59.942694783577224,"['Left Leg', 'Left Arm', 'Left Face', 'Right Leg', 'Right Face', 'Right Arm', 'Abdomen', 'Chest']",
2,"[0, 0.2]",1,0,4,4,4,,,,,,,860.1316685999918,860.1316685999918,860.1316685999918,861.1311597999884,861.1144660999998,None,0,None,None,"[0, 0, 0]",,,860.1316685999918,860.1316685999918,,,,,,,,,,,,,,,,,,,,,,,,,,"[0, 0, 0]",,,,,999,m,2,99,r,TEST,2021_Aug_13_1443,distractmap,2020.2.10,59.942694783577224,"['Left Leg', 'Left Arm', 'Left Face', 'Right Leg', 'Right Face', 'Right Arm', 'Abdomen', 'Chest']",
4,"[-0.2, 0]",0,0,5,5,5,,,,,,,862.1143431999953,None,862.1143431999953,863.1144809999969,863.097909300006,864.0979096999799,0,None,None,"[0, 0, 0]",,,862.1143431999953,None,,,,,,,,,,,,,,,,,,,,,,,,,,"[0, 0, 0]",,,,,999,m,2,99,r,TEST,2021_Aug_13_1443,distractmap,2020.2.10,59.942694783577224,"['Left Leg', 'Left Arm', 'Left Face', 'Right Leg', 'Right Face', 'Right Arm', 'Abdomen', 'Chest']",
6,"[0.2, 0]",0,0,6,6,6,,,,,,,864.1147060999938,864.1147060999938,864.1147060999938,865.1144836999883,865.0978381999885,866.0979210999794,0,None,None,"[0, 0, 0]",,,864.1147060999938,864.1147060999938,,,,,,,,,,,,,,,,,,,,,,,,,,"[0, 0, 0]",,,,,999,m,2,99,r,TEST,2021_Aug_13_1443,distractmap,2020.2.10,59.942694783577224,"['Left Leg', 'Left Arm', 'Left Face', 'Right Leg', 'Right Face', 'Right Arm', 'Abdomen', 'Chest']",
8,"[0, -0.2]",0,0,7,7,7,,,,,,,866.1146005000046,866.1146005000046,866.1146005000046,867.1144832999853,867.0978494999872,868.0978750000068,0,None,None,"[0, 0, 0]",,,866.1146005000046,866.1146005000046,,,,,,,,,,,,,,,,,,,,,,,,,,"[0, 0, 0]",,,,,999,m,2,99,r,TEST,2021_Aug_13_1443,distractmap,2020.2.10,59.942694783577224,"['Left Leg', 'Left Arm', 'Left Face', 'Right Leg', 'Right Face', 'Right Arm', 'Abdomen', 'Chest']",
9,"[0.2, -0.2]",0,0,8,8,8,,,,,,,868.1145369999867,868.1145369999867,868.1145369999867,869.1144666000037,869.0977897999983,870.097786600003,0,None,None,"[0, 0, 0]",,,868.1145369999867,868.1145369999867,,,,,,,,,,,,,,,,,,,,,,,,,,"[0, 0, 0]",,,,,999,m,2,99,r,TEST,2021_Aug_13_1443,distractmap,2020.2.10,59.942694783577224,"['Left Leg', 'Left Arm', 'Left Face', 'Right Leg', 'Right Face', 'Right Arm', 'Abdomen', 'Chest']",
9,"[0.2, -0.2]",1,0,9,9,9,,,,,,,870.114547300007,870.114547300007,870.114547300007,871.1145351000014,871.0978419999883,872.097880699992,0,None,None,"[0, 0, 0]",,,870.114547300007,870.114547300007,,,,,,,,,,,,,,,,,,,,,,,,,,"[0, 0, 0]",,,,,999,m,2,99,r,TEST,2021_Aug_13_1443,distractmap,2020.2.10,59.942694783577224,"['Left Leg', 'Left Arm', 'Left Face', 'Right Leg', 'Right Face', 'Right Arm', 'Abdomen', 'Chest']",
,,,,,,,,,,,872.1141934999905,None,,,,,,,,,,,,,,,,,,,,,,,,,,,,,,,,,,,,,,,,,50.0,881.507970220031,,,999,m,2,99,r,TEST,2021_Aug_13_1443,distractmap,2020.2.10,59.942694783577224,"['Left Leg', 'Left Arm', 'Left Face', 'Right Leg', 'Right Face', 'Right Arm', 'Abdomen', 'Chest']",
4,"[-0.2, 0]",None,0,0,0,0,,,,,887.3650538999937,None,897.1468804999895,None,897.1468804999895,898.1480209000001,898.1313552999927,None,1,None,None,"[0, 0, 0]",,,897.1468804999895,None,,,,,,,,,,,,,,,,,,,,,,,,,,"[0, 0, 0]",,,0.014542479970259592,5.012718079990009,999,m,2,99,r,TEST,2021_Aug_13_1443,distractmap,2020.2.10,59.942694783577224,"['Left Leg', 'Left Arm', 'Left Face', 'Right Leg', 'Right Face', 'Right Arm', 'Abdomen', 'Chest']",
7,"[-0.2, -0.2]",0,0,1,1,1,,,,,,,899.1315165999986,None,899.1315165999986,900.1314190999838,900.1147241999861,901.1147752999968,0,None,None,"[0, 0, 0]",,,899.1315165999986,None,,,,,,,,,,,,,,,,,,,,,,,,,,"[0, 0, 0]",,,,,999,m,2,99,r,TEST,2021_Aug_13_1443,distractmap,2020.2.10,59.942694783577224,"['Left Leg', 'Left Arm', 'Left Face', 'Right Leg', 'Right Face', 'Right Arm', 'Abdomen', 'Chest']",
7,"[-0.2, -0.2]",1,0,2,2,2,,,,,,,901.1314460999856,901.1314460999856,901.1314460999856,902.1314498999855,902.1148112999799,903.1148163999896,0,None,None,"[0, 0, 0]",,,901.1314460999856,901.1314460999856,,,,,,,,,,,,,,,,,,,,,,,,,,"[0, 0, 0]",,,,,999,m,2,99,r,TEST,2021_Aug_13_1443,distractmap,2020.2.10,59.942694783577224,"['Left Leg', 'Left Arm', 'Left Face', 'Right Leg', 'Right Face', 'Right Arm', 'Abdomen', 'Chest']",
4,"[-0.2, 0]",0,0,3,3,3,,,,,,,903.1314396999951,903.1314396999951,903.1314396999951,904.1314705999976,904.1148231999832,905.114791,0,None,None,"[0, 0, 0]",,,903.1314396999951,903.1314396999951,,,,,,,,,,,,,,,,,,,,,,,,,,"[0, 0, 0]",,,,,999,m,2,99,r,TEST,2021_Aug_13_1443,distractmap,2020.2.10,59.942694783577224,"['Left Leg', 'Left Arm', 'Left Face', 'Right Leg', 'Right Face', 'Right Arm', 'Abdomen', 'Chest']",
8,"[0, -0.2]",0,0,4,4,4,,,,,,,905.1485695999872,905.1485695999872,905.1485695999872,906.1482327999838,906.1314517999999,907.1314809999894,0,None,None,"[0, 0, 0]",,,905.1485695999872,905.1485695999872,,,,,,,,,,,,,,,,,,,,,,,,,,"[0, 0, 0]",,,,,999,m,2,99,r,TEST,2021_Aug_13_1443,distractmap,2020.2.10,59.942694783577224,"['Left Leg', 'Left Arm', 'Left Face', 'Right Leg', 'Right Face', 'Right Arm', 'Abdomen', 'Chest']",
4,"[-0.2, 0]",0,0,5,5,5,,,,,,,907.1481302999891,None,907.1481302999891,908.1481465999968,908.1315303999872,909.1317197000026,0,None,None,"[0, 0, 0]",,,907.1481302999891,None,,,,,,,,,,,,,,,,,,,,,,,,,,"[0, 0, 0]",,,,,999,m,2,99,r,TEST,2021_Aug_13_1443,distractmap,2020.2.10,59.942694783577224,"['Left Leg', 'Left Arm', 'Left Face', 'Right Leg', 'Right Face', 'Right Arm', 'Abdomen', 'Chest']",
7,"[-0.2, -0.2]",0,0,6,6,6,,,,,,,909.1483704999846,909.1483704999846,909.1483704999846,910.1481648999907,910.1315070999844,911.1315278999973,0,None,None,"[0, 0, 0]",,,909.1483704999846,909.1483704999846,,,,,,,,,,,,,,,,,,,,,,,,,,"[0, 0, 0]",,,,,999,m,2,99,r,TEST,2021_Aug_13_1443,distractmap,2020.2.10,59.942694783577224,"['Left Leg', 'Left Arm', 'Left Face', 'Right Leg', 'Right Face', 'Right Arm', 'Abdomen', 'Chest']",
6,"[0.2, 0]",0,0,7,7,7,,,,,,,911.148245599994,911.148245599994,911.148245599994,912.1481938999787,912.131550399994,913.1315365000046,0,None,None,"[0, 0, 0]",,,911.148245599994,911.148245599994,,,,,,,,,,,,,,,,,,,,,,,,,,"[0, 0, 0]",,,,,999,m,2,99,r,TEST,2021_Aug_13_1443,distractmap,2020.2.10,59.942694783577224,"['Left Leg', 'Left Arm', 'Left Face', 'Right Leg', 'Right Face', 'Right Arm', 'Abdomen', 'Chest']",
6,"[0.2, 0]",1,0,8,8,8,,,,,,,913.1481901999796,913.1481901999796,913.1481901999796,914.1482100999856,914.1315382999892,915.1315618999943,0,None,None,"[0, 0, 0]",,,913.1481901999796,913.1481901999796,,,,,,,,,,,,,,,,,,,,,,,,,,"[0, 0, 0]",,,,,999,m,2,99,r,TEST,2021_Aug_13_1443,distractmap,2020.2.10,59.942694783577224,"['Left Leg', 'Left Arm', 'Left Face', 'Right Leg', 'Right Face', 'Right Arm', 'Abdomen', 'Chest']",
1,"[-0.2, 0.2]",0,0,9,9,9,,,,,,,915.1481459999923,915.1481459999923,915.1481459999923,916.148185500002,916.1315821000026,917.1315800999873,0,None,None,"[0, 0, 0]",,,915.1481459999923,915.1481459999923,,,,,,,,,,,,,,,,,,,,,,,,,,"[0, 0, 0]",,,,,999,m,2,99,r,TEST,2021_Aug_13_1443,distractmap,2020.2.10,59.942694783577224,"['Left Leg', 'Left Arm', 'Left Face', 'Right Leg', 'Right Face', 'Right Arm', 'Abdomen', 'Chest']",
,,,,,,,,,,,917.1478642000002,None,,,,,,,,,,,,,,,,,,,,,,,,,,,,,,,,,,,,,,,,,50.0,926.5419762200036,,,999,m,2,99,r,TEST,2021_Aug_13_1443,distractmap,2020.2.10,59.942694783577224,"['Left Leg', 'Left Arm', 'Left Face', 'Right Leg', 'Right Face', 'Right Arm', 'Abdomen', 'Chest']",
5,"[0, 0]",None,0,0,0,0,,,,,972.0136947999999,None,976.7975192999875,None,976.7975192999875,977.7987116999866,977.7820487999998,None,1,None,None,"[0, 0, 0]",,,976.7975192999875,None,,,,,,,,,,,,,,,,,,,965.3158233999857,965.3158233999857,None,space,0.8179392000020016,965.3158233999857,None,"[0, 0, 0]",,,0.01419457999872975,5.011961979995249,999,m,2,99,r,TEST,2021_Aug_13_1443,distractmap,2020.2.10,59.942694783577224,"['Left Leg', 'Left Arm', 'Left Face', 'Right Leg', 'Right Face', 'Right Arm', 'Abdomen', 'Chest']",
5,"[0, 0]",1,0,1,1,1,,,,,,,978.782026300003,None,978.782026300003,979.7820122999838,979.7653850000061,980.7653917999996,0,None,None,"[0, 0, 0]",,,978.782026300003,None,,,,,,,,,,,,,,,,,,,,,,,,,,"[0, 0, 0]",,,,,999,m,2,99,r,TEST,2021_Aug_13_1443,distractmap,2020.2.10,59.942694783577224,"['Left Leg', 'Left Arm', 'Left Face', 'Right Leg', 'Right Face', 'Right Arm', 'Abdomen', 'Chest']",
4,"[-0.2, 0]",0,0,2,2,2,,,,,,,980.7820881999796,980.7820881999796,980.7820881999796,981.7820912000025,981.7654058999906,982.7654293999949,0,None,None,"[0, 0, 0]",,,980.7820881999796,980.7820881999796,,,,,,,,,,,,,,,,,,,,,,,,,,"[0, 0, 0]",,,,,999,m,2,99,r,TEST,2021_Aug_13_1443,distractmap,2020.2.10,59.942694783577224,"['Left Leg', 'Left Arm', 'Left Face', 'Right Leg', 'Right Face', 'Right Arm', 'Abdomen', 'Chest']",
2,"[0, 0.2]",0,0,3,3,3,,,,,,,982.7820768999809,982.7820768999809,982.7820768999809,983.7821000999829,983.7654062999936,984.7652944999863,0,None,None,"[0, 0, 0]",,,982.7820768999809,982.7820768999809,,,,,,,,,,,,,,,,,,,,,,,,,,"[0, 0, 0]",,,,,999,m,2,99,r,TEST,2021_Aug_13_1443,distractmap,2020.2.10,59.942694783577224,"['Left Leg', 'Left Arm', 'Left Face', 'Right Leg', 'Right Face', 'Right Arm', 'Abdomen', 'Chest']",
