square,location,corrAns,runSeq,TaskT1Loop.thisRepN,TaskT1Loop.thisTrialN,TaskT1Loop.thisN,TaskT1Loop.thisIndex,trials.thisRepN,trials.thisTrialN,trials.thisN,trials.thisIndex,trials_2.thisRepN,trials_2.thisTrialN,trials_2.thisN,trials_2.thisIndex,runLoop.thisRepN,runLoop.thisTrialN,runLoop.thisN,runLoop.thisIndex,fixation_1.started,fixation_1.stopped,grid_lines.started,grid_lines.stopped,target_square.started,target_square.stopped,fixation_2.started,fixation_2.stopped,response.corr,response.x,response.y,response.leftButton,response.click_left,response.click_right,response.started,response.stopped,ScoreReportText.started,ScoreReportText.stopped,ScoreReportResponse.keys,ScoreReportResponse.started,ScoreReportResponse.stopped,response_2.x,response_2.y,response_2.leftButton,grid_lines_2.started,grid_lines_2.stopped,target_square_2.started,target_square_2.stopped,fixation_3.started,fixation_3.stopped,response_2.click,response_2.corr,response_2.started,response_2.stopped,BodySiteInstructionText.started,BodySiteImg.started,BodySiteImg.stopped,BodySiteInstructionRead.keys,BodySiteInstructionRead.rt,BodySiteInstructionRead.started,BodySiteInstructionRead.stopped,response.click,IntensityRating.response,IntensityRating.rt,IntensityRating.started,IntensityRating.stopped,subject number,gender,bodymap first- or second-half (1 or 2),session,handedness,scanner,date,expName,psychopyVersion,frameRate,body_site_order,
6,"[0.2, 0]",None,,0,0,0,0,0,0,0,0,,,,,,,,,33.33823090000078,None,34.429339300026186,None,34.429339300026186,35.43927040003473,35.42263729998376,None,1,-0.15138888888888888,0.24027777777777778,"[0, 0, 0]",0,0,34.429339300026186,None,,,,,,,,,,,,,,,,,,,,,,,,,,,,,,,999,m,2,99,r,TEST,2021_Aug_08_1847,WASABI distractmap,2020.2.10,59.86299753205142,"['Left Arm', 'Chest', 'Right Arm', 'Left Face']",
6,"[0.2, 0]",1.0,,0,0,0,0,0,1,1,1,,,,,,,,,,,36.35676230001263,None,36.35676230001263,37.35701079998398,37.34065169998212,None,1,-0.15138888888888888,0.24027777777777778,"[0, 0, 0]",0,0,36.35676230001263,None,,,,,,,,,,,,,,,,,,,,,,,,,,,,,,,999,m,2,99,r,TEST,2021_Aug_08_1847,WASABI distractmap,2020.2.10,59.86299753205142,"['Left Arm', 'Chest', 'Right Arm', 'Left Face']",
2,"[0, 0.2]",0.0,,0,0,0,0,0,2,2,2,,,,,,,,,,,38.34075600001961,None,38.34075600001961,39.341411800007336,39.32462480000686,40.32514650002122,1,-0.15138888888888888,0.24027777777777778,"[0, 0, 0]",0,0,38.34075600001961,None,,,,,,,,,,,,,,,,,,,,,,,,,,,,,,,999,m,2,99,r,TEST,2021_Aug_08_1847,WASABI distractmap,2020.2.10,59.86299753205142,"['Left Arm', 'Chest', 'Right Arm', 'Left Face']",
9,"[0.2, -0.2]",0.0,,0,0,0,0,0,3,3,3,,,,,,,,,,,40.34183779999148,None,40.34183779999148,41.34228580002673,41.32586420001462,42.32624169997871,1,-0.15138888888888888,0.24027777777777778,"[0, 0, 0]",0,0,40.34183779999148,None,,,,,,,,,,,,,,,,,,,,,,,,,,,,,,,999,m,2,99,r,TEST,2021_Aug_08_1847,WASABI distractmap,2020.2.10,59.86299753205142,"['Left Arm', 'Chest', 'Right Arm', 'Left Face']",
9,"[0.2, -0.2]",1.0,,0,0,0,0,0,4,4,4,,,,,,,,,,,42.342845599981956,None,42.342845599981956,43.343267799995374,43.32754909998039,44.32712949998677,1,-0.15138888888888888,0.24027777777777778,"[0, 0, 0]",0,0,42.342845599981956,None,,,,,,,,,,,,,,,,,,,,,,,,,,,,,,,999,m,2,99,r,TEST,2021_Aug_08_1847,WASABI distractmap,2020.2.10,59.86299753205142,"['Left Arm', 'Chest', 'Right Arm', 'Left Face']",
6,"[0.2, 0]",0.0,,0,0,0,0,0,5,5,5,,,,,,,,,,,44.34371510002529,None,44.34371510002529,45.344350500032306,45.32760120002786,46.32807990000583,1,-0.15138888888888888,0.24027777777777778,"[0, 0, 0]",0,0,44.34371510002529,None,,,,,,,,,,,,,,,,,,,,,,,,,,,,,,,999,m,2,99,r,TEST,2021_Aug_08_1847,WASABI distractmap,2020.2.10,59.86299753205142,"['Left Arm', 'Chest', 'Right Arm', 'Left Face']",
4,"[-0.2, 0]",0.0,,0,0,0,0,0,6,6,6,,,,,,,,,,,46.34472330001881,None,46.34472330001881,47.3454175000079,47.328887199983,48.32915290002711,1,-0.15138888888888888,0.24027777777777778,"[0, 0, 0]",0,0,46.34472330001881,None,,,,,,,,,,,,,,,,,,,,,,,,,,,,,,,999,m,2,99,r,TEST,2021_Aug_08_1847,WASABI distractmap,2020.2.10,59.86299753205142,"['Left Arm', 'Chest', 'Right Arm', 'Left Face']",
3,"[0.2, 0.2]",0.0,,0,0,0,0,0,7,7,7,,,,,,,,,,,48.345852500002366,None,48.345852500002366,49.34652389999246,49.32968259998597,50.330120700004045,1,-0.15138888888888888,0.24027777777777778,"[0, 0, 0]",0,0,48.345852500002366,None,,,,,,,,,,,,,,,,,,,,,,,,,,,,,,,999,m,2,99,r,TEST,2021_Aug_08_1847,WASABI distractmap,2020.2.10,59.86299753205142,"['Left Arm', 'Chest', 'Right Arm', 'Left Face']",
3,"[0.2, 0.2]",1.0,,0,0,0,0,0,8,8,8,,,,,,,,,,,50.34679999999935,None,50.34679999999935,51.347336300008465,51.33075610001106,52.33125799999107,1,-0.15138888888888888,0.24027777777777778,"[0, 0, 0]",0,0,50.34679999999935,None,,,,,,,,,,,,,,,,,,,,,,,,,,,,,,,999,m,2,99,r,TEST,2021_Aug_08_1847,WASABI distractmap,2020.2.10,59.86299753205142,"['Left Arm', 'Chest', 'Right Arm', 'Left Face']",
8,"[0, -0.2]",0.0,,0,0,0,0,0,9,9,9,,,,,,,,,,,52.34786169999279,None,52.34786169999279,53.34833649999928,53.33182710001711,54.33209209999768,1,-0.15138888888888888,0.24027777777777778,"[0, 0, 0]",0,0,52.34786169999279,None,,,,,,,,,,,,,,,,,,,,,,,,,,,,,,,999,m,2,99,r,TEST,2021_Aug_08_1847,WASABI distractmap,2020.2.10,59.86299753205142,"['Left Arm', 'Chest', 'Right Arm', 'Left Face']",
1,"[-0.2, 0.2]",0.0,,0,0,0,0,0,10,10,10,,,,,,,,,,,54.34877530002268,None,54.34877530002268,55.34931299998425,55.33286040002713,56.33311710000271,1,-0.15138888888888888,0.24027777777777778,"[0, 0, 0]",0,0,54.34877530002268,None,,,,,,,,,,,,,,,,,,,,,,,,,,,,,,,999,m,2,99,r,TEST,2021_Aug_08_1847,WASABI distractmap,2020.2.10,59.86299753205142,"['Left Arm', 'Chest', 'Right Arm', 'Left Face']",
2,"[0, 0.2]",0.0,,0,0,0,0,0,11,11,11,,,,,,,,,,,56.34977720002644,None,56.34977720002644,57.350436299981084,57.333711399987806,58.334158800018486,1,-0.15138888888888888,0.24027777777777778,"[0, 0, 0]",0,0,56.34977720002644,None,,,,,,,,,,,,,,,,,,,,,,,,,,,,,,,999,m,2,99,r,TEST,2021_Aug_08_1847,WASABI distractmap,2020.2.10,59.86299753205142,"['Left Arm', 'Chest', 'Right Arm', 'Left Face']",
4,"[-0.2, 0]",0.0,,0,0,0,0,0,12,12,12,,,,,,,,,,,58.35082470002817,None,58.35082470002817,59.35157350002555,59.334636399988085,60.335149299993645,1,-0.15138888888888888,0.24027777777777778,"[0, 0, 0]",0,0,58.35082470002817,None,,,,,,,,,,,,,,,,,,,,,,,,,,,,,,,999,m,2,99,r,TEST,2021_Aug_08_1847,WASABI distractmap,2020.2.10,59.86299753205142,"['Left Arm', 'Chest', 'Right Arm', 'Left Face']",
4,"[-0.2, 0]",1.0,,0,0,0,0,0,13,13,13,,,,,,,,,,,60.35178149997955,None,60.35178149997955,61.35231440002099,61.33595039998181,62.336265599995386,1,-0.15138888888888888,0.24027777777777778,"[0, 0, 0]",0,0,60.35178149997955,None,,,,,,,,,,,,,,,,,,,,,,,,,,,,,,,999,m,2,99,r,TEST,2021_Aug_08_1847,WASABI distractmap,2020.2.10,59.86299753205142,"['Left Arm', 'Chest', 'Right Arm', 'Left Face']",
8,"[0, -0.2]",0.0,,0,0,0,0,0,14,14,14,,,,,,,,,,,62.35288610000862,None,62.35288610000862,63.35333080001874,63.336783699982334,64.33708530000877,1,-0.15138888888888888,0.24027777777777778,"[0, 0, 0]",0,0,62.35288610000862,None,,,,,,,,,,,,,,,,,,,,,,,,,,,,,,,999,m,2,99,r,TEST,2021_Aug_08_1847,WASABI distractmap,2020.2.10,59.86299753205142,"['Left Arm', 'Chest', 'Right Arm', 'Left Face']",
5,"[0, 0]",0.0,,0,0,0,0,0,15,15,15,,,,,,,,,,,64.35376169998199,None,64.35376169998199,65.35435660002986,65.3378870000015,66.33812690002378,1,-0.15138888888888888,0.24027777777777778,"[0, 0, 0]",0,0,64.35376169998199,None,,,,,,,,,,,,,,,,,,,,,,,,,,,,,,,999,m,2,99,r,TEST,2021_Aug_08_1847,WASABI distractmap,2020.2.10,59.86299753205142,"['Left Arm', 'Chest', 'Right Arm', 'Left Face']",
5,"[0, 0]",1.0,,0,0,0,0,0,16,16,16,,,,,,,,,,,66.3547719999915,None,66.3547719999915,67.35549089999404,67.33881689998088,68.33912810002221,1,-0.15138888888888888,0.24027777777777778,"[0, 0, 0]",0,0,66.3547719999915,None,,,,,,,,,,,,,,,,,,,,,,,,,,,,,,,999,m,2,99,r,TEST,2021_Aug_08_1847,WASABI distractmap,2020.2.10,59.86299753205142,"['Left Arm', 'Chest', 'Right Arm', 'Left Face']",
1,"[-0.2, 0.2]",0.0,,0,0,0,0,0,17,17,17,,,,,,,,,,,68.35589419997996,None,68.35589419997996,69.35669980000239,69.33974860003218,70.3401832000236,1,-0.15138888888888888,0.24027777777777778,"[0, 0, 0]",0,0,68.35589419997996,None,,,,,,,,,,,,,,,,,,,,,,,,,,,,,,,999,m,2,99,r,TEST,2021_Aug_08_1847,WASABI distractmap,2020.2.10,59.86299753205142,"['Left Arm', 'Chest', 'Right Arm', 'Left Face']",
3,"[0.2, 0.2]",0.0,,0,0,0,0,0,18,18,18,,,,,,,,,,,70.35678339999868,None,70.35678339999868,71.35742200003006,71.34077980002621,None,1,-0.15138888888888888,0.24027777777777778,"[0, 0, 0]",0,0,70.35678339999868,None,,,,,,,,,,,,,,,,,,,,,,,,,,,,,,,999,m,2,99,r,TEST,2021_Aug_08_1847,WASABI distractmap,2020.2.10,59.86299753205142,"['Left Arm', 'Chest', 'Right Arm', 'Left Face']",
6,"[0.2, 0]",0.0,,0,0,0,0,0,19,19,19,,,,,,,,,,,72.34127630002331,None,72.34127630002331,73.34181040001567,73.32519980001962,74.3255455000326,1,-0.15138888888888888,0.24027777777777778,"[0, 0, 0]",0,0,72.34127630002331,None,,,,,,,,,,,,,,,,,,,,,,,,,,,,,,,999,m,2,99,r,TEST,2021_Aug_08_1847,WASABI distractmap,2020.2.10,59.86299753205142,"['Left Arm', 'Chest', 'Right Arm', 'Left Face']",
1,"[-0.2, 0.2]",0.0,,0,0,0,0,0,20,20,20,,,,,,,,,,,74.34217990003526,None,74.34217990003526,75.34314910002286,75.32632490003016,76.32649080001283,1,-0.15138888888888888,0.24027777777777778,"[0, 0, 0]",0,0,74.34217990003526,None,,,,,,,,,,,,,,,,,,,,,,,,,,,,,,,999,m,2,99,r,TEST,2021_Aug_08_1847,WASABI distractmap,2020.2.10,59.86299753205142,"['Left Arm', 'Chest', 'Right Arm', 'Left Face']",
1,"[-0.2, 0.2]",1.0,,0,0,0,0,0,21,21,21,,,,,,,,,,,76.3431670999853,None,76.3431670999853,77.3437205000082,77.32707890000893,78.32745949999662,1,-0.15138888888888888,0.24027777777777778,"[0, 0, 0]",0,0,76.3431670999853,None,,,,,,,,,,,,,,,,,,,,,,,,,,,,,,,999,m,2,99,r,TEST,2021_Aug_08_1847,WASABI distractmap,2020.2.10,59.86299753205142,"['Left Arm', 'Chest', 'Right Arm', 'Left Face']",
1,"[-0.2, 0.2]",1.0,,0,0,0,0,0,22,22,22,,,,,,,,,,,78.34415790002095,None,78.34415790002095,79.34466619999148,79.32809409999754,80.32854950003093,1,-0.15138888888888888,0.24027777777777778,"[0, 0, 0]",0,0,78.34415790002095,None,,,,,,,,,,,,,,,,,,,,,,,,,,,,,,,999,m,2,99,r,TEST,2021_Aug_08_1847,WASABI distractmap,2020.2.10,59.86299753205142,"['Left Arm', 'Chest', 'Right Arm', 'Left Face']",
3,"[0.2, 0.2]",0.0,,0,0,0,0,0,23,23,23,,,,,,,,,,,80.34520260000136,None,80.34520260000136,81.3456796000246,81.32922990003135,82.32953540002927,1,-0.15138888888888888,0.24027777777777778,"[0, 0, 0]",0,0,80.34520260000136,None,,,,,,,,,,,,,,,,,,,,,,,,,,,,,,,999,m,2,99,r,TEST,2021_Aug_08_1847,WASABI distractmap,2020.2.10,59.86299753205142,"['Left Arm', 'Chest', 'Right Arm', 'Left Face']",
2,"[0, 0.2]",0.0,,0,0,0,0,0,24,24,24,,,,,,,,,,,82.34623550000833,None,82.34623550000833,83.34671210002853,83.33004060003441,84.33045539999148,1,-0.15138888888888888,0.24027777777777778,"[0, 0, 0]",0,0,82.34623550000833,None,,,,,,,,,,,,,,,,,,,,,,,,,,,,,,,999,m,2,99,r,TEST,2021_Aug_08_1847,WASABI distractmap,2020.2.10,59.86299753205142,"['Left Arm', 'Chest', 'Right Arm', 'Left Face']",
1,"[-0.2, 0.2]",0.0,,0,0,0,0,0,25,25,25,,,,,,,,,,,84.34719090000726,None,84.34719090000726,85.34779510000953,85.33102109999163,86.33157500001835,1,-0.15138888888888888,0.24027777777777778,"[0, 0, 0]",0,0,84.34719090000726,None,,,,,,,,,,,,,,,,,,,,,,,,,,,,,,,999,m,2,99,r,TEST,2021_Aug_08_1847,WASABI distractmap,2020.2.10,59.86299753205142,"['Left Arm', 'Chest', 'Right Arm', 'Left Face']",
7,"[-0.2, -0.2]",0.0,,0,0,0,0,0,26,26,26,,,,,,,,,,,86.34819869999774,None,86.34819869999774,87.34878240001854,87.33220649999566,88.33250740001677,1,-0.15138888888888888,0.24027777777777778,"[0, 0, 0]",0,0,86.34819869999774,None,,,,,,,,,,,,,,,,,,,,,,,,,,,,,,,999,m,2,99,r,TEST,2021_Aug_08_1847,WASABI distractmap,2020.2.10,59.86299753205142,"['Left Arm', 'Chest', 'Right Arm', 'Left Face']",
7,"[-0.2, -0.2]",1.0,,0,0,0,0,0,27,27,27,,,,,,,,,,,88.34915389999514,None,88.34915389999514,89.34961929998826,89.33306570001878,90.333494600025,1,-0.15138888888888888,0.24027777777777778,"[0, 0, 0]",0,0,88.34915389999514,None,,,,,,,,,,,,,,,,,,,,,,,,,,,,,,,999,m,2,99,r,TEST,2021_Aug_08_1847,WASABI distractmap,2020.2.10,59.86299753205142,"['Left Arm', 'Chest', 'Right Arm', 'Left Face']",
2,"[0, 0.2]",0.0,,0,0,0,0,0,28,28,28,,,,,,,,,,,90.35015359998215,None,90.35015359998215,91.35071590001462,91.33406939997803,92.3345915999962,1,-0.15138888888888888,0.24027777777777778,"[0, 0, 0]",0,0,90.35015359998215,None,,,,,,,,,,,,,,,,,,,,,,,,,,,,,,,999,m,2,99,r,TEST,2021_Aug_08_1847,WASABI distractmap,2020.2.10,59.86299753205142,"['Left Arm', 'Chest', 'Right Arm', 'Left Face']",
6,"[0.2, 0]",0.0,,0,0,0,0,0,29,29,29,,,,,,,,,,,92.35130809998373,None,92.35130809998373,93.35184339998523,93.33508659998188,94.3355264000129,1,-0.15138888888888888,0.24027777777777778,"[0, 0, 0]",0,0,92.35130809998373,None,,,,,,,,,,,,,,,,,,,,,,,,,,,,,,,999,m,2,99,r,TEST,2021_Aug_08_1847,WASABI distractmap,2020.2.10,59.86299753205142,"['Left Arm', 'Chest', 'Right Arm', 'Left Face']",
,,,,0,0,0,0,,,,,,,,,,,,,,,,,,,,,,,,,,,,,94.36342240002705,None,space,94.36342240002705,None,,,,,,,,,,,,,,,,,,,,,,,,,,999,m,2,99,r,TEST,2021_Aug_08_1847,WASABI distractmap,2020.2.10,59.86299753205142,"['Left Arm', 'Chest', 'Right Arm', 'Left Face']",
6,"[0.2, 0]",None,,,,,,,,,,0,0,0,0,,,,,113.41170840000268,None,,,,,,,,,,,,,,,,,,,,None,None,"[0, 0, 0]",114.42195590003394,None,114.42195590003394,115.42943570000352,115.41274549998343,None,"[0, 0, 0]",1,114.42195590003394,None,,,,,,,,,,,,,999,m,2,99,r,TEST,2021_Aug_08_1847,WASABI distractmap,2020.2.10,59.86299753205142,"['Left Arm', 'Chest', 'Right Arm', 'Left Face']",
7,"[-0.2, -0.2]",None,,,,,,,,,,0,1,1,1,,,,,,,,,,,,,,,,,,,,,,,,,,None,None,"[0, 0, 0]",116.41324070002884,118.41424920002464,116.41324070002884,117.41383720003068,117.39727810001932,118.39754839998204,"[0, 0, 0]",1,116.41324070002884,118.41424920002464,,,,,,,,,,,,,999,m,2,99,r,TEST,2021_Aug_08_1847,WASABI distractmap,2020.2.10,59.86299753205142,"['Left Arm', 'Chest', 'Right Arm', 'Left Face']",
6,"[0.2, 0]",1.0,,,,,,,,,,0,2,2,2,,,,,,,,,,,,,,,,,,,,,,,,,,None,None,"[0, 0, 0]",118.43089830002282,120.43196100002388,118.43089830002282,119.4314144999953,119.41474019997986,120.4152678999817,"[0, 0, 0]",1,118.43089830002282,120.43196100002388,,,,,,,,,,,,,999,m,2,99,r,TEST,2021_Aug_08_1847,WASABI distractmap,2020.2.10,59.86299753205142,"['Left Arm', 'Chest', 'Right Arm', 'Left Face']",
2,"[0, 0.2]",0.0,,,,,,,,,,0,3,3,3,,,,,,,,,,,,,,,,,,,,,,,,,,None,None,"[0, 0, 0]",120.44860599999083,122.44972480001161,120.44860599999083,121.44916379998904,121.4325916999951,122.43302519997815,"[0, 0, 0]",1,120.44860599999083,122.44972480001161,,,,,,,,,,,,,999,m,2,99,r,TEST,2021_Aug_08_1847,WASABI distractmap,2020.2.10,59.86299753205142,"['Left Arm', 'Chest', 'Right Arm', 'Left Face']",
5,"[0, 0]",0.0,,,,,,,,,,0,4,4,4,,,,,,,,,,,,,,,,,,,,,,,,,,None,None,"[0, 0, 0]",122.46639150002738,124.46726070001023,122.46639150002738,123.46690060000401,123.45010349998483,124.45071010000538,"[0, 0, 0]",1,122.46639150002738,124.46726070001023,,,,,,,,,,,,,999,m,2,99,r,TEST,2021_Aug_08_1847,WASABI distractmap,2020.2.10,59.86299753205142,"['Left Arm', 'Chest', 'Right Arm', 'Left Face']",
4,"[-0.2, 0]",0.0,,,,,,,,,,0,5,5,5,,,,,,,,,,,,,,,,,,,,,,,,,,None,None,"[0, 0, 0]",124.48392520000925,126.4849239999894,124.48392520000925,125.48444239998935,125.46807290002471,126.46838510001544,"[0, 0, 0]",1,124.48392520000925,126.4849239999894,,,,,,,,,,,,,999,m,2,99,r,TEST,2021_Aug_08_1847,WASABI distractmap,2020.2.10,59.86299753205142,"['Left Arm', 'Chest', 'Right Arm', 'Left Face']",
4,"[-0.2, 0]",0.0,,,,,,,,,,0,6,6,6,,,,,,,,,,,,,,,,,,,,,,,,,,None,None,"[0, 0, 0]",126.50173910002923,128.50260469998466,126.50173910002923,127.50219020002987,127.48569699999643,128.4859935999848,"[0, 0, 0]",1,126.50173910002923,128.50260469998466,,,,,,,,,,,,,999,m,2,99,r,TEST,2021_Aug_08_1847,WASABI distractmap,2020.2.10,59.86299753205142,"['Left Arm', 'Chest', 'Right Arm', 'Left Face']",
7,"[-0.2, -0.2]",0.0,,,,,,,,,,0,7,7,7,,,,,,,,,,,,,,,,,,,,,,,,,,None,None,"[0, 0, 0]",128.51924839999992,130.52024480002,128.51924839999992,129.51978550001513,129.50311340001645,130.50361940002767,"[0, 0, 0]",1,128.51924839999992,130.52024480002,,,,,,,,,,,,,999,m,2,99,r,TEST,2021_Aug_08_1847,WASABI distractmap,2020.2.10,59.86299753205142,"['Left Arm', 'Chest', 'Right Arm', 'Left Face']",
4,"[-0.2, 0]",1.0,,,,,,,,,,0,8,8,8,,,,,,,,,,,,,,,,,,,,,,,,,,None,None,"[0, 0, 0]",130.53697660000762,132.53803840000182,130.53697660000762,131.53745020000497,131.5208284999826,132.52134819998173,"[0, 0, 0]",1,130.53697660000762,132.53803840000182,,,,,,,,,,,,,999,m,2,99,r,TEST,2021_Aug_08_1847,WASABI distractmap,2020.2.10,59.86299753205142,"['Left Arm', 'Chest', 'Right Arm', 'Left Face']",
3,"[0.2, 0.2]",0.0,,,,,,,,,,0,9,9,9,,,,,,,,,,,,,,,,,,,,,,,,,,None,None,"[0, 0, 0]",132.55469100002665,134.55572410003515,132.55469100002665,133.55517100001452,133.53845440002624,134.53893280000193,"[0, 0, 0]",1,132.55469100002665,134.55572410003515,,,,,,,,,,,,,999,m,2,99,r,TEST,2021_Aug_08_1847,WASABI distractmap,2020.2.10,59.86299753205142,"['Left Arm', 'Chest', 'Right Arm', 'Left Face']",
5,"[0, 0]",0.0,,,,,,,,,,0,10,10,10,,,,,,,,,,,,,,,,,,,,,,,,,,None,None,"[0, 0, 0]",134.57231519999914,136.57331280002836,134.57231519999914,135.5728069000179,135.55616370000644,136.55671269999584,"[0, 0, 0]",1,134.57231519999914,136.57331280002836,,,,,,,,,,,,,999,m,2,99,r,TEST,2021_Aug_08_1847,WASABI distractmap,2020.2.10,59.86299753205142,"['Left Arm', 'Chest', 'Right Arm', 'Left Face']",
3,"[0.2, 0.2]",1.0,,,,,,,,,,0,11,11,11,,,,,,,,,,,,,,,,,,,,,,,,,,None,None,"[0, 0, 0]",136.5899923000252,138.59102839999832,136.5899923000252,137.59059939999133,137.57385530002648,138.57428430003347,"[0, 0, 0]",1,136.5899923000252,138.59102839999832,,,,,,,,,,,,,999,m,2,99,r,TEST,2021_Aug_08_1847,WASABI distractmap,2020.2.10,59.86299753205142,"['Left Arm', 'Chest', 'Right Arm', 'Left Face']",
1,"[-0.2, 0.2]",0.0,,,,,,,,,,0,12,12,12,,,,,,,,,,,,,,,,,,,,,,,,,,None,None,"[0, 0, 0]",138.6076938000042,140.60873789998004,138.6076938000042,139.60820830002194,139.5915021999972,140.59197170002153,"[0, 0, 0]",1,138.6076938000042,140.60873789998004,,,,,,,,,,,,,999,m,2,99,r,TEST,2021_Aug_08_1847,WASABI distractmap,2020.2.10,59.86299753205142,"['Left Arm', 'Chest', 'Right Arm', 'Left Face']",
9,"[0.2, -0.2]",0.0,,,,,,,,,,0,13,13,13,,,,,,,,,,,,,,,,,,,,,,,,,,None,None,"[0, 0, 0]",140.62536010000622,142.6263539000065,140.62536010000622,141.62587769998936,141.60923310002545,142.6097758000251,"[0, 0, 0]",1,140.62536010000622,142.6263539000065,,,,,,,,,,,,,999,m,2,99,r,TEST,2021_Aug_08_1847,WASABI distractmap,2020.2.10,59.86299753205142,"['Left Arm', 'Chest', 'Right Arm', 'Left Face']",
9,"[0.2, -0.2]",0.0,,,,,,,,,,0,14,14,14,,,,,,,,,,,,,,,,,,,,,,,,,,None,None,"[0, 0, 0]",142.6431287000305,144.64405090000946,142.6431287000305,143.64360020001186,143.62684949999675,144.62729959998978,"[0, 0, 0]",1,142.6431287000305,144.64405090000946,,,,,,,,,,,,,999,m,2,99,r,TEST,2021_Aug_08_1847,WASABI distractmap,2020.2.10,59.86299753205142,"['Left Arm', 'Chest', 'Right Arm', 'Left Face']",
8,"[0, -0.2]",0.0,,,,,,,,,,0,15,15,15,,,,,,,,,,,,,,,,,,,,,,,,,,None,None,"[0, 0, 0]",144.66071530000772,146.661877800012,144.66071530000772,145.66121719998773,145.6445644000196,146.64509910001652,"[0, 0, 0]",1,144.66071530000772,146.661877800012,,,,,,,,,,,,,999,m,2,99,r,TEST,2021_Aug_08_1847,WASABI distractmap,2020.2.10,59.86299753205142,"['Left Arm', 'Chest', 'Right Arm', 'Left Face']",
6,"[0.2, 0]",0.0,,,,,,,,,,0,16,16,16,,,,,,,,,,,,,,,,,,,,,,,,,,None,None,"[0, 0, 0]",146.67845940002007,148.67938859999413,146.67845940002007,147.67898470000364,147.66225340001984,148.6627781999996,"[0, 0, 0]",1,146.67845940002007,148.67938859999413,,,,,,,,,,,,,999,m,2,99,r,TEST,2021_Aug_08_1847,WASABI distractmap,2020.2.10,59.86299753205142,"['Left Arm', 'Chest', 'Right Arm', 'Left Face']",
3,"[0.2, 0.2]",0.0,,,,,,,,,,0,17,17,17,,,,,,,,,,,,,,,,,,,,,,,,,,None,None,"[0, 0, 0]",148.69614130002446,150.69718870002544,148.69614130002446,149.69673830003012,149.68006179999793,150.68043050001143,"[0, 0, 0]",1,148.69614130002446,150.69718870002544,,,,,,,,,,,,,999,m,2,99,r,TEST,2021_Aug_08_1847,WASABI distractmap,2020.2.10,59.86299753205142,"['Left Arm', 'Chest', 'Right Arm', 'Left Face']",
6,"[0.2, 0]",1.0,,,,,,,,,,0,18,18,18,,,,,,,,,,,,,,,,,,,,,,,,,,None,None,"[0, 0, 0]",150.7137227000203,152.7148445000057,150.7137227000203,151.71441519999644,151.6976749000023,152.69810009998037,"[0, 0, 0]",1,150.7137227000203,152.7148445000057,,,,,,,,,,,,,999,m,2,99,r,TEST,2021_Aug_08_1847,WASABI distractmap,2020.2.10,59.86299753205142,"['Left Arm', 'Chest', 'Right Arm', 'Left Face']",
5,"[0, 0]",0.0,,,,,,,,,,0,19,19,19,,,,,,,,,,,,,,,,,,,,,,,,,,None,None,"[0, 0, 0]",152.7314894000301,154.73244940000586,152.7314894000301,153.73191510001197,153.71529720001854,154.71593850001227,"[0, 0, 0]",1,152.7314894000301,154.73244940000586,,,,,,,,,,,,,999,m,2,99,r,TEST,2021_Aug_08_1847,WASABI distractmap,2020.2.10,59.86299753205142,"['Left Arm', 'Chest', 'Right Arm', 'Left Face']",
7,"[-0.2, -0.2]",0.0,,,,,,,,,,0,20,20,20,,,,,,,,,,,,,,,,,,,,,,,,,,None,None,"[0, 0, 0]",154.74912440002663,156.75011419999646,154.74912440002663,155.74964990001172,155.73297230002936,156.73344610002823,"[0, 0, 0]",1,154.74912440002663,156.75011419999646,,,,,,,,,,,,,999,m,2,99,r,TEST,2021_Aug_08_1847,WASABI distractmap,2020.2.10,59.86299753205142,"['Left Arm', 'Chest', 'Right Arm', 'Left Face']",
5,"[0, 0]",1.0,,,,,,,,,,0,21,21,21,,,,,,,,,,,,,,,,,,,,,,,,,,None,None,"[0, 0, 0]",156.7667687999783,158.76781240000855,156.7667687999783,157.76750950003043,157.7509418000118,158.75119580002502,"[0, 0, 0]",1,156.7667687999783,158.76781240000855,,,,,,,,,,,,,999,m,2,99,r,TEST,2021_Aug_08_1847,WASABI distractmap,2020.2.10,59.86299753205142,"['Left Arm', 'Chest', 'Right Arm', 'Left Face']",
1,"[-0.2, 0.2]",0.0,,,,,,,,,,0,22,22,22,,,,,,,,,,,,,,,,,,,,,,,,,,None,None,"[0, 0, 0]",158.7845001000096,160.7854502000264,158.7845001000096,159.78501839999808,159.7684006000054,160.76886459998786,"[0, 0, 0]",1,158.7845001000096,160.7854502000264,,,,,,,,,,,,,999,m,2,99,r,TEST,2021_Aug_08_1847,WASABI distractmap,2020.2.10,59.86299753205142,"['Left Arm', 'Chest', 'Right Arm', 'Left Face']",
7,"[-0.2, -0.2]",0.0,,,,,,,,,,0,23,23,23,,,,,,,,,,,,,,,,,,,,,,,,,,None,None,"[0, 0, 0]",160.80215619999217,162.80336920003174,160.80215619999217,161.80265800002962,161.78601739997976,162.78657579998253,"[0, 0, 0]",1,160.80215619999217,162.80336920003174,,,,,,,,,,,,,999,m,2,99,r,TEST,2021_Aug_08_1847,WASABI distractmap,2020.2.10,59.86299753205142,"['Left Arm', 'Chest', 'Right Arm', 'Left Face']",
9,"[0.2, -0.2]",0.0,,,,,,,,,,0,24,24,24,,,,,,,,,,,,,,,,,,,,,,,,,,None,None,"[0, 0, 0]",162.82001670001773,164.82095949997893,162.82001670001773,163.82032599998638,163.8036829000339,164.80419890000485,"[0, 0, 0]",1,162.82001670001773,164.82095949997893,,,,,,,,,,,,,999,m,2,99,r,TEST,2021_Aug_08_1847,WASABI distractmap,2020.2.10,59.86299753205142,"['Left Arm', 'Chest', 'Right Arm', 'Left Face']",
3,"[0.2, 0.2]",0.0,,,,,,,,,,0,25,25,25,,,,,,,,,,,,,,,,,,,,,,,,,,None,None,"[0, 0, 0]",164.8374668000033,166.83846609998727,164.8374668000033,165.83797569997841,165.8213906000019,166.8218951000017,"[0, 0, 0]",1,164.8374668000033,166.83846609998727,,,,,,,,,,,,,999,m,2,99,r,TEST,2021_Aug_08_1847,WASABI distractmap,2020.2.10,59.86299753205142,"['Left Arm', 'Chest', 'Right Arm', 'Left Face']",
9,"[0.2, -0.2]",1.0,,,,,,,,,,0,26,26,26,,,,,,,,,,,,,,,,,,,,,,,,,,None,None,"[0, 0, 0]",166.85512950003613,168.8561856999877,166.85512950003613,167.8557349999901,167.83907230000477,168.83945040003164,"[0, 0, 0]",1,166.85512950003613,168.8561856999877,,,,,,,,,,,,,999,m,2,99,r,TEST,2021_Aug_08_1847,WASABI distractmap,2020.2.10,59.86299753205142,"['Left Arm', 'Chest', 'Right Arm', 'Left Face']",
6,"[0.2, 0]",0.0,,,,,,,,,,0,27,27,27,,,,,,,,,,,,,,,,,,,,,,,,,,None,None,"[0, 0, 0]",168.87291989999358,170.87383350002347,168.87291989999358,169.87335690000327,169.85674309998285,170.8572589000105,"[0, 0, 0]",1,168.87291989999358,170.87383350002347,,,,,,,,,,,,,999,m,2,99,r,TEST,2021_Aug_08_1847,WASABI distractmap,2020.2.10,59.86299753205142,"['Left Arm', 'Chest', 'Right Arm', 'Left Face']",
2,"[0, 0.2]",0.0,,,,,,,,,,0,28,28,28,,,,,,,,,,,,,,,,,,,,,,,,,,None,None,"[0, 0, 0]",170.89051880000625,172.89163050003117,170.89051880000625,171.8911391000147,171.8743549999781,172.87493759999052,"[0, 0, 0]",1,170.89051880000625,172.89163050003117,,,,,,,,,,,,,999,m,2,99,r,TEST,2021_Aug_08_1847,WASABI distractmap,2020.2.10,59.86299753205142,"['Left Arm', 'Chest', 'Right Arm', 'Left Face']",
5,"[0, 0]",0.0,,,,,,,,,,0,29,29,29,,,,,,,,,,,,,,,,,,,,,,,,,,None,None,"[0, 0, 0]",172.90821730002062,174.90918150002835,172.90821730002062,173.9086959999986,173.89203079999425,174.89250399998855,"[0, 0, 0]",1,172.90821730002062,174.90918150002835,,,,,,,,,,,,,999,m,2,99,r,TEST,2021_Aug_08_1847,WASABI distractmap,2020.2.10,59.86299753205142,"['Left Arm', 'Chest', 'Right Arm', 'Left Face']",
,,,,,,,,,,,,,,,,,,,,,,,,,,,,,,,,,,,,174.93370659998618,None,space,174.93370659998618,None,,,,,,,,,,,,,,,,,,,,,,,,,,999,m,2,99,r,TEST,2021_Aug_08_1847,WASABI distractmap,2020.2.10,59.86299753205142,"['Left Arm', 'Chest', 'Right Arm', 'Left Face']",
4,"[-0.2, 0]",None,stimuli/orders/stimOrder3.xlsx,,,,,0,0,0,0,,,,,0,0,0,1,268.99938639998436,None,270.00786180002615,None,270.00786180002615,271.00750010000775,271.00750010000775,None,1,None,None,"[0, 0, 0]",,,270.00786180002615,None,,,,,,,,,,,,,,,,,,,250.87578260002192,250.87578260002192,None,space,6.627589699986856,250.87578260002192,None,"[0, 0, 0]",,,,,999,m,2,99,r,TEST,2021_Aug_08_1847,WASABI distractmap,2020.2.10,59.86299753205142,"['Left Arm', 'Chest', 'Right Arm', 'Left Face']",
7,"[-0.2, -0.2]",0.0,stimuli/orders/stimOrder3.xlsx,,,,,0,1,1,1,,,,,0,0,0,1,,,272.00789980002446,272.00789980002446,272.00789980002446,273.00856530002784,272.9918553000316,273.99221510003554,1,None,None,"[0, 0, 0]",,,272.00789980002446,272.00789980002446,,,,,,,,,,,,,,,,,,,,,,,,,,"[0, 0, 0]",,,,,999,m,2,99,r,TEST,2021_Aug_08_1847,WASABI distractmap,2020.2.10,59.86299753205142,"['Left Arm', 'Chest', 'Right Arm', 'Left Face']",
7,"[-0.2, -0.2]",1.0,stimuli/orders/stimOrder3.xlsx,,,,,0,2,2,2,,,,,0,0,0,1,,,274.00904159998754,274.00904159998754,274.00904159998754,275.0093974000192,274.9927094000159,275.99331280001206,1,None,None,"[0, 0, 0]",,,274.00904159998754,274.00904159998754,,,,,,,,,,,,,,,,,,,,,,,,,,"[0, 0, 0]",,,,,999,m,2,99,r,TEST,2021_Aug_08_1847,WASABI distractmap,2020.2.10,59.86299753205142,"['Left Arm', 'Chest', 'Right Arm', 'Left Face']",
4,"[-0.2, 0]",0.0,stimuli/orders/stimOrder3.xlsx,,,,,0,3,3,3,,,,,0,0,0,1,,,276.00990489998367,276.00990489998367,276.00990489998367,277.01044310000725,276.9937730000238,277.9943793999846,1,None,None,"[0, 0, 0]",,,276.00990489998367,276.00990489998367,,,,,,,,,,,,,,,,,,,,,,,,,,"[0, 0, 0]",,,,,999,m,2,99,r,TEST,2021_Aug_08_1847,WASABI distractmap,2020.2.10,59.86299753205142,"['Left Arm', 'Chest', 'Right Arm', 'Left Face']",
8,"[0, -0.2]",0.0,stimuli/orders/stimOrder3.xlsx,,,,,0,4,4,4,,,,,0,0,0,1,,,278.01098979997914,278.01098979997914,278.01098979997914,279.0114593000035,278.9947416000068,279.9952437999891,1,None,None,"[0, 0, 0]",,,278.01098979997914,278.01098979997914,,,,,,,,,,,,,,,,,,,,,,,,,,"[0, 0, 0]",,,,,999,m,2,99,r,TEST,2021_Aug_08_1847,WASABI distractmap,2020.2.10,59.86299753205142,"['Left Arm', 'Chest', 'Right Arm', 'Left Face']",
4,"[-0.2, 0]",0.0,stimuli/orders/stimOrder3.xlsx,,,,,0,5,5,5,,,,,0,0,0,1,,,280.01186889997916,280.01186889997916,280.01186889997916,281.01247200003127,280.9957391000353,281.99633530003484,1,None,None,"[0, 0, 0]",,,280.01186889997916,280.01186889997916,,,,,,,,,,,,,,,,,,,,,,,,,,"[0, 0, 0]",,,,,999,m,2,99,r,TEST,2021_Aug_08_1847,WASABI distractmap,2020.2.10,59.86299753205142,"['Left Arm', 'Chest', 'Right Arm', 'Left Face']",
7,"[-0.2, -0.2]",0.0,stimuli/orders/stimOrder3.xlsx,,,,,0,6,6,6,,,,,0,0,0,1,,,282.0129108999972,282.0129108999972,282.0129108999972,283.0135166000109,282.996850800002,283.9972703999956,1,None,None,"[0, 0, 0]",,,282.0129108999972,282.0129108999972,,,,,,,,,,,,,,,,,,,,,,,,,,"[0, 0, 0]",,,,,999,m,2,99,r,TEST,2021_Aug_08_1847,WASABI distractmap,2020.2.10,59.86299753205142,"['Left Arm', 'Chest', 'Right Arm', 'Left Face']",
,,,stimuli/orders/stimOrder3.xlsx,,,,,,,,,,,,,0,0,0,1,,,,,,,,,,,,,,,,,,,,,,,,,,,,,,,,,,,,,,,,,,,21.574074074074076,273.8629121600534,,,999,m,2,99,r,TEST,2021_Aug_08_1847,WASABI distractmap,2020.2.10,59.86299753205142,"['Left Arm', 'Chest', 'Right Arm', 'Left Face']",
,,,,,,,,,,,,,,,,,,,,None,None,,,,,,,,,,,,,,,,,,,,,,,,,,,,,,,,,,,,,,,,,,,0.01253563998034224,None,,,,,,,,,,,,
