square,location,corrAns,trials.thisRepN,trials.thisTrialN,trials.thisN,trials.thisIndex,trials_2.thisRepN,trials_2.thisTrialN,trials_2.thisN,trials_2.thisIndex,fixation_1.started,fixation_1.stopped,grid_lines.started,grid_lines.stopped,target_square.started,target_square.stopped,fixation_2.started,fixation_2.stopped,response.corr,response.x,response.y,response.leftButton,response.click_left,response.click_right,response.started,response.stopped,ScoreReportText.started,ScoreReportText.stopped,ScoreReportResponse.keys,ScoreReportResponse.started,ScoreReportResponse.stopped,response_2.x,response_2.y,response_2.leftButton,grid_lines_2.started,grid_lines_2.stopped,target_square_2.started,target_square_2.stopped,fixation_3.started,fixation_3.stopped,response_2.click,response_2.corr,response_2.started,response_2.stopped,BodySiteInstructionText.started,BodySiteImg.started,BodySiteImg.stopped,BodySiteInstructionRead.keys,BodySiteInstructionRead.rt,BodySiteInstructionRead.started,BodySiteInstructionRead.stopped,response.click,IntensityRating.response,IntensityRating.rt,IntensityRating.started,IntensityRating.stopped,subject number,gender,bodymap first- or second-half (1 or 2),session,handedness,scanner,date,expName,psychopyVersion,frameRate,body_site_order,
6,"[0.2, 0]",None,0,0,0,0,,,,,19.780207799980417,None,20.812601900077425,None,20.812601900077425,21.813960000057705,21.797236300073564,None,1,-0.08194444444444444,0.13472222222222222,"[0, 0, 0]",0,0,20.812601900077425,None,,,,,,,,,,,,,,,,,,,,,,,,,,,,,,,999,m,2,99,r,TEST,2021_Aug_20_1327,distractmap,2020.2.10,59.966922231183275,['Abdomen'],
6,"[0.2, 0]",1,0,1,1,1,,,,,,,22.797306300024502,None,22.797306300024502,23.79737689998001,23.780620399978943,24.780613900045864,0,-0.08194444444444444,0.13472222222222222,"[0, 0, 0]",0,0,22.797306300024502,None,,,,,,,,,,,,,,,,,,,,,,,,,,,,,,,999,m,2,99,r,TEST,2021_Aug_20_1327,distractmap,2020.2.10,59.966922231183275,['Abdomen'],
2,"[0, 0.2]",0,0,2,2,2,,,,,,,24.79731040005572,None,24.79731040005572,25.797321900026873,25.780675600050017,26.780657700030133,0,-0.08194444444444444,0.13472222222222222,"[0, 0, 0]",0,0,24.79731040005572,None,,,,,,,,,,,,,,,,,,,,,,,,,,,,,,,999,m,2,99,r,TEST,2021_Aug_20_1327,distractmap,2020.2.10,59.966922231183275,['Abdomen'],
9,"[0.2, -0.2]",0,0,3,3,3,,,,,,,26.79736279998906,None,26.79736279998906,27.79734550009016,27.78063850000035,28.780597700038925,0,-0.08194444444444444,0.13472222222222222,"[0, 0, 0]",0,0,26.79736279998906,None,,,,,,,,,,,,,,,,,,,,,,,,,,,,,,,999,m,2,99,r,TEST,2021_Aug_20_1327,distractmap,2020.2.10,59.966922231183275,['Abdomen'],
9,"[0.2, -0.2]",1,0,4,4,4,,,,,,,28.79734940000344,None,28.79734940000344,29.79735700006131,29.78066970000509,30.780617300071754,0,-0.08194444444444444,0.13472222222222222,"[0, 0, 0]",0,0,28.79734940000344,None,,,,,,,,,,,,,,,,,,,,,,,,,,,,,,,999,m,2,99,r,TEST,2021_Aug_20_1327,distractmap,2020.2.10,59.966922231183275,['Abdomen'],
6,"[0.2, 0]",0,0,5,5,5,,,,,,,30.797345000086352,None,30.797345000086352,31.797365900012664,31.780654400005005,32.78069250006229,0,-0.08194444444444444,0.13472222222222222,"[0, 0, 0]",0,0,30.797345000086352,None,,,,,,,,,,,,,,,,,,,,,,,,,,,,,,,999,m,2,99,r,TEST,2021_Aug_20_1327,distractmap,2020.2.10,59.966922231183275,['Abdomen'],
4,"[-0.2, 0]",0,0,6,6,6,,,,,,,32.797317299991846,None,32.797317299991846,33.79739940003492,33.780703100026585,34.78068590001203,0,-0.08194444444444444,0.13472222222222222,"[0, 0, 0]",0,0,32.797317299991846,None,,,,,,,,,,,,,,,,,,,,,,,,,,,,,,,999,m,2,99,r,TEST,2021_Aug_20_1327,distractmap,2020.2.10,59.966922231183275,['Abdomen'],
3,"[0.2, 0.2]",0,0,7,7,7,,,,,,,34.797372900065966,None,34.797372900065966,35.79740020004101,35.78072829998564,36.780702400021255,0,-0.08194444444444444,0.13472222222222222,"[0, 0, 0]",0,0,34.797372900065966,None,,,,,,,,,,,,,,,,,,,,,,,,,,,,,,,999,m,2,99,r,TEST,2021_Aug_20_1327,distractmap,2020.2.10,59.966922231183275,['Abdomen'],
3,"[0.2, 0.2]",1,0,8,8,8,,,,,,,36.79736199998297,None,36.79736199998297,37.7974279000191,37.780728599987924,38.78072090004571,0,-0.08194444444444444,0.13472222222222222,"[0, 0, 0]",0,0,36.79736199998297,None,,,,,,,,,,,,,,,,,,,,,,,,,,,,,,,999,m,2,99,r,TEST,2021_Aug_20_1327,distractmap,2020.2.10,59.966922231183275,['Abdomen'],
8,"[0, -0.2]",0,0,9,9,9,,,,,,,38.79742640000768,None,38.79742640000768,39.79741310002282,39.780759699991904,40.78076400002465,0,-0.08194444444444444,0.13472222222222222,"[0, 0, 0]",0,0,38.79742640000768,None,,,,,,,,,,,,,,,,,,,,,,,,,,,,,,,999,m,2,99,r,TEST,2021_Aug_20_1327,distractmap,2020.2.10,59.966922231183275,['Abdomen'],
1,"[-0.2, 0.2]",0,0,10,10,10,,,,,,,40.7974384999834,None,40.7974384999834,41.79745529999491,41.78076760005206,42.78078110003844,0,-0.08194444444444444,0.13472222222222222,"[0, 0, 0]",0,0,40.7974384999834,None,,,,,,,,,,,,,,,,,,,,,,,,,,,,,,,999,m,2,99,r,TEST,2021_Aug_20_1327,distractmap,2020.2.10,59.966922231183275,['Abdomen'],
2,"[0, 0.2]",0,0,11,11,11,,,,,,,42.797420800081454,None,42.797420800081454,43.79746150004212,43.78077489999123,44.78075470007025,0,-0.08194444444444444,0.13472222222222222,"[0, 0, 0]",0,0,42.797420800081454,None,,,,,,,,,,,,,,,,,,,,,,,,,,,,,,,999,m,2,99,r,TEST,2021_Aug_20_1327,distractmap,2020.2.10,59.966922231183275,['Abdomen'],
4,"[-0.2, 0]",0,0,12,12,12,,,,,,,44.797443000017665,None,44.797443000017665,45.79749330005143,45.780723400064744,46.78077630000189,0,-0.08194444444444444,0.13472222222222222,"[0, 0, 0]",0,0,44.797443000017665,None,,,,,,,,,,,,,,,,,,,,,,,,,,,,,,,999,m,2,99,r,TEST,2021_Aug_20_1327,distractmap,2020.2.10,59.966922231183275,['Abdomen'],
4,"[-0.2, 0]",1,0,13,13,13,,,,,,,46.79747360001784,None,46.79747360001784,47.79747570003383,47.7808257000288,48.78088189999107,0,-0.08194444444444444,0.13472222222222222,"[0, 0, 0]",0,0,46.79747360001784,None,,,,,,,,,,,,,,,,,,,,,,,,,,,,,,,999,m,2,99,r,TEST,2021_Aug_20_1327,distractmap,2020.2.10,59.966922231183275,['Abdomen'],
8,"[0, -0.2]",0,0,14,14,14,,,,,,,48.797462700051256,None,48.797462700051256,49.79753380001057,49.78086320008151,50.78077090007719,0,-0.08194444444444444,0.13472222222222222,"[0, 0, 0]",0,0,48.797462700051256,None,,,,,,,,,,,,,,,,,,,,,,,,,,,,,,,999,m,2,99,r,TEST,2021_Aug_20_1327,distractmap,2020.2.10,59.966922231183275,['Abdomen'],
5,"[0, 0]",0,0,15,15,15,,,,,,,50.79752230003942,None,50.79752230003942,51.79749410005752,51.7807768000057,52.78082520002499,0,-0.08194444444444444,0.13472222222222222,"[0, 0, 0]",0,0,50.79752230003942,None,,,,,,,,,,,,,,,,,,,,,,,,,,,,,,,999,m,2,99,r,TEST,2021_Aug_20_1327,distractmap,2020.2.10,59.966922231183275,['Abdomen'],
5,"[0, 0]",1,0,16,16,16,,,,,,,52.79755420004949,None,52.79755420004949,53.797515199985355,53.7808349999832,54.780883500003256,0,-0.08194444444444444,0.13472222222222222,"[0, 0, 0]",0,0,52.79755420004949,None,,,,,,,,,,,,,,,,,,,,,,,,,,,,,,,999,m,2,99,r,TEST,2021_Aug_20_1327,distractmap,2020.2.10,59.966922231183275,['Abdomen'],
1,"[-0.2, 0.2]",0,0,17,17,17,,,,,,,54.79755770007614,None,54.79755770007614,55.797572100069374,55.78082159999758,56.78080030006822,0,-0.08194444444444444,0.13472222222222222,"[0, 0, 0]",0,0,54.79755770007614,None,,,,,,,,,,,,,,,,,,,,,,,,,,,,,,,999,m,2,99,r,TEST,2021_Aug_20_1327,distractmap,2020.2.10,59.966922231183275,['Abdomen'],
3,"[0.2, 0.2]",0,0,18,18,18,,,,,,,56.79751320008654,None,56.79751320008654,57.79756850004196,57.78090810007416,58.78088019997813,0,-0.08194444444444444,0.13472222222222222,"[0, 0, 0]",0,0,56.79751320008654,None,,,,,,,,,,,,,,,,,,,,,,,,,,,,,,,999,m,2,99,r,TEST,2021_Aug_20_1327,distractmap,2020.2.10,59.966922231183275,['Abdomen'],
6,"[0.2, 0]",0,0,19,19,19,,,,,,,58.79750159999821,None,58.79750159999821,59.79752800008282,59.78088670002762,60.780798500054516,0,-0.08194444444444444,0.13472222222222222,"[0, 0, 0]",0,0,58.79750159999821,None,,,,,,,,,,,,,,,,,,,,,,,,,,,,,,,999,m,2,99,r,TEST,2021_Aug_20_1327,distractmap,2020.2.10,59.966922231183275,['Abdomen'],
1,"[-0.2, 0.2]",0,0,20,20,20,,,,,,,60.79752680007368,None,60.79752680007368,61.797495100065134,61.780885500018485,62.780834099976346,0,-0.08194444444444444,0.13472222222222222,"[0, 0, 0]",0,0,60.79752680007368,None,,,,,,,,,,,,,,,,,,,,,,,,,,,,,,,999,m,2,99,r,TEST,2021_Aug_20_1327,distractmap,2020.2.10,59.966922231183275,['Abdomen'],
1,"[-0.2, 0.2]",1,0,21,21,21,,,,,,,62.79759129998274,None,62.79759129998274,63.79748649999965,63.78089270007331,64.78089330007788,0,-0.08194444444444444,0.13472222222222222,"[0, 0, 0]",0,0,62.79759129998274,None,,,,,,,,,,,,,,,,,,,,,,,,,,,,,,,999,m,2,99,r,TEST,2021_Aug_20_1327,distractmap,2020.2.10,59.966922231183275,['Abdomen'],
1,"[-0.2, 0.2]",1,0,22,22,22,,,,,,,64.79762409999967,None,64.79762409999967,65.79761700006202,65.78088420000859,66.78092879999895,0,-0.08194444444444444,0.13472222222222222,"[0, 0, 0]",0,0,64.79762409999967,None,,,,,,,,,,,,,,,,,,,,,,,,,,,,,,,999,m,2,99,r,TEST,2021_Aug_20_1327,distractmap,2020.2.10,59.966922231183275,['Abdomen'],
3,"[0.2, 0.2]",0,0,23,23,23,,,,,,,66.7974965000758,None,66.7974965000758,67.79766250005923,67.78093610005453,68.7809191000415,0,-0.08194444444444444,0.13472222222222222,"[0, 0, 0]",0,0,66.7974965000758,None,,,,,,,,,,,,,,,,,,,,,,,,,,,,,,,999,m,2,99,r,TEST,2021_Aug_20_1327,distractmap,2020.2.10,59.966922231183275,['Abdomen'],
2,"[0, 0.2]",0,0,24,24,24,,,,,,,68.79766150005162,None,68.79766150005162,69.79763689998072,69.78097229998093,70.78091930004302,0,-0.08194444444444444,0.13472222222222222,"[0, 0, 0]",0,0,68.79766150005162,None,,,,,,,,,,,,,,,,,,,,,,,,,,,,,,,999,m,2,99,r,TEST,2021_Aug_20_1327,distractmap,2020.2.10,59.966922231183275,['Abdomen'],
1,"[-0.2, 0.2]",0,0,25,25,25,,,,,,,70.79763500008266,None,70.79763500008266,71.79761780006811,71.78093610005453,72.78096680005547,0,-0.08194444444444444,0.13472222222222222,"[0, 0, 0]",0,0,70.79763500008266,None,,,,,,,,,,,,,,,,,,,,,,,,,,,,,,,999,m,2,99,r,TEST,2021_Aug_20_1327,distractmap,2020.2.10,59.966922231183275,['Abdomen'],
7,"[-0.2, -0.2]",0,0,26,26,26,,,,,,,72.79754709999543,None,72.79754709999543,73.79757060005795,73.78095420007594,74.7808759000618,0,-0.08194444444444444,0.13472222222222222,"[0, 0, 0]",0,0,72.79754709999543,None,,,,,,,,,,,,,,,,,,,,,,,,,,,,,,,999,m,2,99,r,TEST,2021_Aug_20_1327,distractmap,2020.2.10,59.966922231183275,['Abdomen'],
7,"[-0.2, -0.2]",1,0,27,27,27,,,,,,,74.79769140004646,None,74.79769140004646,75.79766150005162,75.78074740001466,76.78089639998507,0,-0.08194444444444444,0.13472222222222222,"[0, 0, 0]",0,0,74.79769140004646,None,,,,,,,,,,,,,,,,,,,,,,,,,,,,,,,999,m,2,99,r,TEST,2021_Aug_20_1327,distractmap,2020.2.10,59.966922231183275,['Abdomen'],
2,"[0, 0.2]",0,0,28,28,28,,,,,,,76.79770080000162,None,76.79770080000162,77.79758230003063,77.78104090003762,78.7809072000673,0,-0.08194444444444444,0.13472222222222222,"[0, 0, 0]",0,0,76.79770080000162,None,,,,,,,,,,,,,,,,,,,,,,,,,,,,,,,999,m,2,99,r,TEST,2021_Aug_20_1327,distractmap,2020.2.10,59.966922231183275,['Abdomen'],
6,"[0.2, 0]",0,0,29,29,29,,,,,,,78.79765950003639,None,78.79765950003639,79.79775000002701,79.78108350001276,80.7810627000872,0,-0.08194444444444444,0.13472222222222222,"[0, 0, 0]",0,0,78.79765950003639,None,,,,,,,,,,,,,,,,,,,,,,,,,,,,,,,999,m,2,99,r,TEST,2021_Aug_20_1327,distractmap,2020.2.10,59.966922231183275,['Abdomen'],
,,,,,,,,,,,,,,,,,,,,,,,,,,,80.82938490004744,None,space,80.82938490004744,None,,,,,,,,,,,,,,,,,,,,,,,,,,999,m,2,99,r,TEST,2021_Aug_20_1327,distractmap,2020.2.10,59.966922231183275,['Abdomen'],
6,"[0.2, 0]",None,,,,,0,0,0,0,116.61432260007132,None,,,,,,,,,,,,,,,,,,,,None,None,"[0, 0, 0]",117.63005160004832,None,117.63005160004832,118.63131359999534,118.61465290002525,119.61465800006408,"[0, 0, 0]",1,117.63005160004832,None,,,,,,,,,,,,,999,m,2,99,r,TEST,2021_Aug_20_1327,distractmap,2020.2.10,59.966922231183275,['Abdomen'],
7,"[-0.2, -0.2]",None,,,,,0,1,1,1,,,,,,,,,,,,,,,,,,,,,,None,None,"[0, 0, 0]",119.63130550005008,121.63097320008092,119.63130550005008,120.63127470004838,120.61456420004833,121.61471420002636,"[0, 0, 0]",1,119.63130550005008,121.63097320008092,,,,,,,,,,,,,999,m,2,99,r,TEST,2021_Aug_20_1327,distractmap,2020.2.10,59.966922231183275,['Abdomen'],
6,"[0.2, 0]",1,,,,,0,2,2,2,,,,,,,,,,,,,,,,,,,,,,None,None,"[0, 0, 0]",121.64792410004884,123.6475387000246,121.64792410004884,122.64800280006602,122.63126460008789,123.63130680005997,"[0, 0, 0]",0,121.64792410004884,123.6475387000246,,,,,,,,,,,,,999,m,2,99,r,TEST,2021_Aug_20_1327,distractmap,2020.2.10,59.966922231183275,['Abdomen'],
2,"[0, 0.2]",0,,,,,0,3,3,3,,,,,,,,,,,,,,,,,,,,,,None,None,"[0, 0, 0]",123.66460750007536,125.66453150007874,123.66460750007536,124.66473810002208,124.64806360006332,125.64827190001961,"[0, 0, 0]",0,123.66460750007536,125.66453150007874,,,,,,,,,,,,,999,m,2,99,r,TEST,2021_Aug_20_1327,distractmap,2020.2.10,59.966922231183275,['Abdomen'],
5,"[0, 0]",0,,,,,0,4,4,4,,,,,,,,,,,,,,,,,,,,,,None,None,"[0, 0, 0]",125.6816189000383,127.6810352000175,125.6816189000383,126.68143880006392,126.66473950003274,127.66469520004466,"[0, 0, 0]",0,125.6816189000383,127.6810352000175,,,,,,,,,,,,,999,m,2,99,r,TEST,2021_Aug_20_1327,distractmap,2020.2.10,59.966922231183275,['Abdomen'],
4,"[-0.2, 0]",0,,,,,0,5,5,5,,,,,,,,,,,,,,,,,,,,,,None,None,"[0, 0, 0]",127.69811760005541,129.6977676000679,127.69811760005541,128.69808880006894,128.68142650008667,129.6813351000892,"[0, 0, 0]",0,127.69811760005541,129.6977676000679,,,,,,,,,,,,,999,m,2,99,r,TEST,2021_Aug_20_1327,distractmap,2020.2.10,59.966922231183275,['Abdomen'],
4,"[-0.2, 0]",0,,,,,0,6,6,6,,,,,,,,,,,,,,,,,,,,,,None,None,"[0, 0, 0]",129.71471890003886,131.7143941000104,129.71471890003886,130.71478979999665,130.69808080000803,131.69813250005245,"[0, 0, 0]",0,129.71471890003886,131.7143941000104,,,,,,,,,,,,,999,m,2,99,r,TEST,2021_Aug_20_1327,distractmap,2020.2.10,59.966922231183275,['Abdomen'],
7,"[-0.2, -0.2]",0,,,,,0,7,7,7,,,,,,,,,,,,,,,,,,,,,,None,None,"[0, 0, 0]",131.73149650008418,133.73096279997844,131.73149650008418,132.73146420007106,132.71473780006636,133.7148025999777,"[0, 0, 0]",0,131.73149650008418,133.73096279997844,,,,,,,,,,,,,999,m,2,99,r,TEST,2021_Aug_20_1327,distractmap,2020.2.10,59.966922231183275,['Abdomen'],
4,"[-0.2, 0]",1,,,,,0,8,8,8,,,,,,,,,,,,,,,,,,,,,,None,None,"[0, 0, 0]",133.748087999993,135.74773260008078,133.748087999993,134.74803720007185,134.73148730001412,135.7313642000081,"[0, 0, 0]",0,133.748087999993,135.74773260008078,,,,,,,,,,,,,999,m,2,99,r,TEST,2021_Aug_20_1327,distractmap,2020.2.10,59.966922231183275,['Abdomen'],
3,"[0.2, 0.2]",0,,,,,0,9,9,9,,,,,,,,,,,,,,,,,,,,,,None,None,"[0, 0, 0]",135.76477910007816,137.76446860004216,135.76477910007816,136.76478600001428,136.7480732999975,137.74812050000764,"[0, 0, 0]",0,135.76477910007816,137.76446860004216,,,,,,,,,,,,,999,m,2,99,r,TEST,2021_Aug_20_1327,distractmap,2020.2.10,59.966922231183275,['Abdomen'],
5,"[0, 0]",0,,,,,0,10,10,10,,,,,,,,,,,,,,,,,,,,,,None,None,"[0, 0, 0]",137.7814992000349,139.7810630000895,137.7814992000349,138.78148720005993,138.7648382000625,139.7648901999928,"[0, 0, 0]",0,137.7814992000349,139.7810630000895,,,,,,,,,,,,,999,m,2,99,r,TEST,2021_Aug_20_1327,distractmap,2020.2.10,59.966922231183275,['Abdomen'],
3,"[0.2, 0.2]",1,,,,,0,11,11,11,,,,,,,,,,,,,,,,,,,,,,None,None,"[0, 0, 0]",139.79817630001344,141.79789110005368,139.79817630001344,140.79815320007037,140.78151950007305,141.78154850006104,"[0, 0, 0]",0,139.79817630001344,141.79789110005368,,,,,,,,,,,,,999,m,2,99,r,TEST,2021_Aug_20_1327,distractmap,2020.2.10,59.966922231183275,['Abdomen'],
1,"[-0.2, 0.2]",0,,,,,0,12,12,12,,,,,,,,,,,,,,,,,,,,,,None,None,"[0, 0, 0]",141.81483120005578,143.81445980002172,141.81483120005578,142.81490530003794,142.79815580009017,143.79811500001233,"[0, 0, 0]",0,141.81483120005578,143.81445980002172,,,,,,,,,,,,,999,m,2,99,r,TEST,2021_Aug_20_1327,distractmap,2020.2.10,59.966922231183275,['Abdomen'],
9,"[0.2, -0.2]",0,,,,,0,13,13,13,,,,,,,,,,,,,,,,,,,,,,None,None,"[0, 0, 0]",143.83141460001934,145.83118229999673,143.83141460001934,144.83155200001784,144.8148680999875,145.8148001000518,"[0, 0, 0]",0,143.83141460001934,145.83118229999673,,,,,,,,,,,,,999,m,2,99,r,TEST,2021_Aug_20_1327,distractmap,2020.2.10,59.966922231183275,['Abdomen'],
9,"[0.2, -0.2]",0,,,,,0,14,14,14,,,,,,,,,,,,,,,,,,,,,,None,None,"[0, 0, 0]",145.8482750999974,147.8479044000851,145.8482750999974,146.84826680005062,146.83159110008273,147.83155640005134,"[0, 0, 0]",0,145.8482750999974,147.8479044000851,,,,,,,,,,,,,999,m,2,99,r,TEST,2021_Aug_20_1327,distractmap,2020.2.10,59.966922231183275,['Abdomen'],
8,"[0, -0.2]",0,,,,,0,15,15,15,,,,,,,,,,,,,,,,,,,,,,None,None,"[0, 0, 0]",147.86493370006792,149.86452850000933,147.86493370006792,148.8649262000108,148.84831540007144,149.8482987000607,"[0, 0, 0]",0,147.86493370006792,149.86452850000933,,,,,,,,,,,,,999,m,2,99,r,TEST,2021_Aug_20_1327,distractmap,2020.2.10,59.966922231183275,['Abdomen'],
6,"[0.2, 0]",0,,,,,0,16,16,16,,,,,,,,,,,,,,,,,,,,,,None,None,"[0, 0, 0]",149.88158140005544,151.8812542000087,149.88158140005544,150.88164200005122,150.86494760005735,151.86495920002926,"[0, 0, 0]",0,149.88158140005544,151.8812542000087,,,,,,,,,,,,,999,m,2,99,r,TEST,2021_Aug_20_1327,distractmap,2020.2.10,59.966922231183275,['Abdomen'],
3,"[0.2, 0.2]",0,,,,,0,17,17,17,,,,,,,,,,,,,,,,,,,,,,None,None,"[0, 0, 0]",151.89836230000947,153.8979166999925,151.89836230000947,152.89835310005583,152.88159690005705,153.88160540000536,"[0, 0, 0]",0,151.89836230000947,153.8979166999925,,,,,,,,,,,,,999,m,2,99,r,TEST,2021_Aug_20_1327,distractmap,2020.2.10,59.966922231183275,['Abdomen'],
6,"[0.2, 0]",1,,,,,0,18,18,18,,,,,,,,,,,,,,,,,,,,,,None,None,"[0, 0, 0]",153.91498180001508,155.91462380008306,153.91498180001508,154.9150246999925,154.89832250005566,155.89833029999863,"[0, 0, 0]",0,153.91498180001508,155.91462380008306,,,,,,,,,,,,,999,m,2,99,r,TEST,2021_Aug_20_1327,distractmap,2020.2.10,59.966922231183275,['Abdomen'],
5,"[0, 0]",0,,,,,0,19,19,19,,,,,,,,,,,,,,,,,,,,,,None,None,"[0, 0, 0]",155.93166820006445,157.93125600006897,155.93166820006445,156.93164100009017,156.9149838000303,157.91501580004115,"[0, 0, 0]",0,155.93166820006445,157.93125600006897,,,,,,,,,,,,,999,m,2,99,r,TEST,2021_Aug_20_1327,distractmap,2020.2.10,59.966922231183275,['Abdomen'],
7,"[-0.2, -0.2]",0,,,,,0,20,20,20,,,,,,,,,,,,,,,,,,,,,,None,None,"[0, 0, 0]",157.94836270005908,159.94795629999135,157.94836270005908,158.948297200026,158.93172019999474,159.93167289998382,"[0, 0, 0]",0,157.94836270005908,159.94795629999135,,,,,,,,,,,,,999,m,2,99,r,TEST,2021_Aug_20_1327,distractmap,2020.2.10,59.966922231183275,['Abdomen'],
5,"[0, 0]",1,,,,,0,21,21,21,,,,,,,,,,,,,,,,,,,,,,None,None,"[0, 0, 0]",159.965045100078,161.96461420005653,159.965045100078,160.96505700005218,160.94834910007194,161.94835259998217,"[0, 0, 0]",0,159.965045100078,161.96461420005653,,,,,,,,,,,,,999,m,2,99,r,TEST,2021_Aug_20_1327,distractmap,2020.2.10,59.966922231183275,['Abdomen'],
1,"[-0.2, 0.2]",0,,,,,0,22,22,22,,,,,,,,,,,,,,,,,,,,,,None,None,"[0, 0, 0]",161.98172859998886,163.9813213000307,161.98172859998886,162.98176950006746,162.96503610000946,163.96500950003974,"[0, 0, 0]",0,161.98172859998886,163.9813213000307,,,,,,,,,,,,,999,m,2,99,r,TEST,2021_Aug_20_1327,distractmap,2020.2.10,59.966922231183275,['Abdomen'],
7,"[-0.2, -0.2]",0,,,,,0,23,23,23,,,,,,,,,,,,,,,,,,,,,,None,None,"[0, 0, 0]",163.99846849997994,165.99805020005442,163.99846849997994,164.99847270001192,164.98177439998835,165.98176280001644,"[0, 0, 0]",0,163.99846849997994,165.99805020005442,,,,,,,,,,,,,999,m,2,99,r,TEST,2021_Aug_20_1327,distractmap,2020.2.10,59.966922231183275,['Abdomen'],
9,"[0.2, -0.2]",0,,,,,0,24,24,24,,,,,,,,,,,,,,,,,,,,,,None,None,"[0, 0, 0]",166.01506390003487,168.0146783000091,166.01506390003487,167.01505829999223,166.99844710004982,167.99845399998594,"[0, 0, 0]",0,166.01506390003487,168.0146783000091,,,,,,,,,,,,,999,m,2,99,r,TEST,2021_Aug_20_1327,distractmap,2020.2.10,59.966922231183275,['Abdomen'],
3,"[0.2, 0.2]",0,,,,,0,25,25,25,,,,,,,,,,,,,,,,,,,,,,None,None,"[0, 0, 0]",168.03178259998094,170.03148670005612,168.03178259998094,169.03171050001401,169.0150888999924,170.01513930002693,"[0, 0, 0]",0,168.03178259998094,170.03148670005612,,,,,,,,,,,,,999,m,2,99,r,TEST,2021_Aug_20_1327,distractmap,2020.2.10,59.966922231183275,['Abdomen'],
9,"[0.2, -0.2]",1,,,,,0,26,26,26,,,,,,,,,,,,,,,,,,,,,,None,None,"[0, 0, 0]",170.0484514000127,172.0480821999954,170.0484514000127,171.04834760003723,171.03176640009042,172.03172740002628,"[0, 0, 0]",0,170.0484514000127,172.0480821999954,,,,,,,,,,,,,999,m,2,99,r,TEST,2021_Aug_20_1327,distractmap,2020.2.10,59.966922231183275,['Abdomen'],
6,"[0.2, 0]",0,,,,,0,27,27,27,,,,,,,,,,,,,,,,,,,,,,None,None,"[0, 0, 0]",172.06509390007704,174.06470890005585,172.06509390007704,173.0651688000653,173.04846259998158,174.04848750005476,"[0, 0, 0]",0,172.06509390007704,174.06470890005585,,,,,,,,,,,,,999,m,2,99,r,TEST,2021_Aug_20_1327,distractmap,2020.2.10,59.966922231183275,['Abdomen'],
2,"[0, 0.2]",0,,,,,0,28,28,28,,,,,,,,,,,,,,,,,,,,,,None,None,"[0, 0, 0]",174.08184310002252,176.0813860000344,174.08184310002252,175.08175270003267,175.06518500007223,176.06511409999803,"[0, 0, 0]",0,174.08184310002252,176.0813860000344,,,,,,,,,,,,,999,m,2,99,r,TEST,2021_Aug_20_1327,distractmap,2020.2.10,59.966922231183275,['Abdomen'],
5,"[0, 0]",0,,,,,0,29,29,29,,,,,,,,,,,,,,,,,,,,,,None,None,"[0, 0, 0]",176.09848250006326,178.09809620003216,176.09848250006326,177.09847960004117,177.0818834999809,178.0818354000803,"[0, 0, 0]",0,176.09848250006326,178.09809620003216,,,,,,,,,,,,,999,m,2,99,r,TEST,2021_Aug_20_1327,distractmap,2020.2.10,59.966922231183275,['Abdomen'],
,,,,,,,,,,,,,,,,,,,,,,,,,,,178.1468815000262,None,space,178.1468815000262,None,,,,,,,,,,,,,,,,,,,,,,,,,,999,m,2,99,r,TEST,2021_Aug_20_1327,distractmap,2020.2.10,59.966922231183275,['Abdomen'],
5,"[0, 0]",None,0,0,0,0,,,,,209.21528810006566,None,222.53276860003825,None,222.53276860003825,223.5329266000772,223.51625260000583,None,1,None,None,"[0, 0, 0]",,,222.53276860003825,None,,,,,,,,,,,,,,,,,,,186.93090580007993,186.93090580007993,None,space,4.111016399925575,186.93090580007993,None,"[0, 0, 0]",,,,,999,m,2,99,r,TEST,2021_Aug_20_1327,distractmap,2020.2.10,59.966922231183275,['Abdomen'],
5,"[0, 0]",1,0,1,1,1,,,,,,,224.51563350006472,None,224.51563350006472,225.51629080006387,225.4996299999766,None,0,None,None,"[0, 0, 0]",,,224.51563350006472,None,,,,,,,,,,,,,,,,,,,,,,,,,,"[0, 0, 0]",,,,,999,m,2,99,r,TEST,2021_Aug_20_1327,distractmap,2020.2.10,59.966922231183275,['Abdomen'],
4,"[-0.2, 0]",0,0,2,2,2,,,,,,,240.31956370000262,None,240.31956370000262,241.33287460007705,241.29976510000415,242.2989675999852,0,None,None,"[0, 0, 0]",,,240.31956370000262,None,,,,,,,,,,,,,,,,,,,,,,,,,,"[0, 0, 0]",,,,,999,m,2,99,r,TEST,2021_Aug_20_1327,distractmap,2020.2.10,59.966922231183275,['Abdomen'],
2,"[0, 0.2]",0,0,3,3,3,,,,,,,242.3157173000509,None,242.3157173000509,243.31565720005892,243.2989601000445,244.29900780005846,0,None,None,"[0, 0, 0]",,,242.3157173000509,None,,,,,,,,,,,,,,,,,,,,,,,,,,"[0, 0, 0]",,,,,999,m,2,99,r,TEST,2021_Aug_20_1327,distractmap,2020.2.10,59.966922231183275,['Abdomen'],
6,"[0.2, 0]",0,0,4,4,4,,,,,,,244.41445340006612,244.41445340006612,244.41445340006612,245.41582190000918,245.3990367000224,None,0,None,None,"[0, 0, 0]",,,244.41445340006612,244.41445340006612,,,,,,,,,,,,,,,,,,,,,,,,,,"[0, 0, 0]",,,,,999,m,2,99,r,TEST,2021_Aug_20_1327,distractmap,2020.2.10,59.966922231183275,['Abdomen'],
8,"[0, -0.2]",0,0,5,5,5,,,,,,,246.3324297000654,None,246.3324297000654,247.3323798000347,247.31570730009116,248.31571840005927,0,None,None,"[0, 0, 0]",,,246.3324297000654,None,,,,,,,,,,,,,,,,,,,,,,,,,,"[0, 0, 0]",,,,,999,m,2,99,r,TEST,2021_Aug_20_1327,distractmap,2020.2.10,59.966922231183275,['Abdomen'],
1,"[-0.2, 0.2]",0,0,6,6,6,,,,,,,248.33236590004526,248.33236590004526,248.33236590004526,249.33239510003477,249.3157188000623,250.3157549999887,0,None,None,"[0, 0, 0]",,,248.33236590004526,248.33236590004526,,,,,,,,,,,,,,,,,,,,,,,,,,"[0, 0, 0]",,,,,999,m,2,99,r,TEST,2021_Aug_20_1327,distractmap,2020.2.10,59.966922231183275,['Abdomen'],
4,"[-0.2, 0]",0,0,7,7,7,,,,,,,250.33239710005,250.33239710005,250.33239710005,251.33240780001506,251.31576300004963,252.31575519999024,0,None,None,"[0, 0, 0]",,,250.33239710005,250.33239710005,,,,,,,,,,,,,,,,,,,,,,,,,,"[0, 0, 0]",,,,,999,m,2,99,r,TEST,2021_Aug_20_1327,distractmap,2020.2.10,59.966922231183275,['Abdomen'],
8,"[0, -0.2]",0,0,8,8,8,,,,,,,252.3324082000181,252.3324082000181,252.3324082000181,253.3324077000143,253.31579780008178,254.31576929998118,0,None,None,"[0, 0, 0]",,,252.3324082000181,252.3324082000181,,,,,,,,,,,,,,,,,,,,,,,,,,"[0, 0, 0]",,,,,999,m,2,99,r,TEST,2021_Aug_20_1327,distractmap,2020.2.10,59.966922231183275,['Abdomen'],
8,"[0, -0.2]",1,0,9,9,9,,,,,,,254.33240359998308,254.33240359998308,254.33240359998308,255.33242180000525,255.31572600000072,256.3157713999972,0,None,None,"[0, 0, 0]",,,254.33240359998308,254.33240359998308,,,,,,,,,,,,,,,,,,,,,,,,,,"[0, 0, 0]",,,,,999,m,2,99,r,TEST,2021_Aug_20_1327,distractmap,2020.2.10,59.966922231183275,['Abdomen'],
,,,,,,,,,,,256.3320184000768,None,,,,,,,,,,,,,,,,,,,,,,,,,,,,,,,,,,,,,,,,,50.0,265.6461004698649,,,999,m,2,99,r,TEST,2021_Aug_20_1327,distractmap,2020.2.10,59.966922231183275,['Abdomen'],
3,"[0.2, 0.2]",None,0,0,0,0,,,,,272.0143055000808,None,276.36642129998654,None,276.36642129998654,277.36655510007404,277.33196570002474,278.3320000000531,1,None,None,"[0, 0, 0]",,,276.36642129998654,None,,,,,,,,,,,,,,,,,,,,,,,,,,"[0, 0, 0]",,,0.014587730052880943,5.0123581300722435,999,m,2,99,r,TEST,2021_Aug_20_1327,distractmap,2020.2.10,59.966922231183275,['Abdomen'],
4,"[-0.2, 0]",0,0,1,1,1,,,,,,,278.3486847000895,None,278.3486847000895,279.3486180000473,279.33205279998947,280.33277179999277,0,None,None,"[0, 0, 0]",,,278.3486847000895,None,,,,,,,,,,,,,,,,,,,,,,,,,,"[0, 0, 0]",,,,,999,m,2,99,r,TEST,2021_Aug_20_1327,distractmap,2020.2.10,59.966922231183275,['Abdomen'],
1,"[-0.2, 0.2]",0,0,2,2,2,,,,,,,280.3505084000062,280.3505084000062,280.3505084000062,281.3653177000815,281.33206270006485,282.3321563000791,0,None,None,"[0, 0, 0]",,,280.3505084000062,280.3505084000062,,,,,,,,,,,,,,,,,,,,,,,,,,"[0, 0, 0]",,,,,999,m,2,99,r,TEST,2021_Aug_20_1327,distractmap,2020.2.10,59.966922231183275,['Abdomen'],
2,"[0, 0.2]",0,0,3,3,3,,,,,,,282.3654849000741,None,282.3654849000741,283.36547930003144,283.34885319997557,284.34871280007064,0,None,None,"[0, 0, 0]",,,282.3654849000741,None,,,,,,,,,,,,,,,,,,,,,,,,,,"[0, 0, 0]",,,,,999,m,2,99,r,TEST,2021_Aug_20_1327,distractmap,2020.2.10,59.966922231183275,['Abdomen'],
2,"[0, 0.2]",1,0,4,4,4,,,,,,,284.43405600008555,284.43405600008555,284.43405600008555,285.4508707000641,285.4154689999996,None,0,None,None,"[0, 0, 0]",,,284.43405600008555,284.43405600008555,,,,,,,,,,,,,,,,,,,,,,,,,,"[0, 0, 0]",,,,,999,m,2,99,r,TEST,2021_Aug_20_1327,distractmap,2020.2.10,59.966922231183275,['Abdomen'],
5,"[0, 0]",0,0,5,5,5,,,,,,,286.3821389999939,None,286.3821389999939,287.38207629998215,287.36534840008244,288.3669266999932,0,None,None,"[0, 0, 0]",,,286.3821389999939,None,,,,,,,,,,,,,,,,,,,,,,,,,,"[0, 0, 0]",,,,,999,m,2,99,r,TEST,2021_Aug_20_1327,distractmap,2020.2.10,59.966922231183275,['Abdomen'],
1,"[-0.2, 0.2]",0,0,6,6,6,,,,,,,288.38349829998333,288.38349829998333,288.38349829998333,289.3826676000608,289.36600580008235,290.3659513000166,0,None,None,"[0, 0, 0]",,,288.38349829998333,288.38349829998333,,,,,,,,,,,,,,,,,,,,,,,,,,"[0, 0, 0]",,,,,999,m,2,99,r,TEST,2021_Aug_20_1327,distractmap,2020.2.10,59.966922231183275,['Abdomen'],
1,"[-0.2, 0.2]",1,0,7,7,7,,,,,,,290.3826950000366,290.3826950000366,290.3826950000366,291.38269440003205,291.3660360000795,292.3659914000891,0,None,None,"[0, 0, 0]",,,290.3826950000366,290.3826950000366,,,,,,,,,,,,,,,,,,,,,,,,,,"[0, 0, 0]",,,,,999,m,2,99,r,TEST,2021_Aug_20_1327,distractmap,2020.2.10,59.966922231183275,['Abdomen'],
8,"[0, -0.2]",0,0,8,8,8,,,,,,,292.38276010006666,292.38276010006666,292.38276010006666,293.38272910006344,293.3660312000429,294.3659936999902,0,None,None,"[0, 0, 0]",,,292.38276010006666,292.38276010006666,,,,,,,,,,,,,,,,,,,,,,,,,,"[0, 0, 0]",,,,,999,m,2,99,r,TEST,2021_Aug_20_1327,distractmap,2020.2.10,59.966922231183275,['Abdomen'],
7,"[-0.2, -0.2]",0,0,9,9,9,,,,,,,294.382775300066,294.382775300066,294.382775300066,295.38278420001734,295.3660536999814,296.3663091000635,0,None,None,"[0, 0, 0]",,,294.382775300066,294.382775300066,,,,,,,,,,,,,,,,,,,,,,,,,,"[0, 0, 0]",,,,,999,m,2,99,r,TEST,2021_Aug_20_1327,distractmap,2020.2.10,59.966922231183275,['Abdomen'],
,,,,,,,,,,,296.38262430008035,None,,,,,,,,,,,,,,,,,,,,,,,,,,,,,,,,,,,,,,,,,50.0,305.6934248699108,,,999,m,2,99,r,TEST,2021_Aug_20_1327,distractmap,2020.2.10,59.966922231183275,['Abdomen'],
6,"[0.2, 0]",None,0,0,0,0,,,,,312.033089100034,None,316.41497699997853,None,316.41497699997853,317.4164595999755,317.3995717000216,None,1,None,None,"[0, 0, 0]",,,316.41497699997853,None,,,,,,,,,,,,,,,,,,,,,,,,,,"[0, 0, 0]",,,0.015405529993586242,5.013547029928304,999,m,2,99,r,TEST,2021_Aug_20_1327,distractmap,2020.2.10,59.966922231183275,['Abdomen'],
6,"[0.2, 0]",1,0,1,1,1,,,,,,,318.3996057000477,None,318.3996057000477,319.39954080001917,319.3829314999748,320.3829458000837,0,None,None,"[0, 0, 0]",,,318.3996057000477,None,,,,,,,,,,,,,,,,,,,,,,,,,,"[0, 0, 0]",,,,,999,m,2,99,r,TEST,2021_Aug_20_1327,distractmap,2020.2.10,59.966922231183275,['Abdomen'],
1,"[-0.2, 0.2]",0,0,2,2,2,,,,,,,320.3995941000758,320.3995941000758,320.3995941000758,321.39963350002654,321.3829160000896,322.38293890003115,0,None,None,"[0, 0, 0]",,,320.3995941000758,320.3995941000758,,,,,,,,,,,,,,,,,,,,,,,,,,"[0, 0, 0]",,,,,999,m,2,99,r,TEST,2021_Aug_20_1327,distractmap,2020.2.10,59.966922231183275,['Abdomen'],
8,"[0, -0.2]",0,0,3,3,3,,,,,,,322.39965420006774,322.39965420006774,322.39965420006774,323.39958279998973,323.38300100003835,324.3829201000044,0,None,None,"[0, 0, 0]",,,322.39965420006774,322.39965420006774,,,,,,,,,,,,,,,,,,,,,,,,,,"[0, 0, 0]",,,,,999,m,2,99,r,TEST,2021_Aug_20_1327,distractmap,2020.2.10,59.966922231183275,['Abdomen'],
1,"[-0.2, 0.2]",0,0,4,4,4,,,,,,,324.4335042000748,324.4335042000748,324.4335042000748,325.4330773000838,325.41633580008056,None,0,None,None,"[0, 0, 0]",,,324.4335042000748,324.4335042000748,,,,,,,,,,,,,,,,,,,,,,,,,,"[0, 0, 0]",,,,,999,m,2,99,r,TEST,2021_Aug_20_1327,distractmap,2020.2.10,59.966922231183275,['Abdomen'],
4,"[-0.2, 0]",0,0,5,5,5,,,,,,,326.4163422000129,None,326.4163422000129,327.4163122000173,327.39962110004853,328.39965779997874,0,None,None,"[0, 0, 0]",,,326.4163422000129,None,,,,,,,,,,,,,,,,,,,,,,,,,,"[0, 0, 0]",,,,,999,m,2,99,r,TEST,2021_Aug_20_1327,distractmap,2020.2.10,59.966922231183275,['Abdomen'],
5,"[0, 0]",0,0,6,6,6,,,,,,,328.41640410001855,328.41640410001855,328.41640410001855,329.4163474000525,329.3996642000275,330.3997431000462,0,None,None,"[0, 0, 0]",,,328.41640410001855,328.41640410001855,,,,,,,,,,,,,,,,,,,,,,,,,,"[0, 0, 0]",,,,,999,m,2,99,r,TEST,2021_Aug_20_1327,distractmap,2020.2.10,59.966922231183275,['Abdomen'],
7,"[-0.2, -0.2]",0,0,7,7,7,,,,,,,330.4163577000145,330.4163577000145,330.4163577000145,331.41633140004706,331.3996751999948,332.3997341999784,0,None,None,"[0, 0, 0]",,,330.4163577000145,330.4163577000145,,,,,,,,,,,,,,,,,,,,,,,,,,"[0, 0, 0]",,,,,999,m,2,99,r,TEST,2021_Aug_20_1327,distractmap,2020.2.10,59.966922231183275,['Abdomen'],
7,"[-0.2, -0.2]",1,0,8,8,8,,,,,,,332.41641090007033,332.41641090007033,332.41641090007033,333.41633919999003,333.39978610002436,334.3997389000142,0,None,None,"[0, 0, 0]",,,332.41641090007033,332.41641090007033,,,,,,,,,,,,,,,,,,,,,,,,,,"[0, 0, 0]",,,,,999,m,2,99,r,TEST,2021_Aug_20_1327,distractmap,2020.2.10,59.966922231183275,['Abdomen'],
7,"[-0.2, -0.2]",1,0,9,9,9,,,,,,,334.4164433000842,334.4164433000842,334.4164433000842,335.41640129999723,335.3998305000132,336.3997199999867,0,None,None,"[0, 0, 0]",,,334.4164433000842,334.4164433000842,,,,,,,,,,,,,,,,,,,,,,,,,,"[0, 0, 0]",,,,,999,m,2,99,r,TEST,2021_Aug_20_1327,distractmap,2020.2.10,59.966922231183275,['Abdomen'],
,,,,,,,,,,,336.4160364000127,None,,,,,,,,,,,,,,,,,,,,,,,,,,,,,,,,,,,,,,,,,50.0,345.7275485699065,,,999,m,2,99,r,TEST,2021_Aug_20_1327,distractmap,2020.2.10,59.966922231183275,['Abdomen'],
8,"[0, -0.2]",None,0,0,0,0,,,,,352.19823630002793,None,356.448589000036,None,356.448589000036,357.44998939998914,357.4332135000732,None,1,None,None,"[0, 0, 0]",,,356.448589000036,None,,,,,,,,,,,,,,,,,,,,,,,,,,"[0, 0, 0]",,,0.015065630082972348,5.0130318300798535,999,m,2,99,r,TEST,2021_Aug_20_1327,distractmap,2020.2.10,59.966922231183275,['Abdomen'],
6,"[0.2, 0]",0,0,1,1,1,,,,,,,358.4332470999798,None,358.4332470999798,359.4332610000856,359.4165753000416,360.416593400063,0,None,None,"[0, 0, 0]",,,358.4332470999798,None,,,,,,,,,,,,,,,,,,,,,,,,,,"[0, 0, 0]",,,,,999,m,2,99,r,TEST,2021_Aug_20_1327,distractmap,2020.2.10,59.966922231183275,['Abdomen'],
6,"[0.2, 0]",1,0,2,2,2,,,,,,,360.43320870003663,360.43320870003663,360.43320870003663,361.4332750000758,361.41659140004776,362.4166437999811,0,None,None,"[0, 0, 0]",,,360.43320870003663,360.43320870003663,,,,,,,,,,,,,,,,,,,,,,,,,,"[0, 0, 0]",,,,,999,m,2,99,r,TEST,2021_Aug_20_1327,distractmap,2020.2.10,59.966922231183275,['Abdomen'],
2,"[0, 0.2]",0,0,3,3,3,,,,,,,362.43323920003604,362.43323920003604,362.43323920003604,363.4332536000293,363.41661309998017,364.4165859000059,0,None,None,"[0, 0, 0]",,,362.43323920003604,362.43323920003604,,,,,,,,,,,,,,,,,,,,,,,,,,"[0, 0, 0]",,,,,999,m,2,99,r,TEST,2021_Aug_20_1327,distractmap,2020.2.10,59.966922231183275,['Abdomen'],
1,"[-0.2, 0.2]",0,0,4,4,4,,,,,,,364.51720990007743,364.51720990007743,364.51720990007743,365.51674460002687,365.4998880000785,None,0,None,None,"[0, 0, 0]",,,364.51720990007743,364.51720990007743,,,,,,,,,,,,,,,,,,,,,,,,,,"[0, 0, 0]",,,,,999,m,2,99,r,TEST,2021_Aug_20_1327,distractmap,2020.2.10,59.966922231183275,['Abdomen'],
6,"[0.2, 0]",0,0,5,5,5,,,,,,,366.44997950003017,None,366.44997950003017,367.44998550007585,367.4332841000287,368.4332577000605,0,None,None,"[0, 0, 0]",,,366.44997950003017,None,,,,,,,,,,,,,,,,,,,,,,,,,,"[0, 0, 0]",,,,,999,m,2,99,r,TEST,2021_Aug_20_1327,distractmap,2020.2.10,59.966922231183275,['Abdomen'],
9,"[0.2, -0.2]",0,0,6,6,6,,,,,,,368.45000670000445,368.45000670000445,368.45000670000445,369.4499926000135,369.4333086999832,370.43332070007455,0,None,None,"[0, 0, 0]",,,368.45000670000445,368.45000670000445,,,,,,,,,,,,,,,,,,,,,,,,,,"[0, 0, 0]",,,,,999,m,2,99,r,TEST,2021_Aug_20_1327,distractmap,2020.2.10,59.966922231183275,['Abdomen'],
1,"[-0.2, 0.2]",0,0,7,7,7,,,,,,,370.449980000034,370.449980000034,370.449980000034,371.44999450002797,371.43334890005644,372.43336780008394,0,None,None,"[0, 0, 0]",,,370.449980000034,370.449980000034,,,,,,,,,,,,,,,,,,,,,,,,,,"[0, 0, 0]",,,,,999,m,2,99,r,TEST,2021_Aug_20_1327,distractmap,2020.2.10,59.966922231183275,['Abdomen'],
6,"[0.2, 0]",0,0,8,8,8,,,,,,,372.4500169000821,372.4500169000821,372.4500169000821,373.4500237000175,373.4333487000549,374.4333849999821,0,None,None,"[0, 0, 0]",,,372.4500169000821,372.4500169000821,,,,,,,,,,,,,,,,,,,,,,,,,,"[0, 0, 0]",,,,,999,m,2,99,r,TEST,2021_Aug_20_1327,distractmap,2020.2.10,59.966922231183275,['Abdomen'],
6,"[0.2, 0]",1,0,9,9,9,,,,,,,374.4500794999767,374.4500794999767,374.4500794999767,375.4500315000769,375.43340370000806,376.4334289000835,0,None,None,"[0, 0, 0]",,,374.4500794999767,374.4500794999767,,,,,,,,,,,,,,,,,,,,,,,,,,"[0, 0, 0]",,,,,999,m,2,99,r,TEST,2021_Aug_20_1327,distractmap,2020.2.10,59.966922231183275,['Abdomen'],
,,,,,,,,,,,376.449655000004,None,,,,,,,,,,,,,,,,,,,,,,,,,,,,,,,,,,,,,,,,,50.0,385.761621069978,,,999,m,2,99,r,TEST,2021_Aug_20_1327,distractmap,2020.2.10,59.966922231183275,['Abdomen'],
3,"[0.2, 0.2]",None,,,,,0,0,0,0,402.13644750008825,None,,,,,,,,,,,,,,,,,,,,None,None,"[0, 0, 0]",406.5156692999881,None,406.5156692999881,407.5169352000812,407.5002844000701,None,"[0, 0, 0]",1,406.5156692999881,None,,,,,,,,,,,0.014731229981407523,5.012446629931219,999,m,2,99,r,TEST,2021_Aug_20_1327,distractmap,2020.2.10,59.966922231183275,['Abdomen'],
3,"[0.2, 0.2]",None,,,,,0,1,1,1,,,,,,,,,,,,,,,,,,,,,,None,None,"[0, 0, 0]",408.5003390000202,410.49994140001945,408.5003390000202,409.5003446000628,409.48362710000947,410.4836689999793,"[0, 0, 0]",1,408.5003390000202,410.49994140001945,,,,,,,,,,,,,999,m,2,99,r,TEST,2021_Aug_20_1327,distractmap,2020.2.10,59.966922231183275,['Abdomen'],
5,"[0, 0]",0,,,,,0,2,2,2,,,,,,,,,,,,,,,,,,,,,,None,None,"[0, 0, 0]",410.51697570004035,412.5165960000595,410.51697570004035,411.5170222000452,411.5003278000513,412.50031809997745,"[0, 0, 0]",0,410.51697570004035,412.5165960000595,,,,,,,,,,,,,999,m,2,99,r,TEST,2021_Aug_20_1327,distractmap,2020.2.10,59.966922231183275,['Abdomen'],
1,"[-0.2, 0.2]",0,,,,,0,3,3,3,,,,,,,,,,,,,,,,,,,,,,None,None,"[0, 0, 0]",412.5336654999992,414.53325910004787,412.5336654999992,413.5336954999948,413.5169992999872,414.5170145999873,"[0, 0, 0]",0,412.5336654999992,414.53325910004787,,,,,,,,,,,,,999,m,2,99,r,TEST,2021_Aug_20_1327,distractmap,2020.2.10,59.966922231183275,['Abdomen'],
5,"[0, 0]",1,,,,,0,4,4,4,,,,,,,,,,,,,,,,,,,,,,None,None,"[0, 0, 0]",414.5835068000015,None,414.5835068000015,415.5837862000335,415.5669579000678,None,"[0, 0, 0]",0,414.5835068000015,None,,,,,,,,,,,,,999,m,2,99,r,TEST,2021_Aug_20_1327,distractmap,2020.2.10,59.966922231183275,['Abdomen'],
8,"[0, -0.2]",0,,,,,0,5,5,5,,,,,,,,,,,,,,,,,,,,,,None,None,"[0, 0, 0]",416.56706540007144,418.56791810004506,416.56706540007144,417.56699269998353,417.5503386000637,418.5505018000258,"[0, 0, 0]",0,416.56706540007144,418.56791810004506,,,,,,,,,,,,,999,m,2,99,r,TEST,2021_Aug_20_1327,distractmap,2020.2.10,59.966922231183275,['Abdomen'],
5,"[0, 0]",1,,,,,0,6,6,6,,,,,,,,,,,,,,,,,,,,,,None,None,"[0, 0, 0]",418.58397030003835,420.583317700075,418.58397030003835,419.5836949000368,419.5670430000173,420.56703410006594,"[0, 0, 0]",0,418.58397030003835,420.583317700075,,,,,,,,,,,,,999,m,2,99,r,TEST,2021_Aug_20_1327,distractmap,2020.2.10,59.966922231183275,['Abdomen'],
7,"[-0.2, -0.2]",0,,,,,0,7,7,7,,,,,,,,,,,,,,,,,,,,,,None,None,"[0, 0, 0]",420.6004854000639,422.5999991000863,420.6004854000639,421.6003763000481,421.58374420006294,422.5837657999946,"[0, 0, 0]",0,420.6004854000639,422.5999991000863,,,,,,,,,,,,,999,m,2,99,r,TEST,2021_Aug_20_1327,distractmap,2020.2.10,59.966922231183275,['Abdomen'],
5,"[0, 0]",1,,,,,0,8,8,8,,,,,,,,,,,,,,,,,,,,,,None,None,"[0, 0, 0]",422.6170964000048,424.61670180002693,422.6170964000048,423.61707949999254,423.60040850006044,424.60039959999267,"[0, 0, 0]",0,422.6170964000048,424.61670180002693,,,,,,,,,,,,,999,m,2,99,r,TEST,2021_Aug_20_1327,distractmap,2020.2.10,59.966922231183275,['Abdomen'],
7,"[-0.2, -0.2]",1,,,,,0,9,9,9,,,,,,,,,,,,,,,,,,,,,,None,None,"[0, 0, 0]",424.63385009998456,426.6334433000302,424.63385009998456,425.633781200042,425.617106800084,426.6171071000863,"[0, 0, 0]",0,424.63385009998456,426.6334433000302,,,,,,,,,,,,,999,m,2,99,r,TEST,2021_Aug_20_1327,distractmap,2020.2.10,59.966922231183275,['Abdomen'],
,,,,,,,,,,,426.6500991000794,None,,,,,,,,,,,,,,,,,,,,,,,,,,,,,,,,,,,,,,,,,50.0,433.46160807006527,,,999,m,2,99,r,TEST,2021_Aug_20_1327,distractmap,2020.2.10,59.966922231183275,['Abdomen'],
6,"[0.2, 0]",None,,,,,0,0,0,0,439.93216600001324,None,,,,,,,,,,,,,,,,,,,,None,None,"[0, 0, 0]",446.6826196999755,None,446.6826196999755,447.68389500002377,447.6672956000548,None,"[0, 0, 0]",1,446.6826196999755,None,,,,,,,,,,,0.015094029949977994,5.013137129950337,999,m,2,99,r,TEST,2021_Aug_20_1327,distractmap,2020.2.10,59.966922231183275,['Abdomen'],
1,"[-0.2, 0.2]",None,,,,,0,1,1,1,,,,,,,,,,,,,,,,,,,,,,None,None,"[0, 0, 0]",448.66730109998025,450.6669445000589,448.66730109998025,449.6672829000745,449.65063839999493,450.6505823000334,"[0, 0, 0]",1,448.66730109998025,450.6669445000589,,,,,,,,,,,,,999,m,2,99,r,TEST,2021_Aug_20_1327,distractmap,2020.2.10,59.966922231183275,['Abdomen'],
6,"[0.2, 0]",1,,,,,0,2,2,2,,,,,,,,,,,,,,,,,,,,,,None,None,"[0, 0, 0]",450.68397470004857,452.683629999985,450.68397470004857,451.6840209000511,451.6673211000161,452.66734300006647,"[0, 0, 0]",0,450.68397470004857,452.683629999985,,,,,,,,,,,,,999,m,2,99,r,TEST,2021_Aug_20_1327,distractmap,2020.2.10,59.966922231183275,['Abdomen'],
4,"[-0.2, 0]",0,,,,,0,3,3,3,,,,,,,,,,,,,,,,,,,,,,None,None,"[0, 0, 0]",452.70067140005995,454.7002979000099,452.70067140005995,453.7006631999975,453.68398660002276,454.68399290007073,"[0, 0, 0]",0,452.70067140005995,454.7002979000099,,,,,,,,,,,,,999,m,2,99,r,TEST,2021_Aug_20_1327,distractmap,2020.2.10,59.966922231183275,['Abdomen'],
1,"[-0.2, 0.2]",0,,,,,0,4,4,4,,,,,,,,,,,,,,,,,,,,,,None,None,"[0, 0, 0]",454.7828596000327,None,454.7828596000327,455.78399780008476,455.76730449998286,None,"[0, 0, 0]",0,454.7828596000327,None,,,,,,,,,,,,,999,m,2,99,r,TEST,2021_Aug_20_1327,distractmap,2020.2.10,59.966922231183275,['Abdomen'],
8,"[0, -0.2]",0,,,,,0,5,5,5,,,,,,,,,,,,,,,,,,,,,,None,None,"[0, 0, 0]",456.73403749999125,458.7336175000528,456.73403749999125,457.73397140007,457.717416999978,458.717338400078,"[0, 0, 0]",0,456.73403749999125,458.7336175000528,,,,,,,,,,,,,999,m,2,99,r,TEST,2021_Aug_20_1327,distractmap,2020.2.10,59.966922231183275,['Abdomen'],
1,"[-0.2, 0.2]",1,,,,,0,6,6,6,,,,,,,,,,,,,,,,,,,,,,None,None,"[0, 0, 0]",458.7506843000883,460.75029790005647,458.7506843000883,459.7506715999916,459.73407060001045,460.7340306000551,"[0, 0, 0]",0,458.7506843000883,460.75029790005647,,,,,,,,,,,,,999,m,2,99,r,TEST,2021_Aug_20_1327,distractmap,2020.2.10,59.966922231183275,['Abdomen'],
8,"[0, -0.2]",1,,,,,0,7,7,7,,,,,,,,,,,,,,,,,,,,,,None,None,"[0, 0, 0]",460.76741089997813,462.76700210000854,460.76741089997813,461.7674245000817,461.750729600084,462.7507181999972,"[0, 0, 0]",0,460.76741089997813,462.76700210000854,,,,,,,,,,,,,999,m,2,99,r,TEST,2021_Aug_20_1327,distractmap,2020.2.10,59.966922231183275,['Abdomen'],
1,"[-0.2, 0.2]",1,,,,,0,8,8,8,,,,,,,,,,,,,,,,,,,,,,None,None,"[0, 0, 0]",462.78408010001294,464.78368840005714,462.78408010001294,463.7841541999951,463.7674135999987,464.76737100002356,"[0, 0, 0]",0,462.78408010001294,464.78368840005714,,,,,,,,,,,,,999,m,2,99,r,TEST,2021_Aug_20_1327,distractmap,2020.2.10,59.966922231183275,['Abdomen'],
6,"[0.2, 0]",0,,,,,0,9,9,9,,,,,,,,,,,,,,,,,,,,,,None,None,"[0, 0, 0]",464.8007797000464,466.80025309999473,464.8007797000464,465.800753400079,465.78409850003663,466.78405220003333,"[0, 0, 0]",0,464.8007797000464,466.80025309999473,,,,,,,,,,,,,999,m,2,99,r,TEST,2021_Aug_20_1327,distractmap,2020.2.10,59.966922231183275,['Abdomen'],
,,,,,,,,,,,466.81707680004183,None,,,,,,,,,,,,,,,,,,,,,,,,,,,,,,,,,,,,,,,,,50.0,471.1285800699843,,,999,m,2,99,r,TEST,2021_Aug_20_1327,distractmap,2020.2.10,59.966922231183275,['Abdomen'],
7,"[-0.2, -0.2]",None,,,,,0,0,0,0,477.4658037000336,None,,,,,,,,,,,,,,,,,,,,None,None,"[0, 0, 0]",486.84963100007735,None,486.84963100007735,487.85093469999265,487.83427450002637,None,"[0, 0, 0]",1,486.84963100007735,None,,,,,,,,,,,0.015080629964359105,5.013077429961413,999,m,2,99,r,TEST,2021_Aug_20_1327,distractmap,2020.2.10,59.966922231183275,['Abdomen'],
7,"[-0.2, -0.2]",None,,,,,0,1,1,1,,,,,,,,,,,,,,,,,,,,,,None,None,"[0, 0, 0]",488.8343019000022,490.8339010999771,488.8343019000022,489.83424770005513,489.81757070007734,490.81757020007353,"[0, 0, 0]",1,488.8343019000022,490.8339010999771,,,,,,,,,,,,,999,m,2,99,r,TEST,2021_Aug_20_1327,distractmap,2020.2.10,59.966922231183275,['Abdomen'],
7,"[-0.2, -0.2]",1,,,,,0,2,2,2,,,,,,,,,,,,,,,,,,,,,,None,None,"[0, 0, 0]",490.850975700072,492.85053090006113,490.850975700072,491.8509372000117,491.83431539998855,492.83427510003094,"[0, 0, 0]",0,490.850975700072,492.85053090006113,,,,,,,,,,,,,999,m,2,99,r,TEST,2021_Aug_20_1327,distractmap,2020.2.10,59.966922231183275,['Abdomen'],
5,"[0, 0]",0,,,,,0,3,3,3,,,,,,,,,,,,,,,,,,,,,,None,None,"[0, 0, 0]",492.8676266000839,494.8672637999989,492.8676266000839,493.86765230004676,493.85096499999054,494.8509416000452,"[0, 0, 0]",0,492.8676266000839,494.8672637999989,,,,,,,,,,,,,999,m,2,99,r,TEST,2021_Aug_20_1327,distractmap,2020.2.10,59.966922231183275,['Abdomen'],
1,"[-0.2, 0.2]",0,,,,,0,4,4,4,,,,,,,,,,,,,,,,,,,,,,None,None,"[0, 0, 0]",494.9666916000424,None,494.9666916000424,495.9676499000052,495.9509799000807,None,"[0, 0, 0]",0,494.9666916000424,None,,,,,,,,,,,,,999,m,2,99,r,TEST,2021_Aug_20_1327,distractmap,2020.2.10,59.966922231183275,['Abdomen'],
6,"[0.2, 0]",0,,,,,0,5,5,5,,,,,,,,,,,,,,,,,,,,,,None,None,"[0, 0, 0]",496.90099570003804,498.90051800000947,496.90099570003804,497.9010103000328,497.88433889998123,498.884341500001,"[0, 0, 0]",0,496.90099570003804,498.90051800000947,,,,,,,,,,,,,999,m,2,99,r,TEST,2021_Aug_20_1327,distractmap,2020.2.10,59.966922231183275,['Abdomen'],
1,"[-0.2, 0.2]",1,,,,,0,6,6,6,,,,,,,,,,,,,,,,,,,,,,None,None,"[0, 0, 0]",498.9177246000618,500.91720570006873,498.9177246000618,499.9176769000478,499.9010321000824,500.9010095000267,"[0, 0, 0]",0,498.9177246000618,500.91720570006873,,,,,,,,,,,,,999,m,2,99,r,TEST,2021_Aug_20_1327,distractmap,2020.2.10,59.966922231183275,['Abdomen'],
7,"[-0.2, -0.2]",0,,,,,0,7,7,7,,,,,,,,,,,,,,,,,,,,,,None,None,"[0, 0, 0]",500.93441069999244,502.93396539997775,500.93441069999244,501.9343841000227,501.9177284000907,502.9176690999884,"[0, 0, 0]",0,500.93441069999244,502.93396539997775,,,,,,,,,,,,,999,m,2,99,r,TEST,2021_Aug_20_1327,distractmap,2020.2.10,59.966922231183275,['Abdomen'],
6,"[0.2, 0]",0,,,,,0,8,8,8,,,,,,,,,,,,,,,,,,,,,,None,None,"[0, 0, 0]",502.9510453999974,504.9506712000584,502.9510453999974,503.95102939999197,503.93438200000674,504.93441300000995,"[0, 0, 0]",0,502.9510453999974,504.9506712000584,,,,,,,,,,,,,999,m,2,99,r,TEST,2021_Aug_20_1327,distractmap,2020.2.10,59.966922231183275,['Abdomen'],
7,"[-0.2, -0.2]",1,,,,,0,9,9,9,,,,,,,,,,,,,,,,,,,,,,None,None,"[0, 0, 0]",504.96771700005047,506.9674007000867,504.96771700005047,505.96771960007027,505.95105200004764,506.95110730000306,"[0, 0, 0]",0,504.96771700005047,506.9674007000867,,,,,,,,,,,,,999,m,2,99,r,TEST,2021_Aug_20_1327,distractmap,2020.2.10,59.966922231183275,['Abdomen'],
,,,,,,,,,,,506.98421500006225,None,,,,,,,,,,,,,,,,,,,,,,,,,,,,,,,,,,,,,,,,,50.0,513.7955825700192,,,999,m,2,99,r,TEST,2021_Aug_20_1327,distractmap,2020.2.10,59.966922231183275,['Abdomen'],
4,"[-0.2, 0]",None,,,,,0,0,0,0,520.1681516000535,None,,,,,,,,,,,,,,,,,,,,None,None,"[0, 0, 0]",527.0165793000488,None,527.0165793000488,528.0179189000046,528.0012417000253,None,"[0, 0, 0]",1,527.0165793000488,None,,,,,,,,,,,0.015049629961140454,5.013057730044238,999,m,2,99,r,TEST,2021_Aug_20_1327,distractmap,2020.2.10,59.966922231183275,['Abdomen'],
5,"[0, 0]",None,,,,,0,1,1,1,,,,,,,,,,,,,,,,,,,,,,None,None,"[0, 0, 0]",529.0012556000147,531.0008858999936,529.0012556000147,530.0012225999963,529.9846844000276,530.9846661000047,"[0, 0, 0]",1,529.0012556000147,531.0008858999936,,,,,,,,,,,,,999,m,2,99,r,TEST,2021_Aug_20_1327,distractmap,2020.2.10,59.966922231183275,['Abdomen'],
6,"[0.2, 0]",0,,,,,0,2,2,2,,,,,,,,,,,,,,,,,,,,,,None,None,"[0, 0, 0]",531.0179344000062,533.0175528000109,531.0179344000062,532.0179287000792,532.0012454000534,533.0012387000024,"[0, 0, 0]",0,531.0179344000062,533.0175528000109,,,,,,,,,,,,,999,m,2,99,r,TEST,2021_Aug_20_1327,distractmap,2020.2.10,59.966922231183275,['Abdomen'],
1,"[-0.2, 0.2]",0,,,,,0,3,3,3,,,,,,,,,,,,,,,,,,,,,,None,None,"[0, 0, 0]",533.0347010000842,535.0342216000427,533.0347010000842,534.0345766000682,534.017966400017,535.0179883000674,"[0, 0, 0]",0,533.0347010000842,535.0342216000427,,,,,,,,,,,,,999,m,2,99,r,TEST,2021_Aug_20_1327,distractmap,2020.2.10,59.966922231183275,['Abdomen'],
6,"[0.2, 0]",1,,,,,0,4,4,4,,,,,,,,,,,,,,,,,,,,,,None,None,"[0, 0, 0]",535.0833876000252,None,535.0833876000252,536.0846640000818,536.0679246999789,None,"[0, 0, 0]",0,535.0833876000252,None,,,,,,,,,,,,,999,m,2,99,r,TEST,2021_Aug_20_1327,distractmap,2020.2.10,59.966922231183275,['Abdomen'],
1,"[-0.2, 0.2]",1,,,,,0,5,5,5,,,,,,,,,,,,,,,,,,,,,,None,None,"[0, 0, 0]",537.068017099984,539.0676161000738,537.068017099984,538.0680486999918,538.0513108000159,539.051290399977,"[0, 0, 0]",0,537.068017099984,539.0676161000738,,,,,,,,,,,,,999,m,2,99,r,TEST,2021_Aug_20_1327,distractmap,2020.2.10,59.966922231183275,['Abdomen'],
2,"[0, 0.2]",0,,,,,0,6,6,6,,,,,,,,,,,,,,,,,,,,,,None,None,"[0, 0, 0]",539.0847065000562,541.0843584000831,539.0847065000562,540.0846558000194,540.0679959000554,541.0680555000436,"[0, 0, 0]",0,539.0847065000562,541.0843584000831,,,,,,,,,,,,,999,m,2,99,r,TEST,2021_Aug_20_1327,distractmap,2020.2.10,59.966922231183275,['Abdomen'],
3,"[0.2, 0.2]",0,,,,,0,7,7,7,,,,,,,,,,,,,,,,,,,,,,None,None,"[0, 0, 0]",541.1014895000262,543.1009646999883,541.1014895000262,542.1013576000696,542.0847134999931,543.0846937000751,"[0, 0, 0]",0,541.1014895000262,543.1009646999883,,,,,,,,,,,,,999,m,2,99,r,TEST,2021_Aug_20_1327,distractmap,2020.2.10,59.966922231183275,['Abdomen'],
6,"[0.2, 0]",0,,,,,0,8,8,8,,,,,,,,,,,,,,,,,,,,,,None,None,"[0, 0, 0]",543.1180432999972,545.1176180000184,543.1180432999972,544.1180495000444,544.1014079999877,545.1014199000783,"[0, 0, 0]",0,543.1180432999972,545.1176180000184,,,,,,,,,,,,,999,m,2,99,r,TEST,2021_Aug_20_1327,distractmap,2020.2.10,59.966922231183275,['Abdomen'],
3,"[0.2, 0.2]",1,,,,,0,9,9,9,,,,,,,,,,,,,,,,,,,,,,None,None,"[0, 0, 0]",545.1347563000163,547.1344008999877,545.1347563000163,546.1347446000436,546.1180562999798,547.1180370000657,"[0, 0, 0]",0,545.1347563000163,547.1344008999877,,,,,,,,,,,,,999,m,2,99,r,TEST,2021_Aug_20_1327,distractmap,2020.2.10,59.966922231183275,['Abdomen'],
,,,,,,,,,,,547.1510249000276,None,,,,,,,,,,,,,,,,,,,,,,,,,,,,,,,,,,,,,,,,,50.0,551.4626082699979,,,999,m,2,99,r,TEST,2021_Aug_20_1327,distractmap,2020.2.10,59.966922231183275,['Abdomen'],
2,"[0, 0.2]",None,,,,,0,0,0,0,557.8683220000239,None,,,,,,,,,,,,,,,,,,,,None,None,"[0, 0, 0]",567.1836520000361,None,567.1836520000361,568.1848779000575,568.1681831000606,None,"[0, 0, 0]",1,567.1836520000361,None,,,,,,,,,,,0.0150115299038589,5.012969029950909,999,m,2,99,r,TEST,2021_Aug_20_1327,distractmap,2020.2.10,59.966922231183275,['Abdomen'],
5,"[0, 0]",None,,,,,0,1,1,1,,,,,,,,,,,,,,,,,,,,,,None,None,"[0, 0, 0]",569.1682460000739,571.1678606000496,569.1682460000739,570.1682565000374,570.1515186000615,571.1516279000789,"[0, 0, 0]",1,569.1682460000739,571.1678606000496,,,,,,,,,,,,,999,m,2,99,r,TEST,2021_Aug_20_1327,distractmap,2020.2.10,59.966922231183275,['Abdomen'],
6,"[0.2, 0]",0,,,,,0,2,2,2,,,,,,,,,,,,,,,,,,,,,,None,None,"[0, 0, 0]",571.1849135999801,573.1845562000526,571.1849135999801,572.1849197000265,572.1682129000546,573.168299300014,"[0, 0, 0]",0,571.1849135999801,573.1845562000526,,,,,,,,,,,,,999,m,2,99,r,TEST,2021_Aug_20_1327,distractmap,2020.2.10,59.966922231183275,['Abdomen'],
1,"[-0.2, 0.2]",0,,,,,0,3,3,3,,,,,,,,,,,,,,,,,,,,,,None,None,"[0, 0, 0]",573.2015976000112,575.2012028000318,573.2015976000112,574.2016012000386,574.184942800086,575.1849333000137,"[0, 0, 0]",0,573.2015976000112,575.2012028000318,,,,,,,,,,,,,999,m,2,99,r,TEST,2021_Aug_20_1327,distractmap,2020.2.10,59.966922231183275,['Abdomen'],
6,"[0.2, 0]",1,,,,,0,4,4,4,,,,,,,,,,,,,,,,,,,,,,None,None,"[0, 0, 0]",575.2835566999856,None,575.2835566999856,576.284977100091,576.268282199977,None,"[0, 0, 0]",0,575.2835566999856,None,,,,,,,,,,,,,999,m,2,99,r,TEST,2021_Aug_20_1327,distractmap,2020.2.10,59.966922231183275,['Abdomen'],
6,"[0.2, 0]",0,,,,,0,5,5,5,,,,,,,,,,,,,,,,,,,,,,None,None,"[0, 0, 0]",577.2350036000134,579.2346035999944,577.2350036000134,578.2349810000742,578.218294100021,579.2183183000889,"[0, 0, 0]",0,577.2350036000134,579.2346035999944,,,,,,,,,,,,,999,m,2,99,r,TEST,2021_Aug_20_1327,distractmap,2020.2.10,59.966922231183275,['Abdomen'],
9,"[0.2, -0.2]",0,,,,,0,6,6,6,,,,,,,,,,,,,,,,,,,,,,None,None,"[0, 0, 0]",579.2517076000804,581.2512790000765,579.2517076000804,580.2517462000251,580.2350270000752,581.2349838999799,"[0, 0, 0]",0,579.2517076000804,581.2512790000765,,,,,,,,,,,,,999,m,2,99,r,TEST,2021_Aug_20_1327,distractmap,2020.2.10,59.966922231183275,['Abdomen'],
6,"[0.2, 0]",1,,,,,0,7,7,7,,,,,,,,,,,,,,,,,,,,,,None,None,"[0, 0, 0]",581.2683537000557,583.2679869000567,581.2683537000557,582.2683390000602,582.2516550000291,583.2517102999846,"[0, 0, 0]",0,581.2683537000557,583.2679869000567,,,,,,,,,,,,,999,m,2,99,r,TEST,2021_Aug_20_1327,distractmap,2020.2.10,59.966922231183275,['Abdomen'],
3,"[0.2, 0.2]",0,,,,,0,8,8,8,,,,,,,,,,,,,,,,,,,,,,None,None,"[0, 0, 0]",583.2850141000235,585.2846451000078,583.2850141000235,584.2850615000352,584.2683720000787,585.2683517000405,"[0, 0, 0]",0,583.2850141000235,585.2846451000078,,,,,,,,,,,,,999,m,2,99,r,TEST,2021_Aug_20_1327,distractmap,2020.2.10,59.966922231183275,['Abdomen'],
9,"[0.2, -0.2]",0,,,,,0,9,9,9,,,,,,,,,,,,,,,,,,,,,,None,None,"[0, 0, 0]",585.3017305000685,587.3013983999845,585.3017305000685,586.3015989999985,586.284957600059,587.2850157000357,"[0, 0, 0]",0,585.3017305000685,587.3013983999845,,,,,,,,,,,,,999,m,2,99,r,TEST,2021_Aug_20_1327,distractmap,2020.2.10,59.966922231183275,['Abdomen'],
,,,,,,,,,,,587.3180473999819,None,,,,,,,,,,,,,,,,,,,,,,,,,,,,,,,,,,,,,,,,,50.0,594.1295889698667,,,999,m,2,99,r,TEST,2021_Aug_20_1327,distractmap,2020.2.10,59.966922231183275,['Abdomen'],
3,"[0.2, 0.2]",None,,,,,0,0,0,0,601.1016267000232,None,,,,,,,,,,,,,,,,,,,,None,None,"[0, 0, 0]",607.3505766000599,None,607.3505766000599,608.351885800017,608.3352250000462,None,"[0, 0, 0]",1,607.3505766000599,None,,,,,,,,,,,0.015064630075357854,5.013063930091448,999,m,2,99,r,TEST,2021_Aug_20_1327,distractmap,2020.2.10,59.966922231183275,['Abdomen'],
9,"[0.2, -0.2]",None,,,,,0,1,1,1,,,,,,,,,,,,,,,,,,,,,,None,None,"[0, 0, 0]",609.3354682000354,611.3348387000151,609.3354682000354,610.3351257999893,610.3185570000205,611.3185501000844,"[0, 0, 0]",1,609.3354682000354,611.3348387000151,,,,,,,,,,,,,999,m,2,99,r,TEST,2021_Aug_20_1327,distractmap,2020.2.10,59.966922231183275,['Abdomen'],
3,"[0.2, 0.2]",1,,,,,0,2,2,2,,,,,,,,,,,,,,,,,,,,,,None,None,"[0, 0, 0]",611.3518953000894,613.3515322000021,611.3518953000894,612.3518742000451,612.3352869000519,613.3352614000905,"[0, 0, 0]",0,611.3518953000894,613.3515322000021,,,,,,,,,,,,,999,m,2,99,r,TEST,2021_Aug_20_1327,distractmap,2020.2.10,59.966922231183275,['Abdomen'],
7,"[-0.2, -0.2]",0,,,,,0,3,3,3,,,,,,,,,,,,,,,,,,,,,,None,None,"[0, 0, 0]",613.3685957000125,615.3681993000209,613.3685957000125,614.368621300091,614.3518961999798,615.3519382000668,"[0, 0, 0]",0,613.3685957000125,615.3681993000209,,,,,,,,,,,,,999,m,2,99,r,TEST,2021_Aug_20_1327,distractmap,2020.2.10,59.966922231183275,['Abdomen'],
8,"[0, -0.2]",0,,,,,0,4,4,4,,,,,,,,,,,,,,,,,,,,,,None,None,"[0, 0, 0]",615.4172007000307,None,615.4172007000307,616.4185844000895,616.4019773000618,None,"[0, 0, 0]",0,615.4172007000307,None,,,,,,,,,,,,,999,m,2,99,r,TEST,2021_Aug_20_1327,distractmap,2020.2.10,59.966922231183275,['Abdomen'],
4,"[-0.2, 0]",0,,,,,0,5,5,5,,,,,,,,,,,,,,,,,,,,,,None,None,"[0, 0, 0]",617.4019880000269,619.4015122000128,617.4019880000269,618.4020149999997,618.3852176000364,619.3853065000148,"[0, 0, 0]",0,617.4019880000269,619.4015122000128,,,,,,,,,,,,,999,m,2,99,r,TEST,2021_Aug_20_1327,distractmap,2020.2.10,59.966922231183275,['Abdomen'],
4,"[-0.2, 0]",0,,,,,0,6,6,6,,,,,,,,,,,,,,,,,,,,,,None,None,"[0, 0, 0]",619.4186628999887,621.4182537000161,619.4186628999887,620.4187301000347,620.4019412000198,621.4019239000045,"[0, 0, 0]",0,619.4186628999887,621.4182537000161,,,,,,,,,,,,,999,m,2,99,r,TEST,2021_Aug_20_1327,distractmap,2020.2.10,59.966922231183275,['Abdomen'],
1,"[-0.2, 0.2]",0,,,,,0,7,7,7,,,,,,,,,,,,,,,,,,,,,,None,None,"[0, 0, 0]",621.4354458000744,623.4349397000624,621.4354458000744,622.4353514000541,622.4186815000139,623.4186707000481,"[0, 0, 0]",0,621.4354458000744,623.4349397000624,,,,,,,,,,,,,999,m,2,99,r,TEST,2021_Aug_20_1327,distractmap,2020.2.10,59.966922231183275,['Abdomen'],
4,"[-0.2, 0]",1,,,,,0,8,8,8,,,,,,,,,,,,,,,,,,,,,,None,None,"[0, 0, 0]",623.4520098000066,625.4516174000455,623.4520098000066,624.4520237999968,624.4352980999975,625.4353311000159,"[0, 0, 0]",0,623.4520098000066,625.4516174000455,,,,,,,,,,,,,999,m,2,99,r,TEST,2021_Aug_20_1327,distractmap,2020.2.10,59.966922231183275,['Abdomen'],
8,"[0, -0.2]",0,,,,,0,9,9,9,,,,,,,,,,,,,,,,,,,,,,None,None,"[0, 0, 0]",625.4685429000529,627.4682848000666,625.4685429000529,626.4687164999777,626.4519803000148,627.452025800012,"[0, 0, 0]",0,625.4685429000529,627.4682848000666,,,,,,,,,,,,,999,m,2,99,r,TEST,2021_Aug_20_1327,distractmap,2020.2.10,59.966922231183275,['Abdomen'],
,,,,,,,,,,,627.4850508000236,None,,,,,,,,,,,,,,,,,,,,,,,,,,,,,,,,,,,,,,,,,50.0,631.7965293700108,,,999,m,2,99,r,TEST,2021_Aug_20_1327,distractmap,2020.2.10,59.966922231183275,['Abdomen'],
2,"[0, 0.2]",None,,,,,0,0,0,0,637.6503103000578,None,,,,,,,,,,,,,,,,,,,,None,None,"[0, 0, 0]",647.5175553000299,None,647.5175553000299,648.5188394000288,648.5022248000605,None,"[0, 0, 0]",1,647.5175553000299,None,,,,,,,,,,,0.015020329970866442,5.012909829965793,999,m,2,99,r,TEST,2021_Aug_20_1327,distractmap,2020.2.10,59.966922231183275,['Abdomen'],
5,"[0, 0]",None,,,,,0,1,1,1,,,,,,,,,,,,,,,,,,,,,,None,None,"[0, 0, 0]",649.5022322000004,651.5018467999762,649.5022322000004,650.5021788000595,650.4856141000055,651.4855493999785,"[0, 0, 0]",1,649.5022322000004,651.5018467999762,,,,,,,,,,,,,999,m,2,99,r,TEST,2021_Aug_20_1327,distractmap,2020.2.10,59.966922231183275,['Abdomen'],
3,"[0.2, 0.2]",0,,,,,0,2,2,2,,,,,,,,,,,,,,,,,,,,,,None,None,"[0, 0, 0]",651.5189121000003,653.5185183000285,651.5189121000003,652.5188471000874,652.502487000078,653.5021974000847,"[0, 0, 0]",0,651.5189121000003,653.5185183000285,,,,,,,,,,,,,999,m,2,99,r,TEST,2021_Aug_20_1327,distractmap,2020.2.10,59.966922231183275,['Abdomen'],
5,"[0, 0]",1,,,,,0,3,3,3,,,,,,,,,,,,,,,,,,,,,,None,None,"[0, 0, 0]",653.5356047999812,655.5352030000649,653.5356047999812,654.535588699975,654.5188724000473,655.5189163000323,"[0, 0, 0]",0,653.5356047999812,655.5352030000649,,,,,,,,,,,,,999,m,2,99,r,TEST,2021_Aug_20_1327,distractmap,2020.2.10,59.966922231183275,['Abdomen'],
2,"[0, 0.2]",0,,,,,0,4,4,4,,,,,,,,,,,,,,,,,,,,,,None,None,"[0, 0, 0]",655.6861409000121,None,655.6861409000121,656.6857179000508,656.6689170000609,None,"[0, 0, 0]",0,655.6861409000121,None,,,,,,,,,,,,,999,m,2,99,r,TEST,2021_Aug_20_1327,distractmap,2020.2.10,59.966922231183275,['Abdomen'],
8,"[0, -0.2]",0,,,,,0,5,5,5,,,,,,,,,,,,,,,,,,,,,,None,None,"[0, 0, 0]",657.5689710000297,659.5684590000892,657.5689710000297,658.5689446000615,658.5522766000358,659.5522787000518,"[0, 0, 0]",0,657.5689710000297,659.5684590000892,,,,,,,,,,,,,999,m,2,99,r,TEST,2021_Aug_20_1327,distractmap,2020.2.10,59.966922231183275,['Abdomen'],
4,"[-0.2, 0]",0,,,,,0,6,6,6,,,,,,,,,,,,,,,,,,,,,,None,None,"[0, 0, 0]",659.5855927000521,661.5853076999774,659.5855927000521,660.5856120000826,660.5689243000234,661.5689701000229,"[0, 0, 0]",0,659.5855927000521,661.5853076999774,,,,,,,,,,,,,999,m,2,99,r,TEST,2021_Aug_20_1327,distractmap,2020.2.10,59.966922231183275,['Abdomen'],
8,"[0, -0.2]",1,,,,,0,7,7,7,,,,,,,,,,,,,,,,,,,,,,None,None,"[0, 0, 0]",661.6023695999756,663.6019611000083,661.6023695999756,662.6023398999823,662.5856857000617,663.5856095000636,"[0, 0, 0]",0,661.6023695999756,663.6019611000083,,,,,,,,,,,,,999,m,2,99,r,TEST,2021_Aug_20_1327,distractmap,2020.2.10,59.966922231183275,['Abdomen'],
7,"[-0.2, -0.2]",0,,,,,0,8,8,8,,,,,,,,,,,,,,,,,,,,,,None,None,"[0, 0, 0]",663.6190043999813,665.6186220999807,663.6190043999813,664.6189536000602,664.6023441000143,665.6022842000239,"[0, 0, 0]",0,663.6190043999813,665.6186220999807,,,,,,,,,,,,,999,m,2,99,r,TEST,2021_Aug_20_1327,distractmap,2020.2.10,59.966922231183275,['Abdomen'],
8,"[0, -0.2]",1,,,,,0,9,9,9,,,,,,,,,,,,,,,,,,,,,,None,None,"[0, 0, 0]",665.6357192000141,667.6353027999867,665.6357192000141,666.6356984000886,666.618993800017,667.6189579999773,"[0, 0, 0]",0,665.6357192000141,667.6353027999867,,,,,,,,,,,,,999,m,2,99,r,TEST,2021_Aug_20_1327,distractmap,2020.2.10,59.966922231183275,['Abdomen'],
,,,,,,,,,,,667.652065500035,None,,,,,,,,,,,,,,,,,,,,,,,,,,,,,,,,,,,,,,,,,50.0,676.9635840699775,,,999,m,2,99,r,TEST,2021_Aug_20_1327,distractmap,2020.2.10,59.966922231183275,['Abdomen'],
2,"[0, 0.2]",None,,,,,0,0,0,0,683.3362401999766,None,,,,,,,,,,,,,,,,,,,,None,None,"[0, 0, 0]",687.6845579000656,None,687.6845579000656,688.6859511000803,688.6691551000113,None,"[0, 0, 0]",1,687.6845579000656,None,,,,,,,,,,,0.015018829959444702,5.012957329978235,999,m,2,99,r,TEST,2021_Aug_20_1327,distractmap,2020.2.10,59.966922231183275,['Abdomen'],
2,"[0, 0.2]",None,,,,,0,1,1,1,,,,,,,,,,,,,,,,,,,,,,None,None,"[0, 0, 0]",689.6691943000769,691.6687745000236,689.6691943000769,690.6691963999765,690.6525326999836,691.6525500999996,"[0, 0, 0]",1,689.6691943000769,691.6687745000236,,,,,,,,,,,,,999,m,2,99,r,TEST,2021_Aug_20_1327,distractmap,2020.2.10,59.966922231183275,['Abdomen'],
2,"[0, 0.2]",1,,,,,0,2,2,2,,,,,,,,,,,,,,,,,,,,,,None,None,"[0, 0, 0]",691.6859310000436,693.6855307000224,691.6859310000436,692.6859114000108,692.6692358000437,693.669224500074,"[0, 0, 0]",0,691.6859310000436,693.6855307000224,,,,,,,,,,,,,999,m,2,99,r,TEST,2021_Aug_20_1327,distractmap,2020.2.10,59.966922231183275,['Abdomen'],
8,"[0, -0.2]",0,,,,,0,3,3,3,,,,,,,,,,,,,,,,,,,,,,None,None,"[0, 0, 0]",693.7026275000535,695.7021893999772,693.7026275000535,694.7026143000694,694.6859192000702,695.6859178000595,"[0, 0, 0]",0,693.7026275000535,695.7021893999772,,,,,,,,,,,,,999,m,2,99,r,TEST,2021_Aug_20_1327,distractmap,2020.2.10,59.966922231183275,['Abdomen'],
2,"[0, 0.2]",1,,,,,0,4,4,4,,,,,,,,,,,,,,,,,,,,,,None,None,"[0, 0, 0]",695.8032042999985,None,695.8032042999985,696.8027608999982,696.7859015000286,None,"[0, 0, 0]",0,695.8032042999985,None,,,,,,,,,,,,,999,m,2,99,r,TEST,2021_Aug_20_1327,distractmap,2020.2.10,59.966922231183275,['Abdomen'],
5,"[0, 0]",0,,,,,0,5,5,5,,,,,,,,,,,,,,,,,,,,,,None,None,"[0, 0, 0]",697.7359573000576,699.7355631000828,697.7359573000576,698.735949599999,698.7192652000813,699.7192634000676,"[0, 0, 0]",0,697.7359573000576,699.7355631000828,,,,,,,,,,,,,999,m,2,99,r,TEST,2021_Aug_20_1327,distractmap,2020.2.10,59.966922231183275,['Abdomen'],
1,"[-0.2, 0.2]",0,,,,,0,6,6,6,,,,,,,,,,,,,,,,,,,,,,None,None,"[0, 0, 0]",699.752582599991,701.752230699989,699.752582599991,700.7525634000776,700.7359537000302,701.7359173999866,"[0, 0, 0]",0,699.752582599991,701.752230699989,,,,,,,,,,,,,999,m,2,99,r,TEST,2021_Aug_20_1327,distractmap,2020.2.10,59.966922231183275,['Abdomen'],
1,"[-0.2, 0.2]",0,,,,,0,7,7,7,,,,,,,,,,,,,,,,,,,,,,None,None,"[0, 0, 0]",701.7693170000566,703.768889100058,701.7693170000566,702.7692695000442,702.7526275999844,703.7526087000733,"[0, 0, 0]",0,701.7693170000566,703.768889100058,,,,,,,,,,,,,999,m,2,99,r,TEST,2021_Aug_20_1327,distractmap,2020.2.10,59.966922231183275,['Abdomen'],
6,"[0.2, 0]",0,,,,,0,8,8,8,,,,,,,,,,,,,,,,,,,,,,None,None,"[0, 0, 0]",703.7859975000611,705.7856294000521,703.7859975000611,704.7860010000877,704.7693151000421,705.7693038000725,"[0, 0, 0]",0,703.7859975000611,705.7856294000521,,,,,,,,,,,,,999,m,2,99,r,TEST,2021_Aug_20_1327,distractmap,2020.2.10,59.966922231183275,['Abdomen'],
1,"[-0.2, 0.2]",1,,,,,0,9,9,9,,,,,,,,,,,,,,,,,,,,,,None,None,"[0, 0, 0]",705.8026683999924,707.8022794000572,705.8026683999924,706.8026926000603,706.785822100006,707.7859314000234,"[0, 0, 0]",0,705.8026683999924,707.8022794000572,,,,,,,,,,,,,999,m,2,99,r,TEST,2021_Aug_20_1327,distractmap,2020.2.10,59.966922231183275,['Abdomen'],
,,,,,,,,,,,707.818981999997,None,,,,,,,,,,,,,,,,,,,,,,,,,,,,,,,,,,,,,,,,,50.0,714.6305682699895,,,999,m,2,99,r,TEST,2021_Aug_20_1327,distractmap,2020.2.10,59.966922231183275,['Abdomen'],
9,"[0.2, -0.2]",None,0,0,0,0,,,,,731.0543302000733,None,740.3849591000471,None,740.3849591000471,741.3862926000729,741.3696274000686,None,1,None,None,"[0, 0, 0]",,,740.3849591000471,None,,,,,,,,,,,,,,,,,,,,,,,,,,"[0, 0, 0]",,,0.015028229914605618,5.01300742989406,999,m,2,99,r,TEST,2021_Aug_20_1327,distractmap,2020.2.10,59.966922231183275,['Abdomen'],
9,"[0.2, -0.2]",1,0,1,1,1,,,,,,,742.3696169999894,None,742.3696169999894,743.3696816000156,743.3529288000427,744.3529406000162,0,None,None,"[0, 0, 0]",,,742.3696169999894,None,,,,,,,,,,,,,,,,,,,,,,,,,,"[0, 0, 0]",,,,,999,m,2,99,r,TEST,2021_Aug_20_1327,distractmap,2020.2.10,59.966922231183275,['Abdomen'],
9,"[0.2, -0.2]",1,0,2,2,2,,,,,,,744.3696200000122,744.3696200000122,744.3696200000122,745.3696267000632,745.3529699000064,746.3529833999928,0,None,None,"[0, 0, 0]",,,744.3696200000122,744.3696200000122,,,,,,,,,,,,,,,,,,,,,,,,,,"[0, 0, 0]",,,,,999,m,2,99,r,TEST,2021_Aug_20_1327,distractmap,2020.2.10,59.966922231183275,['Abdomen'],
3,"[0.2, 0.2]",0,0,3,3,3,,,,,,,746.3696757000871,746.3696757000871,746.3696757000871,747.3696165999863,747.3529462000588,748.3529397000093,0,None,None,"[0, 0, 0]",,,746.3696757000871,746.3696757000871,,,,,,,,,,,,,,,,,,,,,,,,,,"[0, 0, 0]",,,,,999,m,2,99,r,TEST,2021_Aug_20_1327,distractmap,2020.2.10,59.966922231183275,['Abdomen'],
5,"[0, 0]",0,0,4,4,4,,,,,,,748.4367423000513,748.4367423000513,748.4367423000513,749.4364411000861,749.4030496000778,None,0,None,None,"[0, 0, 0]",,,748.4367423000513,748.4367423000513,,,,,,,,,,,,,,,,,,,,,,,,,,"[0, 0, 0]",,,,,999,m,2,99,r,TEST,2021_Aug_20_1327,distractmap,2020.2.10,59.966922231183275,['Abdomen'],
4,"[-0.2, 0]",0,0,5,5,5,,,,,,,750.3864208000014,None,750.3864208000014,751.386420099996,751.369694699999,752.3696838000324,0,None,None,"[0, 0, 0]",,,750.3864208000014,None,,,,,,,,,,,,,,,,,,,,,,,,,,"[0, 0, 0]",,,,,999,m,2,99,r,TEST,2021_Aug_20_1327,distractmap,2020.2.10,59.966922231183275,['Abdomen'],
9,"[0.2, -0.2]",0,0,6,6,6,,,,,,,752.3864156000782,752.3864156000782,752.3864156000782,753.3863968000514,753.3697056000819,754.3697139000287,0,None,None,"[0, 0, 0]",,,752.3864156000782,752.3864156000782,,,,,,,,,,,,,,,,,,,,,,,,,,"[0, 0, 0]",,,,,999,m,2,99,r,TEST,2021_Aug_20_1327,distractmap,2020.2.10,59.966922231183275,['Abdomen'],
6,"[0.2, 0]",0,0,7,7,7,,,,,,,754.3863764000125,754.3863764000125,754.3863764000125,755.3863502000459,755.3697201000759,756.3697317000479,0,None,None,"[0, 0, 0]",,,754.3863764000125,754.3863764000125,,,,,,,,,,,,,,,,,,,,,,,,,,"[0, 0, 0]",,,,,999,m,2,99,r,TEST,2021_Aug_20_1327,distractmap,2020.2.10,59.966922231183275,['Abdomen'],
2,"[0, 0.2]",0,0,8,8,8,,,,,,,756.3864202999976,756.3864202999976,756.3864202999976,757.3864436000586,757.3697379999794,758.369755199994,0,None,None,"[0, 0, 0]",,,756.3864202999976,756.3864202999976,,,,,,,,,,,,,,,,,,,,,,,,,,"[0, 0, 0]",,,,,999,m,2,99,r,TEST,2021_Aug_20_1327,distractmap,2020.2.10,59.966922231183275,['Abdomen'],
2,"[0, 0.2]",1,0,9,9,9,,,,,,,758.3863855000818,758.3863855000818,758.3863855000818,759.3864329999778,759.3697766000405,760.3697296000319,0,None,None,"[0, 0, 0]",,,758.3863855000818,758.3863855000818,,,,,,,,,,,,,,,,,,,,,,,,,,"[0, 0, 0]",,,,,999,m,2,99,r,TEST,2021_Aug_20_1327,distractmap,2020.2.10,59.966922231183275,['Abdomen'],
,,,,,,,,,,,760.386079100077,None,,,,,,,,,,,,,,,,,,,,,,,,,,,,,,,,,,,,,,,,,50.0,769.6975723699434,,,999,m,2,99,r,TEST,2021_Aug_20_1327,distractmap,2020.2.10,59.966922231183275,['Abdomen'],
2,"[0, 0.2]",None,0,0,0,0,,,,,776.0701970000518,None,780.4186109000584,None,780.4186109000584,781.4200511000818,781.4032798000844,None,1,None,None,"[0, 0, 0]",,,780.4186109000584,None,,,,,,,,,,,,,,,,,,,,,,,,,,"[0, 0, 0]",,,0.015058130025863647,5.012997530051507,999,m,2,99,r,TEST,2021_Aug_20_1327,distractmap,2020.2.10,59.966922231183275,['Abdomen'],
8,"[0, -0.2]",0,0,1,1,1,,,,,,,782.4033247000771,None,782.4033247000771,783.4032299000537,783.386609200039,784.3866076000268,0,None,None,"[0, 0, 0]",,,782.4033247000771,None,,,,,,,,,,,,,,,,,,,,,,,,,,"[0, 0, 0]",,,,,999,m,2,99,r,TEST,2021_Aug_20_1327,distractmap,2020.2.10,59.966922231183275,['Abdomen'],
1,"[-0.2, 0.2]",0,0,2,2,2,,,,,,,784.4032951000845,784.4032951000845,784.4032951000845,785.4033116999781,785.3866025999887,786.3865908000153,0,None,None,"[0, 0, 0]",,,784.4032951000845,784.4032951000845,,,,,,,,,,,,,,,,,,,,,,,,,,"[0, 0, 0]",,,,,999,m,2,99,r,TEST,2021_Aug_20_1327,distractmap,2020.2.10,59.966922231183275,['Abdomen'],
2,"[0, 0.2]",0,0,3,3,3,,,,,,,786.4033252000809,786.4033252000809,786.4033252000809,787.4032935000723,787.3866920000874,788.3866219000192,0,None,None,"[0, 0, 0]",,,786.4033252000809,786.4033252000809,,,,,,,,,,,,,,,,,,,,,,,,,,"[0, 0, 0]",,,,,999,m,2,99,r,TEST,2021_Aug_20_1327,distractmap,2020.2.10,59.966922231183275,['Abdomen'],
2,"[0, 0.2]",1,0,4,4,4,,,,,,,788.5016409000382,788.5016409000382,788.5016409000382,789.5034130000276,789.486626500031,None,0,None,None,"[0, 0, 0]",,,788.5016409000382,788.5016409000382,,,,,,,,,,,,,,,,,,,,,,,,,,"[0, 0, 0]",,,,,999,m,2,99,r,TEST,2021_Aug_20_1327,distractmap,2020.2.10,59.966922231183275,['Abdomen'],
7,"[-0.2, -0.2]",0,0,5,5,5,,,,,,,790.420051000081,None,790.420051000081,791.4199803000083,791.4033306000056,792.4033163000131,0,None,None,"[0, 0, 0]",,,790.420051000081,None,,,,,,,,,,,,,,,,,,,,,,,,,,"[0, 0, 0]",,,,,999,m,2,99,r,TEST,2021_Aug_20_1327,distractmap,2020.2.10,59.966922231183275,['Abdomen'],
9,"[0.2, -0.2]",0,0,6,6,6,,,,,,,792.420002900064,792.420002900064,792.420002900064,793.4199705000501,793.4034201999893,794.4034432000481,0,None,None,"[0, 0, 0]",,,792.420002900064,792.420002900064,,,,,,,,,,,,,,,,,,,,,,,,,,"[0, 0, 0]",,,,,999,m,2,99,r,TEST,2021_Aug_20_1327,distractmap,2020.2.10,59.966922231183275,['Abdomen'],
9,"[0.2, -0.2]",1,0,7,7,7,,,,,,,794.4200531999813,794.4200531999813,794.4200531999813,795.4200065999757,795.4034064000007,796.4034221000038,0,None,None,"[0, 0, 0]",,,794.4200531999813,794.4200531999813,,,,,,,,,,,,,,,,,,,,,,,,,,"[0, 0, 0]",,,,,999,m,2,99,r,TEST,2021_Aug_20_1327,distractmap,2020.2.10,59.966922231183275,['Abdomen'],
4,"[-0.2, 0]",0,0,8,8,8,,,,,,,796.4200741000241,796.4200741000241,796.4200741000241,797.4200404000003,797.4033614000073,798.4034228000091,0,None,None,"[0, 0, 0]",,,796.4200741000241,796.4200741000241,,,,,,,,,,,,,,,,,,,,,,,,,,"[0, 0, 0]",,,,,999,m,2,99,r,TEST,2021_Aug_20_1327,distractmap,2020.2.10,59.966922231183275,['Abdomen'],
5,"[0, 0]",0,0,9,9,9,,,,,,,798.420052899979,798.420052899979,798.420052899979,799.4200642000651,799.4034290000563,800.4034149000654,0,None,None,"[0, 0, 0]",,,798.420052899979,798.420052899979,,,,,,,,,,,,,,,,,,,,,,,,,,"[0, 0, 0]",,,,,999,m,2,99,r,TEST,2021_Aug_20_1327,distractmap,2020.2.10,59.966922231183275,['Abdomen'],
,,,,,,,,,,,800.4198002000339,None,,,,,,,,,,,,,,,,,,,,,,,,,,,,,,,,,,,,,,,,,50.0,809.7315607698401,,,999,m,2,99,r,TEST,2021_Aug_20_1327,distractmap,2020.2.10,59.966922231183275,['Abdomen'],
2,"[0, 0.2]",None,0,0,0,0,,,,,816.1186253000051,None,820.4522793000797,None,820.4522793000797,821.4537119000452,821.4369054000126,None,1,None,None,"[0, 0, 0]",,,820.4522793000797,None,,,,,,,,,,,,,,,,,,,,,,,,,,"[0, 0, 0]",,,0.014763430110178888,5.012393030105159,999,m,2,99,r,TEST,2021_Aug_20_1327,distractmap,2020.2.10,59.966922231183275,['Abdomen'],
2,"[0, 0.2]",1,0,1,1,1,,,,,,,822.4369374000235,None,822.4369374000235,823.4369066000218,823.4203436999815,824.4202870000154,0,None,None,"[0, 0, 0]",,,822.4369374000235,None,,,,,,,,,,,,,,,,,,,,,,,,,,"[0, 0, 0]",,,,,999,m,2,99,r,TEST,2021_Aug_20_1327,distractmap,2020.2.10,59.966922231183275,['Abdomen'],
1,"[-0.2, 0.2]",0,0,2,2,2,,,,,,,824.4368963000597,824.4368963000597,824.4368963000597,825.4369313999778,825.4202539999969,826.4202585000312,0,None,None,"[0, 0, 0]",,,824.4368963000597,824.4368963000597,,,,,,,,,,,,,,,,,,,,,,,,,,"[0, 0, 0]",,,,,999,m,2,99,r,TEST,2021_Aug_20_1327,distractmap,2020.2.10,59.966922231183275,['Abdomen'],
2,"[0, 0.2]",0,0,3,3,3,,,,,,,826.4369769999757,826.4369769999757,826.4369769999757,827.4369062000187,827.4203646000242,828.4204268000321,0,None,None,"[0, 0, 0]",,,826.4369769999757,826.4369769999757,,,,,,,,,,,,,,,,,,,,,,,,,,"[0, 0, 0]",,,,,999,m,2,99,r,TEST,2021_Aug_20_1327,distractmap,2020.2.10,59.966922231183275,['Abdomen'],
2,"[0, 0.2]",1,0,4,4,4,,,,,,,828.470837000059,828.470837000059,828.470837000059,829.4703266000142,829.4537134000566,None,0,None,None,"[0, 0, 0]",,,828.470837000059,828.470837000059,,,,,,,,,,,,,,,,,,,,,,,,,,"[0, 0, 0]",,,,,999,m,2,99,r,TEST,2021_Aug_20_1327,distractmap,2020.2.10,59.966922231183275,['Abdomen'],
4,"[-0.2, 0]",0,0,5,5,5,,,,,,,830.453720999998,None,830.453720999998,831.453706500004,831.4370149000315,832.4369863000466,0,None,None,"[0, 0, 0]",,,830.453720999998,None,,,,,,,,,,,,,,,,,,,,,,,,,,"[0, 0, 0]",,,,,999,m,2,99,r,TEST,2021_Aug_20_1327,distractmap,2020.2.10,59.966922231183275,['Abdomen'],
6,"[0.2, 0]",0,0,6,6,6,,,,,,,832.4537759000668,832.4537759000668,832.4537759000668,833.4537040999858,833.4369705000427,834.4370557999937,0,None,None,"[0, 0, 0]",,,832.4537759000668,832.4537759000668,,,,,,,,,,,,,,,,,,,,,,,,,,"[0, 0, 0]",,,,,999,m,2,99,r,TEST,2021_Aug_20_1327,distractmap,2020.2.10,59.966922231183275,['Abdomen'],
8,"[0, -0.2]",0,0,7,7,7,,,,,,,834.4537108000368,834.4537108000368,834.4537108000368,835.453689499991,835.4370473000454,836.4370256999973,0,None,None,"[0, 0, 0]",,,834.4537108000368,834.4537108000368,,,,,,,,,,,,,,,,,,,,,,,,,,"[0, 0, 0]",,,,,999,m,2,99,r,TEST,2021_Aug_20_1327,distractmap,2020.2.10,59.966922231183275,['Abdomen'],
9,"[0.2, -0.2]",0,0,8,8,8,,,,,,,836.4536910000024,836.4536910000024,836.4536910000024,837.4537207999965,837.4370188000612,838.4370246999897,0,None,None,"[0, 0, 0]",,,836.4536910000024,836.4536910000024,,,,,,,,,,,,,,,,,,,,,,,,,,"[0, 0, 0]",,,,,999,m,2,99,r,TEST,2021_Aug_20_1327,distractmap,2020.2.10,59.966922231183275,['Abdomen'],
9,"[0.2, -0.2]",1,0,9,9,9,,,,,,,838.4536614000099,838.4536614000099,838.4536614000099,839.4536959000397,839.4370963000692,840.4370486000553,0,None,None,"[0, 0, 0]",,,838.4536614000099,838.4536614000099,,,,,,,,,,,,,,,,,,,,,,,,,,"[0, 0, 0]",,,,,999,m,2,99,r,TEST,2021_Aug_20_1327,distractmap,2020.2.10,59.966922231183275,['Abdomen'],
,,,,,,,,,,,840.453430900001,None,,,,,,,,,,,,,,,,,,,,,,,,,,,,,,,,,,,,,,,,,50.0,849.7645958699286,,,999,m,2,99,r,TEST,2021_Aug_20_1327,distractmap,2020.2.10,59.966922231183275,['Abdomen'],
4,"[-0.2, 0]",None,0,0,0,0,,,,,856.2875131000765,None,860.4859233000316,None,860.4859233000316,861.4873449000297,861.4705868000165,None,1,None,None,"[0, 0, 0]",,,860.4859233000316,None,,,,,,,,,,,,,,,,,,,,,,,,,,"[0, 0, 0]",,,0.015392730012536049,5.013693929999135,999,m,2,99,r,TEST,2021_Aug_20_1327,distractmap,2020.2.10,59.966922231183275,['Abdomen'],
7,"[-0.2, -0.2]",0,0,1,1,1,,,,,,,862.470657799975,None,862.470657799975,863.4705667999806,863.4539142000722,864.4538831000682,0,None,None,"[0, 0, 0]",,,862.470657799975,None,,,,,,,,,,,,,,,,,,,,,,,,,,"[0, 0, 0]",,,,,999,m,2,99,r,TEST,2021_Aug_20_1327,distractmap,2020.2.10,59.966922231183275,['Abdomen'],
7,"[-0.2, -0.2]",1,0,2,2,2,,,,,,,864.4705293000443,864.4705293000443,864.4705293000443,865.470562600065,865.4539166999748,866.4539242000319,0,None,None,"[0, 0, 0]",,,864.4705293000443,864.4705293000443,,,,,,,,,,,,,,,,,,,,,,,,,,"[0, 0, 0]",,,,,999,m,2,99,r,TEST,2021_Aug_20_1327,distractmap,2020.2.10,59.966922231183275,['Abdomen'],
4,"[-0.2, 0]",0,0,3,3,3,,,,,,,866.4706668000435,866.4706668000435,866.4706668000435,867.4705507000908,867.4539490999887,868.4539745000657,0,None,None,"[0, 0, 0]",,,866.4706668000435,866.4706668000435,,,,,,,,,,,,,,,,,,,,,,,,,,"[0, 0, 0]",,,,,999,m,2,99,r,TEST,2021_Aug_20_1327,distractmap,2020.2.10,59.966922231183275,['Abdomen'],
8,"[0, -0.2]",0,0,4,4,4,,,,,,,868.5544946000446,868.5544946000446,868.5544946000446,869.5541225000052,869.5372971000616,None,0,None,None,"[0, 0, 0]",,,868.5544946000446,868.5544946000446,,,,,,,,,,,,,,,,,,,,,,,,,,"[0, 0, 0]",,,,,999,m,2,99,r,TEST,2021_Aug_20_1327,distractmap,2020.2.10,59.966922231183275,['Abdomen'],
4,"[-0.2, 0]",0,0,5,5,5,,,,,,,870.4873304000357,None,870.4873304000357,871.487418100005,871.4706127999816,872.470587000018,0,None,None,"[0, 0, 0]",,,870.4873304000357,None,,,,,,,,,,,,,,,,,,,,,,,,,,"[0, 0, 0]",,,,,999,m,2,99,r,TEST,2021_Aug_20_1327,distractmap,2020.2.10,59.966922231183275,['Abdomen'],
7,"[-0.2, -0.2]",0,0,6,6,6,,,,,,,872.487216199981,872.487216199981,872.487216199981,873.4873297000304,873.470705499989,874.4706825000467,0,None,None,"[0, 0, 0]",,,872.487216199981,872.487216199981,,,,,,,,,,,,,,,,,,,,,,,,,,"[0, 0, 0]",,,,,999,m,2,99,r,TEST,2021_Aug_20_1327,distractmap,2020.2.10,59.966922231183275,['Abdomen'],
6,"[0.2, 0]",0,0,7,7,7,,,,,,,874.487299600034,874.487299600034,874.487299600034,875.4873155000387,875.4706812000368,876.4706796000246,0,None,None,"[0, 0, 0]",,,874.487299600034,874.487299600034,,,,,,,,,,,,,,,,,,,,,,,,,,"[0, 0, 0]",,,,,999,m,2,99,r,TEST,2021_Aug_20_1327,distractmap,2020.2.10,59.966922231183275,['Abdomen'],
6,"[0.2, 0]",1,0,8,8,8,,,,,,,876.4873877000064,876.4873877000064,876.4873877000064,877.4873192000668,877.4706827000482,878.4707434000447,0,None,None,"[0, 0, 0]",,,876.4873877000064,876.4873877000064,,,,,,,,,,,,,,,,,,,,,,,,,,"[0, 0, 0]",,,,,999,m,2,99,r,TEST,2021_Aug_20_1327,distractmap,2020.2.10,59.966922231183275,['Abdomen'],
1,"[-0.2, 0.2]",0,0,9,9,9,,,,,,,878.4874026000034,878.4874026000034,878.4874026000034,879.4874250000576,879.4707087000133,880.4706680000527,0,None,None,"[0, 0, 0]",,,878.4874026000034,878.4874026000034,,,,,,,,,,,,,,,,,,,,,,,,,,"[0, 0, 0]",,,,,999,m,2,99,r,TEST,2021_Aug_20_1327,distractmap,2020.2.10,59.966922231183275,['Abdomen'],
,,,,,,,,,,,880.4870253000408,None,,,,,,,,,,,,,,,,,,,,,,,,,,,,,,,,,,,,,,,,,50.0,889.7985873699654,,,999,m,2,99,r,TEST,2021_Aug_20_1327,distractmap,2020.2.10,59.966922231183275,['Abdomen'],
,,,,,,,,,,,,,,,,,,,,,,,,,,,,,,,,,,,,,,,,,,,,,,,,,,,,,,,0.015044630039483309,5.012991730007343,,,,,,,,,,,,
