square,location,corrAns,TaskT1Loop.thisRepN,TaskT1Loop.thisTrialN,TaskT1Loop.thisN,TaskT1Loop.thisIndex,trials.thisRepN,trials.thisTrialN,trials.thisN,trials.thisIndex,trials_2.thisRepN,trials_2.thisTrialN,trials_2.thisN,trials_2.thisIndex,runLoop.thisRepN,runLoop.thisTrialN,runLoop.thisN,runLoop.thisIndex,runSeq,fixation_1.started,fixation_1.stopped,grid_lines.started,grid_lines.stopped,target_square.started,target_square.stopped,fixation_2.started,fixation_2.stopped,response.corr,response.x,response.y,response.leftButton,response.click_left,response.click_right,response.started,response.stopped,ScoreReportText.started,ScoreReportText.stopped,ScoreReportResponse.keys,ScoreReportResponse.started,ScoreReportResponse.stopped,response_2.x,response_2.y,response_2.leftButton,grid_lines_2.started,grid_lines_2.stopped,target_square_2.started,target_square_2.stopped,fixation_3.started,fixation_3.stopped,response_2.click,response_2.corr,response_2.started,response_2.stopped,BodySiteInstructionText.started,BodySiteImg.started,BodySiteImg.stopped,BodySiteInstructionRead.keys,BodySiteInstructionRead.rt,BodySiteInstructionRead.started,BodySiteInstructionRead.stopped,response.click,subject number,gender,bodymap first- or second-half (1 or 2),session,handedness,scanner,date,expName,psychopyVersion,frameRate,body_site_order,
6,"[0.2, 0]",None,0,0,0,0,0,0,0,0,,,,,,,,,,116.55793170002289,None,117.61808559999918,None,117.61808559999918,118.62520020001102,118.60820570000215,None,1,-0.43333333333333335,-0.12638888888888888,"[0, 0, 0]",0,0,117.61808559999918,None,,,,,,,,,,,,,,,,,,,,,,,,,,,999,m,2,99,r,TEST,2021_Aug_07_1432,WASABI distractmap,2020.2.10,59.79638136407722,"['Right Leg', 'Right Face', 'Left Arm', 'Left Face']",
6,"[0.2, 0]",1.0,0,0,0,0,0,1,1,1,,,,,,,,,,,,119.57533819999662,None,119.57533819999662,120.57588250000845,120.55932120000944,None,1,-0.43333333333333335,-0.12638888888888888,"[0, 0, 0]",0,0,119.57533819999662,None,,,,,,,,,,,,,,,,,,,,,,,,,,,999,m,2,99,r,TEST,2021_Aug_07_1432,WASABI distractmap,2020.2.10,59.79638136407722,"['Right Leg', 'Right Face', 'Left Arm', 'Left Face']",
2,"[0, 0.2]",0.0,0,0,0,0,0,2,2,2,,,,,,,,,,,,121.56008650001604,None,121.56008650001604,122.56050660001347,122.54353140000603,123.5440267000231,1,-0.43333333333333335,-0.12638888888888888,"[0, 0, 0]",0,0,121.56008650001604,None,,,,,,,,,,,,,,,,,,,,,,,,,,,999,m,2,99,r,TEST,2021_Aug_07_1432,WASABI distractmap,2020.2.10,59.79638136407722,"['Right Leg', 'Right Face', 'Left Arm', 'Left Face']",
9,"[0.2, -0.2]",0.0,0,0,0,0,0,3,3,3,,,,,,,,,,,,123.56092479999643,None,123.56092479999643,124.56136069999775,124.54474760001176,125.54495030001272,1,-0.43333333333333335,-0.12638888888888888,"[0, 0, 0]",0,0,123.56092479999643,None,,,,,,,,,,,,,,,,,,,,,,,,,,,999,m,2,99,r,TEST,2021_Aug_07_1432,WASABI distractmap,2020.2.10,59.79638136407722,"['Right Leg', 'Right Face', 'Left Arm', 'Left Face']",
9,"[0.2, -0.2]",1.0,0,0,0,0,0,4,4,4,,,,,,,,,,,,125.56201580000925,None,125.56201580000925,126.56259280000813,126.5455273000116,127.5460362000158,1,-0.43333333333333335,-0.12638888888888888,"[0, 0, 0]",0,0,125.56201580000925,None,,,,,,,,,,,,,,,,,,,,,,,,,,,999,m,2,99,r,TEST,2021_Aug_07_1432,WASABI distractmap,2020.2.10,59.79638136407722,"['Right Leg', 'Right Face', 'Left Arm', 'Left Face']",
6,"[0.2, 0]",0.0,0,0,0,0,0,5,5,5,,,,,,,,,,,,127.56304660000023,None,127.56304660000023,128.56345180000062,128.5464617999969,129.54716230000486,1,-0.43333333333333335,-0.12638888888888888,"[0, 0, 0]",0,0,127.56304660000023,None,,,,,,,,,,,,,,,,,,,,,,,,,,,999,m,2,99,r,TEST,2021_Aug_07_1432,WASABI distractmap,2020.2.10,59.79638136407722,"['Right Leg', 'Right Face', 'Left Arm', 'Left Face']",
4,"[-0.2, 0]",0.0,0,0,0,0,0,6,6,6,,,,,,,,,,,,129.5640759000089,None,129.5640759000089,130.56446069999947,130.5475529000105,131.54809820000082,1,-0.43333333333333335,-0.12638888888888888,"[0, 0, 0]",0,0,129.5640759000089,None,,,,,,,,,,,,,,,,,,,,,,,,,,,999,m,2,99,r,TEST,2021_Aug_07_1432,WASABI distractmap,2020.2.10,59.79638136407722,"['Right Leg', 'Right Face', 'Left Arm', 'Left Face']",
3,"[0.2, 0.2]",0.0,0,0,0,0,0,7,7,7,,,,,,,,,,,,131.56523560002097,None,131.56523560002097,132.56544470001245,132.54866910001147,133.54911030002404,1,-0.43333333333333335,-0.12638888888888888,"[0, 0, 0]",0,0,131.56523560002097,None,,,,,,,,,,,,,,,,,,,,,,,,,,,999,m,2,99,r,TEST,2021_Aug_07_1432,WASABI distractmap,2020.2.10,59.79638136407722,"['Right Leg', 'Right Face', 'Left Arm', 'Left Face']",
3,"[0.2, 0.2]",1.0,0,0,0,0,0,8,8,8,,,,,,,,,,,,133.56590210000286,None,133.56590210000286,134.56637850002153,134.54962100001285,135.55004820000613,0,-0.43333333333333335,-0.12638888888888888,"[0, 0, 0]",0,0,133.56590210000286,None,,,,,,,,,,,,,,,,,,,,,,,,,,,999,m,2,99,r,TEST,2021_Aug_07_1432,WASABI distractmap,2020.2.10,59.79638136407722,"['Right Leg', 'Right Face', 'Left Arm', 'Left Face']",
8,"[0, -0.2]",0.0,0,0,0,0,0,9,9,9,,,,,,,,,,,,135.56719680002425,None,135.56719680002425,136.5673231999972,136.55058290000306,137.5510368999967,1,-0.43333333333333335,-0.12638888888888888,"[0, 0, 0]",0,0,135.56719680002425,None,,,,,,,,,,,,,,,,,,,,,,,,,,,999,m,2,99,r,TEST,2021_Aug_07_1432,WASABI distractmap,2020.2.10,59.79638136407722,"['Right Leg', 'Right Face', 'Left Arm', 'Left Face']",
1,"[-0.2, 0.2]",0.0,0,0,0,0,0,10,10,10,,,,,,,,,,,,137.56789330000174,None,137.56789330000174,138.56855510000605,138.55154519999633,139.55216160000418,1,-0.43333333333333335,-0.12638888888888888,"[0, 0, 0]",0,0,137.56789330000174,None,,,,,,,,,,,,,,,,,,,,,,,,,,,999,m,2,99,r,TEST,2021_Aug_07_1432,WASABI distractmap,2020.2.10,59.79638136407722,"['Right Leg', 'Right Face', 'Left Arm', 'Left Face']",
2,"[0, 0.2]",0.0,0,0,0,0,0,11,11,11,,,,,,,,,,,,139.56911550002405,None,139.56911550002405,140.56938410000294,140.55255059999763,141.55333870000322,0,-0.43333333333333335,-0.12638888888888888,"[0, 0, 0]",0,0,139.56911550002405,None,,,,,,,,,,,,,,,,,,,,,,,,,,,999,m,2,99,r,TEST,2021_Aug_07_1432,WASABI distractmap,2020.2.10,59.79638136407722,"['Right Leg', 'Right Face', 'Left Arm', 'Left Face']",
4,"[-0.2, 0]",0.0,0,0,0,0,0,12,12,12,,,,,,,,,,,,141.5698680000205,None,141.5698680000205,142.57017429999541,142.55361540001468,143.55433860002086,1,-0.43333333333333335,-0.12638888888888888,"[0, 0, 0]",0,0,141.5698680000205,None,,,,,,,,,,,,,,,,,,,,,,,,,,,999,m,2,99,r,TEST,2021_Aug_07_1432,WASABI distractmap,2020.2.10,59.79638136407722,"['Right Leg', 'Right Face', 'Left Arm', 'Left Face']",
4,"[-0.2, 0]",1.0,0,0,0,0,0,13,13,13,,,,,,,,,,,,143.57075500002247,None,143.57075500002247,144.57124050002312,144.55481830000645,145.55533719999949,0,-0.43333333333333335,-0.12638888888888888,"[0, 0, 0]",0,0,143.57075500002247,None,,,,,,,,,,,,,,,,,,,,,,,,,,,999,m,2,99,r,TEST,2021_Aug_07_1432,WASABI distractmap,2020.2.10,59.79638136407722,"['Right Leg', 'Right Face', 'Left Arm', 'Left Face']",
8,"[0, -0.2]",0.0,0,0,0,0,0,14,14,14,,,,,,,,,,,,145.57164400001056,None,145.57164400001056,146.5723086000071,146.55606490001082,147.55647370000952,1,-0.43333333333333335,-0.12638888888888888,"[0, 0, 0]",0,0,145.57164400001056,None,,,,,,,,,,,,,,,,,,,,,,,,,,,999,m,2,99,r,TEST,2021_Aug_07_1432,WASABI distractmap,2020.2.10,59.79638136407722,"['Right Leg', 'Right Face', 'Left Arm', 'Left Face']",
5,"[0, 0]",0.0,0,0,0,0,0,15,15,15,,,,,,,,,,,,147.57274910001433,None,147.57274910001433,148.57320730001084,148.5566714000015,149.55732670001453,1,-0.43333333333333335,-0.12638888888888888,"[0, 0, 0]",0,0,147.57274910001433,None,,,,,,,,,,,,,,,,,,,,,,,,,,,999,m,2,99,r,TEST,2021_Aug_07_1432,WASABI distractmap,2020.2.10,59.79638136407722,"['Right Leg', 'Right Face', 'Left Arm', 'Left Face']",
5,"[0, 0]",1.0,0,0,0,0,0,16,16,16,,,,,,,,,,,,149.57367030001478,None,149.57367030001478,150.57420980001916,150.5578308000113,151.55848210002296,1,-0.43333333333333335,-0.12638888888888888,"[0, 0, 0]",0,0,149.57367030001478,None,,,,,,,,,,,,,,,,,,,,,,,,,,,999,m,2,99,r,TEST,2021_Aug_07_1432,WASABI distractmap,2020.2.10,59.79638136407722,"['Right Leg', 'Right Face', 'Left Arm', 'Left Face']",
1,"[-0.2, 0.2]",0.0,0,0,0,0,0,17,17,17,,,,,,,,,,,,151.5748829000222,None,151.5748829000222,152.5752366000088,152.559064400004,153.55919490000815,0,-0.43333333333333335,-0.12638888888888888,"[0, 0, 0]",0,0,151.5748829000222,None,,,,,,,,,,,,,,,,,,,,,,,,,,,999,m,2,99,r,TEST,2021_Aug_07_1432,WASABI distractmap,2020.2.10,59.79638136407722,"['Right Leg', 'Right Face', 'Left Arm', 'Left Face']",
3,"[0.2, 0.2]",0.0,0,0,0,0,0,18,18,18,,,,,,,,,,,,153.57570990000386,None,153.57570990000386,154.57640210000682,154.56000170001062,None,1,-0.43333333333333335,-0.12638888888888888,"[0, 0, 0]",0,0,153.57570990000386,None,,,,,,,,,,,,,,,,,,,,,,,,,,,999,m,2,99,r,TEST,2021_Aug_07_1432,WASABI distractmap,2020.2.10,59.79638136407722,"['Right Leg', 'Right Face', 'Left Arm', 'Left Face']",
6,"[0.2, 0]",0.0,0,0,0,0,0,19,19,19,,,,,,,,,,,,155.5603492000082,None,155.5603492000082,156.56080669999938,156.54392640001606,157.5444664999959,1,-0.43333333333333335,-0.12638888888888888,"[0, 0, 0]",0,0,155.5603492000082,None,,,,,,,,,,,,,,,,,,,,,,,,,,,999,m,2,99,r,TEST,2021_Aug_07_1432,WASABI distractmap,2020.2.10,59.79638136407722,"['Right Leg', 'Right Face', 'Left Arm', 'Left Face']",
1,"[-0.2, 0.2]",0.0,0,0,0,0,0,20,20,20,,,,,,,,,,,,157.56117410000297,None,157.56117410000297,158.56176820001565,158.54496240001754,159.54554710001685,1,-0.43333333333333335,-0.12638888888888888,"[0, 0, 0]",0,0,157.56117410000297,None,,,,,,,,,,,,,,,,,,,,,,,,,,,999,m,2,99,r,TEST,2021_Aug_07_1432,WASABI distractmap,2020.2.10,59.79638136407722,"['Right Leg', 'Right Face', 'Left Arm', 'Left Face']",
1,"[-0.2, 0.2]",1.0,0,0,0,0,0,21,21,21,,,,,,,,,,,,159.56223209999735,None,159.56223209999735,160.56271260001813,160.5458802000212,161.54645240001264,1,-0.43333333333333335,-0.12638888888888888,"[0, 0, 0]",0,0,159.56223209999735,None,,,,,,,,,,,,,,,,,,,,,,,,,,,999,m,2,99,r,TEST,2021_Aug_07_1432,WASABI distractmap,2020.2.10,59.79638136407722,"['Right Leg', 'Right Face', 'Left Arm', 'Left Face']",
1,"[-0.2, 0.2]",1.0,0,0,0,0,0,22,22,22,,,,,,,,,,,,161.56385540001793,None,161.56385540001793,162.56386770002428,162.54703660000814,163.5474685000081,1,-0.43333333333333335,-0.12638888888888888,"[0, 0, 0]",0,0,161.56385540001793,None,,,,,,,,,,,,,,,,,,,,,,,,,,,999,m,2,99,r,TEST,2021_Aug_07_1432,WASABI distractmap,2020.2.10,59.79638136407722,"['Right Leg', 'Right Face', 'Left Arm', 'Left Face']",
3,"[0.2, 0.2]",0.0,0,0,0,0,0,23,23,23,,,,,,,,,,,,163.5642810999998,None,163.5642810999998,164.56474230001913,164.54790950001916,165.54849169999943,1,-0.43333333333333335,-0.12638888888888888,"[0, 0, 0]",0,0,163.5642810999998,None,,,,,,,,,,,,,,,,,,,,,,,,,,,999,m,2,99,r,TEST,2021_Aug_07_1432,WASABI distractmap,2020.2.10,59.79638136407722,"['Right Leg', 'Right Face', 'Left Arm', 'Left Face']",
2,"[0, 0.2]",0.0,0,0,0,0,0,24,24,24,,,,,,,,,,,,165.5652143000043,None,165.5652143000043,166.56586490001064,166.54916350002168,167.54951209999854,1,-0.43333333333333335,-0.12638888888888888,"[0, 0, 0]",0,0,165.5652143000043,None,,,,,,,,,,,,,,,,,,,,,,,,,,,999,m,2,99,r,TEST,2021_Aug_07_1432,WASABI distractmap,2020.2.10,59.79638136407722,"['Right Leg', 'Right Face', 'Left Arm', 'Left Face']",
1,"[-0.2, 0.2]",0.0,0,0,0,0,0,25,25,25,,,,,,,,,,,,167.56641700002365,None,167.56641700002365,168.56668119999813,168.54988550001872,169.55042139999568,1,-0.43333333333333335,-0.12638888888888888,"[0, 0, 0]",0,0,167.56641700002365,None,,,,,,,,,,,,,,,,,,,,,,,,,,,999,m,2,99,r,TEST,2021_Aug_07_1432,WASABI distractmap,2020.2.10,59.79638136407722,"['Right Leg', 'Right Face', 'Left Arm', 'Left Face']",
7,"[-0.2, -0.2]",0.0,0,0,0,0,0,26,26,26,,,,,,,,,,,,169.56737770000473,None,169.56737770000473,170.5676846000133,170.55088280001655,171.5514361000096,1,-0.43333333333333335,-0.12638888888888888,"[0, 0, 0]",0,0,169.56737770000473,None,,,,,,,,,,,,,,,,,,,,,,,,,,,999,m,2,99,r,TEST,2021_Aug_07_1432,WASABI distractmap,2020.2.10,59.79638136407722,"['Right Leg', 'Right Face', 'Left Arm', 'Left Face']",
7,"[-0.2, -0.2]",1.0,0,0,0,0,0,27,27,27,,,,,,,,,,,,171.56849500001408,None,171.56849500001408,172.56866610000725,172.55188490002183,173.55249420000473,0,-0.43333333333333335,-0.12638888888888888,"[0, 0, 0]",0,0,171.56849500001408,None,,,,,,,,,,,,,,,,,,,,,,,,,,,999,m,2,99,r,TEST,2021_Aug_07_1432,WASABI distractmap,2020.2.10,59.79638136407722,"['Right Leg', 'Right Face', 'Left Arm', 'Left Face']",
2,"[0, 0.2]",0.0,0,0,0,0,0,28,28,28,,,,,,,,,,,,173.56937340000877,None,173.56937340000877,174.56962960000965,174.55317020000075,175.5536275000195,1,-0.43333333333333335,-0.12638888888888888,"[0, 0, 0]",0,0,173.56937340000877,None,,,,,,,,,,,,,,,,,,,,,,,,,,,999,m,2,99,r,TEST,2021_Aug_07_1432,WASABI distractmap,2020.2.10,59.79638136407722,"['Right Leg', 'Right Face', 'Left Arm', 'Left Face']",
6,"[0.2, 0]",0.0,0,0,0,0,0,29,29,29,,,,,,,,,,,,175.57013510001707,None,175.57013510001707,176.57071220001671,176.55457609999576,177.55463510000845,1,-0.43333333333333335,-0.12638888888888888,"[0, 0, 0]",0,0,175.57013510001707,None,,,,,,,,,,,,,,,,,,,,,,,,,,,999,m,2,99,r,TEST,2021_Aug_07_1432,WASABI distractmap,2020.2.10,59.79638136407722,"['Right Leg', 'Right Face', 'Left Arm', 'Left Face']",
,,,0,0,0,0,,,,,,,,,,,,,,,,,,,,,,,,,,,,,,177.57695670000976,None,space,177.57695670000976,None,,,,,,,,,,,,,,,,,,,,,,999,m,2,99,r,TEST,2021_Aug_07_1432,WASABI distractmap,2020.2.10,59.79638136407722,"['Right Leg', 'Right Face', 'Left Arm', 'Left Face']",
6,"[0.2, 0]",None,,,,,,,,,0,0,0,0,,,,,,195.080008799996,None,,,,,,,,,,,,,,,,,,,,None,None,"[0, 0, 0]",196.08889780001482,None,196.08889780001482,197.0977851000207,197.08100249999552,198.0814380000229,"[0, 0, 0]",1,196.08889780001482,None,,,,,,,,,999,m,2,99,r,TEST,2021_Aug_07_1432,WASABI distractmap,2020.2.10,59.79638136407722,"['Right Leg', 'Right Face', 'Left Arm', 'Left Face']",
7,"[-0.2, -0.2]",None,,,,,,,,,0,1,1,1,,,,,,,,,,,,,,,,,,,,,,,,,,,None,None,"[0, 0, 0]",198.09834009999759,200.09989480001968,198.09834009999759,199.0986249000125,199.08194230002118,200.08235040001455,"[0, 0, 0]",0,198.09834009999759,200.09989480001968,,,,,,,,,999,m,2,99,r,TEST,2021_Aug_07_1432,WASABI distractmap,2020.2.10,59.79638136407722,"['Right Leg', 'Right Face', 'Left Arm', 'Left Face']",
6,"[0.2, 0]",1.0,,,,,,,,,0,2,2,2,,,,,,,,,,,,,,,,,,,,,,,,,,,None,None,"[0, 0, 0]",200.11566140002105,202.11686170002213,200.11566140002105,201.11627620001673,201.09978310001316,202.1003219000122,"[0, 0, 0]",0,200.11566140002105,202.11686170002213,,,,,,,,,999,m,2,99,r,TEST,2021_Aug_07_1432,WASABI distractmap,2020.2.10,59.79638136407722,"['Right Leg', 'Right Face', 'Left Arm', 'Left Face']",
2,"[0, 0.2]",0.0,,,,,,,,,0,3,3,3,,,,,,,,,,,,,,,,,,,,,,,,,,,None,None,"[0, 0, 0]",202.13361700001406,204.1345369000046,202.13361700001406,203.1341905000154,203.11723730000085,204.117687400023,"[0, 0, 0]",1,202.13361700001406,204.1345369000046,,,,,,,,,999,m,2,99,r,TEST,2021_Aug_07_1432,WASABI distractmap,2020.2.10,59.79638136407722,"['Right Leg', 'Right Face', 'Left Arm', 'Left Face']",
5,"[0, 0]",0.0,,,,,,,,,0,4,4,4,,,,,,,,,,,,,,,,,,,,,,,,,,,None,None,"[0, 0, 0]",204.15106990002096,206.15215830001398,204.15106990002096,205.15159480000148,205.1352249000047,206.1362489000021,"[0, 0, 0]",1,204.15106990002096,206.15215830001398,,,,,,,,,999,m,2,99,r,TEST,2021_Aug_07_1432,WASABI distractmap,2020.2.10,59.79638136407722,"['Right Leg', 'Right Face', 'Left Arm', 'Left Face']",
4,"[-0.2, 0]",0.0,,,,,,,,,0,5,5,5,,,,,,,,,,,,,,,,,,,,,,,,,,,None,None,"[0, 0, 0]",206.169223600009,208.1698357000132,206.169223600009,207.16940149999573,207.15263490000507,208.15337559999898,"[0, 0, 0]",1,206.169223600009,208.1698357000132,,,,,,,,,999,m,2,99,r,TEST,2021_Aug_07_1432,WASABI distractmap,2020.2.10,59.79638136407722,"['Right Leg', 'Right Face', 'Left Arm', 'Left Face']",
4,"[-0.2, 0]",0.0,,,,,,,,,0,6,6,6,,,,,,,,,,,,,,,,,,,,,,,,,,,None,None,"[0, 0, 0]",208.18674370000372,210.18749800001387,208.18674370000372,209.1871391000168,209.1702362000069,210.17079940001713,"[0, 0, 0]",1,208.18674370000372,210.18749800001387,,,,,,,,,999,m,2,99,r,TEST,2021_Aug_07_1432,WASABI distractmap,2020.2.10,59.79638136407722,"['Right Leg', 'Right Face', 'Left Arm', 'Left Face']",
7,"[-0.2, -0.2]",0.0,,,,,,,,,0,7,7,7,,,,,,,,,,,,,,,,,,,,,,,,,,,None,None,"[0, 0, 0]",210.2040704000101,212.20522830000846,210.2040704000101,211.20466850002413,211.18825490001473,212.18863849999616,"[0, 0, 0]",0,210.2040704000101,212.20522830000846,,,,,,,,,999,m,2,99,r,TEST,2021_Aug_07_1432,WASABI distractmap,2020.2.10,59.79638136407722,"['Right Leg', 'Right Face', 'Left Arm', 'Left Face']",
4,"[-0.2, 0]",1.0,,,,,,,,,0,8,8,8,,,,,,,,,,,,,,,,,,,,,,,,,,,None,None,"[0, 0, 0]",212.22195520001696,214.22303429999738,212.22195520001696,213.22248409999884,213.20562409999548,214.20612499999697,"[0, 0, 0]",0,212.22195520001696,214.22303429999738,,,,,,,,,999,m,2,99,r,TEST,2021_Aug_07_1432,WASABI distractmap,2020.2.10,59.79638136407722,"['Right Leg', 'Right Face', 'Left Arm', 'Left Face']",
3,"[0.2, 0.2]",0.0,,,,,,,,,0,9,9,9,,,,,,,,,,,,,,,,,,,,,,,,,,,None,None,"[0, 0, 0]",214.2394220000133,216.24046590001672,214.2394220000133,215.23996490001446,215.2235314999998,216.22394759999588,"[0, 0, 0]",1,214.2394220000133,216.24046590001672,,,,,,,,,999,m,2,99,r,TEST,2021_Aug_07_1432,WASABI distractmap,2020.2.10,59.79638136407722,"['Right Leg', 'Right Face', 'Left Arm', 'Left Face']",
5,"[0, 0]",0.0,,,,,,,,,0,10,10,10,,,,,,,,,,,,,,,,,,,,,,,,,,,None,None,"[0, 0, 0]",216.2574891000113,218.25838030001614,216.2574891000113,217.25770710001234,217.2410160000145,218.24148200001218,"[0, 0, 0]",1,216.2574891000113,218.25838030001614,,,,,,,,,999,m,2,99,r,TEST,2021_Aug_07_1432,WASABI distractmap,2020.2.10,59.79638136407722,"['Right Leg', 'Right Face', 'Left Arm', 'Left Face']",
3,"[0.2, 0.2]",1.0,,,,,,,,,0,11,11,11,,,,,,,,,,,,,,,,,,,,,,,,,,,None,None,"[0, 0, 0]",218.2747715000005,220.27579380001407,218.2747715000005,219.27535660000285,219.258702799998,220.2596681000141,"[0, 0, 0]",1,218.2747715000005,220.27579380001407,,,,,,,,,999,m,2,99,r,TEST,2021_Aug_07_1432,WASABI distractmap,2020.2.10,59.79638136407722,"['Right Leg', 'Right Face', 'Left Arm', 'Left Face']",
1,"[-0.2, 0.2]",0.0,,,,,,,,,0,12,12,12,,,,,,,,,,,,,,,,,,,,,,,,,,,None,None,"[0, 0, 0]",220.29281579999952,222.29379190001055,220.29281579999952,221.2931659000169,221.27630050000153,222.2768382000213,"[0, 0, 0]",1,220.29281579999952,222.29379190001055,,,,,,,,,999,m,2,99,r,TEST,2021_Aug_07_1432,WASABI distractmap,2020.2.10,59.79638136407722,"['Right Leg', 'Right Face', 'Left Arm', 'Left Face']",
9,"[0.2, -0.2]",0.0,,,,,,,,,0,13,13,13,,,,,,,,,,,,,,,,,,,,,,,,,,,None,None,"[0, 0, 0]",222.3101716999954,224.31126780001796,222.3101716999954,223.31072609999683,223.2941897000128,224.29470550001133,"[0, 0, 0]",1,222.3101716999954,224.31126780001796,,,,,,,,,999,m,2,99,r,TEST,2021_Aug_07_1432,WASABI distractmap,2020.2.10,59.79638136407722,"['Right Leg', 'Right Face', 'Left Arm', 'Left Face']",
9,"[0.2, -0.2]",0.0,,,,,,,,,0,14,14,14,,,,,,,,,,,,,,,,,,,,,,,,,,,None,None,"[0, 0, 0]",224.32808740000473,226.32906350001576,224.32808740000473,225.32907100001466,225.31170500000007,226.31218790001003,"[0, 0, 0]",0,224.32808740000473,226.32906350001576,,,,,,,,,999,m,2,99,r,TEST,2021_Aug_07_1432,WASABI distractmap,2020.2.10,59.79638136407722,"['Right Leg', 'Right Face', 'Left Arm', 'Left Face']",
8,"[0, -0.2]",0.0,,,,,,,,,0,15,15,15,,,,,,,,,,,,,,,,,,,,,,,,,,,None,None,"[0, 0, 0]",226.34550809999928,228.34666830001515,226.34550809999928,227.3460469999991,227.32971869999892,228.33035790000577,"[0, 0, 0]",1,226.34550809999928,228.34666830001515,,,,,,,,,999,m,2,99,r,TEST,2021_Aug_07_1432,WASABI distractmap,2020.2.10,59.79638136407722,"['Right Leg', 'Right Face', 'Left Arm', 'Left Face']",
6,"[0.2, 0]",0.0,,,,,,,,,0,16,16,16,,,,,,,,,,,,,,,,,,,,,,,,,,,None,None,"[0, 0, 0]",228.36356210001395,230.36454680000315,228.36356210001395,229.3641295999987,229.34717920000548,230.34757460001856,"[0, 0, 0]",1,228.36356210001395,230.36454680000315,,,,,,,,,999,m,2,99,r,TEST,2021_Aug_07_1432,WASABI distractmap,2020.2.10,59.79638136407722,"['Right Leg', 'Right Face', 'Left Arm', 'Left Face']",
3,"[0.2, 0.2]",0.0,,,,,,,,,0,17,17,17,,,,,,,,,,,,,,,,,,,,,,,,,,,None,None,"[0, 0, 0]",230.38115339999786,232.38200610000058,230.38115339999786,231.3813678000006,231.36493229999905,232.36539360001916,"[0, 0, 0]",1,230.38115339999786,232.38200610000058,,,,,,,,,999,m,2,99,r,TEST,2021_Aug_07_1432,WASABI distractmap,2020.2.10,59.79638136407722,"['Right Leg', 'Right Face', 'Left Arm', 'Left Face']",
6,"[0.2, 0]",1.0,,,,,,,,,0,18,18,18,,,,,,,,,,,,,,,,,,,,,,,,,,,None,None,"[0, 0, 0]",232.3987909000134,234.39993600000162,232.3987909000134,233.39920840002014,233.38237380000646,234.3830060000182,"[0, 0, 0]",0,232.3987909000134,234.39993600000162,,,,,,,,,999,m,2,99,r,TEST,2021_Aug_07_1432,WASABI distractmap,2020.2.10,59.79638136407722,"['Right Leg', 'Right Face', 'Left Arm', 'Left Face']",
5,"[0, 0]",0.0,,,,,,,,,0,19,19,19,,,,,,,,,,,,,,,,,,,,,,,,,,,None,None,"[0, 0, 0]",234.41626870000619,236.41733340002247,234.41626870000619,235.41684370001894,235.40052789999754,236.40092970000114,"[0, 0, 0]",1,234.41626870000619,236.41733340002247,,,,,,,,,999,m,2,99,r,TEST,2021_Aug_07_1432,WASABI distractmap,2020.2.10,59.79638136407722,"['Right Leg', 'Right Face', 'Left Arm', 'Left Face']",
7,"[-0.2, -0.2]",0.0,,,,,,,,,0,20,20,20,,,,,,,,,,,,,,,,,,,,,,,,,,,None,None,"[0, 0, 0]",236.43403210001998,238.43521820000024,236.43403210001998,237.43466820000322,237.41771300000255,238.41825960000278,"[0, 0, 0]",1,236.43403210001998,238.43521820000024,,,,,,,,,999,m,2,99,r,TEST,2021_Aug_07_1432,WASABI distractmap,2020.2.10,59.79638136407722,"['Right Leg', 'Right Face', 'Left Arm', 'Left Face']",
5,"[0, 0]",1.0,,,,,,,,,0,21,21,21,,,,,,,,,,,,,,,,,,,,,,,,,,,None,None,"[0, 0, 0]",238.4515711000131,240.4527250000101,238.4515711000131,239.45206790001248,239.43572340000537,240.43609970001853,"[0, 0, 0]",0,238.4515711000131,240.4527250000101,,,,,,,,,999,m,2,99,r,TEST,2021_Aug_07_1432,WASABI distractmap,2020.2.10,59.79638136407722,"['Right Leg', 'Right Face', 'Left Arm', 'Left Face']",
1,"[-0.2, 0.2]",0.0,,,,,,,,,0,22,22,22,,,,,,,,,,,,,,,,,,,,,,,,,,,None,None,"[0, 0, 0]",240.46956230001524,242.47029680002015,240.46956230001524,241.46997490001377,241.45312660001218,242.4541819000151,"[0, 0, 0]",1,240.46956230001524,242.47029680002015,,,,,,,,,999,m,2,99,r,TEST,2021_Aug_07_1432,WASABI distractmap,2020.2.10,59.79638136407722,"['Right Leg', 'Right Face', 'Left Arm', 'Left Face']",
7,"[-0.2, -0.2]",0.0,,,,,,,,,0,23,23,23,,,,,,,,,,,,,,,,,,,,,,,,,,,None,None,"[0, 0, 0]",242.48724310001126,244.48818899999605,242.48724310001126,243.48771549999947,243.47081430000253,244.47137290000683,"[0, 0, 0]",1,242.48724310001126,244.48818899999605,,,,,,,,,999,m,2,99,r,TEST,2021_Aug_07_1432,WASABI distractmap,2020.2.10,59.79638136407722,"['Right Leg', 'Right Face', 'Left Arm', 'Left Face']",
9,"[0.2, -0.2]",0.0,,,,,,,,,0,24,24,24,,,,,,,,,,,,,,,,,,,,,,,,,,,None,None,"[0, 0, 0]",244.5048051000049,246.5057577000116,244.5048051000049,245.50519050000003,245.48883410001872,246.4892887000169,"[0, 0, 0]",1,244.5048051000049,246.5057577000116,,,,,,,,,999,m,2,99,r,TEST,2021_Aug_07_1432,WASABI distractmap,2020.2.10,59.79638136407722,"['Right Leg', 'Right Face', 'Left Arm', 'Left Face']",
3,"[0.2, 0.2]",0.0,,,,,,,,,0,25,25,25,,,,,,,,,,,,,,,,,,,,,,,,,,,None,None,"[0, 0, 0]",246.5224634000042,248.5233671000169,246.5224634000042,247.52308500002255,247.50626910000574,248.50666569999885,"[0, 0, 0]",1,246.5224634000042,248.5233671000169,,,,,,,,,999,m,2,99,r,TEST,2021_Aug_07_1432,WASABI distractmap,2020.2.10,59.79638136407722,"['Right Leg', 'Right Face', 'Left Arm', 'Left Face']",
9,"[0.2, -0.2]",1.0,,,,,,,,,0,26,26,26,,,,,,,,,,,,,,,,,,,,,,,,,,,None,None,"[0, 0, 0]",248.54000020000967,250.54100769999786,248.54000020000967,249.54049400001531,249.52421770000365,250.52442580001662,"[0, 0, 0]",0,248.54000020000967,250.54100769999786,,,,,,,,,999,m,2,99,r,TEST,2021_Aug_07_1432,WASABI distractmap,2020.2.10,59.79638136407722,"['Right Leg', 'Right Face', 'Left Arm', 'Left Face']",
6,"[0.2, 0]",0.0,,,,,,,,,0,27,27,27,,,,,,,,,,,,,,,,,,,,,,,,,,,None,None,"[0, 0, 0]",250.5580993000185,252.55905569999595,250.5580993000185,251.55852859999868,251.54150600000867,252.5420207999996,"[0, 0, 0]",1,250.5580993000185,252.55905569999595,,,,,,,,,999,m,2,99,r,TEST,2021_Aug_07_1432,WASABI distractmap,2020.2.10,59.79638136407722,"['Right Leg', 'Right Face', 'Left Arm', 'Left Face']",
2,"[0, 0.2]",0.0,,,,,,,,,0,28,28,28,,,,,,,,,,,,,,,,,,,,,,,,,,,None,None,"[0, 0, 0]",252.5753825000138,254.5764138000086,252.5753825000138,253.57614069999545,253.55952140002046,254.56003650001367,"[0, 0, 0]",1,252.5753825000138,254.5764138000086,,,,,,,,,999,m,2,99,r,TEST,2021_Aug_07_1432,WASABI distractmap,2020.2.10,59.79638136407722,"['Right Leg', 'Right Face', 'Left Arm', 'Left Face']",
5,"[0, 0]",0.0,,,,,,,,,0,29,29,29,,,,,,,,,,,,,,,,,,,,,,,,,,,None,None,"[0, 0, 0]",254.59335040001315,256.5944157000049,254.59335040001315,255.5939399000199,255.57686980001745,256.57743560001836,"[0, 0, 0]",1,254.59335040001315,256.5944157000049,,,,,,,,,999,m,2,99,r,TEST,2021_Aug_07_1432,WASABI distractmap,2020.2.10,59.79638136407722,"['Right Leg', 'Right Face', 'Left Arm', 'Left Face']",
,,,,,,,,,,,,,,,,,,,,,,,,,,,,,,,,,,,,256.61077280002064,None,space,256.61077280002064,None,,,,,,,,,,,,,,,,,,,,,,999,m,2,99,r,TEST,2021_Aug_07_1432,WASABI distractmap,2020.2.10,59.79638136407722,"['Right Leg', 'Right Face', 'Left Arm', 'Left Face']",
,,,,,,,,,,,,,,,,,,,,282.94042500000796,None,283.9430618000042,None,283.9430618000042,284.9583337000222,284.9416112000181,None,1,None,None,"[0, 0, 0]",,,283.9430618000042,None,,,,,,,,,,,,,,,,,,,273.8448902000091,273.8448902000091,None,space,2.3646797999972478,273.8448902000091,None,"[0, 0, 0]",,,,,,,,,,,,
