square,location,corrAns,TaskT1Loop.thisRepN,TaskT1Loop.thisTrialN,TaskT1Loop.thisN,TaskT1Loop.thisIndex,trials.thisRepN,trials.thisTrialN,trials.thisN,trials.thisIndex,trials_2.thisRepN,trials_2.thisTrialN,trials_2.thisN,trials_2.thisIndex,runLoop.thisRepN,runLoop.thisTrialN,runLoop.thisN,runLoop.thisIndex,runSeq,fixation_1.started,fixation_1.stopped,grid_lines.started,grid_lines.stopped,target_square.started,target_square.stopped,fixation_2.started,fixation_2.stopped,response.corr,response.x,response.y,response.leftButton,response.click_left,response.click_right,response.started,response.stopped,ScoreReportText.started,ScoreReportText.stopped,ScoreReportResponse.keys,ScoreReportResponse.started,ScoreReportResponse.stopped,response_2.x,response_2.y,response_2.leftButton,grid_lines_2.started,grid_lines_2.stopped,target_square_2.started,target_square_2.stopped,fixation_3.started,fixation_3.stopped,response_2.click,response_2.corr,response_2.started,response_2.stopped,BodySiteInstructionText.started,BodySiteImg.started,BodySiteImg.stopped,BodySiteInstructionRead.keys,BodySiteInstructionRead.rt,BodySiteInstructionRead.started,BodySiteInstructionRead.stopped,subject number,gender,bodymap first- or second-half (1 or 2),session,handedness,scanner,date,expName,psychopyVersion,frameRate,body_site_order,
6,"[0.2, 0]",None,0,0,0,0,0,0,0,0,,,,,,,,,,367.23247039999114,None,368.3160773999989,None,368.3160773999989,369.3167814000044,369.3167814000044,None,1,0.16944444444444445,-0.05138888888888889,"[0, 0, 0]",0,0,368.3160773999989,None,,,,,,,,,,,,,,,,,,,,,,,,,,999,m,2,99,r,TEST,2021_Aug_07_1410,WASABI distractmap,2020.2.10,59.853001025008915,"['Right Arm', 'Abdomen', 'Right Face', 'Right Leg']",
6,"[0.2, 0]",1.0,0,0,0,0,0,1,1,1,,,,,,,,,,,,370.2506422000006,None,370.2506422000006,371.25101609999547,371.2343465999875,372.23487399998703,1,0.16944444444444445,-0.05138888888888889,"[0, 0, 0]",0,0,370.2506422000006,None,,,,,,,,,,,,,,,,,,,,,,,,,,999,m,2,99,r,TEST,2021_Aug_07_1410,WASABI distractmap,2020.2.10,59.853001025008915,"['Right Arm', 'Abdomen', 'Right Face', 'Right Leg']",
2,"[0, 0.2]",0.0,0,0,0,0,0,2,2,2,,,,,,,,,,,,372.25150980000035,None,372.25150980000035,373.25204769999254,373.23535719999927,None,0,0.16944444444444445,-0.05138888888888889,"[0, 0, 0]",0,0,372.25150980000035,None,,,,,,,,,,,,,,,,,,,,,,,,,,999,m,2,99,r,TEST,2021_Aug_07_1410,WASABI distractmap,2020.2.10,59.853001025008915,"['Right Arm', 'Abdomen', 'Right Face', 'Right Leg']",
9,"[0.2, -0.2]",0.0,0,0,0,0,0,3,3,3,,,,,,,,,,,,374.23596419999376,None,374.23596419999376,375.2363373999833,375.2196782999963,376.22029339999426,1,0.16944444444444445,-0.05138888888888889,"[0, 0, 0]",0,0,374.23596419999376,None,,,,,,,,,,,,,,,,,,,,,,,,,,999,m,2,99,r,TEST,2021_Aug_07_1410,WASABI distractmap,2020.2.10,59.853001025008915,"['Right Arm', 'Abdomen', 'Right Face', 'Right Leg']",
9,"[0.2, -0.2]",1.0,0,0,0,0,0,4,4,4,,,,,,,,,,,,376.2368556000001,None,376.2368556000001,377.23731299999054,377.22069990000455,378.22124089999124,1,0.16944444444444445,-0.05138888888888889,"[0, 0, 0]",0,0,376.2368556000001,None,,,,,,,,,,,,,,,,,,,,,,,,,,999,m,2,99,r,TEST,2021_Aug_07_1410,WASABI distractmap,2020.2.10,59.853001025008915,"['Right Arm', 'Abdomen', 'Right Face', 'Right Leg']",
6,"[0.2, 0]",0.0,0,0,0,0,0,5,5,5,,,,,,,,,,,,378.2378832999966,None,378.2378832999966,379.2384764000017,379.2217936000088,380.22216949998983,1,0.16944444444444445,-0.05138888888888889,"[0, 0, 0]",0,0,378.2378832999966,None,,,,,,,,,,,,,,,,,,,,,,,,,,999,m,2,99,r,TEST,2021_Aug_07_1410,WASABI distractmap,2020.2.10,59.853001025008915,"['Right Arm', 'Abdomen', 'Right Face', 'Right Leg']",
4,"[-0.2, 0]",0.0,0,0,0,0,0,6,6,6,,,,,,,,,,,,380.2389663000067,None,380.2389663000067,381.23946449998766,381.22283839999,382.22322559999884,1,0.16944444444444445,-0.05138888888888889,"[0, 0, 0]",0,0,380.2389663000067,None,,,,,,,,,,,,,,,,,,,,,,,,,,999,m,2,99,r,TEST,2021_Aug_07_1410,WASABI distractmap,2020.2.10,59.853001025008915,"['Right Arm', 'Abdomen', 'Right Face', 'Right Leg']",
3,"[0.2, 0.2]",0.0,0,0,0,0,0,7,7,7,,,,,,,,,,,,382.23989560001064,None,382.23989560001064,383.24044279998634,383.2238941999967,384.224361200002,1,0.16944444444444445,-0.05138888888888889,"[0, 0, 0]",0,0,382.23989560001064,None,,,,,,,,,,,,,,,,,,,,,,,,,,999,m,2,99,r,TEST,2021_Aug_07_1410,WASABI distractmap,2020.2.10,59.853001025008915,"['Right Arm', 'Abdomen', 'Right Face', 'Right Leg']",
3,"[0.2, 0.2]",1.0,0,0,0,0,0,8,8,8,,,,,,,,,,,,384.2408765,None,384.2408765,385.2413774000015,385.2247032999876,386.2252470999956,1,0.16944444444444445,-0.05138888888888889,"[0, 0, 0]",0,0,384.2408765,None,,,,,,,,,,,,,,,,,,,,,,,,,,999,m,2,99,r,TEST,2021_Aug_07_1410,WASABI distractmap,2020.2.10,59.853001025008915,"['Right Arm', 'Abdomen', 'Right Face', 'Right Leg']",
8,"[0, -0.2]",0.0,0,0,0,0,0,9,9,9,,,,,,,,,,,,386.2419064999849,None,386.2419064999849,387.24234880000586,387.2257222000044,388.2261983999924,1,0.16944444444444445,-0.05138888888888889,"[0, 0, 0]",0,0,386.2419064999849,None,,,,,,,,,,,,,,,,,,,,,,,,,,999,m,2,99,r,TEST,2021_Aug_07_1410,WASABI distractmap,2020.2.10,59.853001025008915,"['Right Arm', 'Abdomen', 'Right Face', 'Right Leg']",
1,"[-0.2, 0.2]",0.0,0,0,0,0,0,10,10,10,,,,,,,,,,,,388.24286209998536,None,388.24286209998536,389.2435014999937,389.2268882000062,390.2271817000001,1,0.16944444444444445,-0.05138888888888889,"[0, 0, 0]",0,0,388.24286209998536,None,,,,,,,,,,,,,,,,,,,,,,,,,,999,m,2,99,r,TEST,2021_Aug_07_1410,WASABI distractmap,2020.2.10,59.853001025008915,"['Right Arm', 'Abdomen', 'Right Face', 'Right Leg']",
2,"[0, 0.2]",0.0,0,0,0,0,0,11,11,11,,,,,,,,,,,,390.2440273000102,None,390.2440273000102,391.24438220000593,391.2277303999872,392.2281878000067,1,0.16944444444444445,-0.05138888888888889,"[0, 0, 0]",0,0,390.2440273000102,None,,,,,,,,,,,,,,,,,,,,,,,,,,999,m,2,99,r,TEST,2021_Aug_07_1410,WASABI distractmap,2020.2.10,59.853001025008915,"['Right Arm', 'Abdomen', 'Right Face', 'Right Leg']",
4,"[-0.2, 0]",0.0,0,0,0,0,0,12,12,12,,,,,,,,,,,,392.2449077999918,None,392.2449077999918,393.2454373000073,393.22886239999207,394.22927640000125,1,0.16944444444444445,-0.05138888888888889,"[0, 0, 0]",0,0,392.2449077999918,None,,,,,,,,,,,,,,,,,,,,,,,,,,999,m,2,99,r,TEST,2021_Aug_07_1410,WASABI distractmap,2020.2.10,59.853001025008915,"['Right Arm', 'Abdomen', 'Right Face', 'Right Leg']",
4,"[-0.2, 0]",1.0,0,0,0,0,0,13,13,13,,,,,,,,,,,,394.2460024000029,None,394.2460024000029,395.2463710999873,395.22972370000207,396.230197900004,1,0.16944444444444445,-0.05138888888888889,"[0, 0, 0]",0,0,394.2460024000029,None,,,,,,,,,,,,,,,,,,,,,,,,,,999,m,2,99,r,TEST,2021_Aug_07_1410,WASABI distractmap,2020.2.10,59.853001025008915,"['Right Arm', 'Abdomen', 'Right Face', 'Right Leg']",
8,"[0, -0.2]",0.0,0,0,0,0,0,14,14,14,,,,,,,,,,,,396.246891399991,None,396.246891399991,397.2473982000083,397.2307332000055,398.23133229999803,1,0.16944444444444445,-0.05138888888888889,"[0, 0, 0]",0,0,396.246891399991,None,,,,,,,,,,,,,,,,,,,,,,,,,,999,m,2,99,r,TEST,2021_Aug_07_1410,WASABI distractmap,2020.2.10,59.853001025008915,"['Right Arm', 'Abdomen', 'Right Face', 'Right Leg']",
5,"[0, 0]",0.0,0,0,0,0,0,15,15,15,,,,,,,,,,,,398.24800019999384,None,398.24800019999384,399.2484842000122,399.23173639999004,400.2321923999989,1,0.16944444444444445,-0.05138888888888889,"[0, 0, 0]",0,0,398.24800019999384,None,,,,,,,,,,,,,,,,,,,,,,,,,,999,m,2,99,r,TEST,2021_Aug_07_1410,WASABI distractmap,2020.2.10,59.853001025008915,"['Right Arm', 'Abdomen', 'Right Face', 'Right Leg']",
5,"[0, 0]",1.0,0,0,0,0,0,16,16,16,,,,,,,,,,,,400.2489499000076,None,400.2489499000076,401.24947539999266,401.2328153999988,402.23322480000206,1,0.16944444444444445,-0.05138888888888889,"[0, 0, 0]",0,0,400.2489499000076,None,,,,,,,,,,,,,,,,,,,,,,,,,,999,m,2,99,r,TEST,2021_Aug_07_1410,WASABI distractmap,2020.2.10,59.853001025008915,"['Right Arm', 'Abdomen', 'Right Face', 'Right Leg']",
1,"[-0.2, 0.2]",0.0,0,0,0,0,0,17,17,17,,,,,,,,,,,,402.2499955999956,None,402.2499955999956,403.2505293999857,403.233948100009,404.23431920001167,1,0.16944444444444445,-0.05138888888888889,"[0, 0, 0]",0,0,402.2499955999956,None,,,,,,,,,,,,,,,,,,,,,,,,,,999,m,2,99,r,TEST,2021_Aug_07_1410,WASABI distractmap,2020.2.10,59.853001025008915,"['Right Arm', 'Abdomen', 'Right Face', 'Right Leg']",
3,"[0.2, 0.2]",0.0,0,0,0,0,0,18,18,18,,,,,,,,,,,,404.25098789998447,None,404.25098789998447,405.2515109000087,405.23473369999556,None,1,0.16944444444444445,-0.05138888888888889,"[0, 0, 0]",0,0,404.25098789998447,None,,,,,,,,,,,,,,,,,,,,,,,,,,999,m,2,99,r,TEST,2021_Aug_07_1410,WASABI distractmap,2020.2.10,59.853001025008915,"['Right Arm', 'Abdomen', 'Right Face', 'Right Leg']",
6,"[0.2, 0]",0.0,0,0,0,0,0,19,19,19,,,,,,,,,,,,406.23529340000823,None,406.23529340000823,407.2357430999982,407.2190285999968,408.21961559998454,1,0.16944444444444445,-0.05138888888888889,"[0, 0, 0]",0,0,406.23529340000823,None,,,,,,,,,,,,,,,,,,,,,,,,,,999,m,2,99,r,TEST,2021_Aug_07_1410,WASABI distractmap,2020.2.10,59.853001025008915,"['Right Arm', 'Abdomen', 'Right Face', 'Right Leg']",
1,"[-0.2, 0.2]",0.0,0,0,0,0,0,20,20,20,,,,,,,,,,,,408.23622739998973,None,408.23622739998973,409.236779400002,409.2201287999924,410.22067740000784,1,0.16944444444444445,-0.05138888888888889,"[0, 0, 0]",0,0,408.23622739998973,None,,,,,,,,,,,,,,,,,,,,,,,,,,999,m,2,99,r,TEST,2021_Aug_07_1410,WASABI distractmap,2020.2.10,59.853001025008915,"['Right Arm', 'Abdomen', 'Right Face', 'Right Leg']",
1,"[-0.2, 0.2]",1.0,0,0,0,0,0,21,21,21,,,,,,,,,,,,410.2372600999952,None,410.2372600999952,411.23777820001123,411.2211815000046,412.22156269999687,1,0.16944444444444445,-0.05138888888888889,"[0, 0, 0]",0,0,410.2372600999952,None,,,,,,,,,,,,,,,,,,,,,,,,,,999,m,2,99,r,TEST,2021_Aug_07_1410,WASABI distractmap,2020.2.10,59.853001025008915,"['Right Arm', 'Abdomen', 'Right Face', 'Right Leg']",
1,"[-0.2, 0.2]",1.0,0,0,0,0,0,22,22,22,,,,,,,,,,,,412.23822860000655,None,412.23822860000655,413.23891320000985,413.2221037999843,414.2226582999865,1,0.16944444444444445,-0.05138888888888889,"[0, 0, 0]",0,0,412.23822860000655,None,,,,,,,,,,,,,,,,,,,,,,,,,,999,m,2,99,r,TEST,2021_Aug_07_1410,WASABI distractmap,2020.2.10,59.853001025008915,"['Right Arm', 'Abdomen', 'Right Face', 'Right Leg']",
3,"[0.2, 0.2]",0.0,0,0,0,0,0,23,23,23,,,,,,,,,,,,414.23933209999814,None,414.23933209999814,415.2397409999976,415.2230513000104,416.22374409998883,1,0.16944444444444445,-0.05138888888888889,"[0, 0, 0]",0,0,414.23933209999814,None,,,,,,,,,,,,,,,,,,,,,,,,,,999,m,2,99,r,TEST,2021_Aug_07_1410,WASABI distractmap,2020.2.10,59.853001025008915,"['Right Arm', 'Abdomen', 'Right Face', 'Right Leg']",
2,"[0, 0.2]",0.0,0,0,0,0,0,24,24,24,,,,,,,,,,,,416.24027999999817,None,416.24027999999817,417.2407239000022,417.2240395999979,418.2245651000121,1,0.16944444444444445,-0.05138888888888889,"[0, 0, 0]",0,0,416.24027999999817,None,,,,,,,,,,,,,,,,,,,,,,,,,,999,m,2,99,r,TEST,2021_Aug_07_1410,WASABI distractmap,2020.2.10,59.853001025008915,"['Right Arm', 'Abdomen', 'Right Face', 'Right Leg']",
1,"[-0.2, 0.2]",0.0,0,0,0,0,0,25,25,25,,,,,,,,,,,,418.2412298999843,None,418.2412298999843,419.24185359998955,419.2251009999891,420.2255629999854,1,0.16944444444444445,-0.05138888888888889,"[0, 0, 0]",0,0,418.2412298999843,None,,,,,,,,,,,,,,,,,,,,,,,,,,999,m,2,99,r,TEST,2021_Aug_07_1410,WASABI distractmap,2020.2.10,59.853001025008915,"['Right Arm', 'Abdomen', 'Right Face', 'Right Leg']",
7,"[-0.2, -0.2]",0.0,0,0,0,0,0,26,26,26,,,,,,,,,,,,420.2423831000051,None,420.2423831000051,421.2428499000089,421.2260721999919,422.2267453999957,1,0.16944444444444445,-0.05138888888888889,"[0, 0, 0]",0,0,420.2423831000051,None,,,,,,,,,,,,,,,,,,,,,,,,,,999,m,2,99,r,TEST,2021_Aug_07_1410,WASABI distractmap,2020.2.10,59.853001025008915,"['Right Arm', 'Abdomen', 'Right Face', 'Right Leg']",
7,"[-0.2, -0.2]",1.0,0,0,0,0,0,27,27,27,,,,,,,,,,,,422.2433364999888,None,422.2433364999888,423.24394929999835,423.22716290000244,424.22770980000496,1,0.16944444444444445,-0.05138888888888889,"[0, 0, 0]",0,0,422.2433364999888,None,,,,,,,,,,,,,,,,,,,,,,,,,,999,m,2,99,r,TEST,2021_Aug_07_1410,WASABI distractmap,2020.2.10,59.853001025008915,"['Right Arm', 'Abdomen', 'Right Face', 'Right Leg']",
2,"[0, 0.2]",0.0,0,0,0,0,0,28,28,28,,,,,,,,,,,,424.2443643999868,None,424.2443643999868,425.2447659999889,425.22820610000053,426.22883239999646,1,0.16944444444444445,-0.05138888888888889,"[0, 0, 0]",0,0,424.2443643999868,None,,,,,,,,,,,,,,,,,,,,,,,,,,999,m,2,99,r,TEST,2021_Aug_07_1410,WASABI distractmap,2020.2.10,59.853001025008915,"['Right Arm', 'Abdomen', 'Right Face', 'Right Leg']",
6,"[0.2, 0]",0.0,0,0,0,0,0,29,29,29,,,,,,,,,,,,426.24531329999445,None,426.24531329999445,427.2457427000045,427.22908729998744,428.2296353999991,1,0.16944444444444445,-0.05138888888888889,"[0, 0, 0]",0,0,426.24531329999445,None,,,,,,,,,,,,,,,,,,,,,,,,,,999,m,2,99,r,TEST,2021_Aug_07_1410,WASABI distractmap,2020.2.10,59.853001025008915,"['Right Arm', 'Abdomen', 'Right Face', 'Right Leg']",
,,,0,0,0,0,,,,,,,,,,,,,,,,,,,,,,,,,,,,,,428.24883950001094,None,space,428.24883950001094,None,,,,,,,,,,,,,,,,,,,,,999,m,2,99,r,TEST,2021_Aug_07_1410,WASABI distractmap,2020.2.10,59.853001025008915,"['Right Arm', 'Abdomen', 'Right Face', 'Right Leg']",
6,"[0.2, 0]",None,,,,,,,,,0,0,0,0,,,,,,458.77821990000666,None,,,,,,,,,,,,,,,,,,,,None,None,"[0, 0, 0]",459.78502599999774,None,459.78502599999774,460.79589740000665,460.7792275999964,None,"[0, 0, 0]",1,459.78502599999774,None,,,,,,,,999,m,2,99,r,TEST,2021_Aug_07_1410,WASABI distractmap,2020.2.10,59.853001025008915,"['Right Arm', 'Abdomen', 'Right Face', 'Right Leg']",
7,"[-0.2, -0.2]",None,,,,,,,,,0,1,1,1,,,,,,,,,,,,,,,,,,,,,,,,,,,None,None,"[0, 0, 0]",461.7797346999869,463.78075440000976,461.7797346999869,462.78025300000445,462.76366090000374,463.76406549999956,"[0, 0, 0]",1,461.7797346999869,463.78075440000976,,,,,,,,999,m,2,99,r,TEST,2021_Aug_07_1410,WASABI distractmap,2020.2.10,59.853001025008915,"['Right Arm', 'Abdomen', 'Right Face', 'Right Leg']",
6,"[0.2, 0]",1.0,,,,,,,,,0,2,2,2,,,,,,,,,,,,,,,,,,,,,,,,,,,None,None,"[0, 0, 0]",463.79743549998966,465.79853770000045,463.79743549998966,464.79792350000935,464.7812932000088,465.78176990000065,"[0, 0, 0]",1,463.79743549998966,465.79853770000045,,,,,,,,999,m,2,99,r,TEST,2021_Aug_07_1410,WASABI distractmap,2020.2.10,59.853001025008915,"['Right Arm', 'Abdomen', 'Right Face', 'Right Leg']",
2,"[0, 0.2]",0.0,,,,,,,,,0,3,3,3,,,,,,,,,,,,,,,,,,,,,,,,,,,None,None,"[0, 0, 0]",465.815162599989,467.81610289998935,465.815162599989,466.81560349999927,466.7989166000043,467.7995219999866,"[0, 0, 0]",1,465.815162599989,467.81610289998935,,,,,,,,999,m,2,99,r,TEST,2021_Aug_07_1410,WASABI distractmap,2020.2.10,59.853001025008915,"['Right Arm', 'Abdomen', 'Right Face', 'Right Leg']",
5,"[0, 0]",0.0,,,,,,,,,0,4,4,4,,,,,,,,,,,,,,,,,,,,,,,,,,,None,None,"[0, 0, 0]",467.83280780000496,469.8338545000006,467.83280780000496,468.83334049998666,468.8166790000105,469.817081199988,"[0, 0, 0]",1,467.83280780000496,469.8338545000006,,,,,,,,999,m,2,99,r,TEST,2021_Aug_07_1410,WASABI distractmap,2020.2.10,59.853001025008915,"['Right Arm', 'Abdomen', 'Right Face', 'Right Leg']",
4,"[-0.2, 0]",0.0,,,,,,,,,0,5,5,5,,,,,,,,,,,,,,,,,,,,,,,,,,,None,None,"[0, 0, 0]",469.8504403999832,471.8515308999922,469.8504403999832,470.8509861000057,470.83428020001156,471.8348230999836,"[0, 0, 0]",1,469.8504403999832,471.8515308999922,,,,,,,,999,m,2,99,r,TEST,2021_Aug_07_1410,WASABI distractmap,2020.2.10,59.853001025008915,"['Right Arm', 'Abdomen', 'Right Face', 'Right Leg']",
4,"[-0.2, 0]",0.0,,,,,,,,,0,6,6,6,,,,,,,,,,,,,,,,,,,,,,,,,,,None,None,"[0, 0, 0]",471.868174800009,473.86913710000226,471.868174800009,472.868656000006,472.8519914000062,473.8525098999962,"[0, 0, 0]",1,471.868174800009,473.86913710000226,,,,,,,,999,m,2,99,r,TEST,2021_Aug_07_1410,WASABI distractmap,2020.2.10,59.853001025008915,"['Right Arm', 'Abdomen', 'Right Face', 'Right Leg']",
7,"[-0.2, -0.2]",0.0,,,,,,,,,0,7,7,7,,,,,,,,,,,,,,,,,,,,,,,,,,,None,None,"[0, 0, 0]",473.8860113999981,475.8868220000004,473.8860113999981,474.88639369999873,474.8696394999861,475.8702016999887,"[0, 0, 0]",1,473.8860113999981,475.8868220000004,,,,,,,,999,m,2,99,r,TEST,2021_Aug_07_1410,WASABI distractmap,2020.2.10,59.853001025008915,"['Right Arm', 'Abdomen', 'Right Face', 'Right Leg']",
4,"[-0.2, 0]",1.0,,,,,,,,,0,8,8,8,,,,,,,,,,,,,,,,,,,,,,,,,,,None,None,"[0, 0, 0]",475.9035014999972,477.9045085000107,475.9035014999972,476.904005999997,476.88729250000324,477.8878967000055,"[0, 0, 0]",1,475.9035014999972,477.9045085000107,,,,,,,,999,m,2,99,r,TEST,2021_Aug_07_1410,WASABI distractmap,2020.2.10,59.853001025008915,"['Right Arm', 'Abdomen', 'Right Face', 'Right Leg']",
3,"[0.2, 0.2]",0.0,,,,,,,,,0,9,9,9,,,,,,,,,,,,,,,,,,,,,,,,,,,None,None,"[0, 0, 0]",477.92124440000043,479.9221736000036,477.92124440000043,478.9217510999879,478.90500769999926,479.9055798999907,"[0, 0, 0]",1,477.92124440000043,479.9221736000036,,,,,,,,999,m,2,99,r,TEST,2021_Aug_07_1410,WASABI distractmap,2020.2.10,59.853001025008915,"['Right Arm', 'Abdomen', 'Right Face', 'Right Leg']",
5,"[0, 0]",0.0,,,,,,,,,0,10,10,10,,,,,,,,,,,,,,,,,,,,,,,,,,,None,None,"[0, 0, 0]",479.9390105000057,481.9399490999931,479.9390105000057,480.9394039000035,480.9227924000006,481.92318199999863,"[0, 0, 0]",1,479.9390105000057,481.9399490999931,,,,,,,,999,m,2,99,r,TEST,2021_Aug_07_1410,WASABI distractmap,2020.2.10,59.853001025008915,"['Right Arm', 'Abdomen', 'Right Face', 'Right Leg']",
3,"[0.2, 0.2]",1.0,,,,,,,,,0,11,11,11,,,,,,,,,,,,,,,,,,,,,,,,,,,None,None,"[0, 0, 0]",481.9565222999954,483.9575402000046,481.9565222999954,482.95706779998727,482.9405063999875,483.9408462999854,"[0, 0, 0]",1,481.9565222999954,483.9575402000046,,,,,,,,999,m,2,99,r,TEST,2021_Aug_07_1410,WASABI distractmap,2020.2.10,59.853001025008915,"['Right Arm', 'Abdomen', 'Right Face', 'Right Leg']",
1,"[-0.2, 0.2]",0.0,,,,,,,,,0,12,12,12,,,,,,,,,,,,,,,,,,,,,,,,,,,None,None,"[0, 0, 0]",483.9742287999834,485.97522940000636,483.9742287999834,484.97468949999893,484.9580572999839,485.9587807999924,"[0, 0, 0]",1,483.9742287999834,485.97522940000636,,,,,,,,999,m,2,99,r,TEST,2021_Aug_07_1410,WASABI distractmap,2020.2.10,59.853001025008915,"['Right Arm', 'Abdomen', 'Right Face', 'Right Leg']",
9,"[0.2, -0.2]",0.0,,,,,,,,,0,13,13,13,,,,,,,,,,,,,,,,,,,,,,,,,,,None,None,"[0, 0, 0]",485.9918628000014,487.99287869999534,485.9918628000014,486.9923659999913,486.97570239999914,487.9762527999992,"[0, 0, 0]",1,485.9918628000014,487.99287869999534,,,,,,,,999,m,2,99,r,TEST,2021_Aug_07_1410,WASABI distractmap,2020.2.10,59.853001025008915,"['Right Arm', 'Abdomen', 'Right Face', 'Right Leg']",
9,"[0.2, -0.2]",0.0,,,,,,,,,0,14,14,14,,,,,,,,,,,,,,,,,,,,,,,,,,,None,None,"[0, 0, 0]",488.00961700000335,490.0105760000006,488.00961700000335,489.01005730000907,488.99347379998653,489.99395760000334,"[0, 0, 0]",1,488.00961700000335,490.0105760000006,,,,,,,,999,m,2,99,r,TEST,2021_Aug_07_1410,WASABI distractmap,2020.2.10,59.853001025008915,"['Right Arm', 'Abdomen', 'Right Face', 'Right Leg']",
8,"[0, -0.2]",0.0,,,,,,,,,0,15,15,15,,,,,,,,,,,,,,,,,,,,,,,,,,,None,None,"[0, 0, 0]",490.0272208999959,492.02832029998535,490.0272208999959,491.02777099999366,491.01108550000936,492.0116424000007,"[0, 0, 0]",1,490.0272208999959,492.02832029998535,,,,,,,,999,m,2,99,r,TEST,2021_Aug_07_1410,WASABI distractmap,2020.2.10,59.853001025008915,"['Right Arm', 'Abdomen', 'Right Face', 'Right Leg']",
6,"[0.2, 0]",0.0,,,,,,,,,0,16,16,16,,,,,,,,,,,,,,,,,,,,,,,,,,,None,None,"[0, 0, 0]",492.04494319998776,494.04591210000217,492.04494319998776,493.0454699000111,493.02880979998736,494.0293248000089,"[0, 0, 0]",1,492.04494319998776,494.04591210000217,,,,,,,,999,m,2,99,r,TEST,2021_Aug_07_1410,WASABI distractmap,2020.2.10,59.853001025008915,"['Right Arm', 'Abdomen', 'Right Face', 'Right Leg']",
3,"[0.2, 0.2]",0.0,,,,,,,,,0,17,17,17,,,,,,,,,,,,,,,,,,,,,,,,,,,None,None,"[0, 0, 0]",494.06260649999604,496.0636549000046,494.06260649999604,495.06314489999204,495.0464240000001,496.04691129998537,"[0, 0, 0]",1,494.06260649999604,496.0636549000046,,,,,,,,999,m,2,99,r,TEST,2021_Aug_07_1410,WASABI distractmap,2020.2.10,59.853001025008915,"['Right Arm', 'Abdomen', 'Right Face', 'Right Leg']",
6,"[0.2, 0]",1.0,,,,,,,,,0,18,18,18,,,,,,,,,,,,,,,,,,,,,,,,,,,None,None,"[0, 0, 0]",496.08022780000465,498.08134189998964,496.08022780000465,497.0807639999839,497.06414770000265,498.06464009999763,"[0, 0, 0]",1,496.08022780000465,498.08134189998964,,,,,,,,999,m,2,99,r,TEST,2021_Aug_07_1410,WASABI distractmap,2020.2.10,59.853001025008915,"['Right Arm', 'Abdomen', 'Right Face', 'Right Leg']",
5,"[0, 0]",0.0,,,,,,,,,0,19,19,19,,,,,,,,,,,,,,,,,,,,,,,,,,,None,None,"[0, 0, 0]",498.09792130001006,500.0989386999863,498.09792130001006,499.09859760000836,499.0818801999849,500.0822659000114,"[0, 0, 0]",1,498.09792130001006,500.0989386999863,,,,,,,,999,m,2,99,r,TEST,2021_Aug_07_1410,WASABI distractmap,2020.2.10,59.853001025008915,"['Right Arm', 'Abdomen', 'Right Face', 'Right Leg']",
7,"[-0.2, -0.2]",0.0,,,,,,,,,0,20,20,20,,,,,,,,,,,,,,,,,,,,,,,,,,,None,None,"[0, 0, 0]",500.1156206000014,502.1166907000006,500.1156206000014,501.1161632000003,501.0994567000016,502.1001405999996,"[0, 0, 0]",1,500.1156206000014,502.1166907000006,,,,,,,,999,m,2,99,r,TEST,2021_Aug_07_1410,WASABI distractmap,2020.2.10,59.853001025008915,"['Right Arm', 'Abdomen', 'Right Face', 'Right Leg']",
5,"[0, 0]",1.0,,,,,,,,,0,21,21,21,,,,,,,,,,,,,,,,,,,,,,,,,,,None,None,"[0, 0, 0]",502.13339110001107,504.1344059999974,502.13339110001107,503.13389279998955,503.1171342000016,504.11763570000767,"[0, 0, 0]",0,502.13339110001107,504.1344059999974,,,,,,,,999,m,2,99,r,TEST,2021_Aug_07_1410,WASABI distractmap,2020.2.10,59.853001025008915,"['Right Arm', 'Abdomen', 'Right Face', 'Right Leg']",
1,"[-0.2, 0.2]",0.0,,,,,,,,,0,22,22,22,,,,,,,,,,,,,,,,,,,,,,,,,,,None,None,"[0, 0, 0]",504.1510089999938,506.15198450000025,504.1510089999938,505.15158999999403,505.1348033999966,506.1353239000018,"[0, 0, 0]",1,504.1510089999938,506.15198450000025,,,,,,,,999,m,2,99,r,TEST,2021_Aug_07_1410,WASABI distractmap,2020.2.10,59.853001025008915,"['Right Arm', 'Abdomen', 'Right Face', 'Right Leg']",
7,"[-0.2, -0.2]",0.0,,,,,,,,,0,23,23,23,,,,,,,,,,,,,,,,,,,,,,,,,,,None,None,"[0, 0, 0]",506.16868810000597,508.169733799994,506.16868810000597,507.1693988000043,507.15255729999626,508.15299219998997,"[0, 0, 0]",0,506.16868810000597,508.169733799994,,,,,,,,999,m,2,99,r,TEST,2021_Aug_07_1410,WASABI distractmap,2020.2.10,59.853001025008915,"['Right Arm', 'Abdomen', 'Right Face', 'Right Leg']",
9,"[0.2, -0.2]",0.0,,,,,,,,,0,24,24,24,,,,,,,,,,,,,,,,,,,,,,,,,,,None,None,"[0, 0, 0]",508.1863434999832,510.18740359999356,508.1863434999832,509.187027500011,509.1702646999911,510.1707875999855,"[0, 0, 0]",1,508.1863434999832,510.18740359999356,,,,,,,,999,m,2,99,r,TEST,2021_Aug_07_1410,WASABI distractmap,2020.2.10,59.853001025008915,"['Right Arm', 'Abdomen', 'Right Face', 'Right Leg']",
3,"[0.2, 0.2]",0.0,,,,,,,,,0,25,25,25,,,,,,,,,,,,,,,,,,,,,,,,,,,None,None,"[0, 0, 0]",510.20415800000774,512.2050536999886,510.20415800000774,511.20453849999467,511.1880147999909,512.1884324999992,"[0, 0, 0]",1,510.20415800000774,512.2050536999886,,,,,,,,999,m,2,99,r,TEST,2021_Aug_07_1410,WASABI distractmap,2020.2.10,59.853001025008915,"['Right Arm', 'Abdomen', 'Right Face', 'Right Leg']",
9,"[0.2, -0.2]",1.0,,,,,,,,,0,26,26,26,,,,,,,,,,,,,,,,,,,,,,,,,,,None,None,"[0, 0, 0]",512.2218366999878,514.2227905000036,512.2218366999878,513.2222051999997,513.2056143000082,514.2061036000086,"[0, 0, 0]",1,512.2218366999878,514.2227905000036,,,,,,,,999,m,2,99,r,TEST,2021_Aug_07_1410,WASABI distractmap,2020.2.10,59.853001025008915,"['Right Arm', 'Abdomen', 'Right Face', 'Right Leg']",
6,"[0.2, 0]",0.0,,,,,,,,,0,27,27,27,,,,,,,,,,,,,,,,,,,,,,,,,,,None,None,"[0, 0, 0]",514.2394552000042,516.2404614000116,514.2394552000042,515.239888000011,515.2232622999873,516.2236984999909,"[0, 0, 0]",1,514.2394552000042,516.2404614000116,,,,,,,,999,m,2,99,r,TEST,2021_Aug_07_1410,WASABI distractmap,2020.2.10,59.853001025008915,"['Right Arm', 'Abdomen', 'Right Face', 'Right Leg']",
2,"[0, 0.2]",0.0,,,,,,,,,0,28,28,28,,,,,,,,,,,,,,,,,,,,,,,,,,,None,None,"[0, 0, 0]",516.2570930999937,518.2580626999843,516.2570930999937,517.2576534000109,517.2409038000042,518.2414950999955,"[0, 0, 0]",1,516.2570930999937,518.2580626999843,,,,,,,,999,m,2,99,r,TEST,2021_Aug_07_1410,WASABI distractmap,2020.2.10,59.853001025008915,"['Right Arm', 'Abdomen', 'Right Face', 'Right Leg']",
5,"[0, 0]",0.0,,,,,,,,,0,29,29,29,,,,,,,,,,,,,,,,,,,,,,,,,,,None,None,"[0, 0, 0]",518.2747871000029,520.2757510000083,518.2747871000029,519.2752847000083,519.2588186000066,520.2590850999986,"[0, 0, 0]",1,518.2747871000029,520.2757510000083,,,,,,,,999,m,2,99,r,TEST,2021_Aug_07_1410,WASABI distractmap,2020.2.10,59.853001025008915,"['Right Arm', 'Abdomen', 'Right Face', 'Right Leg']",
,,,,,,,,,,,,,,,,,,,,,,,,,,,,,,,,,,,,520.2924590999901,None,space,520.2924590999901,None,,,,,,,,,,,,,,,,,,,,,999,m,2,99,r,TEST,2021_Aug_07_1410,WASABI distractmap,2020.2.10,59.853001025008915,"['Right Arm', 'Abdomen', 'Right Face', 'Right Leg']",
,,,,,,,,,,,,,,,,,,,,608.4438731999835,None,609.4705480999837,None,609.4705480999837,610.4709891999955,610.4543160999892,None,,,,,,,,,,,,,,,,,,,,,,,,,,,522.0600492999947,522.0600492999947,None,space,32.69541230000323,522.0600492999947,None,,,,,,,,,,,,
