square,location,corrAns,TaskT1Loop.thisRepN,TaskT1Loop.thisTrialN,TaskT1Loop.thisN,TaskT1Loop.thisIndex,trials.thisRepN,trials.thisTrialN,trials.thisN,trials.thisIndex,trials_2.thisRepN,trials_2.thisTrialN,trials_2.thisN,trials_2.thisIndex,fixation_1.started,fixation_1.stopped,grid_lines.started,grid_lines.stopped,target_square.started,target_square.stopped,fixation_2.started,fixation_2.stopped,response.corr,response.x,response.y,response.leftButton,response.click_left,response.click_right,response.started,response.stopped,ScoreReportText.started,ScoreReportText.stopped,ScoreReportResponse.keys,ScoreReportResponse.started,ScoreReportResponse.stopped,subject number,gender,bodymap first- or second-half (1 or 2),session,handedness,scanner,date,expName,psychopyVersion,frameRate,body_site_order,
6,"[0.2, 0]",None,0,0,0,0,0,0,0,0,,,,,33.51476590000675,None,34.676823800007696,None,34.676823800007696,35.682442200006335,35.66583260000334,None,0,0.6402777777777777,0.17777777777777778,"[0, 0, 0]",0,0,34.676823800007696,None,,,,,,999,m,2,99,r,TEST,2021_Aug_03_2022,WASABI distractmap,2020.2.10,59.57991393981947,"['Right Arm', 'Left Face', 'Right Face', 'Right Leg']",
6,"[0.2, 0]",1.0,0,0,0,0,0,1,1,1,,,,,,,36.516327300007106,None,36.516327300007106,37.51689169999736,37.500204299998586,38.50094050000189,1,0.6402777777777777,0.17777777777777778,"[0, 0, 0]",0,0,36.516327300007106,None,,,,,,999,m,2,99,r,TEST,2021_Aug_03_2022,WASABI distractmap,2020.2.10,59.57991393981947,"['Right Arm', 'Left Face', 'Right Face', 'Right Leg']",
2,"[0, 0.2]",0.0,0,0,0,0,0,2,2,2,,,,,,,38.51738459999615,None,38.51738459999615,39.51816140000301,39.50120729999617,40.50156260000949,1,0.6402777777777777,0.17777777777777778,"[0, 0, 0]",0,0,38.51738459999615,None,,,,,,999,m,2,99,r,TEST,2021_Aug_03_2022,WASABI distractmap,2020.2.10,59.57991393981947,"['Right Arm', 'Left Face', 'Right Face', 'Right Leg']",
9,"[0.2, -0.2]",0.0,0,0,0,0,0,3,3,3,,,,,,,40.51824430000852,None,40.51824430000852,41.51888760000293,41.50217220000923,42.502656199998455,0,0.6402777777777777,0.17777777777777778,"[0, 0, 0]",0,0,40.51824430000852,None,,,,,,999,m,2,99,r,TEST,2021_Aug_03_2022,WASABI distractmap,2020.2.10,59.57991393981947,"['Right Arm', 'Left Face', 'Right Face', 'Right Leg']",
9,"[0.2, -0.2]",1.0,0,0,0,0,0,4,4,4,,,,,,,42.51991499999713,None,42.51991499999713,43.51998800000001,43.5033972000092,44.50382040000113,1,0.6402777777777777,0.17777777777777778,"[0, 0, 0]",0,0,42.51991499999713,None,,,,,,999,m,2,99,r,TEST,2021_Aug_03_2022,WASABI distractmap,2020.2.10,59.57991393981947,"['Right Arm', 'Left Face', 'Right Face', 'Right Leg']",
6,"[0.2, 0]",0.0,0,0,0,0,0,5,5,5,,,,,,,44.520404700000654,None,44.520404700000654,45.5207636999985,45.5042761000077,46.50467999999819,0,0.6402777777777777,0.17777777777777778,"[0, 0, 0]",0,0,44.520404700000654,None,,,,,,999,m,2,99,r,TEST,2021_Aug_03_2022,WASABI distractmap,2020.2.10,59.57991393981947,"['Right Arm', 'Left Face', 'Right Face', 'Right Leg']",
4,"[-0.2, 0]",0.0,0,0,0,0,0,6,6,6,,,,,,,46.521255700004986,None,46.521255700004986,47.521758900009445,47.50515460000315,48.505651400002535,0,0.6402777777777777,0.17777777777777778,"[0, 0, 0]",0,0,46.521255700004986,None,,,,,,999,m,2,99,r,TEST,2021_Aug_03_2022,WASABI distractmap,2020.2.10,59.57991393981947,"['Right Arm', 'Left Face', 'Right Face', 'Right Leg']",
3,"[0.2, 0.2]",0.0,0,0,0,0,0,7,7,7,,,,,,,48.52275350000127,None,48.52275350000127,49.52284910000162,49.50626160000684,50.506628300005104,0,0.6402777777777777,0.17777777777777778,"[0, 0, 0]",0,0,48.52275350000127,None,,,,,,999,m,2,99,r,TEST,2021_Aug_03_2022,WASABI distractmap,2020.2.10,59.57991393981947,"['Right Arm', 'Left Face', 'Right Face', 'Right Leg']",
3,"[0.2, 0.2]",1.0,0,0,0,0,0,8,8,8,,,,,,,50.52331960000447,None,50.52331960000447,51.52384609999717,51.5072719000018,52.50771000000532,1,0.6402777777777777,0.17777777777777778,"[0, 0, 0]",0,0,50.52331960000447,None,,,,,,999,m,2,99,r,TEST,2021_Aug_03_2022,WASABI distractmap,2020.2.10,59.57991393981947,"['Right Arm', 'Left Face', 'Right Face', 'Right Leg']",
8,"[0, -0.2]",0.0,0,0,0,0,0,9,9,9,,,,,,,52.524228099995526,None,52.524228099995526,53.52492890000576,53.50830250000581,54.508702200007974,0,0.6402777777777777,0.17777777777777778,"[0, 0, 0]",0,0,52.524228099995526,None,,,,,,999,m,2,99,r,TEST,2021_Aug_03_2022,WASABI distractmap,2020.2.10,59.57991393981947,"['Right Arm', 'Left Face', 'Right Face', 'Right Leg']",
1,"[-0.2, 0.2]",0.0,0,0,0,0,0,10,10,10,,,,,,,54.52534740000556,None,54.52534740000556,55.52590799999598,55.50919260000228,56.50972480000928,0,0.6402777777777777,0.17777777777777778,"[0, 0, 0]",0,0,54.52534740000556,None,,,,,,999,m,2,99,r,TEST,2021_Aug_03_2022,WASABI distractmap,2020.2.10,59.57991393981947,"['Right Arm', 'Left Face', 'Right Face', 'Right Leg']",
2,"[0, 0.2]",0.0,0,0,0,0,0,11,11,11,,,,,,,56.526390900005936,None,56.526390900005936,57.52701639999577,57.51028740000038,58.51072089999798,0,0.6402777777777777,0.17777777777777778,"[0, 0, 0]",0,0,56.526390900005936,None,,,,,,999,m,2,99,r,TEST,2021_Aug_03_2022,WASABI distractmap,2020.2.10,59.57991393981947,"['Right Arm', 'Left Face', 'Right Face', 'Right Leg']",
4,"[-0.2, 0]",0.0,0,0,0,0,0,12,12,12,,,,,,,58.52741219999734,None,58.52741219999734,59.52788270000019,59.511209999996936,60.511863599997014,0,0.6402777777777777,0.17777777777777778,"[0, 0, 0]",0,0,58.52741219999734,None,,,,,,999,m,2,99,r,TEST,2021_Aug_03_2022,WASABI distractmap,2020.2.10,59.57991393981947,"['Right Arm', 'Left Face', 'Right Face', 'Right Leg']",
4,"[-0.2, 0]",1.0,0,0,0,0,0,13,13,13,,,,,,,60.52836229999957,None,60.52836229999957,61.52884549999726,61.51211540000804,62.51267409999855,1,0.6402777777777777,0.17777777777777778,"[0, 0, 0]",0,0,60.52836229999957,None,,,,,,999,m,2,99,r,TEST,2021_Aug_03_2022,WASABI distractmap,2020.2.10,59.57991393981947,"['Right Arm', 'Left Face', 'Right Face', 'Right Leg']",
8,"[0, -0.2]",0.0,0,0,0,0,0,14,14,14,,,,,,,62.5293582000013,None,62.5293582000013,63.5299512000056,63.51326200000767,64.51387930000783,0,0.6402777777777777,0.17777777777777778,"[0, 0, 0]",0,0,62.5293582000013,None,,,,,,999,m,2,99,r,TEST,2021_Aug_03_2022,WASABI distractmap,2020.2.10,59.57991393981947,"['Right Arm', 'Left Face', 'Right Face', 'Right Leg']",
5,"[0, 0]",0.0,0,0,0,0,0,15,15,15,,,,,,,64.53048570000101,None,64.53048570000101,65.53088980000757,65.51422599999933,66.51463440000953,0,0.6402777777777777,0.17777777777777778,"[0, 0, 0]",0,0,64.53048570000101,None,,,,,,999,m,2,99,r,TEST,2021_Aug_03_2022,WASABI distractmap,2020.2.10,59.57991393981947,"['Right Arm', 'Left Face', 'Right Face', 'Right Leg']",
5,"[0, 0]",1.0,0,0,0,0,0,16,16,16,,,,,,,66.53127069999755,None,66.53127069999755,67.53187059999618,67.51523330000055,None,0,0.6402777777777777,0.17777777777777778,"[0, 0, 0]",0,0,66.53127069999755,None,,,,,,999,m,2,99,r,TEST,2021_Aug_03_2022,WASABI distractmap,2020.2.10,59.57991393981947,"['Right Arm', 'Left Face', 'Right Face', 'Right Leg']",
1,"[-0.2, 0.2]",0.0,0,0,0,0,0,17,17,17,,,,,,,68.5158064999996,None,68.5158064999996,69.51645760000974,69.49952749999647,70.50030369999877,1,0.6402777777777777,0.17777777777777778,"[0, 0, 0]",0,0,68.5158064999996,None,,,,,,999,m,2,99,r,TEST,2021_Aug_03_2022,WASABI distractmap,2020.2.10,59.57991393981947,"['Right Arm', 'Left Face', 'Right Face', 'Right Leg']",
3,"[0.2, 0.2]",0.0,0,0,0,0,0,18,18,18,,,,,,,70.51675039999827,None,70.51675039999827,71.51721859999816,71.50060070000472,72.50113400000555,1,0.6402777777777777,0.17777777777777778,"[0, 0, 0]",0,0,70.51675039999827,None,,,,,,999,m,2,99,r,TEST,2021_Aug_03_2022,WASABI distractmap,2020.2.10,59.57991393981947,"['Right Arm', 'Left Face', 'Right Face', 'Right Leg']",
6,"[0.2, 0]",0.0,0,0,0,0,0,19,19,19,,,,,,,72.51772620000702,None,72.51772620000702,73.51816400000826,73.50166039999749,74.50224539999908,1,0.6402777777777777,0.17777777777777778,"[0, 0, 0]",0,0,72.51772620000702,None,,,,,,999,m,2,99,r,TEST,2021_Aug_03_2022,WASABI distractmap,2020.2.10,59.57991393981947,"['Right Arm', 'Left Face', 'Right Face', 'Right Leg']",
1,"[-0.2, 0.2]",0.0,0,0,0,0,0,20,20,20,,,,,,,74.51899330000742,None,74.51899330000742,75.51954210000986,75.50249169999734,76.50301760000002,1,0.6402777777777777,0.17777777777777778,"[0, 0, 0]",0,0,74.51899330000742,None,,,,,,999,m,2,99,r,TEST,2021_Aug_03_2022,WASABI distractmap,2020.2.10,59.57991393981947,"['Right Arm', 'Left Face', 'Right Face', 'Right Leg']",
1,"[-0.2, 0.2]",1.0,0,0,0,0,0,21,21,21,,,,,,,76.51967019999574,None,76.51967019999574,77.52028850000352,77.50361519999569,78.50414770000498,0,0.6402777777777777,0.17777777777777778,"[0, 0, 0]",0,0,76.51967019999574,None,,,,,,999,m,2,99,r,TEST,2021_Aug_03_2022,WASABI distractmap,2020.2.10,59.57991393981947,"['Right Arm', 'Left Face', 'Right Face', 'Right Leg']",
1,"[-0.2, 0.2]",1.0,0,0,0,0,0,22,22,22,,,,,,,78.52077980000468,None,78.52077980000468,79.52134110000043,79.50788000000466,None,0,0.6402777777777777,0.17777777777777778,"[0, 0, 0]",0,0,78.52077980000468,None,,,,,,999,m,2,99,r,TEST,2021_Aug_03_2022,WASABI distractmap,2020.2.10,59.57991393981947,"['Right Arm', 'Left Face', 'Right Face', 'Right Leg']",
3,"[0.2, 0.2]",0.0,0,0,0,0,0,23,23,23,,,,,,,80.52176420000615,None,80.52176420000615,81.52216999999655,81.50551570000243,82.50607210000453,1,0.6402777777777777,0.17777777777777778,"[0, 0, 0]",0,0,80.52176420000615,None,,,,,,999,m,2,99,r,TEST,2021_Aug_03_2022,WASABI distractmap,2020.2.10,59.57991393981947,"['Right Arm', 'Left Face', 'Right Face', 'Right Leg']",
2,"[0, 0.2]",0.0,0,0,0,0,0,24,24,24,,,,,,,82.52300169999944,None,82.52300169999944,83.52329710000777,83.5065700999985,84.50731810000434,1,0.6402777777777777,0.17777777777777778,"[0, 0, 0]",0,0,82.52300169999944,None,,,,,,999,m,2,99,r,TEST,2021_Aug_03_2022,WASABI distractmap,2020.2.10,59.57991393981947,"['Right Arm', 'Left Face', 'Right Face', 'Right Leg']",
1,"[-0.2, 0.2]",0.0,0,0,0,0,0,25,25,25,,,,,,,84.52488090000406,None,84.52488090000406,85.52412820000609,85.50754370000504,86.50813250000647,1,0.6402777777777777,0.17777777777777778,"[0, 0, 0]",0,0,84.52488090000406,None,,,,,,999,m,2,99,r,TEST,2021_Aug_03_2022,WASABI distractmap,2020.2.10,59.57991393981947,"['Right Arm', 'Left Face', 'Right Face', 'Right Leg']",
7,"[-0.2, -0.2]",0.0,0,0,0,0,0,26,26,26,,,,,,,86.52468850000878,None,86.52468850000878,87.52512879999995,87.50865550000162,88.50917109999864,1,0.6402777777777777,0.17777777777777778,"[0, 0, 0]",0,0,86.52468850000878,None,,,,,,999,m,2,99,r,TEST,2021_Aug_03_2022,WASABI distractmap,2020.2.10,59.57991393981947,"['Right Arm', 'Left Face', 'Right Face', 'Right Leg']",
7,"[-0.2, -0.2]",1.0,0,0,0,0,0,27,27,27,,,,,,,88.52590629999759,None,88.52590629999759,89.52636519999942,89.50968160000048,90.5101180000056,0,0.6402777777777777,0.17777777777777778,"[0, 0, 0]",0,0,88.52590629999759,None,,,,,,999,m,2,99,r,TEST,2021_Aug_03_2022,WASABI distractmap,2020.2.10,59.57991393981947,"['Right Arm', 'Left Face', 'Right Face', 'Right Leg']",
2,"[0, 0.2]",0.0,0,0,0,0,0,28,28,28,,,,,,,90.52679080000962,None,90.52679080000962,91.52769879999687,91.51064980000956,92.51106530000106,1,0.6402777777777777,0.17777777777777778,"[0, 0, 0]",0,0,90.52679080000962,None,,,,,,999,m,2,99,r,TEST,2021_Aug_03_2022,WASABI distractmap,2020.2.10,59.57991393981947,"['Right Arm', 'Left Face', 'Right Face', 'Right Leg']",
6,"[0.2, 0]",0.0,0,0,0,0,0,29,29,29,,,,,,,92.52767019999737,None,92.52767019999737,93.52821790000598,93.5118427999987,94.51212660000601,1,0.6402777777777777,0.17777777777777778,"[0, 0, 0]",0,0,92.52767019999737,None,,,,,,999,m,2,99,r,TEST,2021_Aug_03_2022,WASABI distractmap,2020.2.10,59.57991393981947,"['Right Arm', 'Left Face', 'Right Face', 'Right Leg']",
,,,0,0,0,0,,,,,,,,,,,,,,,,,,,,,,,,,94.5426363000006,None,space,94.5426363000006,None,999,m,2,99,r,TEST,2021_Aug_03_2022,WASABI distractmap,2020.2.10,59.57991393981947,"['Right Arm', 'Left Face', 'Right Face', 'Right Leg']",
6,"[0.2, 0]",None,0,0,0,0,0,0,0,0,,,,,96.84658569999738,None,97.86322480000672,None,97.86322480000672,98.86439070000779,98.86439070000779,None,0,0.6402777777777777,0.17777777777777778,"[0, 0, 0]",0,0,97.86322480000672,None,,,,,,999,m,2,99,r,TEST,2021_Aug_03_2022,WASABI distractmap,2020.2.10,59.57991393981947,"['Right Arm', 'Left Face', 'Right Face', 'Right Leg']",
6,"[0.2, 0]",1.0,0,0,0,0,0,1,1,1,,,,,,,99.86482930000057,None,99.86482930000057,100.86524339999596,100.84856189999846,101.84899500000756,0,0.6402777777777777,0.17777777777777778,"[0, 0, 0]",0,0,99.86482930000057,None,,,,,,999,m,2,99,r,TEST,2021_Aug_03_2022,WASABI distractmap,2020.2.10,59.57991393981947,"['Right Arm', 'Left Face', 'Right Face', 'Right Leg']",
2,"[0, 0.2]",0.0,0,0,0,0,0,2,2,2,,,,,,,101.86579209999763,None,101.86579209999763,102.86644710000837,102.84969289999572,103.85006470000371,1,0.6402777777777777,0.17777777777777778,"[0, 0, 0]",0,0,101.86579209999763,None,,,,,,999,m,2,99,r,TEST,2021_Aug_03_2022,WASABI distractmap,2020.2.10,59.57991393981947,"['Right Arm', 'Left Face', 'Right Face', 'Right Leg']",
9,"[0.2, -0.2]",0.0,0,0,0,0,0,3,3,3,,,,,,,103.86686840000039,None,103.86686840000039,104.86749340000097,104.85067270000582,None,1,0.6402777777777777,0.17777777777777778,"[0, 0, 0]",0,0,103.86686840000039,None,,,,,,999,m,2,99,r,TEST,2021_Aug_03_2022,WASABI distractmap,2020.2.10,59.57991393981947,"['Right Arm', 'Left Face', 'Right Face', 'Right Leg']",
9,"[0.2, -0.2]",1.0,0,0,0,0,0,4,4,4,,,,,,,105.85126090000267,None,105.85126090000267,106.85159340000246,106.83498770000006,107.83552280000004,0,0.6402777777777777,0.17777777777777778,"[0, 0, 0]",0,0,105.85126090000267,None,,,,,,999,m,2,99,r,TEST,2021_Aug_03_2022,WASABI distractmap,2020.2.10,59.57991393981947,"['Right Arm', 'Left Face', 'Right Face', 'Right Leg']",
6,"[0.2, 0]",0.0,0,0,0,0,0,5,5,5,,,,,,,107.85200420000183,None,107.85200420000183,108.85267190000741,108.83591779999551,109.83641930000158,1,0.6402777777777777,0.17777777777777778,"[0, 0, 0]",0,0,107.85200420000183,None,,,,,,999,m,2,99,r,TEST,2021_Aug_03_2022,WASABI distractmap,2020.2.10,59.57991393981947,"['Right Arm', 'Left Face', 'Right Face', 'Right Leg']",
4,"[-0.2, 0]",0.0,0,0,0,0,0,6,6,6,,,,,,,109.85318299999926,None,109.85318299999926,110.85360260000743,110.83686720000696,111.83733910000592,1,0.6402777777777777,0.17777777777777778,"[0, 0, 0]",0,0,109.85318299999926,None,,,,,,999,m,2,99,r,TEST,2021_Aug_03_2022,WASABI distractmap,2020.2.10,59.57991393981947,"['Right Arm', 'Left Face', 'Right Face', 'Right Leg']",
3,"[0.2, 0.2]",0.0,0,0,0,0,0,7,7,7,,,,,,,111.85405370000808,None,111.85405370000808,112.85515440000745,112.83809530000144,113.83858759999566,1,0.6402777777777777,0.17777777777777778,"[0, 0, 0]",0,0,111.85405370000808,None,,,,,,999,m,2,99,r,TEST,2021_Aug_03_2022,WASABI distractmap,2020.2.10,59.57991393981947,"['Right Arm', 'Left Face', 'Right Face', 'Right Leg']",
3,"[0.2, 0.2]",1.0,0,0,0,0,0,8,8,8,,,,,,,113.85513429999992,None,113.85513429999992,114.85571220000566,114.83908990000782,115.8399788000097,0,0.6402777777777777,0.17777777777777778,"[0, 0, 0]",0,0,113.85513429999992,None,,,,,,999,m,2,99,r,TEST,2021_Aug_03_2022,WASABI distractmap,2020.2.10,59.57991393981947,"['Right Arm', 'Left Face', 'Right Face', 'Right Leg']",
8,"[0, -0.2]",0.0,0,0,0,0,0,9,9,9,,,,,,,115.85625789999904,None,115.85625789999904,116.8568743000069,116.84001130000979,117.84043300000485,1,0.6402777777777777,0.17777777777777778,"[0, 0, 0]",0,0,115.85625789999904,None,,,,,,999,m,2,99,r,TEST,2021_Aug_03_2022,WASABI distractmap,2020.2.10,59.57991393981947,"['Right Arm', 'Left Face', 'Right Face', 'Right Leg']",
1,"[-0.2, 0.2]",0.0,0,0,0,0,0,10,10,10,,,,,,,117.85720300000685,None,117.85720300000685,118.85771389999718,118.84096830000635,119.84159550000913,1,0.6402777777777777,0.17777777777777778,"[0, 0, 0]",0,0,117.85720300000685,None,,,,,,999,m,2,99,r,TEST,2021_Aug_03_2022,WASABI distractmap,2020.2.10,59.57991393981947,"['Right Arm', 'Left Face', 'Right Face', 'Right Leg']",
2,"[0, 0.2]",0.0,0,0,0,0,0,11,11,11,,,,,,,119.85813580000831,None,119.85813580000831,120.85869910000474,120.84204050000699,121.84252420000848,1,0.6402777777777777,0.17777777777777778,"[0, 0, 0]",0,0,119.85813580000831,None,,,,,,999,m,2,99,r,TEST,2021_Aug_03_2022,WASABI distractmap,2020.2.10,59.57991393981947,"['Right Arm', 'Left Face', 'Right Face', 'Right Leg']",
4,"[-0.2, 0]",0.0,0,0,0,0,0,12,12,12,,,,,,,121.85918410000158,None,121.85918410000158,122.85977280000225,122.8429662999988,123.84362470000633,1,0.6402777777777777,0.17777777777777778,"[0, 0, 0]",0,0,121.85918410000158,None,,,,,,999,m,2,99,r,TEST,2021_Aug_03_2022,WASABI distractmap,2020.2.10,59.57991393981947,"['Right Arm', 'Left Face', 'Right Face', 'Right Leg']",
4,"[-0.2, 0]",1.0,0,0,0,0,0,13,13,13,,,,,,,123.86009149999882,None,123.86009149999882,124.86074240000744,124.84401889999572,125.84446180000668,0,0.6402777777777777,0.17777777777777778,"[0, 0, 0]",0,0,123.86009149999882,None,,,,,,999,m,2,99,r,TEST,2021_Aug_03_2022,WASABI distractmap,2020.2.10,59.57991393981947,"['Right Arm', 'Left Face', 'Right Face', 'Right Leg']",
8,"[0, -0.2]",0.0,0,0,0,0,0,14,14,14,,,,,,,125.86203040000692,None,125.86203040000692,126.86161590000847,126.84491980000166,127.84560390000115,1,0.6402777777777777,0.17777777777777778,"[0, 0, 0]",0,0,125.86203040000692,None,,,,,,999,m,2,99,r,TEST,2021_Aug_03_2022,WASABI distractmap,2020.2.10,59.57991393981947,"['Right Arm', 'Left Face', 'Right Face', 'Right Leg']",
5,"[0, 0]",0.0,0,0,0,0,0,15,15,15,,,,,,,127.86225610000838,None,127.86225610000838,128.8626021000091,128.84590509999543,129.84654389999923,1,0.6402777777777777,0.17777777777777778,"[0, 0, 0]",0,0,127.86225610000838,None,,,,,,999,m,2,99,r,TEST,2021_Aug_03_2022,WASABI distractmap,2020.2.10,59.57991393981947,"['Right Arm', 'Left Face', 'Right Face', 'Right Leg']",
5,"[0, 0]",1.0,0,0,0,0,0,16,16,16,,,,,,,129.8632978000096,None,129.8632978000096,130.86363960000745,130.84732660000736,131.84736440000415,0,0.6402777777777777,0.17777777777777778,"[0, 0, 0]",0,0,129.8632978000096,None,,,,,,999,m,2,99,r,TEST,2021_Aug_03_2022,WASABI distractmap,2020.2.10,59.57991393981947,"['Right Arm', 'Left Face', 'Right Face', 'Right Leg']",
1,"[-0.2, 0.2]",0.0,0,0,0,0,0,17,17,17,,,,,,,131.8641665000032,None,131.8641665000032,132.8647376000008,132.84836460000952,133.84844709999743,1,0.6402777777777777,0.17777777777777778,"[0, 0, 0]",0,0,131.8641665000032,None,,,,,,999,m,2,99,r,TEST,2021_Aug_03_2022,WASABI distractmap,2020.2.10,59.57991393981947,"['Right Arm', 'Left Face', 'Right Face', 'Right Leg']",
3,"[0.2, 0.2]",0.0,0,0,0,0,0,18,18,18,,,,,,,133.8651208000083,None,133.8651208000083,134.86597359999723,134.8491181999998,135.84952620000695,1,0.6402777777777777,0.17777777777777778,"[0, 0, 0]",0,0,133.8651208000083,None,,,,,,999,m,2,99,r,TEST,2021_Aug_03_2022,WASABI distractmap,2020.2.10,59.57991393981947,"['Right Arm', 'Left Face', 'Right Face', 'Right Leg']",
6,"[0.2, 0]",0.0,0,0,0,0,0,19,19,19,,,,,,,135.8661310000025,None,135.8661310000025,136.8666219000006,136.8499798999983,None,1,0.6402777777777777,0.17777777777777778,"[0, 0, 0]",0,0,135.8661310000025,None,,,,,,999,m,2,99,r,TEST,2021_Aug_03_2022,WASABI distractmap,2020.2.10,59.57991393981947,"['Right Arm', 'Left Face', 'Right Face', 'Right Leg']",
1,"[-0.2, 0.2]",0.0,0,0,0,0,0,20,20,20,,,,,,,137.8504593999969,None,137.8504593999969,138.8508703999978,138.83420009999827,139.83495390000462,1,0.6402777777777777,0.17777777777777778,"[0, 0, 0]",0,0,137.8504593999969,None,,,,,,999,m,2,99,r,TEST,2021_Aug_03_2022,WASABI distractmap,2020.2.10,59.57991393981947,"['Right Arm', 'Left Face', 'Right Face', 'Right Leg']",
1,"[-0.2, 0.2]",1.0,0,0,0,0,0,21,21,21,,,,,,,139.85171509999782,None,139.85171509999782,140.85195860000385,140.83516660000896,141.8358995000017,0,0.6402777777777777,0.17777777777777778,"[0, 0, 0]",0,0,139.85171509999782,None,,,,,,999,m,2,99,r,TEST,2021_Aug_03_2022,WASABI distractmap,2020.2.10,59.57991393981947,"['Right Arm', 'Left Face', 'Right Face', 'Right Leg']",
1,"[-0.2, 0.2]",1.0,0,0,0,0,0,22,22,22,,,,,,,141.85264070000267,None,141.85264070000267,142.85289350000676,142.83641400000488,143.8367181000067,0,0.6402777777777777,0.17777777777777778,"[0, 0, 0]",0,0,141.85264070000267,None,,,,,,999,m,2,99,r,TEST,2021_Aug_03_2022,WASABI distractmap,2020.2.10,59.57991393981947,"['Right Arm', 'Left Face', 'Right Face', 'Right Leg']",
3,"[0.2, 0.2]",0.0,0,0,0,0,0,23,23,23,,,,,,,143.85344659999828,None,143.85344659999828,144.85404879999987,144.8374027999962,145.8378498999955,1,0.6402777777777777,0.17777777777777778,"[0, 0, 0]",0,0,143.85344659999828,None,,,,,,999,m,2,99,r,TEST,2021_Aug_03_2022,WASABI distractmap,2020.2.10,59.57991393981947,"['Right Arm', 'Left Face', 'Right Face', 'Right Leg']",
2,"[0, 0.2]",0.0,0,0,0,0,0,24,24,24,,,,,,,145.85457009999664,None,145.85457009999664,146.85505739999644,146.8383393999975,147.83878069999628,1,0.6402777777777777,0.17777777777777778,"[0, 0, 0]",0,0,145.85457009999664,None,,,,,,999,m,2,99,r,TEST,2021_Aug_03_2022,WASABI distractmap,2020.2.10,59.57991393981947,"['Right Arm', 'Left Face', 'Right Face', 'Right Leg']",
1,"[-0.2, 0.2]",0.0,0,0,0,0,0,25,25,25,,,,,,,147.8555297999992,None,147.8555297999992,148.85597649999545,148.83949490000668,149.83991819999937,1,0.6402777777777777,0.17777777777777778,"[0, 0, 0]",0,0,147.8555297999992,None,,,,,,999,m,2,99,r,TEST,2021_Aug_03_2022,WASABI distractmap,2020.2.10,59.57991393981947,"['Right Arm', 'Left Face', 'Right Face', 'Right Leg']",
7,"[-0.2, -0.2]",0.0,0,0,0,0,0,26,26,26,,,,,,,149.85670810000738,None,149.85670810000738,150.8568987000035,150.84019620000618,151.84092860000965,1,0.6402777777777777,0.17777777777777778,"[0, 0, 0]",0,0,149.85670810000738,None,,,,,,999,m,2,99,r,TEST,2021_Aug_03_2022,WASABI distractmap,2020.2.10,59.57991393981947,"['Right Arm', 'Left Face', 'Right Face', 'Right Leg']",
7,"[-0.2, -0.2]",1.0,0,0,0,0,0,27,27,27,,,,,,,151.85748940000485,None,151.85748940000485,152.85788799999864,152.8412357000052,None,0,0.6402777777777777,0.17777777777777778,"[0, 0, 0]",0,0,151.85748940000485,None,,,,,,999,m,2,99,r,TEST,2021_Aug_03_2022,WASABI distractmap,2020.2.10,59.57991393981947,"['Right Arm', 'Left Face', 'Right Face', 'Right Leg']",
2,"[0, 0.2]",0.0,0,0,0,0,0,28,28,28,,,,,,,153.84494330000598,None,153.84494330000598,154.85911060000944,154.8424331999995,155.84283560000767,1,0.6402777777777777,0.17777777777777778,"[0, 0, 0]",0,0,153.84494330000598,None,,,,,,999,m,2,99,r,TEST,2021_Aug_03_2022,WASABI distractmap,2020.2.10,59.57991393981947,"['Right Arm', 'Left Face', 'Right Face', 'Right Leg']",
6,"[0.2, 0]",0.0,0,0,0,0,0,29,29,29,,,,,,,155.8595445999963,None,155.8595445999963,156.8599780000077,156.843472499997,157.84385530000145,1,0.6402777777777777,0.17777777777777778,"[0, 0, 0]",0,0,155.8595445999963,None,,,,,,999,m,2,99,r,TEST,2021_Aug_03_2022,WASABI distractmap,2020.2.10,59.57991393981947,"['Right Arm', 'Left Face', 'Right Face', 'Right Leg']",
,,,0,0,0,0,,,,,,,,,,,,,,,,,,,,,,,,,157.86042730000918,None,space,157.86042730000918,None,999,m,2,99,r,TEST,2021_Aug_03_2022,WASABI distractmap,2020.2.10,59.57991393981947,"['Right Arm', 'Left Face', 'Right Face', 'Right Leg']",
6,"[0.2, 0]",None,0,0,0,0,0,0,0,0,,,,,2752.36196580001,None,2753.3784785000025,None,2753.3784785000025,2754.379713500006,2754.379713500006,None,0,0.6402777777777777,0.17777777777777778,"[0, 0, 0]",0,0,2753.3784785000025,None,,,,,,999,m,2,99,r,TEST,2021_Aug_03_2022,WASABI distractmap,2020.2.10,59.57991393981947,"['Right Arm', 'Left Face', 'Right Face', 'Right Leg']",
6,"[0.2, 0]",1.0,0,0,0,0,0,1,1,1,,,,,,,2755.3802157000027,None,2755.3802157000027,2756.3806899000047,2756.364011400001,2757.364407300003,1,0.6402777777777777,0.17777777777777778,"[0, 0, 0]",0,0,2755.3802157000027,None,,,,,,999,m,2,99,r,TEST,2021_Aug_03_2022,WASABI distractmap,2020.2.10,59.57991393981947,"['Right Arm', 'Left Face', 'Right Face', 'Right Leg']",
2,"[0, 0.2]",0.0,0,0,0,0,0,2,2,2,,,,,,,2757.3811534999986,None,2757.3811534999986,2758.3816426999983,2758.3650877000036,2759.365653800007,0,0.6402777777777777,0.17777777777777778,"[0, 0, 0]",0,0,2757.3811534999986,None,,,,,,999,m,2,99,r,TEST,2021_Aug_03_2022,WASABI distractmap,2020.2.10,59.57991393981947,"['Right Arm', 'Left Face', 'Right Face', 'Right Leg']",
9,"[0.2, -0.2]",0.0,0,0,0,0,0,3,3,3,,,,,,,2759.382053299996,None,2759.382053299996,2760.382852499999,2760.3661394000083,None,1,0.6402777777777777,0.17777777777777778,"[0, 0, 0]",0,0,2759.382053299996,None,,,,,,999,m,2,99,r,TEST,2021_Aug_03_2022,WASABI distractmap,2020.2.10,59.57991393981947,"['Right Arm', 'Left Face', 'Right Face', 'Right Leg']",
9,"[0.2, -0.2]",1.0,0,0,0,0,0,4,4,4,,,,,,,2761.3664804,None,2761.3664804,2762.367079600008,2762.350381299999,2763.351351300007,1,0.6402777777777777,0.17777777777777778,"[0, 0, 0]",0,0,2761.3664804,None,,,,,,999,m,2,99,r,TEST,2021_Aug_03_2022,WASABI distractmap,2020.2.10,59.57991393981947,"['Right Arm', 'Left Face', 'Right Face', 'Right Leg']",
6,"[0.2, 0]",0.0,0,0,0,0,0,5,5,5,,,,,,,2763.367683400007,None,2763.367683400007,2764.3680100000056,2764.3513301000057,2765.351913400009,1,0.6402777777777777,0.17777777777777778,"[0, 0, 0]",0,0,2763.367683400007,None,,,,,,999,m,2,99,r,TEST,2021_Aug_03_2022,WASABI distractmap,2020.2.10,59.57991393981947,"['Right Arm', 'Left Face', 'Right Face', 'Right Leg']",
4,"[-0.2, 0]",0.0,0,0,0,0,0,6,6,6,,,,,,,2765.368745700005,None,2765.368745700005,2766.3688784999977,2766.3522517999954,2767.352906900007,1,0.6402777777777777,0.17777777777777778,"[0, 0, 0]",0,0,2765.368745700005,None,,,,,,999,m,2,99,r,TEST,2021_Aug_03_2022,WASABI distractmap,2020.2.10,59.57991393981947,"['Right Arm', 'Left Face', 'Right Face', 'Right Leg']",
3,"[0.2, 0.2]",0.0,0,0,0,0,0,7,7,7,,,,,,,2767.3698538000026,None,2767.3698538000026,2768.370111299999,2768.353402000008,2769.353922299997,1,0.6402777777777777,0.17777777777777778,"[0, 0, 0]",0,0,2767.3698538000026,None,,,,,,999,m,2,99,r,TEST,2021_Aug_03_2022,WASABI distractmap,2020.2.10,59.57991393981947,"['Right Arm', 'Left Face', 'Right Face', 'Right Leg']",
3,"[0.2, 0.2]",1.0,0,0,0,0,0,8,8,8,,,,,,,2769.370865200006,None,2769.370865200006,2770.3712374000024,2770.3545003000036,2771.354714000001,0,0.6402777777777777,0.17777777777777778,"[0, 0, 0]",0,0,2769.370865200006,None,,,,,,999,m,2,99,r,TEST,2021_Aug_03_2022,WASABI distractmap,2020.2.10,59.57991393981947,"['Right Arm', 'Left Face', 'Right Face', 'Right Leg']",
8,"[0, -0.2]",0.0,0,0,0,0,0,9,9,9,,,,,,,2771.3714843000052,None,2771.3714843000052,2772.3721573000075,2772.3554431000084,2773.355729700008,1,0.6402777777777777,0.17777777777777778,"[0, 0, 0]",0,0,2771.3714843000052,None,,,,,,999,m,2,99,r,TEST,2021_Aug_03_2022,WASABI distractmap,2020.2.10,59.57991393981947,"['Right Arm', 'Left Face', 'Right Face', 'Right Leg']",
1,"[-0.2, 0.2]",0.0,0,0,0,0,0,10,10,10,,,,,,,2773.372458800004,None,2773.372458800004,2774.373171200001,2774.3400106000045,2775.340194400007,1,0.6402777777777777,0.17777777777777778,"[0, 0, 0]",0,0,2773.372458800004,None,,,,,,999,m,2,99,r,TEST,2021_Aug_03_2022,WASABI distractmap,2020.2.10,59.57991393981947,"['Right Arm', 'Left Face', 'Right Face', 'Right Leg']",
2,"[0, 0.2]",0.0,0,0,0,0,0,11,11,11,,,,,,,2775.373760900009,None,2775.373760900009,2776.3739532000036,2776.357364299998,2777.361177300001,1,0.6402777777777777,0.17777777777777778,"[0, 0, 0]",0,0,2775.373760900009,None,,,,,,999,m,2,99,r,TEST,2021_Aug_03_2022,WASABI distractmap,2020.2.10,59.57991393981947,"['Right Arm', 'Left Face', 'Right Face', 'Right Leg']",
4,"[-0.2, 0]",0.0,0,0,0,0,0,12,12,12,,,,,,,2777.374645899996,None,2777.374645899996,2778.375017700004,2778.3582650000026,2779.3588833999966,1,0.6402777777777777,0.17777777777777778,"[0, 0, 0]",0,0,2777.374645899996,None,,,,,,999,m,2,99,r,TEST,2021_Aug_03_2022,WASABI distractmap,2020.2.10,59.57991393981947,"['Right Arm', 'Left Face', 'Right Face', 'Right Leg']",
4,"[-0.2, 0]",1.0,0,0,0,0,0,13,13,13,,,,,,,2779.3754479000054,None,2779.3754479000054,2780.3761936000083,2780.359362400006,2781.3598624000006,1,0.6402777777777777,0.17777777777777778,"[0, 0, 0]",0,0,2779.3754479000054,None,,,,,,999,m,2,99,r,TEST,2021_Aug_03_2022,WASABI distractmap,2020.2.10,59.57991393981947,"['Right Arm', 'Left Face', 'Right Face', 'Right Leg']",
8,"[0, -0.2]",0.0,0,0,0,0,0,14,14,14,,,,,,,2781.3765125000064,None,2781.3765125000064,2782.3771188999963,2782.3631909999967,None,1,0.6402777777777777,0.17777777777777778,"[0, 0, 0]",0,0,2781.3765125000064,None,,,,,,999,m,2,99,r,TEST,2021_Aug_03_2022,WASABI distractmap,2020.2.10,59.57991393981947,"['Right Arm', 'Left Face', 'Right Face', 'Right Leg']",
5,"[0, 0]",0.0,0,0,0,0,0,15,15,15,,,,,,,2783.3774535999983,None,2783.3774535999983,2784.3781270000036,2784.3613747000054,2785.3619171000028,1,0.6402777777777777,0.17777777777777778,"[0, 0, 0]",0,0,2783.3774535999983,None,,,,,,999,m,2,99,r,TEST,2021_Aug_03_2022,WASABI distractmap,2020.2.10,59.57991393981947,"['Right Arm', 'Left Face', 'Right Face', 'Right Leg']",
5,"[0, 0]",1.0,0,0,0,0,0,16,16,16,,,,,,,2785.3785561999975,None,2785.3785561999975,2786.379197500006,2786.3623589000053,2787.362851800004,1,0.6402777777777777,0.17777777777777778,"[0, 0, 0]",0,0,2785.3785561999975,None,,,,,,999,m,2,99,r,TEST,2021_Aug_03_2022,WASABI distractmap,2020.2.10,59.57991393981947,"['Right Arm', 'Left Face', 'Right Face', 'Right Leg']",
1,"[-0.2, 0.2]",0.0,0,0,0,0,0,17,17,17,,,,,,,2787.3796667999995,None,2787.3796667999995,2788.380013700007,2788.3633480999997,2789.363896900002,1,0.6402777777777777,0.17777777777777778,"[0, 0, 0]",0,0,2787.3796667999995,None,,,,,,999,m,2,99,r,TEST,2021_Aug_03_2022,WASABI distractmap,2020.2.10,59.57991393981947,"['Right Arm', 'Left Face', 'Right Face', 'Right Leg']",
3,"[0.2, 0.2]",0.0,0,0,0,0,0,18,18,18,,,,,,,2789.380749899996,None,2789.380749899996,2790.3811034999962,2790.364446599997,None,1,0.6402777777777777,0.17777777777777778,"[0, 0, 0]",0,0,2789.380749899996,None,,,,,,999,m,2,99,r,TEST,2021_Aug_03_2022,WASABI distractmap,2020.2.10,59.57991393981947,"['Right Arm', 'Left Face', 'Right Face', 'Right Leg']",
6,"[0.2, 0]",0.0,0,0,0,0,0,19,19,19,,,,,,,2791.36496620001,None,2791.36496620001,2792.3654820000083,2792.3487392000097,2793.349096200007,1,0.6402777777777777,0.17777777777777778,"[0, 0, 0]",0,0,2791.36496620001,None,,,,,,999,m,2,99,r,TEST,2021_Aug_03_2022,WASABI distractmap,2020.2.10,59.57991393981947,"['Right Arm', 'Left Face', 'Right Face', 'Right Leg']",
1,"[-0.2, 0.2]",0.0,0,0,0,0,0,20,20,20,,,,,,,2793.365826699999,None,2793.365826699999,2794.366492400004,2794.3498710999993,2795.350269600007,1,0.6402777777777777,0.17777777777777778,"[0, 0, 0]",0,0,2793.365826699999,None,,,,,,999,m,2,99,r,TEST,2021_Aug_03_2022,WASABI distractmap,2020.2.10,59.57991393981947,"['Right Arm', 'Left Face', 'Right Face', 'Right Leg']",
1,"[-0.2, 0.2]",1.0,0,0,0,0,0,21,21,21,,,,,,,2795.367637999996,None,2795.367637999996,2796.3677395999985,2796.3514311000035,2797.351302199997,1,0.6402777777777777,0.17777777777777778,"[0, 0, 0]",0,0,2795.367637999996,None,,,,,,999,m,2,99,r,TEST,2021_Aug_03_2022,WASABI distractmap,2020.2.10,59.57991393981947,"['Right Arm', 'Left Face', 'Right Face', 'Right Leg']",
1,"[-0.2, 0.2]",1.0,0,0,0,0,0,22,22,22,,,,,,,2797.3679049000057,None,2797.3679049000057,2798.3684856000036,2798.351813500005,2799.3522266000073,1,0.6402777777777777,0.17777777777777778,"[0, 0, 0]",0,0,2797.3679049000057,None,,,,,,999,m,2,99,r,TEST,2021_Aug_03_2022,WASABI distractmap,2020.2.10,59.57991393981947,"['Right Arm', 'Left Face', 'Right Face', 'Right Leg']",
3,"[0.2, 0.2]",0.0,0,0,0,0,0,23,23,23,,,,,,,2799.3689228000003,None,2799.3689228000003,2800.369553800003,2800.3528210000077,2801.3535217000026,1,0.6402777777777777,0.17777777777777778,"[0, 0, 0]",0,0,2799.3689228000003,None,,,,,,999,m,2,99,r,TEST,2021_Aug_03_2022,WASABI distractmap,2020.2.10,59.57991393981947,"['Right Arm', 'Left Face', 'Right Face', 'Right Leg']",
2,"[0, 0.2]",0.0,0,0,0,0,0,24,24,24,,,,,,,2801.370095300008,None,2801.370095300008,2802.3705846000084,2802.3535854000074,2803.3542832000094,1,0.6402777777777777,0.17777777777777778,"[0, 0, 0]",0,0,2801.370095300008,None,,,,,,999,m,2,99,r,TEST,2021_Aug_03_2022,WASABI distractmap,2020.2.10,59.57991393981947,"['Right Arm', 'Left Face', 'Right Face', 'Right Leg']",
1,"[-0.2, 0.2]",0.0,0,0,0,0,0,25,25,25,,,,,,,2803.371001599997,None,2803.371001599997,2804.3714256000094,2804.354747000005,2805.355411299999,1,0.6402777777777777,0.17777777777777778,"[0, 0, 0]",0,0,2803.371001599997,None,,,,,,999,m,2,99,r,TEST,2021_Aug_03_2022,WASABI distractmap,2020.2.10,59.57991393981947,"['Right Arm', 'Left Face', 'Right Face', 'Right Leg']",
7,"[-0.2, -0.2]",0.0,0,0,0,0,0,26,26,26,,,,,,,2805.3721434000036,None,2805.3721434000036,2806.3724863000098,2806.3557067000074,2807.3562489000033,1,0.6402777777777777,0.17777777777777778,"[0, 0, 0]",0,0,2805.3721434000036,None,,,,,,999,m,2,99,r,TEST,2021_Aug_03_2022,WASABI distractmap,2020.2.10,59.57991393981947,"['Right Arm', 'Left Face', 'Right Face', 'Right Leg']",
7,"[-0.2, -0.2]",1.0,0,0,0,0,0,27,27,27,,,,,,,2807.3730193000083,None,2807.3730193000083,2808.3735469999956,2808.356719999996,2809.3571878000075,1,0.6402777777777777,0.17777777777777778,"[0, 0, 0]",0,0,2807.3730193000083,None,,,,,,999,m,2,99,r,TEST,2021_Aug_03_2022,WASABI distractmap,2020.2.10,59.57991393981947,"['Right Arm', 'Left Face', 'Right Face', 'Right Leg']",
2,"[0, 0.2]",0.0,0,0,0,0,0,28,28,28,,,,,,,2809.3738328000036,None,2809.3738328000036,2810.3745548000006,2810.3578634000005,2811.3581986000063,1,0.6402777777777777,0.17777777777777778,"[0, 0, 0]",0,0,2809.3738328000036,None,,,,,,999,m,2,99,r,TEST,2021_Aug_03_2022,WASABI distractmap,2020.2.10,59.57991393981947,"['Right Arm', 'Left Face', 'Right Face', 'Right Leg']",
6,"[0.2, 0]",0.0,0,0,0,0,0,29,29,29,,,,,,,2811.3748987,None,2811.3748987,2812.375443099998,2812.358726000006,2813.359253900009,1,0.6402777777777777,0.17777777777777778,"[0, 0, 0]",0,0,2811.3748987,None,,,,,,999,m,2,99,r,TEST,2021_Aug_03_2022,WASABI distractmap,2020.2.10,59.57991393981947,"['Right Arm', 'Left Face', 'Right Face', 'Right Leg']",
,,,0,0,0,0,,,,,,,,,,,,,,,,,,,,,,,,,2813.3868916000065,None,space,2813.3868916000065,None,999,m,2,99,r,TEST,2021_Aug_03_2022,WASABI distractmap,2020.2.10,59.57991393981947,"['Right Arm', 'Left Face', 'Right Face', 'Right Leg']",
,,,,,,,,,,,,,,,2874.6399730999983,None,,,,,,,,,,,,,,,,,,,,,,,,,,,,,,,
