	onset	duration	rt	response	correct	bodySite	temperature	condition	pretrial-jitter
0	2.76635849988088	7.784344899933785				Abdomen	46	1back Instructions	
1	12.802105699898675	1.9672351800836623			1.0	Abdomen	46	1back	5.0
2	14.79138970002532	2.005747679853812			0.0	Abdomen	46	1back	5.0
3	16.792549999896437	2.003471480216831			0.0	Abdomen	46	1back	5.0
4	18.792731699999422	2.0030967800412327			0.0	Abdomen	46	1back	5.0
5	20.85242459992878	1.9335706199053675			0.0	Abdomen	46	1back	5.0
6	22.80723869986832	2.007573680020869			0.0	Abdomen	46	1back	5.0
7	24.80866470001638	2.004777080146596			0.0	Abdomen	46	1back	5.0
8	26.808591000037268	2.0048796799965203			0.0	Abdomen	46	1back	5.0
9	28.808696399908513	2.004712380003184			0.0	Abdomen	46	1back	5.0
10	30.8085455999244	2.0051699799951166			0.0	Abdomen	46	1back	5.0
11	39.80489709996618	5.012994280084968		50.0		Abdomen	46	1back Rating	7.0
12	44.829078200040385	49.83673939993605				Abdomen	46	2back Instructions	
13	52.87089789984748	1.9802867600228637			1.0	Abdomen	46	2back	3.0
14	54.85849679983221	2.0054344802629203			1.0	Abdomen	46	2back	3.0
15	56.87387799983844	2.007701879600063			0.0	Abdomen	46	2back	3.0
16	58.89054000005126	2.007793979952112			0.0	Abdomen	46	2back	3.0
17	60.94922979990952	1.9569952399469912			0.0	Abdomen	46	2back	3.0
18	62.92426220001653	2.007394680287689			0.0	Abdomen	46	2back	3.0
19	64.94045210001059	2.008165979757905			0.0	Abdomen	46	2back	3.0
20	66.95760659989901	2.0071106797549874			0.0	Abdomen	46	2back	3.0
21	68.9738878000062	2.007943280041218			0.0	Abdomen	46	2back	3.0
22	70.9906442000065	2.007790780160576			0.0	Abdomen	46	2back	3.0
23	76.00484249996953	5.01353098009713		50.0		Abdomen	46	2back Rating	3.0
24	81.01170679996721	86.02053919993341				Abdomen	46	2back Instructions	
25	93.05452749994583	1.9802993601188064			1.0	Abdomen	46	2back	7.0
26	95.04219740000553	2.0054561803117394			1.0	Abdomen	46	2back	7.0
27	97.05747390002944	2.0078555799555033			0.0	Abdomen	46	2back	7.0
28	99.07418929995038	2.0080355796962976			0.0	Abdomen	46	2back	7.0
29	101.12979479995556	1.9642617397475988			0.0	Abdomen	46	2back	7.0
30	103.10801470000297	2.0072201802395284			0.0	Abdomen	46	2back	7.0
31	105.12425949983299	2.0077486799564213			0.0	Abdomen	46	2back	7.0
32	107.14146029995754	2.006678080186248			0.0	Abdomen	46	2back	7.0
33	109.15747780003585	2.007949579972774			0.0	Abdomen	46	2back	7.0
34	111.174407399958	2.007487079827115			0.0	Abdomen	46	2back	7.0
35	120.1888908999972	5.013001480139792		50.0		Abdomen	46	2back Rating	7.0
36	125.21315949992277	130.22062409995124				Abdomen	46	1back Instructions	
37	133.25280310004018	1.9676632799673826			1.0	Abdomen	46	1back	3.0
38	135.24255349999294	2.005331279942766			0.0	Abdomen	46	1back	3.0
39	137.24359590001404	2.0032445800025016			0.0	Abdomen	46	1back	3.0
40	139.2439017998986	2.0026843801606447			0.0	Abdomen	46	1back	3.0
41	141.26663099997677	1.9572467599064112			0.0	Abdomen	46	1back	3.0
42	143.29053250001743	2.008390079950914			0.0	Abdomen	46	1back	3.0
43	145.29360529989935	2.0034482800401747			0.0	Abdomen	46	1back	3.0
44	147.29361569997855	2.003462579799816			0.0	Abdomen	46	1back	3.0
45	149.29359110002406	2.00347768003121			0.0	Abdomen	46	1back	3.0
46	151.29364849999547	2.0033928798511624			0.0	Abdomen	46	1back	3.0
47	160.28884689998813	5.01360248029232		50.0		Abdomen	46	1back Rating	7.0
48	165.2954996000044	170.30440360005014				Abdomen	46	1back Instructions	
49	173.33657120005228	1.9675440797582269			1.0	Abdomen	46	1back	3.0
50	175.32625889987685	2.0051647799555212			0.0	Abdomen	46	1back	3.0
51	177.32659629988484	2.0045205801725388			0.0	Abdomen	46	1back	3.0
52	179.3265958998818	2.004570780089125			0.0	Abdomen	46	1back	3.0
53	181.36799329984933	1.955125039909035			0.0	Abdomen	46	1back	3.0
54	183.34178559994325	2.007543179905042			0.0	Abdomen	46	1back	3.0
55	185.3436236998532	2.0038807799573988			0.0	Abdomen	46	1back	3.0
56	187.3436006999109	2.0038950799498707			0.0	Abdomen	46	1back	3.0
57	189.34366549993865	2.0036911799106747			0.0	Abdomen	46	1back	3.0
58	191.34351889998652	2.0041373802814633			0.0	Abdomen	46	1back	3.0
59	198.33984549995512	5.0122461803257465		50.0		Abdomen	46	1back Rating	5.0
60	203.34557130001485	208.354858599836				Abdomen	46	1back Instructions	
61	213.38699180004187	1.967250080080703			1.0	Abdomen	46	1back	5.0
62	215.37639079988003	2.0054146798793226			0.0	Abdomen	46	1back	5.0
63	217.3766749999486	2.004888480063528			0.0	Abdomen	46	1back	5.0
64	219.37764479988255	2.0031302799470723			0.0	Abdomen	46	1back	5.0
65	221.44992599985562	1.9252273000311106			0.0	Abdomen	46	1back	5.0
66	223.39224740001373	2.007338880095631			0.0	Abdomen	46	1back	5.0
67	225.39348999992944	2.0048808800056577			0.0	Abdomen	46	1back	5.0
68	227.3937287000008	2.0043432801030576			0.0	Abdomen	46	1back	5.0
69	229.39363509998657	2.0045595802366734			0.0	Abdomen	46	1back	5.0
70	231.39346149982885	2.0050506801344454			0.0	Abdomen	46	1back	5.0
71	236.38984850002453	5.012838980183005		50.0		Abdomen	46	1back Rating	3.0
72	241.41421630000696	246.4214720998425				Abdomen	46	2back Instructions	
73	253.45640140003525	1.979089860105887			1.0	Abdomen	46	2back	7.0
74	255.4437491998542	2.0048289799597114			1.0	Abdomen	46	2back	7.0
75	257.4587582000531	2.007700380170718			0.0	Abdomen	46	2back	7.0
76	259.4755396998953	2.0075397798791528			0.0	Abdomen	46	2back	7.0
77	261.5190419999417	1.9705684599466622			0.0	Abdomen	46	2back	7.0
78	263.5091710998677	2.007405780022964			0.0	Abdomen	46	2back	7.0
79	265.52557179983705	2.0076686802785844			0.0	Abdomen	46	2back	7.0
80	267.5424553998746	2.0072085799183697			0.0	Abdomen	46	2back	7.0
81	269.5590903998818	2.0073075799737126			0.0	Abdomen	46	2back	7.0
82	271.57562809996307	2.007605480030179			0.0	Abdomen	46	2back	7.0
83	276.5899034999311	5.013201979920268		50.0		Abdomen	46	2back Rating	3.0
84	281.59661270002834	286.6052922999952				Abdomen	46	2back Instructions	
85	293.6395717000123	1.980082160094753			1.0	Abdomen	46	2back	7.0
86	295.6269489999395	2.0056914801243693			1.0	Abdomen	46	2back	7.0
87	297.6423296998255	2.007945379940793			0.0	Abdomen	46	2back	7.0
88	299.6592148998752	2.0075162798166275			0.0	Abdomen	46	2back	7.0
89	301.71204729983583	1.9686019397340715			0.0	Abdomen	46	2back	7.0
90	303.6929552999791	2.007130780024454			0.0	Abdomen	46	2back	7.0
91	305.7090807999484	2.0078263801988214			0.0	Abdomen	46	2back	7.0
92	307.7257429000456	2.0078815799206495			0.0	Abdomen	46	2back	7.0
93	309.7426483000163	2.007543280022219			0.0	Abdomen	46	2back	7.0
94	311.75932249985635	2.007490579970181			0.0	Abdomen	46	2back	7.0
95	318.7739054998383	5.012683280045167		50.0		Abdomen	46	2back Rating	5.0
96	323.79799570003524	328.8055406999774				Abdomen	46	1back Instructions	
97	333.83811559993774	1.9835306599270552			1.0	Abdomen	46	1back	5.0
98	335.82745959982276	2.005268579814583			0.0	Abdomen	46	1back	5.0
99	337.82775669987313	2.0046832801308483			0.0	Abdomen	46	1back	5.0
100	339.8285202998668	2.0032571798656136			0.0	Abdomen	46	1back	5.0
101	341.901366799837	1.924285399960354			0.0	Abdomen	46	1back	5.0
102	343.8433425000403	2.007056179922074			0.0	Abdomen	46	1back	5.0
103	345.84460409986787	2.0045109800994396			0.0	Abdomen	46	1back	5.0
104	347.8445071999449	2.004758080234751			0.0	Abdomen	46	1back	5.0
105	349.84449709998444	2.00479328003712			0.0	Abdomen	46	1back	5.0
106	351.8444890000392	2.0047508801799268			0.0	Abdomen	46	1back	5.0
107	358.8408599998802	5.012861879775301		50.0		Abdomen	46	1back Rating	5.0
108	363.8652802000288	368.8725403000135				Abdomen	46	2back Instructions	
109	373.90717089991085	1.9794957602862269			1.0	Abdomen	46	2back	5.0
110	375.89431759994477	2.005595579976216			1.0	Abdomen	46	2back	5.0
111	377.90975139988586	2.0076453799847513			0.0	Abdomen	46	2back	5.0
112	379.926362299826	2.0078676799312234			0.0	Abdomen	46	2back	5.0
113	382.0848689000122	1.857526820152998			0.0	Abdomen	46	2back	5.0
114	383.9601669998374	2.0071640799287707			0.0	Abdomen	46	2back	5.0
115	385.97640769998543	2.007842179853469			0.0	Abdomen	46	2back	5.0
116	387.9932468000334	2.0075345798395574			0.0	Abdomen	46	2back	5.0
117	390.00997759983875	2.00742247980088			0.0	Abdomen	46	2back	5.0
118	392.02664839988574	2.0075030801817775			0.0	Abdomen	46	2back	5.0
119	401.0414002998732	5.012261979980394		50.0		Abdomen	46	2back Rating	7.0
120	406.0482917998452	411.05623789993115				Abdomen	46	2back Instructions	
121	414.0903220998589	1.9804001599550247			1.0	Abdomen	46	2back	3.0
122	416.07802809984423	2.0054127799812704			1.0	Abdomen	46	2back	3.0
123	418.09333950001746	2.0078206800390035			0.0	Abdomen	46	2back	3.0
124	420.11013759998605	2.0075734797865152			0.0	Abdomen	46	2back	3.0
125	422.1772993998602	1.956558619858697			0.0	Abdomen	46	2back	3.0
126	424.14369799988344	2.0075365796219558			0.0	Abdomen	46	2back	3.0
127	426.1601533999201	2.0075703801121563			0.0	Abdomen	46	2back	3.0
128	428.17680949997157	2.0076833800412714			0.0	Abdomen	46	2back	3.0
129	430.19343529990874	2.007736880099401			0.0	Abdomen	46	2back	3.0
130	432.210176799912	2.0076970800291747			0.0	Abdomen	46	2back	3.0
131	439.22436499991454	5.013510080054402		50.0		Abdomen	46	2back Rating	5.0
132	444.23115919996053	449.23994140001014				Abdomen	46	2back Instructions	
133	454.2742373000365	1.9798655600752681			1.0	Abdomen	46	2back	5.0
134	456.2615676999558	2.0056607800070196			1.0	Abdomen	46	2back	5.0
135	458.27693839999847	2.007928380044177			0.0	Abdomen	46	2back	5.0
136	460.29365909984335	2.0079293800517917			0.0	Abdomen	46	2back	5.0
137	462.35118669993244	1.9594894398469478			0.0	Abdomen	46	2back	5.0
138	464.3274095999077	2.0074367800261825			0.0	Abdomen	46	2back	5.0
139	466.3437463999726	2.0077354800887406			0.0	Abdomen	46	2back	5.0
140	468.3603735000361	2.0078268798533827			0.0	Abdomen	46	2back	5.0
141	470.37731439992785	2.0073350796010345			0.0	Abdomen	46	2back	5.0
142	472.3939346000552	2.0074337797705084			0.0	Abdomen	46	2back	5.0
143	477.4083817000501	5.012946679955348		50.0		Abdomen	46	2back Rating	3.0
144	482.432615699945	487.4401352999266				Abdomen	46	1back Instructions	
145	494.47228559991345	1.9678070801310241			1.0	Abdomen	46	1back	7.0
146	496.46179610001855	2.0057138800621033			0.0	Abdomen	46	1back	7.0
147	498.4630926998798	2.0032454798929393			0.0	Abdomen	46	1back	7.0
148	500.4631270999089	2.0032467800192535			0.0	Abdomen	46	1back	7.0
149	502.5004650000483	1.961925639770925			0.0	Abdomen	46	1back	7.0
150	504.4777336998377	2.007337379967794			0.0	Abdomen	46	1back	7.0
151	506.47910330002196	2.004623079672456			0.0	Abdomen	46	1back	7.0
152	508.4791319000069	2.004702980397269			0.0	Abdomen	46	1back	7.0
153	510.4791212999262	2.004784880205989			0.0	Abdomen	46	1back	7.0
154	512.4790197999682	2.0049740800168365			0.0	Abdomen	46	1back	7.0
155	517.4753667998593	5.0129459800664335		50.0		Abdomen	46	1back Rating	3.0
156	522.4822531999089	527.4904298998881				Abdomen	46	1back Instructions	
157	534.5225457998458	1.9678410801570863			1.0	Abdomen	46	1back	7.0
158	536.5124439999927	2.005195879843086			0.0	Abdomen	46	1back	7.0
159	538.513108999934	2.003819779958576			0.0	Abdomen	46	1back	7.0
160	540.5132070998661	2.0034914799034595			0.0	Abdomen	46	1back	7.0
161	542.5802219000179	1.936207999708131			0.0	Abdomen	46	1back	7.0
162	544.5279385999311	2.0076694800518453			0.0	Abdomen	46	1back	7.0
163	546.5303100999445	2.002972480142489			0.0	Abdomen	46	1back	7.0
164	548.530160299968	2.003274979768321			0.0	Abdomen	46	1back	7.0
165	550.5302526999731	2.003144680056721			0.0	Abdomen	46	1back	7.0
166	552.5301798	2.003326879814267			0.0	Abdomen	46	1back	7.0
167	559.525361499982	5.013484380207956		50.0		Abdomen	46	1back Rating	5.0
168	564.5493449999485	569.557453099871				Abdomen	46	2back Instructions	
169	574.5921067998279	1.9795592601876706			1.0	Abdomen	46	2back	5.0
170	576.5795384999365	2.0050848799292			1.0	Abdomen	46	2back	5.0
171	578.5946549999062	2.0076094802934676			0.0	Abdomen	46	2back	5.0
172	580.6112617000472	2.007840879727155			0.0	Abdomen	46	2back	5.0
173	582.6974440000486	1.935505100293085			0.0	Abdomen	46	2back	5.0
174	584.6449900998268	2.007482379907742			0.0	Abdomen	46	2back	5.0
175	586.6614401000552	2.007637079572305			0.0	Abdomen	46	2back	5.0
176	588.6782489998732	2.0073370796162635			0.0	Abdomen	46	2back	5.0
177	590.6946455000434	2.007885379716754			0.0	Abdomen	46	2back	5.0
178	592.7112926000264	2.007911279797554			0.0	Abdomen	46	2back	5.0
179	597.7263988000341	5.012071379926056		50.0		Abdomen	46	2back Rating	3.0
180	602.749358800007	607.7577231000178				Abdomen	46	1back Instructions	
181	614.7898005000316	1.9680344799999148			1.0	Abdomen	46	1back	7.0
182	616.7796362999361	2.005395479965955			0.0	Abdomen	46	1back	7.0
183	618.7801877998281	2.004330380121246			0.0	Abdomen	46	1back	7.0
184	620.7801739999559	2.004347279900685			0.0	Abdomen	46	1back	7.0
185	622.879732699832	1.905274759978056			0.0	Abdomen	46	1back	7.0
186	624.7952841999941	2.007576080271974			0.0	Abdomen	46	1back	7.0
187	626.7972247998696	2.0037091800477356			0.0	Abdomen	46	1back	7.0
188	628.7971651998814	2.0038297798018903			0.0	Abdomen	46	1back	7.0
189	630.7977397998329	2.0029503798577935			0.0	Abdomen	46	1back	7.0
190	632.7971930999774	2.004082479979843			0.0	Abdomen	46	1back	7.0
191	639.793437999906	5.01203717966564		50.0		Abdomen	46	1back Rating	5.0
