	onset	duration	rt	response	correct	bodySite	temperature	condition
0	976.7975192999875	1.9674597800185438			1.0	Left Arm	46.0	1back
1	978.782026300003	2.0097248799866065			0.0	Left Arm	46.0	1back
2	980.7820881999796	2.007394780026516			0.0	Left Arm	46.0	1back
3	982.7820768999809	2.007458879990736			0.0	Left Arm	46.0	1back
4	984.8159319999977	1.9765049400157295			0.0	Left Arm	46.0	1back
5	986.7987968999951	2.011222480010474			0.0	Left Arm	46.0	1back
6	988.7987838999834	2.009225879999576			0.0	Left Arm	46.0	1back
7	990.7987850999925	2.009222280001268			0.0	Left Arm	46.0	1back
8	992.7988209000032	2.0089420799922664			0.0	Left Arm	46.0	1back
9	994.7988445999799	2.0092695800121874			0.0	Left Arm	46.0	1back
10	intensity: 	50.0						
11	1016.8311546999903	1.9836011600273196			1.0	Left Arm	46.0	1back
12	1018.8157150000043	2.0096637799870223			0.0	Left Arm	46.0	1back
13	1020.8157364999934	2.0089747800375335			0.0	Left Arm	46.0	1back
14	1022.8156769000052	2.008949979994213			0.0	Left Arm	46.0	1back
15	1024.8495235999872	1.9715956400323194			0.0	Left Arm	46.0	1back
16	1026.832425200002	2.011591980000958			0.0	Left Arm	46.0	1back
17	1028.8324017999985	2.0084006799734198			0.0	Left Arm	46.0	1back
18	1030.8324605999805	2.0084142799896654			0.0	Left Arm	46.0	1back
19	1032.8324580999906	2.008179980010027			0.0	Left Arm	46.0	1back
20	1034.8323802999803	2.0080317800166085			0.0	Left Arm	46.0	1back
21	intensity: 	50.0						
22	1051.8647791999974	1.9678790800098795			1.0	Left Arm	46.0	1back
23	1053.849314399995	2.0095752799825277			0.0	Left Arm	46.0	1back
24	1055.8492862999847	2.00810917999479			0.0	Left Arm	46.0	1back
25	1057.849314799998	2.0080773800436873			0.0	Left Arm	46.0	1back
26	1059.9148953999975	1.932504099997459			0.0	Left Arm	46.0	1back
27	1061.865841299994	2.0114206800062675			0.0	Left Arm	46.0	1back
28	1063.8660189999791	2.0078018800122663			0.0	Left Arm	46.0	1back
29	1065.8661037999846	2.007616880000569			0.0	Left Arm	46.0	1back
30	1067.8660395999905	2.007674180000322			0.0	Left Arm	46.0	1back
31	1069.8660906000005	2.00772767997114			0.0	Left Arm	46.0	1back
32	intensity: 	50.0						
33	1094.398432099988	1.983556960010901			1.0	Left Arm	46.0	1back
34	1096.3829295999894	2.0095770800253376			0.0	Left Arm	46.0	1back
35	1098.3830596999906	2.007194379984867			0.0	Left Arm	46.0	1back
36	1100.3829672999855	2.0072608800255693			0.0	Left Arm	46.0	1back
37	1102.4503069999919	1.9439567200024612			0.0	Left Arm	46.0	1back
38	1104.3996948999993	2.0113111800164916			0.0	Left Arm	46.0	1back
39	1106.3996925999818	2.0089555800077505			0.0	Left Arm	46.0	1back
40	1108.3997298000031	2.008908079995308			0.0	Left Arm	46.0	1back
41	1110.399718700006	2.008936780010117			0.0	Left Arm	46.0	1back
42	1112.3998539999884	2.008957679994637			0.0	Left Arm	46.0	1back
43	intensity: 	50.0						
44	1136.9654508999956	1.9797230600379407			1.0	Left Arm	46.0	2back
45	1138.9498613000032	2.00945987997693			1.0	Left Arm	46.0	2back
46	1140.9666914999834	2.0113307800202165			0.0	Left Arm	46.0	2back
47	1142.9832922999922	2.0117851799877826			0.0	Left Arm	46.0	2back
48	1145.033911799983	1.9747492400347255			0.0	Left Arm	46.0	2back
49	1147.0169200999953	2.0109885800047778			0.0	Left Arm	46.0	2back
50	1149.0333170999947	2.0120491799898446			0.0	Left Arm	46.0	2back
51	1151.0501143999863	2.0117823800246697			0.0	Left Arm	46.0	2back
52	1153.0667166000057	2.011600580008235			0.0	Left Arm	46.0	2back
53	1155.0834440999897	2.0118388799892273			0.0	Left Arm	46.0	2back
54	intensity:	50.0						
55	1182.1324679999962	1.9795318600081373			1.0	Left Arm	46.0	2back
56	1184.1169708999805	2.009596279996913			1.0	Left Arm	46.0	2back
57	1186.133678299986	2.011645980004687			0.0	Left Arm	46.0	2back
58	1188.1503577999829	2.0120191799942404			0.0	Left Arm	46.0	2back
59	1190.2175546000071	1.9603818200121168			0.0	Left Arm	46.0	2back
60	1192.183693400002	2.011478780041216			0.0	Left Arm	46.0	2back
61	1194.2003955999971	2.012001680006506			0.0	Left Arm	46.0	2back
62	1196.2171617999848	2.0117855799908284			0.0	Left Arm	46.0	2back
63	1198.2337164999917	2.011641079967376			0.0	Left Arm	46.0	2back
64	1200.2504939000064	2.011563979991479			0.0	Left Arm	46.0	2back
65	intensity:	50.0						
66	1222.299419499992	1.9795338600233663			1.0	Left Arm	46.0	2back
67	1224.2839462999837	2.009542079991661			1.0	Left Arm	46.0	2back
68	1226.3006047999952	2.0118548800237477			0.0	Left Arm	46.0	2back
69	1228.3172793999838	2.011963980010478			0.0	Left Arm	46.0	2back
70	1230.3993910999852	1.9457574200059753			0.0	Left Arm	46.0	2back
71	1232.3506114000047	2.0115381800278556			0.0	Left Arm	46.0	2back
72	1234.3673120999883	2.0118556800298393			0.0	Left Arm	46.0	2back
73	1236.384197199979	2.0113053800014313			0.0	Left Arm	46.0	2back
74	1238.4007004000014	2.0118823800003156			0.0	Left Arm	46.0	2back
75	1240.4173978999897	2.011815879988717			0.0	Left Arm	46.0	2back
76	intensity:	50.0						
77	1262.4663751999906	1.9797460600093473			1.0	Left Arm	46.0	2back
78	1264.4508615999948	2.0097784800163936			1.0	Left Arm	46.0	2back
79	1266.4675942999893	2.0117433800187428			0.0	Left Arm	46.0	2back
80	1268.4843174999987	2.0116224800003693			0.0	Left Arm	46.0	2back
81	1270.5350101999938	1.9732331600098405			0.0	Left Arm	46.0	2back
82	1272.5175840999873	2.0114451799890958			0.0	Left Arm	46.0	2back
83	1274.5342452999903	2.011831180017907			0.0	Left Arm	46.0	2back
84	1276.5510730999813	2.0115350800042506			0.0	Left Arm	46.0	2back
85	1278.567696699989	2.0117756800027564			0.0	Left Arm	46.0	2back
86	1280.5842307999847	2.0118754800059833			0.0	Left Arm	46.0	2back
87	intensity:	46.01851851851852						
88	1307.6333760999842	1.979543859983096			1.0	Left Arm	46.0	2back
89	1309.6179744999972	2.0095446800114587			1.0	Left Arm	46.0	2back
90	1311.6345966999943	2.0119477800035384			0.0	Left Arm	46.0	2back
91	1313.6512445999833	2.0118923800473567			0.0	Left Arm	46.0	2back
92	1315.7351948999858	1.9382211199845187			0.0	Left Arm	46.0	2back
93	1317.684577899985	2.011611180001637			0.0	Left Arm	46.0	2back
94	1319.70138709998	2.011846079985844			0.0	Left Arm	46.0	2back
95	1321.7179961999936	2.011891780013684			0.0	Left Arm	46.0	2back
96	1323.7346970000071	2.0118377799808513			0.0	Left Arm	46.0	2back
97	1325.7513962999801	2.011964179982897			0.0	Left Arm	46.0	2back
98	intensity:	50.0						
99	1345.3003962000075	1.9794027600146364			1.0	Left Arm	46.0	2back
100	1347.2848618999997	2.0094518800033256			1.0	Left Arm	46.0	2back
101	1349.3015417999995	2.0116299799701665			0.0	Left Arm	46.0	2back
102	1351.318222300004	2.0118695799901616			0.0	Left Arm	46.0	2back
103	1353.4022034999798	1.9366178200289141			0.0	Left Arm	46.0	2back
104	1355.3516335999884	2.0115054800116923			0.0	Left Arm	46.0	2back
105	1357.3683057999879	2.01173767997534			0.0	Left Arm	46.0	2back
106	1359.3850165999902	2.011542280029971			0.0	Left Arm	46.0	2back
107	1361.4016588999948	2.011960879986873			0.0	Left Arm	46.0	2back
108	1363.41832539998	2.011903680016985			0.0	Left Arm	46.0	2back
109	intensity:	50.0						
110	1385.4673496999894	1.9795609600259922			1.0	Left Arm	46.0	2back
111	1387.4518746999966	2.009956180030713			1.0	Left Arm	46.0	2back
112	1389.468624000001	2.011592280003242			0.0	Left Arm	46.0	2back
113	1391.4852131999796	2.011705979995895			0.0	Left Arm	46.0	2back
114	1393.5339761000068	1.9630814400443342			0.0	Left Arm	46.0	2back
115	1395.5186025000003	2.011256779980613			0.0	Left Arm	46.0	2back
116	1397.5352833999787	2.0117924800433684			0.0	Left Arm	46.0	2back
117	1399.5519870999851	2.0117976799956523			0.0	Left Arm	46.0	2back
118	1401.568632199982	2.0117975800239947			0.0	Left Arm	46.0	2back
119	1403.5852804000024	2.011681879987009			0.0	Left Arm	46.0	2back
120	intensity:	50.0						
121	1420.6342337999959	1.9798974600271322			1.0	Left Arm	46.0	2back
122	1422.6188357000065	2.0095256800414063			1.0	Left Arm	46.0	2back
123	1424.6354126999795	2.011652380024316			0.0	Left Arm	46.0	2back
124	1426.6521267000062	2.011840179999126			0.0	Left Arm	46.0	2back
125	1428.7027381999942	1.9712287599977572			0.0	Left Arm	46.0	2back
126	1430.6854347999906	2.0117652799817733			0.0	Left Arm	46.0	2back
127	1432.702209399984	2.0117578800127376			0.0	Left Arm	46.0	2back
128	1434.7189479999943	2.011566879984457			0.0	Left Arm	46.0	2back
129	1436.7355469999893	2.0116766799765173			0.0	Left Arm	46.0	2back
130	1438.7522433999984	2.0117825800261926			0.0	Left Arm	46.0	2back
131	intensity:	50.0						
132	1460.8346543999796	1.9671728799876291			1.0	Left Arm	46.0	1back
133	1462.8191241000022	2.008525979996193			0.0	Left Arm	46.0	1back
134	1464.8190875999862	2.0072837799962144			0.0	Left Arm	46.0	1back
135	1466.8191576999961	2.007039479998639			0.0	Left Arm	46.0	1back
136	1468.8697863999987	1.9536142400174867			0.0	Left Arm	46.0	1back
137	1470.8358499000024	2.011360180011252			0.0	Left Arm	46.0	1back
138	1472.835832199984	2.008535680011846			0.0	Left Arm	46.0	1back
139	1474.8357871999906	2.008547380013624			0.0	Left Arm	46.0	1back
140	1476.835896899982	2.0090057800116483			0.0	Left Arm	46.0	1back
141	1478.8358746999875	2.0088896800007205			0.0	Left Arm	46.0	1back
142	intensity:	50.0						
143	1500.8682299999928	1.9836656599945854			1.0	Left Arm	46.0	1back
144	1502.852756599983	2.0092973800201435			0.0	Left Arm	46.0	1back
145	1504.852638499986	2.007616679999046			0.0	Left Arm	46.0	1back
146	1506.8527821000025	2.007378679991234			0.0	Left Arm	46.0	1back
147	1508.9033623999858	1.9573552400106564			0.0	Left Arm	46.0	1back
148	1510.8695074999996	2.011239480023505			0.0	Left Arm	46.0	1back
149	1512.8694653999992	2.008103980013402			0.0	Left Arm	46.0	1back
150	1514.869452199986	2.0080039800086524			0.0	Left Arm	46.0	1back
151	1516.8695083000057	2.0078141799895093			0.0	Left Arm	46.0	1back
152	1518.8694930000056	2.0083001800230704			0.0	Left Arm	46.0	1back
153	intensity:	50.0						
154	1535.901797700004	1.9830358600011095			1.0	Left Arm	46.0	1back
155	1537.8863129999954	2.009558580000885			0.0	Left Arm	46.0	1back
156	1539.8863213000004	2.0078104800195433			0.0	Left Arm	46.0	1back
157	1541.8863666999969	2.007816080003977			0.0	Left Arm	46.0	1back
158	1543.9021746999933	1.985916060017189			0.0	Left Arm	46.0	1back
159	1545.902942899993	2.0112416799820494			0.0	Left Arm	46.0	1back
160	1547.9030654999951	2.0082412799820304			0.0	Left Arm	46.0	1back
161	1549.9031016999797	2.008269480022136			0.0	Left Arm	46.0	1back
162	1551.9031763999956	2.0083314799994696			0.0	Left Arm	46.0	1back
163	1553.903126499994	2.0084444799867924			0.0	Left Arm	46.0	1back
164	intensity:	50.0						
165	1578.4354590000003	1.9676366800267715			1.0	Left Arm	46.0	1back
166	1580.4199389999849	2.009114779968513			0.0	Left Arm	46.0	1back
167	1582.4199440999946	2.007762380002532			0.0	Left Arm	46.0	1back
168	1584.4199925999856	2.0080991800059564			0.0	Left Arm	46.0	1back
169	1586.487231999985	1.9425179200188722			0.0	Left Arm	46.0	1back
170	1588.4367261999869	2.011534079996636			0.0	Left Arm	46.0	1back
171	1590.436732799979	2.0076061799773015			0.0	Left Arm	46.0	1back
172	1592.4368096999824	2.0076709800050594			0.0	Left Arm	46.0	1back
173	1594.4367902999802	2.007675979984924			0.0	Left Arm	46.0	1back
174	1596.4367960999953	2.0077525800152216			0.0	Left Arm	46.0	1back
175	intensity:	50.0						
