	SID	biopac_channel	body_site	condition	correct	date	duration	handedness	mouseclick	onset	rt	scanner	score	session	sex	skin_site	temperature	value
0	2943	51	Chest	Expectancy		2024_May_23_1850	4.996180266840383	r		3.060696700005792	3.5030792000470683	ss mrs		3	m	3		41.54320987654321
1	2943	45	Chest	2-back Instruction		2024_May_23_1850	5.004830590100028	r		8.495181000092998		ss mrs		3	m	3		
2	2943	7	Chest	Pre-trial Jitter		2024_May_23_1850	9.012033739942126	r		13.509128200006671		ss mrs		3	m	3		
3	2943	44.0	Chest	pretrialfixation		2024_May_23_1850	1.0038354600546882	r		22.80444420001004		ss mrs		3	m	3		
4	2943		Chest	2-back	1.0	2024_May_23_1850	1.9848224699962884	r		23.822853500023484		ss mrs	12.5	3	m	3	48.5	
5	2943		Chest	2-back	1.0	2024_May_23_1850	1.9866110698785633	r		25.830319300061092		ss mrs	25.0	3	m	3	48.5	
6	2943		Chest	2-back	1.0	2024_May_23_1850	1.987641969928518	r	0	27.82985110010486	0.2964379000477493	ss mrs	37.5	3	m	3	48.5	
7	2943		Chest	2-back	1.0	2024_May_23_1850	1.9868960700696334	r	2	29.830222800024785	0.6800912000471726	ss mrs	50.0	3	m	3	48.5	
8	2943		Chest	2-back	1.0	2024_May_23_1850	1.9873343700310215	r	2	31.830018900102004	1.0132350999629125	ss mrs	62.5	3	m	3	48.5	
9	2943		Chest	2-back	0.0	2024_May_23_1850	1.9872652699705213	r	2	33.83007890009321	1.0132350999629125	ss mrs	62.5	3	m	3	48.5	
10	2943		Chest	2-back	1.0	2024_May_23_1850	1.9837861700216308	r	0	35.83184670004994	0.696756099932827	ss mrs	75.0	3	m	3	48.5	
11	2943		Chest	2-back	0.0	2024_May_23_1850	1.987691169953905	r		37.82992520008702		ss mrs	75.0	3	m	3	48.5	
12	2943	48.0	Chest	ScoreReport		2024_May_23_1850	5.009224240086041	r		39.844145200098865		ss mrs		3	m	3		
13	2943	8	Chest	Post-trial Jitter		2024_May_23_1850	5.0076477801194414	r		44.903280200087465		ss mrs		3	m	3		
14	2943	20	Chest	PainBinary		2024_May_23_1850	5.000233339960687	r		49.932118400000036	1.2006808000151068	ss mrs		3	m	3		1.0
15	2943	21	Chest	IntensityRating		2024_May_23_1850	5.009594939998351	r		54.95247980009299	2.4030302999308333	ss mrs		3	m	3		25.432098765432098
16	2943	23	Chest	DistractBinary		2024_May_23_1850	5.003390040015802	r		59.98064940003678	1.1836627000011504	ss mrs		3	m	3		-1.0
17	2943	9	Chest	Post-Q-Jitter		2024_May_23_1850	4.994084169971757	r		64.9853887000354		ss mrs		3	m	3		
18	2943	51	Chest	Expectancy		2024_May_23_1850	5.015622950042598	r		70.20760300010443	2.819265100057237	ss mrs		3	m	3		38.2716049382716
19	2943	45	Chest	2-back Instruction		2024_May_23_1850	5.009879150195047	r		75.61022500006948		ss mrs		3	m	3		
20	2943	7	Chest	Pre-trial Jitter		2024_May_23_1850	9.004571869852953	r		80.62202450004406		ss mrs		3	m	3		
21	2943	44.0	Chest	pretrialfixation		2024_May_23_1850	1.005524959997274	r		89.9127112000715		ss mrs		3	m	3		
22	2943		Chest	2-back	1.0	2024_May_23_1850	1.9902404699241742	r		90.92092900001444		ss mrs	12.5	3	m	3	48.5	
23	2943		Chest	2-back	1.0	2024_May_23_1850	1.9867268699454144	r		92.93108590005431		ss mrs	25.0	3	m	3	48.5	
24	2943		Chest	2-back	1.0	2024_May_23_1850	1.9875803700415418	r	2	94.93065310001839	0.7471045999554917	ss mrs	37.5	3	m	3	48.5	
25	2943		Chest	2-back	1.0	2024_May_23_1850	1.9870955699589103	r	2	96.93091350002214	0.5133125999709591	ss mrs	50.0	3	m	3	48.5	
26	2943		Chest	2-back	1.0	2024_May_23_1850	1.9871953700203449	r	0	98.93087290006224	0.40016339998692274	ss mrs	62.5	3	m	3	48.5	
27	2943		Chest	2-back	1.0	2024_May_23_1850	1.9875410699751228	r	0	100.93074550002348	0.47998679999727756	ss mrs	75.0	3	m	3	48.5	
28	2943		Chest	2-back	1.0	2024_May_23_1850	1.9877623699139804	r	2	102.93059700005688	0.563329599914141	ss mrs	87.5	3	m	3	48.5	
29	2943		Chest	2-back	1.0	2024_May_23_1850	1.986643770011142	r	2	104.93122650007717	1.1835094999987632	ss mrs	100.0	3	m	3	48.5	
30	2943	48.0	Chest	ScoreReport		2024_May_23_1850	5.0167514401255175	r		106.94118900003377		ss mrs		3	m	3		
31	2943	8	Chest	Post-trial Jitter		2024_May_23_1850	7.005746380076744	r		111.99670190003235		ss mrs		3	m	3		
32	2943	20	Chest	PainBinary		2024_May_23_1850	5.003372540115379	r		119.01468200003728	1.2833566999761388	ss mrs		3	m	3		1.0
33	2943	21	Chest	IntensityRating		2024_May_23_1850	5.0127213400555775	r		124.03506660007406	2.4501827000640333	ss mrs		3	m	3		28.086419753086417
34	2943	23	Chest	DistractBinary		2024_May_23_1850	5.004414640017785	r		129.0642816000618	3.8167529000202194	ss mrs		3	m	3		-1.0
35	2943	9	Chest	Post-Q-Jitter		2024_May_23_1850	6.993774769944139	r		134.06970280001406		ss mrs		3	m	3		
36	2943	42	Chest	0-back Instruction		2024_May_23_1850	5.0084403400542215	r		141.08740310010035		ss mrs		3	m	3		
37	2943	7	Chest	Pre-Trial Jitter		2024_May_23_1850	7.00188376987353	r		146.1074610000942		ss mrs		3	m	3		
38	2943	44.0	Chest	pretrialfixation		2024_May_23_1850	1.0065846199868247	r		153.3713385000592		ss mrs		3	m	3		
39	2943		Chest	0-back	1.0	2024_May_23_1850	1.9896749700419605	r	0.0	154.38858830009121	1.1296155999880284	ss mrs	12.5	3	m	3	32.0	
40	2943		Chest	0-back	1.0	2024_May_23_1850	1.9874280699295923	r	0.0	156.39811529999133	0.2674498000415042	ss mrs	25.0	3	m	3	32.0	
41	2943		Chest	0-back	1.0	2024_May_23_1850	1.9890676699578762	r	0.0	158.39731740008574	0.4801440000301227	ss mrs	37.5	3	m	3	32.0	
42	2943		Chest	0-back	1.0	2024_May_23_1850	1.988566969987005	r	0.0	160.39762010006234	0.2631142999744043	ss mrs	50.0	3	m	3	32.0	
43	2943		Chest	0-back	1.0	2024_May_23_1850	1.9890791700454429	r	0.0	162.39736390009057	0.26340880000498146	ss mrs	62.5	3	m	3	32.0	
44	2943		Chest	0-back	1.0	2024_May_23_1850	1.9883825699798763	r	0.0	164.39770860003773	0.23022060003131628	ss mrs	75.0	3	m	3	32.0	
45	2943		Chest	0-back	1.0	2024_May_23_1850	1.9888087699655443	r	0.0	166.3975457000779	0.2468053000047803	ss mrs	87.5	3	m	3	32.0	
46	2943		Chest	0-back	1.0	2024_May_23_1850	1.9880123699549586	r	0.0	168.3979700000491	0.3168153000297025	ss mrs	100.0	3	m	3	32.0	
47	2943	48.0	Chest	ScoreReport		2024_May_23_1850	5.004458870040253	r		170.40643880004063		ss mrs		3	m	3		
48	2943	8	Chest	Post-Trial Jitter		2024_May_23_1850	4.999952880083583	r		175.46698330005165		ss mrs		3	m	3		
49	2943	42	Chest	0-back Instruction		2024_May_23_1850	5.006843640003353	r		180.48866070003714		ss mrs		3	m	3		
50	2943	7	Chest	Pre-Trial Jitter		2024_May_23_1850	9.001299670082517	r		185.50820280006155		ss mrs		3	m	3		
51	2943	44.0	Chest	pretrialfixation		2024_May_23_1850	1.003969420096837	r		194.77312170004006		ss mrs		3	m	3		
52	2943		Chest	0-back	1.0	2024_May_23_1850	1.991126969922334	r	0.0	195.78838810010348	0.7129529999801889	ss mrs	12.5	3	m	3	32.0	
53	2943		Chest	0-back	1.0	2024_May_23_1850	1.987937569967471	r	0.0	197.79833610006608	0.3466263000154868	ss mrs	25.0	3	m	3	32.0	
54	2943		Chest	0-back	1.0	2024_May_23_1850	1.9883483699522913	r	0.0	199.79816030000802	0.2970544999698177	ss mrs	37.5	3	m	3	32.0	
55	2943		Chest	0-back	1.0	2024_May_23_1850	1.9888292700052261	r	0.0	201.79795200005174	0.2467420999892056	ss mrs	50.0	3	m	3	32.0	
56	2943		Chest	0-back	1.0	2024_May_23_1850	1.9883870700141415	r	0.0	203.79819000000134	0.21339179994538426	ss mrs	62.5	3	m	3	32.0	
57	2943		Chest	0-back	1.0	2024_May_23_1850	1.9880519700236619	r	0.0	205.79837170010433	0.3335378000047058	ss mrs	75.0	3	m	3	32.0	
58	2943		Chest	0-back	1.0	2024_May_23_1850	1.988077069981955	r	0.0	207.79840070009232	0.3635171999922022	ss mrs	87.5	3	m	3	32.0	
59	2943		Chest	0-back	1.0	2024_May_23_1850	1.9888481699163094	r	0.0	209.79802260000724	0.3960744000505656	ss mrs	100.0	3	m	3	32.0	
60	2943	48.0	Chest	ScoreReport		2024_May_23_1850	5.004597169812769	r		211.80685799999628		ss mrs		3	m	3		
61	2943	8	Chest	Post-Trial Jitter		2024_May_23_1850	6.996855580015108	r		216.86903440009337		ss mrs		3	m	3		
62	2943	51	Chest	Expectancy		2024_May_23_1850	5.010248850099742	r		224.09537670004647	2.0025913999415934	ss mrs		3	m	3		37.160493827160494
63	2943	44	Chest	0-back Instruction		2024_May_23_1850	5.006718550110236	r		229.49689230008516		ss mrs		3	m	3		
64	2943	7	Chest	Pre-Trial Jitter		2024_May_23_1850	7.001235069939867	r		234.50881850009318		ss mrs		3	m	3		
65	2943	44.0	Chest	pretrialfixation		2024_May_23_1850	1.0017930001486093	r		241.83298050006852		ss mrs		3	m	3		
66	2943		Chest	0-back	0.0	2024_May_23_1850	1.9904324698727578	r		242.83929180004634		ss mrs	0.0	3	m	3	48.5	
67	2943		Chest	0-back	1.0	2024_May_23_1850	1.9864043700508773	r	0	244.8496544000227	0.4294111999915913	ss mrs	12.5	3	m	3	48.5	
68	2943		Chest	0-back	1.0	2024_May_23_1850	1.9870968700852245	r	0	246.84932570008095	0.3467772000003606	ss mrs	25.0	3	m	3	48.5	
69	2943		Chest	0-back	1.0	2024_May_23_1850	1.9874885700410232	r	0	248.84915670007467	0.3964560000458732	ss mrs	37.5	3	m	3	48.5	
70	2943		Chest	0-back	1.0	2024_May_23_1850	1.9875018699094653	r	0	250.84917830000632	0.3798381999367848	ss mrs	50.0	3	m	3	48.5	
71	2943		Chest	0-back	1.0	2024_May_23_1850	1.9873942700214684	r	0	252.84929370007012	0.34664939995855093	ss mrs	62.5	3	m	3	48.5	
72	2943		Chest	0-back	1.0	2024_May_23_1850	1.9876780699705705	r	0	254.84914890001528	0.4801633999450132	ss mrs	75.0	3	m	3	48.5	
73	2943		Chest	0-back	1.0	2024_May_23_1850	1.9875818700529635	r	0	256.84921110002324	0.3515738999703899	ss mrs	87.5	3	m	3	48.5	
74	2943	48.0	Chest	ScoreReport		2024_May_23_1850	5.010314239887521	r		258.8628618000075		ss mrs		3	m	3		
75	2943	8	Chest	Post-Trial Jitter		2024_May_23_1850	4.994321080157533	r		263.92084570007864		ss mrs		3	m	3		
76	2943	20	Chest	PainBinary		2024_May_23_1850	5.000648439978249	r		268.93447430001106	1.785746100009419	ss mrs		3	m	3		1.0
77	2943	21	Chest	IntensityRating		2024_May_23_1850	5.011994339991361	r		273.9538544000825	1.5835069000022486	ss mrs		3	m	3		24.074074074074073
78	2943	23	Chest	DistractBinary		2024_May_23_1850	5.004018140141852	r		278.9828984000487	3.7167763999896124	ss mrs		3	m	3		1.0
79	2943	9	Chest	Post-Q-Jitter		2024_May_23_1850	4.993538769893348	r		283.98822500009555		ss mrs		3	m	3		
80	2943	51	Chest	Expectancy		2024_May_23_1850	5.010976650053635	r		289.2207808000967	2.699990599998273	ss mrs		3	m	3		37.407407407407405
81	2943	44	Chest	0-back Instruction		2024_May_23_1850	5.010633650235832	r		294.6290473000845		ss mrs		3	m	3		
82	2943	7	Chest	Pre-Trial Jitter		2024_May_23_1850	9.00226836989168	r		299.64241349999793		ss mrs		3	m	3		
83	2943	44.0	Chest	pretrialfixation		2024_May_23_1850	1.01319379999768	r		308.96140600007493		ss mrs		3	m	3		
84	2943		Chest	0-back	1.0	2024_May_23_1850	1.9891997699160129	r	0.0	309.97402399999555	0.4629290000302717	ss mrs	12.5	3	m	3	48.5	
85	2943		Chest	0-back	1.0	2024_May_23_1850	1.98714806989301	r	0.0	311.983412600006	0.4298085999907926	ss mrs	25.0	3	m	3	48.5	
86	2943		Chest	0-back	1.0	2024_May_23_1850	1.9887197699863464	r	0.0	313.9826547000557	0.3300011999672279	ss mrs	37.5	3	m	3	48.5	
87	2943		Chest	0-back	1.0	2024_May_23_1850	1.9889200699981302	r	0.0	315.9825678000925	0.26340350008103997	ss mrs	50.0	3	m	3	48.5	
88	2943		Chest	0-back	1.0	2024_May_23_1850	1.9888052699388936	r	0.0	317.98260670003947	0.3298933000769466	ss mrs	62.5	3	m	3	48.5	
89	2943		Chest	0-back	1.0	2024_May_23_1850	1.9889764699619263	r	0.0	319.9825864000013	0.26309979998040944	ss mrs	75.0	3	m	3	48.5	
90	2943		Chest	0-back	1.0	2024_May_23_1850	1.9882309699896723	r	0.0	321.9829727000324	0.31336629996076226	ss mrs	87.5	3	m	3	48.5	
91	2943		Chest	0-back	1.0	2024_May_23_1850	1.988793870084919	r	0.0	323.98271880007815	0.34681689995341003	ss mrs	100.0	3	m	3	48.5	
92	2943	48.0	Chest	ScoreReport		2024_May_23_1850	5.004525169963017	r		325.9915780000156		ss mrs		3	m	3		
93	2943	8	Chest	Post-Trial Jitter		2024_May_23_1850	9.000097580137663	r		331.0521035999991		ss mrs		3	m	3		
94	2943	20	Chest	PainBinary		2024_May_23_1850	5.0041465399554	r		340.06688170006964	1.95324800000526	ss mrs		3	m	3		1.0
95	2943	21	Chest	IntensityRating		2024_May_23_1850	5.01249244005885	r		345.0877820000751	1.433517299941741	ss mrs		3	m	3		25.246913580246915
96	2943	23	Chest	DistractBinary		2024_May_23_1850	5.004418040043674	r		350.11687430005986	2.3000435000285506	ss mrs		3	m	3		-1.0
97	2943	9	Chest	Post-Q-Jitter		2024_May_23_1850	8.9940778700402	r		355.1221506000729		ss mrs		3	m	3		
98	2943	43	Chest	2-back Instruction		2024_May_23_1850	5.005978340166621	r		364.14127200003713		ss mrs		3	m	3		
99	2943	7	Chest	Pre-trial Jitter		2024_May_23_1850	5.001445769914426	r		369.16029200004414		ss mrs		3	m	3		
100	2943	44.0	Chest	pretrialfixation		2024_May_23_1850	1.0063104199944064	r		374.4240631000139		ss mrs		3	m	3		
101	2943		Chest	2-back	1.0	2024_May_23_1850	1.9886463700095192	r		375.44174250005744		ss mrs	12.5	3	m	3	32.0	
102	2943		Chest	2-back	1.0	2024_May_23_1850	1.9866235699737445	r		377.4511025000829		ss mrs	25.0	3	m	3	32.0	
103	2943		Chest	2-back	1.0	2024_May_23_1850	1.9874732699245214	r	0	379.450723499991	0.3301697999704629	ss mrs	37.5	3	m	3	32.0	
104	2943		Chest	2-back	1.0	2024_May_23_1850	1.9872272699140012	r	2	381.4508431000868	0.49631999991834164	ss mrs	50.0	3	m	3	32.0	
105	2943		Chest	2-back	1.0	2024_May_23_1850	1.9861704700160772	r	0	383.45138099999167	0.6134279000107199	ss mrs	62.5	3	m	3	32.0	
106	2943		Chest	2-back	1.0	2024_May_23_1850	1.987001369940117	r	2	385.4510074000573	0.5996061998885125	ss mrs	75.0	3	m	3	32.0	
107	2943		Chest	2-back	1.0	2024_May_23_1850	1.9871433699736372	r	2	387.45096190006007	0.5798113000346348	ss mrs	87.5	3	m	3	32.0	
108	2943		Chest	2-back	1.0	2024_May_23_1850	1.987509869853966	r	2	389.450802700012	0.463435500045307	ss mrs	100.0	3	m	3	32.0	
109	2943	48.0	Chest	ScoreReport		2024_May_23_1850	5.000450869905762	r		391.46104470000137		ss mrs		3	m	3		
110	2943	8	Chest	Post-trial Jitter		2024_May_23_1850	5.004685880034231	r		396.52557290007826		ss mrs		3	m	3		
111	2943	43	Chest	2-back Instruction		2024_May_23_1850	5.009546039975248	r		401.55655490001664		ss mrs		3	m	3		
112	2943	7	Chest	Pre-trial Jitter		2024_May_23_1850	9.001083569950424	r		406.57753890007734		ss mrs		3	m	3		
113	2943	44.0	Chest	pretrialfixation		2024_May_23_1850	1.010514490189962	r		415.84741580008995		ss mrs		3	m	3		
114	2943		Chest	2-back	1.0	2024_May_23_1850	1.9910658699227497	r		416.8576754000969		ss mrs	12.5	3	m	3	32.0	
115	2943		Chest	2-back	1.0	2024_May_23_1850	1.9865596699528396	r		418.8682822000701		ss mrs	25.0	3	m	3	32.0	
116	2943		Chest	2-back	1.0	2024_May_23_1850	1.9879966699518263	r	2	420.8675782000646	0.6633540000766516	ss mrs	37.5	3	m	3	32.0	
117	2943		Chest	2-back	1.0	2024_May_23_1850	1.987040969892405	r	2	422.8680585999973	0.5968154999427497	ss mrs	50.0	3	m	3	32.0	
118	2943		Chest	2-back	1.0	2024_May_23_1850	1.9862412699731067	r	0	424.8685104000615	0.3333723000250757	ss mrs	62.5	3	m	3	32.0	
119	2943		Chest	2-back	1.0	2024_May_23_1850	1.9864897698862478	r	2	426.8684093999909	0.5001761999446899	ss mrs	75.0	3	m	3	32.0	
120	2943		Chest	2-back	0.0	2024_May_23_1850	1.9874627699609846	r	0	428.86795970005915	0.46338079997804016	ss mrs	75.0	3	m	3	32.0	
121	2943		Chest	2-back	1.0	2024_May_23_1850	1.9876706699142233	r	0	430.8678628000198	0.8968257999513298	ss mrs	87.5	3	m	3	32.0	
122	2943	48.0	Chest	ScoreReport		2024_May_23_1850	5.010712040006183	r		432.8813637000276		ss mrs		3	m	3		
123	2943	8	Chest	Post-trial Jitter		2024_May_23_1850	9.001679880078882	r		437.93589530000463		ss mrs		3	m	3		
124	2943	51	Chest	Expectancy		2024_May_23_1850	5.017457020119764	r		447.1777219000505	1.550295599969104	ss mrs		3	m	3		44.75308641975309
125	2943	45	Chest	2-back Instruction		2024_May_23_1850	5.013519850093871	r		452.57945030007977		ss mrs		3	m	3		
126	2943	7	Chest	Pre-trial Jitter		2024_May_23_1850	5.015870239934884	r		457.59573170007206		ss mrs		3	m	3		
127	2943	44.0	Chest	pretrialfixation		2024_May_23_1850	1.0146452301414683	r		462.8958401000127		ss mrs		3	m	3		
128	2943		Chest	2-back	1.0	2024_May_23_1850	1.9913093699142337	r		463.90810940007214		ss mrs	12.5	3	m	3	48.5	
129	2943		Chest	2-back	1.0	2024_May_23_1850	1.9867197700077668	r		465.9187613000395		ss mrs	25.0	3	m	3	48.5	
130	2943		Chest	2-back	1.0	2024_May_23_1850	1.988168069976382	r	2	467.9180658000987	0.6296225999249145	ss mrs	37.5	3	m	3	48.5	
131	2943		Chest	2-back	1.0	2024_May_23_1850	1.9873007698915899	r	2	469.9185209000716	0.5963974999031052	ss mrs	50.0	3	m	3	48.5	
132	2943		Chest	2-back	1.0	2024_May_23_1850	1.9875805699266493	r	0	471.9183962000534	0.34656080009881407	ss mrs	62.5	3	m	3	48.5	
133	2943		Chest	2-back	1.0	2024_May_23_1850	1.9871508699143305	r	2	473.91863279999234	0.47976010001730174	ss mrs	75.0	3	m	3	48.5	
134	2943		Chest	2-back	0.0	2024_May_23_1850	1.9875808699289337	r	2	475.918442800059	1.0786642000311986	ss mrs	75.0	3	m	3	48.5	
135	2943		Chest	2-back	1.0	2024_May_23_1850	1.9871292700991035	r	2	477.91868920007255	0.9635000000707805	ss mrs	87.5	3	m	3	48.5	
136	2943	48.0	Chest	ScoreReport		2024_May_23_1850	5.010502940043807	r		479.9319971000077		ss mrs		3	m	3		
137	2943	8	Chest	Post-trial Jitter		2024_May_23_1850	9.001271179993637	r		484.98665219999384		ss mrs		3	m	3		
138	2943	20	Chest	PainBinary		2024_May_23_1850	5.00376924010925	r		494.00225080002565	2.0669711999362335	ss mrs		3	m	3		1.0
139	2943	21	Chest	IntensityRating		2024_May_23_1850	5.011312239919789	r		499.0235134999966	2.333400300005451	ss mrs		3	m	3		33.76543209876544
140	2943	23	Chest	DistractBinary		2024_May_23_1850	5.004563639988191	r		504.0518842000747	2.200237700017169	ss mrs		3	m	3		-1.0
141	2943	9	Chest	Post-Q-Jitter		2024_May_23_1850	8.994308069930412	r		509.0571154000936		ss mrs		3	m	3		
142	2943	51	Chest	Expectancy		2024_May_23_1850	5.002439080155455	r		518.2777683000313	2.5002225000644103	ss mrs		3	m	3		37.46913580246913
143	2943	45	Chest	2-back Instruction		2024_May_23_1850	5.01033745019231	r		523.6818817000603		ss mrs		3	m	3		
144	2943	7	Chest	Pre-trial Jitter		2024_May_23_1850	5.0014500700635836	r		528.6954768000869		ss mrs		3	m	3		
145	2943	44.0	Chest	pretrialfixation		2024_May_23_1850	1.0127668001223356	r		534.0142469001003		ss mrs		3	m	3		
146	2943		Chest	2-back	1.0	2024_May_23_1850	1.9887218700023368	r		535.026901800069		ss mrs	12.5	3	m	3	48.5	
147	2943		Chest	2-back	1.0	2024_May_23_1850	1.9864432698814198	r		537.0363926000427		ss mrs	25.0	3	m	3	48.5	
148	2943		Chest	2-back	1.0	2024_May_23_1850	1.987069069989957	r	2	539.0360948001035	0.6467642999486998	ss mrs	37.5	3	m	3	48.5	
149	2943		Chest	2-back	1.0	2024_May_23_1850	1.9867808698909357	r	0	541.0362721000565	0.3297147999983281	ss mrs	50.0	3	m	3	48.5	
150	2943		Chest	2-back	1.0	2024_May_23_1850	1.9867389700375497	r	2	543.0363162000431	0.463048700010404	ss mrs	62.5	3	m	3	48.5	
151	2943		Chest	2-back	1.0	2024_May_23_1850	1.9867991699138656	r	2	545.0363025000552	0.5301069000270218	ss mrs	75.0	3	m	3	48.5	
152	2943		Chest	2-back	1.0	2024_May_23_1850	1.9869070700369775	r	2	547.0362766000908	0.4467800999991596	ss mrs	87.5	3	m	3	48.5	
153	2943		Chest	2-back	1.0	2024_May_23_1850	1.9863787699723616	r	0	549.0365614000475	0.47994250000920147	ss mrs	100.0	3	m	3	48.5	
154	2943	48.0	Chest	ScoreReport		2024_May_23_1850	5.016419140039943	r		551.0464998000534		ss mrs		3	m	3		
155	2943	8	Chest	Post-trial Jitter		2024_May_23_1850	5.00901648006402	r		556.108590100077		ss mrs		3	m	3		
156	2943	20	Chest	PainBinary		2024_May_23_1850	5.001730340067297	r		561.1373588000424	2.8003343999153003	ss mrs		3	m	3		1.0
157	2943	21	Chest	IntensityRating		2024_May_23_1850	5.010808940045536	r		566.1578783000587	1.9020087999524549	ss mrs		3	m	3		31.35802469135803
158	2943	23	Chest	DistractBinary		2024_May_23_1850	5.002533840015531	r		571.1870826000813	2.783658100059256	ss mrs		3	m	3		-1.0
159	2943	9	Chest	Post-Q-Jitter		2024_May_23_1850	4.9944725699024275	r		576.1912004000042		ss mrs		3	m	3		
160	2943	51	Chest	Expectancy		2024_May_23_1850	5.005011350149289	r		581.4188713000622	3.6170427999459207	ss mrs		3	m	3		36.91358024691358
161	2943	44	Chest	0-back Instruction		2024_May_23_1850	5.013830650248565	r		586.8142049000598		ss mrs		3	m	3		
162	2943	7	Chest	Pre-Trial Jitter		2024_May_23_1850	9.00119757000357	r		591.8296793000773		ss mrs		3	m	3		
163	2943	44.0	Chest	pretrialfixation		2024_May_23_1850	1.008307930198498	r		601.1339572001016		ss mrs		3	m	3		
164	2943		Chest	0-back	0.0	2024_May_23_1850	1.991235869936645	r		602.14310570003		ss mrs	0.0	3	m	3	48.5	
165	2943		Chest	0-back	1.0	2024_May_23_1850	1.987300070002675	r	0	604.1534354001051	0.4300001000519842	ss mrs	12.5	3	m	3	48.5	
166	2943		Chest	0-back	1.0	2024_May_23_1850	1.9871302699903026	r	0	606.1535396000836	0.20075820002239197	ss mrs	25.0	3	m	3	48.5	
167	2943		Chest	0-back	1.0	2024_May_23_1850	1.9876764700748026	r	0	608.1532797000837	0.29661289998330176	ss mrs	37.5	3	m	3	48.5	
168	2943		Chest	0-back	1.0	2024_May_23_1850	1.9858973699156195	r	0	610.1541889000218	0.21744959999341518	ss mrs	50.0	3	m	3	48.5	
169	2943		Chest	0-back	1.0	2024_May_23_1850	1.987408270011656	r	0	612.153465700103	0.2632545999949798	ss mrs	62.5	3	m	3	48.5	
170	2943		Chest	0-back	1.0	2024_May_23_1850	1.987203469965607	r	0	614.1535858000861	0.283392500015907	ss mrs	75.0	3	m	3	48.5	
171	2943		Chest	0-back	1.0	2024_May_23_1850	1.9877385698491707	r	0	616.1533446999965	0.3635056000202894	ss mrs	87.5	3	m	3	48.5	
172	2943	48.0	Chest	ScoreReport		2024_May_23_1850	5.011052840040065	r		618.1666821000399		ss mrs		3	m	3		
173	2943	8	Chest	Post-Trial Jitter		2024_May_23_1850	8.99689098005183	r		623.2237863000482		ss mrs		3	m	3		
174	2943	20	Chest	PainBinary		2024_May_23_1850	5.003301840042695	r		632.2373952000635	2.316795099992305	ss mrs		3	m	3		1.0
175	2943	21	Chest	IntensityRating		2024_May_23_1850	5.010719940066338	r		637.2587431001011	2.8335380000062287	ss mrs		3	m	3		32.098765432098766
176	2943	23	Chest	DistractBinary		2024_May_23_1850	5.004938139929436	r		642.2867043000879	1.5502829999895766	ss mrs		3	m	3		-1.0
177	2943	9	Chest	Post-Q-Jitter		2024_May_23_1850	8.993758570053615	r		647.29238670005		ss mrs		3	m	3		
178	2943	51	Chest	Expectancy		2024_May_23_1850	5.007625850150362	r		656.5184355000965	1.600126100005582	ss mrs		3	m	3		42.77777777777778
179	2943	44	Chest	0-back Instruction		2024_May_23_1850	5.0114182501565665	r		661.9162816000171		ss mrs		3	m	3		
180	2943	7	Chest	Pre-Trial Jitter		2024_May_23_1850	5.0015981699107215	r		666.9303465000121		ss mrs		3	m	3		
181	2943	44.0	Chest	pretrialfixation		2024_May_23_1850	1.0140231001423672	r		672.2485716000665		ss mrs		3	m	3		
182	2943		Chest	0-back	0.0	2024_May_23_1850	1.9897809699177742	r		673.2613152000122		ss mrs	0.0	3	m	3	48.5	
183	2943		Chest	0-back	1.0	2024_May_23_1850	1.9863272699294612	r	0	675.2714055000106	0.26351209997665137	ss mrs	12.5	3	m	3	48.5	
184	2943		Chest	0-back	1.0	2024_May_23_1850	1.9864570699864998	r	0	677.2713483000407	0.2466619999613613	ss mrs	25.0	3	m	3	48.5	
185	2943		Chest	0-back	1.0	2024_May_23_1850	1.9873100699624047	r	0	679.270992100006	0.21343320002779365	ss mrs	37.5	3	m	3	48.5	
186	2943		Chest	0-back	1.0	2024_May_23_1850	1.9864201699383557	r	0	681.2714723000536	0.24677620001602918	ss mrs	50.0	3	m	3	48.5	
187	2943		Chest	0-back	1.0	2024_May_23_1850	1.986798270023428	r	0	683.2713089000899	0.4300570000195876	ss mrs	62.5	3	m	3	48.5	
188	2943		Chest	0-back	1.0	2024_May_23_1850	1.9862847699550912	r	0	685.2715408999939	0.26352449995465577	ss mrs	75.0	3	m	3	48.5	
189	2943		Chest	0-back	1.0	2024_May_23_1850	1.9874852700158954	r	0	687.2709559000796	0.24654459999874234	ss mrs	87.5	3	m	3	48.5	
190	2943	48.0	Chest	ScoreReport		2024_May_23_1850	5.011268340051174	r		689.2840654000174		ss mrs		3	m	3		
191	2943	8	Chest	Post-Trial Jitter		2024_May_23_1850	4.992763180052862	r		694.3433087000158		ss mrs		3	m	3		
192	2943	20	Chest	PainBinary		2024_May_23_1850	5.002031240146607	r		699.3554651000304	1.6335602999897674	ss mrs		3	m	3		1.0
193	2943	21	Chest	IntensityRating		2024_May_23_1850	5.012792540132068	r		704.3751593000488	1.3859170000068843	ss mrs		3	m	3		31.049382716049383
194	2943	23	Chest	DistractBinary		2024_May_23_1850	5.004029239993542	r		709.4045973001048	2.933310200111009	ss mrs		3	m	3		-1.0
195	2943	9	Chest	Post-Q-Jitter		2024_May_23_1850	4.992779370048083	r		714.4103096000617		ss mrs		3	m	3		
196	2943	26	Chest	ComfortRating		2024_May_23_1850	2.0291895400732756	r		719.4255276999902	2.000243699993007	ss mrs		3	m	3		20.493827160493822
197	2943	24	Chest	ValenceRating		2024_May_23_1850	1.5041118401568383	r		721.479763600044	1.4835690999170765	ss mrs		3	m	3		37.65432098765433
198	2943	26	Chest	IntensityRating		2024_May_23_1850	1.3132544399704784	r		723.0085075000534	1.2835516999475658	ss mrs		3	m	3		55.74074074074075
199	2943	27	Chest	AvoidanceRating		2024_May_23_1850	2.291250940063037	r		724.3445685000625	2.2670496999053285	ss mrs		3	m	3		-0.617283950617292
200	2943	28	Chest	RelaxationRating		2024_May_23_1850	3.233405139995739	r		726.6568575000856	3.21733489993494	ss mrs		3	m	3		60.370370370370374
201	2943	29	Chest	AttentionRating		2024_May_23_1850	2.30864574003499	r		729.910901300027	2.269986499915831	ss mrs		3	m	3		34.382716049382715
202	2943	30	Chest	BoredomRating		2024_May_23_1850	2.216258240165189	r		732.2404489000328	2.2002525998977944	ss mrs		3	m	3		28.39506172839506
203	2943	31	Chest	AlertnessRating		2024_May_23_1850	2.0300533398985863	r		734.4752454000991	2.0002285999944434	ss mrs		3	m	3		29.012345679012356
204	2943	32	Chest	PosThxRating		2024_May_23_1850	2.8438116401666775	r		736.5267282000277	2.8167946999892592	ss mrs		3	m	3		28.518518518518533
205	2943	33	Chest	NegThxRating		2024_May_23_1850	1.2940207399660721	r		739.3933160000015	1.2669277000240982	ss mrs		3	m	3		-29.506172839506178
206	2943	34	Chest	SelfRating		2024_May_23_1850	1.260992340161465	r		740.7098573000403	1.219502899912186	ss mrs		3	m	3		30.493827160493822
207	2943	35	Chest	OtherRating		2024_May_23_1850	1.0292501400690526	r		741.992406400037	1.0002026000292972	ss mrs		3	m	3		37.53086419753086
208	2943	32	Chest	ImageryRating		2024_May_23_1850	2.139135339995846	r		743.0457639000379	2.116818799986504	ss mrs		3	m	3		20.740740740740748
209	2943	37	Chest	PresentRating		2024_May_23_1850	1.7387486400548369	r		745.2126462000888	1.7168614000547677	ss mrs		3	m	3		-9.629629629629619
