	SID	date	sex	session	handedness	scanner	onset	duration	repetition	rating	body_site	keys	temperature	conditionrt	mouseclick	biopac_channel	condition	rt	value	skin_site
0	3107	2025_Apr_11_1841	f	3	r	ss mrs	2.780846500012558	5.005331699299859			Chest					41	Regulation Instruction			2
1	3107	2025_Apr_11_1841	f	3	r	ss mrs	9.000374900002498	4.99904069994227			Chest					7	Pre-Trial Jitter			2
2	3107	2025_Apr_11_1841	f	3	r	ss mrs	14.042501400021138	13.014930999983335			Chest		48.0			17	Heat-Stimulation			2
3	3107	2025_Apr_11_1841	f	3	r	ss mrs	27.091986100014765	5.016039199981606			Chest					8	Post-Trial Jitter			2
4	3107	2025_Apr_11_1841	f	3	r	ss mrs	32.116557500005	5.000369799992768			Chest					20	PainBinary	1.3004484999983106	1.0	2
5	3107	2025_Apr_11_1841	f	3	r	ss mrs	37.13577079999959	5.012163100007456			Chest					21	IntensityRating	2.735923999978695	33.45679012345679	2
6	3107	2025_Apr_11_1841	f	3	r	ss mrs	42.16211309999926	5.009592100017471			Chest					52	AcceptBinary	0.9336596999783069	1.0	2
7	3107	2025_Apr_11_1841	f	3	r	ss mrs	47.17052300000796	7.009552899980918			Chest					9	Post-Q-Jitter			2
8	3107	2025_Apr_11_1841	f	3	r	ss mrs	55.41233610000927	9.00949489994673			Chest					7	Pre-Trial Jitter			2
9	3107	2025_Apr_11_1841	f	3	r	ss mrs	64.44179130002158	13.000792399980128			Chest		48.0			17	Heat-Stimulation			2
10	3107	2025_Apr_11_1841	f	3	r	ss mrs	77.48958980001044	9.005451200006064			Chest					8	Post-Trial Jitter			2
11	3107	2025_Apr_11_1841	f	3	r	ss mrs	86.51804470000206	4.998733699991135			Chest					20	PainBinary	0.7503295000060461	1.0	2
12	3107	2025_Apr_11_1841	f	3	r	ss mrs	91.53305710002314	5.002169499959564			Chest					21	IntensityRating	2.6170885000028647	34.93827160493828	2
13	3107	2025_Apr_11_1841	f	3	r	ss mrs	96.54627360001905	5.009133799962001			Chest					52	AcceptBinary	1.0002543000155129	1.0	2
14	3107	2025_Apr_11_1841	f	3	r	ss mrs	101.55400610002107	5.010461999976542			Chest					9	Post-Q-Jitter			2
15	3107	2025_Apr_11_1841	f	3	r	ss mrs	107.77803200000199	5.012636099971132			Chest					7	Pre-Trial Jitter			2
16	3107	2025_Apr_11_1841	f	3	r	ss mrs	112.84331360002398	13.015495600004215			Chest		48.0			17	Heat-Stimulation			2
17	3107	2025_Apr_11_1841	f	3	r	ss mrs	125.88960290001705	9.006502500007628			Chest					8	Post-Trial Jitter			2
18	3107	2025_Apr_11_1841	f	3	r	ss mrs	134.91775280001457	5.00039359999937			Chest					20	PainBinary	0.836382000008598	1.0	2
19	3107	2025_Apr_11_1841	f	3	r	ss mrs	139.9336315000255	5.002056499972241			Chest					21	IntensityRating	2.6003446000104304	35.55555555555556	2
20	3107	2025_Apr_11_1841	f	3	r	ss mrs	144.9460936000105	5.010573799983831			Chest					52	AcceptBinary	1.1835959999880288	1.0	2
21	3107	2025_Apr_11_1841	f	3	r	ss mrs	149.95523469999898	5.009092199994484			Chest					9	Post-Q-Jitter			2
22	3107	2025_Apr_11_1841	f	3	r	ss mrs	156.1836592000036	5.002421399956802			Chest					7	Pre-Trial Jitter			2
23	3107	2025_Apr_11_1841	f	3	r	ss mrs	161.234935400018	13.00002089998452			Chest		48.0			17	Heat-Stimulation			2
24	3107	2025_Apr_11_1841	f	3	r	ss mrs	174.2733040000021	5.006815800006734			Chest					8	Post-Trial Jitter			2
25	3107	2025_Apr_11_1841	f	3	r	ss mrs	179.30194920001668	4.9996876999503			Chest					20	PainBinary	0.850347800005693	1.0	2
26	3107	2025_Apr_11_1841	f	3	r	ss mrs	184.31851520002238	4.99994689997402			Chest					21	IntensityRating	1.8670538000005763	35.37037037037037	2
27	3107	2025_Apr_11_1841	f	3	r	ss mrs	189.33091760001844	5.008586799987825			Chest					52	AcceptBinary	1.0503261999983806	1.0	2
28	3107	2025_Apr_11_1841	f	3	r	ss mrs	194.33801880001556	9.01122449999093			Chest					9	Post-Q-Jitter			2
29	3107	2025_Apr_11_1841	f	3	r	ss mrs	204.5805358000216	9.009821299929172			Chest					7	Pre-Trial Jitter			2
30	3107	2025_Apr_11_1841	f	3	r	ss mrs	213.62007780000567	12.99757919998956			Chest		48.0			17	Heat-Stimulation			2
31	3107	2025_Apr_11_1841	f	3	r	ss mrs	226.65952790001757	7.0022054000000935			Chest					8	Post-Trial Jitter			2
32	3107	2025_Apr_11_1841	f	3	r	ss mrs	233.68656150001334	4.998257199971704			Chest					20	PainBinary	0.6358792000100948	1.0	2
33	3107	2025_Apr_11_1841	f	3	r	ss mrs	238.70154230002663	5.001778000005288			Chest					21	IntensityRating	2.7337234999868087	42.901234567901234	2
34	3107	2025_Apr_11_1841	f	3	r	ss mrs	243.71440190001158	5.009486599970842			Chest					52	AcceptBinary	0.7002789000107441	1.0	2
35	3107	2025_Apr_11_1841	f	3	r	ss mrs	248.72205609999946	8.994337800017092			Chest					9	Post-Q-Jitter			2
36	3107	2025_Apr_11_1841	f	3	r	ss mrs	258.86861060000956	7.001511899958132			Chest					7	Pre-Trial Jitter			2
37	3107	2025_Apr_11_1841	f	3	r	ss mrs	265.9104287000082	13.001371600024868			Chest		48.0			17	Heat-Stimulation			2
38	3107	2025_Apr_11_1841	f	3	r	ss mrs	278.9587986000115	7.004849000019021			Chest					8	Post-Trial Jitter			2
39	3107	2025_Apr_11_1841	f	3	r	ss mrs	285.98752690001857	4.997531300003175			Chest					20	PainBinary	0.9673838999879081	1.0	2
40	3107	2025_Apr_11_1841	f	3	r	ss mrs	291.0021638000035	5.001714399986668			Chest					21	IntensityRating	2.91703049998614	38.76543209876544	2
41	3107	2025_Apr_11_1841	f	3	r	ss mrs	296.0149070000043	5.009689700003946			Chest					52	AcceptBinary	0.9502574999933131	1.0	2
42	3107	2025_Apr_11_1841	f	3	r	ss mrs	301.02261260000523	9.01107450001291			Chest					9	Post-Q-Jitter			2
43	3107	2025_Apr_11_1841	f	3	r	ss mrs	311.2793617999996	7.014523799967719			Chest					7	Pre-Trial Jitter			2
44	3107	2025_Apr_11_1841	f	3	r	ss mrs	318.3215847000247	12.99693240004126			Chest		48.0			17	Heat-Stimulation			2
45	3107	2025_Apr_11_1841	f	3	r	ss mrs	331.35867680000956	5.006264399999054			Chest					8	Post-Trial Jitter			2
46	3107	2025_Apr_11_1841	f	3	r	ss mrs	336.3868540000112	4.9999817999778315			Chest					20	PainBinary	1.1003897999762557	1.0	2
47	3107	2025_Apr_11_1841	f	3	r	ss mrs	341.4036798000161	4.999774099997012			Chest					21	IntensityRating	2.6839966000115965	43.51851851851852	2
48	3107	2025_Apr_11_1841	f	3	r	ss mrs	346.4156415000034	5.009310800000094			Chest					52	AcceptBinary	0.633616000006441	1.0	2
49	3107	2025_Apr_11_1841	f	3	r	ss mrs	351.4240602000209	9.009316699957708			Chest					9	Post-Q-Jitter			2
50	3107	2025_Apr_11_1841	f	3	r	ss mrs	361.68273650002084	9.008914899925003			Chest					7	Pre-Trial Jitter			2
51	3107	2025_Apr_11_1841	f	3	r	ss mrs	370.72663140000077	13.004657499986934			Chest		48.0			17	Heat-Stimulation			2
52	3107	2025_Apr_11_1841	f	3	r	ss mrs	383.7765582000138	9.005024499987485			Chest					8	Post-Trial Jitter			2
53	3107	2025_Apr_11_1841	f	3	r	ss mrs	392.8043524000095	4.999638699984644			Chest					20	PainBinary	0.8169730000081472	1.0	2
54	3107	2025_Apr_11_1841	f	3	r	ss mrs	397.8204270999995	5.000934499985306			Chest					21	IntensityRating	2.702375099994242	44.320987654320994	2
55	3107	2025_Apr_11_1841	f	3	r	ss mrs	402.8331552000018	5.008894599974155			Chest					52	AcceptBinary	1.0835873000032734	1.0	2
56	3107	2025_Apr_11_1841	f	3	r	ss mrs	407.84162570000626	7.0087524999980815			Chest					9	Post-Q-Jitter			2
57	3107	2025_Apr_11_1841	f	3	r	ss mrs	416.0025788000203	5.003740199957974			Chest					7	Pre-Trial Jitter			2
58	3107	2025_Apr_11_1841	f	3	r	ss mrs	421.0349617000029	13.005837199976668			Chest		48.0			17	Heat-Stimulation			2
59	3107	2025_Apr_11_1841	f	3	r	ss mrs	434.0762691000127	7.006784900004277			Chest					8	Post-Trial Jitter			2
60	3107	2025_Apr_11_1841	f	3	r	ss mrs	441.10525000002235	4.9989206999889575			Chest					20	PainBinary	0.7027792000153568	1.0	2
61	3107	2025_Apr_11_1841	f	3	r	ss mrs	446.12055940000573	5.001729699986754			Chest					21	IntensityRating	3.816989500017371	37.28395061728395	2
62	3107	2025_Apr_11_1841	f	3	r	ss mrs	451.13322270000936	5.0098289999587			Chest					52	AcceptBinary	0.883603199996287	1.0	2
63	3107	2025_Apr_11_1841	f	3	r	ss mrs	456.1414739000029	7.010160800011363			Chest					9	Post-Q-Jitter			2
64	3107	2025_Apr_11_1841	f	3	r	ss mrs	464.29770930000814	7.014608199970098			Chest					7	Pre-Trial Jitter			2
65	3107	2025_Apr_11_1841	f	3	r	ss mrs	471.35598820002633	12.998183799994877			Chest		48.0			17	Heat-Stimulation			2
66	3107	2025_Apr_11_1841	f	3	r	ss mrs	484.3940857000125	7.0055637000186834			Chest					8	Post-Trial Jitter			2
67	3107	2025_Apr_11_1841	f	3	r	ss mrs	491.4217876000039	5.0002940999984276			Chest					20	PainBinary	0.9003146000031848	1.0	2
68	3107	2025_Apr_11_1841	f	3	r	ss mrs	496.4414163000183	5.01109839999117			Chest					21	IntensityRating	2.417043299996294	34.81481481481482	2
69	3107	2025_Apr_11_1841	f	3	r	ss mrs	501.4670496000035	5.009957000002032			Chest					52	AcceptBinary	1.0169618999934755	1.0	2
70	3107	2025_Apr_11_1841	f	3	r	ss mrs	506.4756834	5.009470399993006			Chest					9	Post-Q-Jitter			2
71	3107	2025_Apr_11_1841	f	3	r	ss mrs	512.6634791000106	7.000792999926489			Chest					7	Pre-Trial Jitter			2
72	3107	2025_Apr_11_1841	f	3	r	ss mrs	519.7069211000053	12.997400900028879			Chest		48.0			17	Heat-Stimulation			2
73	3107	2025_Apr_11_1841	f	3	r	ss mrs	532.7458212000201	5.003132500016363			Chest					8	Post-Trial Jitter			2
74	3107	2025_Apr_11_1841	f	3	r	ss mrs	537.7736763000139	4.997497999982443			Chest					20	PainBinary	0.8836594999884255	1.0	2
75	3107	2025_Apr_11_1841	f	3	r	ss mrs	542.7897408000135	4.998814599966863			Chest					21	IntensityRating	2.7026492999866605	46.04938271604939	2
76	3107	2025_Apr_11_1841	f	3	r	ss mrs	547.8009274000069	5.009887599968351			Chest					52	AcceptBinary	0.7003142999892589	1.0	2
77	3107	2025_Apr_11_1841	f	3	r	ss mrs	552.809451100009	7.00969299999997			Chest					9	Post-Q-Jitter			2
78	3107	2025_Apr_11_1841	f	3	r	ss mrs	561.0019400000165	9.008299099921715			Chest					7	Pre-Trial Jitter			2
79	3107	2025_Apr_11_1841	f	3	r	ss mrs	570.042081600026	13.011542099993676			Chest		48.0			17	Heat-Stimulation			2
80	3107	2025_Apr_11_1841	f	3	r	ss mrs	583.09597330002	9.003997099993285			Chest					8	Post-Trial Jitter			2
81	3107	2025_Apr_11_1841	f	3	r	ss mrs	592.1245443000225	4.996996499976376			Chest					20	PainBinary	1.1340320000017527	1.0	2
82	3107	2025_Apr_11_1841	f	3	r	ss mrs	597.1401609000168	4.999244899983751			Chest					21	IntensityRating	2.4836819999909494	33.51851851851852	2
83	3107	2025_Apr_11_1841	f	3	r	ss mrs	602.1536103000108	5.005793099990115			Chest					52	AcceptBinary	0.7336911000020336	1.0	2
84	3107	2025_Apr_11_1841	f	3	r	ss mrs	607.159602700005	7.010586799995508			Chest					9	Post-Q-Jitter			2
85	3107	2025_Apr_11_1841	f	3	r	ss mrs	614.6641760000202	5.001619699993171			Chest					7	Pre-Trial Jitter			2
86	3107	2025_Apr_11_1841	f	3	r	ss mrs	619.6994294000033	13.014638600026956			Chest		48.0			17	Heat-Stimulation			2
87	3107	2025_Apr_11_1841	f	3	r	ss mrs	632.7457838999981	5.005474700010382			Chest					8	Post-Trial Jitter			2
88	3107	2025_Apr_11_1841	f	3	r	ss mrs	637.7738988000201	4.99935299999197			Chest					20	PainBinary	1.3003172000171617	1.0	2
89	3107	2025_Apr_11_1841	f	3	r	ss mrs	642.7890474000014	5.002496100001736			Chest					21	IntensityRating	2.8841749999846797	28.39506172839506	2
90	3107	2025_Apr_11_1841	f	3	r	ss mrs	647.8017578000145	5.010525999969104			Chest					52	AcceptBinary	0.852555100020254	-1.0	2
91	3107	2025_Apr_11_1841	f	3	r	ss mrs	652.8103967000206	9.010055499966256			Chest					9	Post-Q-Jitter			2
92	3107	2025_Apr_11_1841	f	3	r	ss mrs	662.9878849000088	9.00536769995233			Chest					7	Pre-Trial Jitter			2
93	3107	2025_Apr_11_1841	f	3	r	ss mrs	672.0108840000175	13.009559199970681			Chest		48.0			17	Heat-Stimulation			2
94	3107	2025_Apr_11_1841	f	3	r	ss mrs	685.0634972000262	9.004571299999952			Chest					8	Post-Trial Jitter			2
95	3107	2025_Apr_11_1841	f	3	r	ss mrs	694.0910123000212	4.999718100007158			Chest					20	PainBinary	0.6836366000061389	1.0	2
96	3107	2025_Apr_11_1841	f	3	r	ss mrs	699.1066286000132	5.001943499984918			Chest					21	IntensityRating	2.133646000002045	37.46913580246913	2
97	3107	2025_Apr_11_1841	f	3	r	ss mrs	704.1194760000217	5.009686899953522			Chest					52	AcceptBinary	0.9836150999763049	1.0	2
98	3107	2025_Apr_11_1841	f	3	r	ss mrs	709.1281922000053	7.009029800014105			Chest					9	Post-Q-Jitter			2
99	3107	2025_Apr_11_1841	f	3	r	ss mrs	717.4713237000105	5.006307399948128			Chest					7	Pre-Trial Jitter			2
100	3107	2025_Apr_11_1841	f	3	r	ss mrs	722.5256241000025	12.997830800013617			Chest		48.0			17	Heat-Stimulation			2
101	3107	2025_Apr_11_1841	f	3	r	ss mrs	735.5635330000077	5.005589500011411			Chest					8	Post-Trial Jitter			2
102	3107	2025_Apr_11_1841	f	3	r	ss mrs	740.5908870999992	5.001004999998258			Chest					20	PainBinary	0.7336079000087921	1.0	2
103	3107	2025_Apr_11_1841	f	3	r	ss mrs	745.6079642000259	5.000282399967546			Chest					21	IntensityRating	2.8503116999927443	34.444444444444436	2
104	3107	2025_Apr_11_1841	f	3	r	ss mrs	750.6205414000142	5.008574599982239			Chest					52	AcceptBinary	1.1336306000011973	1.0	2
105	3107	2025_Apr_11_1841	f	3	r	ss mrs	755.6284592000011	7.009555199998431			Chest					9	Post-Q-Jitter			2
106	3107	2025_Apr_11_1841	f	3	r	ss mrs	763.8711857000017	9.00767119997181			Chest					7	Pre-Trial Jitter			2
107	3107	2025_Apr_11_1841	f	3	r	ss mrs	772.9046336000029	13.00762640000903			Chest		48.0			17	Heat-Stimulation			2
108	3107	2025_Apr_11_1841	f	3	r	ss mrs	785.9471632000059	9.006181899982039			Chest					8	Post-Trial Jitter			2
109	3107	2025_Apr_11_1841	f	3	r	ss mrs	794.9791971000086	5.0089115999871865			Chest					20	PainBinary	0.7503499000158627	1.0	2
110	3107	2025_Apr_11_1841	f	3	r	ss mrs	800.0094417000073	5.015183799987426			Chest					21	IntensityRating	2.4169610000099055	33.888888888888886	2
111	3107	2025_Apr_11_1841	f	3	r	ss mrs	805.0374077000015	5.0093754999979865			Chest					52	AcceptBinary	0.7669019000022672	1.0	2
112	3107	2025_Apr_11_1841	f	3	r	ss mrs	810.0460287000169	5.00894249996054			Chest					9	Post-Q-Jitter			2
113	3107	2025_Apr_11_1841	f	3	r	ss mrs	815.0863788000133	3.3284726999991108			Chest					26	ComfortRating	3.300313899992034	-5.802469135802468	2
114	3107	2025_Apr_11_1841	f	3	r	ss mrs	818.4292081000167	2.409495599975344			Chest					24	ValenceRating	2.3836091000121087	60.864197530864196	2
115	3107	2025_Apr_11_1841	f	3	r	ss mrs	820.8556925000157	1.856557699968107			Chest					26	IntensityRating	1.833625100000063	55.67901234567901	2
116	3107	2025_Apr_11_1841	f	3	r	ss mrs	822.7246473000268	3.6020219000056386			Chest					27	AvoidanceRating	3.5836645999806933	43.33333333333334	2
117	3107	2025_Apr_11_1841	f	3	r	ss mrs	826.338150800002	2.3584950999938883			Chest					28	RelaxationRating	2.3341993000067305	41.358024691358025	2
118	3107	2025_Apr_11_1841	f	3	r	ss mrs	828.7111932000262	2.912402599962661			Chest					29	AttentionRating	2.883726800006116	67.96296296296296	2
119	3107	2025_Apr_11_1841	f	3	r	ss mrs	831.6382964000222	2.624926999968011			Chest					30	BoredomRating	2.6003444000089075	31.851851851851855	2
120	3107	2025_Apr_11_1841	f	3	r	ss mrs	834.2733274000057	3.221603199985111			Chest					31	AlertnessRating	3.200308600004064	92.46913580246911	2
121	3107	2025_Apr_11_1841	f	3	r	ss mrs	837.5079642000201	3.785744099965086			Chest					32	PosThxRating	3.767027499998221	99.38271604938268	2
122	3107	2025_Apr_11_1841	f	3	r	ss mrs	841.3061646000133	2.356068299995968			Chest					33	NegThxRating	2.33366480001132	-67.77777777777777	2
123	3107	2025_Apr_11_1841	f	3	r	ss mrs	843.6741409000242	2.6035272000008263			Chest					34	SelfRating	2.583712599996943	99.62962962962962	2
124	3107	2025_Apr_11_1841	f	3	r	ss mrs	846.2893141000241	4.323248599976068			Chest					35	OtherRating	4.300336999993306	21.728395061728392	2
125	3107	2025_Apr_11_1841	f	3	r	ss mrs	850.623720500007	4.371266500005731			Chest					32	ImageryRating	4.350432399980491	39.01234567901233	2
126	3107	2025_Apr_11_1841	f	3	r	ss mrs	855.0103302000207	3.614797899965197			Chest					37	PresentRating	3.5836339999805205	87.40740740740739	2
