runSeq,trial_type,runLoop.thisRepN,runLoop.thisTrialN,runLoop.thisN,runLoop.thisIndex,trials.thisRepN,trials.thisTrialN,trials.thisN,trials.thisIndex,Begin.started,Begin.stopped,BeginTask.keys,BeginTask.rt,BeginTask.started,BeginTask.stopped,BodySiteInstructionText.started,BodySiteImg.started,BodySiteImg.stopped,BodySiteInstructionRead.keys,BodySiteInstructionRead.rt,BodySiteInstructionRead.started,BodySiteInstructionRead.stopped,ImagineInstructionText.started,ImaginationInstructionRead.keys,ImaginationInstructionRead.rt,ImaginationInstructionRead.started,ImaginationInstructionRead.stopped,BodySiteCue.started,BodySiteCue.stopped,NonStimTrialText.started,NonStimTrialText.stopped,fix_cross.started,fix_cross.stopped,ValenceRating.response,ValenceRating.rt,ValenceRating.started,ValenceRating.stopped,IntensityRating.response,IntensityRating.rt,IntensityRating.started,IntensityRating.stopped,ComfortRating.response,ComfortRating.rt,ComfortRating.started,ComfortRating.stopped,EndingText.started,EndingText.stopped,ConfirmEnd.keys,ConfirmEnd.rt,ConfirmEnd.started,ConfirmEnd.stopped,subject number,gender,bodymap first- or second-half (1 or 2),session,handedness,scanner,date,psychopyVersion,expName,frameRate,body_site_order,
,,,,,,,,,,151.56474349997006,None,space,17.820610999828205,151.56474349997006,None,,,,,,,,,,,,,,,,,,,,,,,,,,,,,,,,,,,,,2,M,1,14,r,CIB,2021_Oct_01_1244,2020.2.5,bodymapST1,59.99498440904964,"['Left Leg', 'Left Face', 'Chest', 'Right Leg']",
stimuli/orders/stimOrder4.xlsx,3,0,0,0,1,0,0,0,0,,,,,,,169.5152747000102,169.5152747000102,None,space,6257.32174169994,169.5152747000102,None,6426.865740199806,space,91.33135699993,6426.865740199806,None,6552.31697429996,6554.317129099974,6552.31697429996,6554.317129099974,6554.3002949999645,None,,,,,,,,,,,,,,,,,,,2,M,1,14,r,CIB,2021_Oct_01_1244,2020.2.5,bodymapST1,59.99498440904964,"['Left Leg', 'Left Face', 'Chest', 'Right Leg']",
stimuli/orders/stimOrder4.xlsx,3,0,0,0,1,0,2,2,2,,,,,,,,,,,,,,,,,,,6578.30034849979,6580.300811699824,6578.30034849979,6580.300811699824,6580.283852299908,6578.30034849979,,,,,,,,,,,,,,,,,,,2,M,1,14,r,CIB,2021_Oct_01_1244,2020.2.5,bodymapST1,59.99498440904964,"['Left Leg', 'Left Face', 'Chest', 'Right Leg']",
stimuli/orders/stimOrder4.xlsx,3,0,0,0,1,0,5,5,5,,,,,,,,,,,,,,,,,,,6617.284345099935,6619.284514199942,6617.284345099935,6619.284514199942,6619.267495899927,6617.284345099935,,,,,,,,,,,,,,,,,,,2,M,1,14,r,CIB,2021_Oct_01_1244,2020.2.5,bodymapST1,59.99498440904964,"['Left Leg', 'Left Face', 'Chest', 'Right Leg']",
stimuli/orders/stimOrder4.xlsx,3,0,0,0,1,0,6,6,6,,,,,,,,,,,,,,,,,,,6630.267764999997,6632.267877999926,6630.267764999997,6632.267877999926,6632.2509347999,6630.267764999997,,,,,,,,,,,,,,,,,,,2,M,1,14,r,CIB,2021_Oct_01_1244,2020.2.5,bodymapST1,59.99498440904964,"['Left Leg', 'Left Face', 'Chest', 'Right Leg']",
stimuli/orders/stimOrder4.xlsx,3,0,0,0,1,0,8,8,8,,,,,,,,,,,,,,,,,,,6656.251262199832,6658.251410999801,6656.251262199832,6658.251410999801,6658.234482900007,6656.251262199832,,,,,,,,,,,,,,,,,,,2,M,1,14,r,CIB,2021_Oct_01_1244,2020.2.5,bodymapST1,59.99498440904964,"['Left Leg', 'Left Face', 'Chest', 'Right Leg']",
stimuli/orders/stimOrder4.xlsx,3,0,0,0,1,0,10,10,10,,,,,,,,,,,,,,,,,,,6682.234869899927,6684.235002799891,6682.234869899927,6684.235002799891,6684.218038599938,6682.234869899927,,,,,,,,,,,,,,,,,,,2,M,1,14,r,CIB,2021_Oct_01_1244,2020.2.5,bodymapST1,59.99498440904964,"['Left Leg', 'Left Face', 'Chest', 'Right Leg']",
stimuli/orders/stimOrder4.xlsx,3,0,0,0,1,0,13,13,13,,,,,,,,,,,,,,,,,,,6721.218488299986,6723.2186394999735,6721.218488299986,6723.2186394999735,6723.201669999864,6721.218488299986,,,,,,,,,,,,,,,,,,,2,M,1,14,r,CIB,2021_Oct_01_1244,2020.2.5,bodymapST1,59.99498440904964,"['Left Leg', 'Left Face', 'Chest', 'Right Leg']",
stimuli/orders/stimOrder4.xlsx,3,0,0,0,1,0,15,15,15,,,,,,,,,,,,,,,,,,,6747.202057099901,6749.2022159998305,6747.202057099901,6749.2022159998305,6749.185232199961,6747.202057099901,,,,,,,,,,,,,,,,,,,2,M,1,14,r,CIB,2021_Oct_01_1244,2020.2.5,bodymapST1,59.99498440904964,"['Left Leg', 'Left Face', 'Chest', 'Right Leg']",
stimuli/orders/stimOrder4.xlsx,3,0,0,0,1,0,17,17,17,,,,,,,,,,,,,,,,,,,6773.185612299945,6775.185794399818,6773.185612299945,6775.185794399818,6775.168767899973,6773.185612299945,,,,,,,,,,,,,,,,,,,2,M,1,14,r,CIB,2021_Oct_01_1244,2020.2.5,bodymapST1,59.99498440904964,"['Left Leg', 'Left Face', 'Chest', 'Right Leg']",
stimuli/orders/stimOrder4.xlsx,3,0,0,0,1,0,22,22,22,,,,,,,,,,,,,,,,,,,6838.169442699989,6840.1695706998,6838.169442699989,6840.1695706998,6840.1526192999445,6838.169442699989,,,,,,,,,,,,,,,,,,,2,M,1,14,r,CIB,2021_Oct_01_1244,2020.2.5,bodymapST1,59.99498440904964,"['Left Leg', 'Left Face', 'Chest', 'Right Leg']",
stimuli/orders/stimOrder4.xlsx,3,0,0,0,1,0,32,32,32,,,,,,,,,,,,,,,,,,,6968.15419949987,6970.15371379978,6968.15419949987,6970.15371379978,6970.137034799904,6968.15419949987,,,,,,,,,,,,,,,,,,,2,M,1,14,r,CIB,2021_Oct_01_1244,2020.2.5,bodymapST1,59.99498440904964,"['Left Leg', 'Left Face', 'Chest', 'Right Leg']",
stimuli/orders/stimOrder4.xlsx,3,0,0,0,1,0,38,38,38,,,,,,,,,,,,,,,,,,,7046.137808899861,7048.137941499939,7046.137808899861,7048.137941499939,7048.120980899781,7046.137808899861,,,,,,,,,,,,,,,,,,,2,M,1,14,r,CIB,2021_Oct_01_1244,2020.2.5,bodymapST1,59.99498440904964,"['Left Leg', 'Left Face', 'Chest', 'Right Leg']",
stimuli/orders/stimOrder4.xlsx,,0,0,0,1,,,,,,,,,,,,,,,,,,,,,,,,,,,7059.121263299836,7059.121263299836,-10.740740740740748,7072.648251739796,,,,,,,,,,,,,,,,,2,M,1,14,r,CIB,2021_Oct_01_1244,2020.2.5,bodymapST1,59.99498440904964,"['Left Leg', 'Left Face', 'Chest', 'Right Leg']",
stimuli/orders/stimOrder4.xlsx,,0,0,0,1,,,,,,,,,,,,,,,,,,,,,,,,,,,,,,,0.0139452600851655,None,18.08641975308642,7076.7320416397415,,,,,,,,,,,,,2,M,1,14,r,CIB,2021_Oct_01_1244,2020.2.5,bodymapST1,59.99498440904964,"['Left Leg', 'Left Face', 'Chest', 'Right Leg']",
stimuli/orders/stimOrder4.xlsx,,0,0,0,1,,,,,,,,,,,,,,,,,,,,,,,,,,,,,,,,,,,0.013488160213455558,None,42.22222222222222,7079.398596539861,,,,,,,,,2,M,1,14,r,CIB,2021_Oct_01_1244,2020.2.5,bodymapST1,59.99498440904964,"['Left Leg', 'Left Face', 'Chest', 'Right Leg']",
stimuli/orders/stimOrder6.xlsx,3,0,1,1,2,0,0,0,0,,,,,,,7089.838236599928,7089.838236599928,None,space,475.4552666998934,7089.838236599928,None,,,,,,7600.925523499958,7602.925685299793,7600.925523499958,7602.925685299793,7602.908839199925,None,,,,,,,,,,,0.013664460042491555,None,,,,,,,2,M,1,14,r,CIB,2021_Oct_01_1244,2020.2.5,bodymapST1,59.99498440904964,"['Left Leg', 'Left Face', 'Chest', 'Right Leg']",
stimuli/orders/stimOrder6.xlsx,3,0,1,1,2,0,2,2,2,,,,,,,,,,,,,,,,,,,7626.90906789992,7628.909314199816,7626.90906789992,7628.909314199816,7628.892395299859,7626.90906789992,,,,,,,,,,,,,,,,,,,2,M,1,14,r,CIB,2021_Oct_01_1244,2020.2.5,bodymapST1,59.99498440904964,"['Left Leg', 'Left Face', 'Chest', 'Right Leg']",
stimuli/orders/stimOrder6.xlsx,3,0,1,1,2,0,4,4,4,,,,,,,,,,,,,,,,,,,7652.892647299916,7654.89285409986,7652.892647299916,7654.89285409986,7654.875920899911,7652.892647299916,,,,,,,,,,,,,,,,,,,2,M,1,14,r,CIB,2021_Oct_01_1244,2020.2.5,bodymapST1,59.99498440904964,"['Left Leg', 'Left Face', 'Chest', 'Right Leg']",
stimuli/orders/stimOrder6.xlsx,3,0,1,1,2,0,10,10,10,,,,,,,,,,,,,,,,,,,7730.876534999814,7732.876839099918,7730.876534999814,7732.876839099918,7732.859876599861,7730.876534999814,,,,,,,,,,,,,,,,,,,2,M,1,14,r,CIB,2021_Oct_01_1244,2020.2.5,bodymapST1,59.99498440904964,"['Left Leg', 'Left Face', 'Chest', 'Right Leg']",
stimuli/orders/stimOrder6.xlsx,3,0,1,1,2,0,14,14,14,,,,,,,,,,,,,,,,,,,7782.860496199923,7784.8606319997925,7782.860496199923,7784.8606319997925,7784.843647599919,7782.860496199923,,,,,,,,,,,,,,,,,,,2,M,1,14,r,CIB,2021_Oct_01_1244,2020.2.5,bodymapST1,59.99498440904964,"['Left Leg', 'Left Face', 'Chest', 'Right Leg']",
stimuli/orders/stimOrder6.xlsx,3,0,1,1,2,0,16,16,16,,,,,,,,,,,,,,,,,,,7808.844023099868,7810.844173299847,7808.844023099868,7810.844173299847,7810.827178200008,7808.844023099868,,,,,,,,,,,,,,,,,,,2,M,1,14,r,CIB,2021_Oct_01_1244,2020.2.5,bodymapST1,59.99498440904964,"['Left Leg', 'Left Face', 'Chest', 'Right Leg']",
stimuli/orders/stimOrder6.xlsx,3,0,1,1,2,0,17,17,17,,,,,,,,,,,,,,,,,,,7821.827422400005,7823.82758729998,7821.827422400005,7823.82758729998,7823.8106264998205,7821.827422400005,,,,,,,,,,,,,,,,,,,2,M,1,14,r,CIB,2021_Oct_01_1244,2020.2.5,bodymapST1,59.99498440904964,"['Left Leg', 'Left Face', 'Chest', 'Right Leg']",
stimuli/orders/stimOrder6.xlsx,3,0,1,1,2,0,20,20,20,,,,,,,,,,,,,,,,,,,7860.811105799861,7862.811220799806,7860.811105799861,7862.811220799806,7862.794272999978,7860.811105799861,,,,,,,,,,,,,,,,,,,2,M,1,14,r,CIB,2021_Oct_01_1244,2020.2.5,bodymapST1,59.99498440904964,"['Left Leg', 'Left Face', 'Chest', 'Right Leg']",
stimuli/orders/stimOrder6.xlsx,3,0,1,1,2,0,25,25,25,,,,,,,,,,,,,,,,,,,7925.794985999819,7927.795110799838,7925.794985999819,7927.795110799838,7927.778140599839,7925.794985999819,,,,,,,,,,,,,,,,,,,2,M,1,14,r,CIB,2021_Oct_01_1244,2020.2.5,bodymapST1,59.99498440904964,"['Left Leg', 'Left Face', 'Chest', 'Right Leg']",
stimuli/orders/stimOrder6.xlsx,3,0,1,1,2,0,26,26,26,,,,,,,,,,,,,,,,,,,7938.778255699901,7940.77825079998,7938.778255699901,7940.77825079998,7940.761569299968,7938.778255699901,,,,,,,,,,,,,,,,,,,2,M,1,14,r,CIB,2021_Oct_01_1244,2020.2.5,bodymapST1,59.99498440904964,"['Left Leg', 'Left Face', 'Chest', 'Right Leg']",
stimuli/orders/stimOrder6.xlsx,3,0,1,1,2,0,30,30,30,,,,,,,,,,,,,,,,,,,7990.762233999791,7992.762270499952,7990.762233999791,7992.762270499952,7992.745331399841,7990.762233999791,,,,,,,,,,,,,,,,,,,2,M,1,14,r,CIB,2021_Oct_01_1244,2020.2.5,bodymapST1,59.99498440904964,"['Left Leg', 'Left Face', 'Chest', 'Right Leg']",
stimuli/orders/stimOrder6.xlsx,3,0,1,1,2,0,34,34,34,,,,,,,,,,,,,,,,,,,8042.745950999903,8044.746043499792,8042.745950999903,8044.746043499792,8044.729091199813,8042.745950999903,,,,,,,,,,,,,,,,,,,2,M,1,14,r,CIB,2021_Oct_01_1244,2020.2.5,bodymapST1,59.99498440904964,"['Left Leg', 'Left Face', 'Chest', 'Right Leg']",
stimuli/orders/stimOrder6.xlsx,,0,1,1,2,,,,,,,,,,,,,,,,,,,,,,,,,,,8107.729606299894,8107.729606299894,-14.814814814814824,8124.640403539874,,,,,,,,,,,,,,,,,2,M,1,14,r,CIB,2021_Oct_01_1244,2020.2.5,bodymapST1,59.99498440904964,"['Left Leg', 'Left Face', 'Chest', 'Right Leg']",
stimuli/orders/stimOrder6.xlsx,,0,1,1,2,,,,,,,,,,,,,,,,,,,,,,,,,,,,,,,0.013656960101798177,None,14.197530864197528,8127.556816939497,,,,,,,,,,,,,2,M,1,14,r,CIB,2021_Oct_01_1244,2020.2.5,bodymapST1,59.99498440904964,"['Left Leg', 'Left Face', 'Chest', 'Right Leg']",
stimuli/orders/stimOrder6.xlsx,,0,1,1,2,,,,,,,,,,,,,,,,,,,,,,,,,,,,,,,,,,,0.013913660310208797,None,45.80246913580247,8129.82424604008,,,,,,,,,2,M,1,14,r,CIB,2021_Oct_01_1244,2020.2.5,bodymapST1,59.99498440904964,"['Left Leg', 'Left Face', 'Chest', 'Right Leg']",
stimuli/orders/stimOrder8.xlsx,3,0,2,2,3,0,0,0,0,,,,,,,8139.98008849984,8139.98008849984,None,space,142.05776360002346,8139.98008849984,None,,,,,,8310.664611099986,8312.664770999923,8310.664611099986,8312.664770999923,8312.647933099885,None,,,,,,,,,,,0.013160459930077195,None,,,,,,,2,M,1,14,r,CIB,2021_Oct_01_1244,2020.2.5,bodymapST1,59.99498440904964,"['Left Leg', 'Left Face', 'Chest', 'Right Leg']",
stimuli/orders/stimOrder8.xlsx,3,0,2,2,3,0,3,3,3,,,,,,,,,,,,,,,,,,,8349.648399899947,8351.648514,8349.648399899947,8351.648514,8351.631583299953,8349.648399899947,,,,,,,,,,,,,,,,,,,2,M,1,14,r,CIB,2021_Oct_01_1244,2020.2.5,bodymapST1,59.99498440904964,"['Left Leg', 'Left Face', 'Chest', 'Right Leg']",
stimuli/orders/stimOrder8.xlsx,3,0,2,2,3,0,7,7,7,,,,,,,,,,,,,,,,,,,8401.632209899835,8403.632114999928,8401.632209899835,8403.632114999928,8403.61533880001,8401.632209899835,,,,,,,,,,,,,,,,,,,2,M,1,14,r,CIB,2021_Oct_01_1244,2020.2.5,bodymapST1,59.99498440904964,"['Left Leg', 'Left Face', 'Chest', 'Right Leg']",
stimuli/orders/stimOrder8.xlsx,3,0,2,2,3,0,8,8,8,,,,,,,,,,,,,,,,,,,8414.615590799833,8416.61573329987,8414.615590799833,8416.61573329987,8416.598777199863,8414.615590799833,,,,,,,,,,,,,,,,,,,2,M,1,14,r,CIB,2021_Oct_01_1244,2020.2.5,bodymapST1,59.99498440904964,"['Left Leg', 'Left Face', 'Chest', 'Right Leg']",
stimuli/orders/stimOrder8.xlsx,3,0,2,2,3,0,10,10,10,,,,,,,,,,,,,,,,,,,8440.599150099792,8442.599280399969,8440.599150099792,8442.599280399969,8442.582310299855,8440.599150099792,,,,,,,,,,,,,,,,,,,2,M,1,14,r,CIB,2021_Oct_01_1244,2020.2.5,bodymapST1,59.99498440904964,"['Left Leg', 'Left Face', 'Chest', 'Right Leg']",
stimuli/orders/stimOrder8.xlsx,3,0,2,2,3,0,11,11,11,,,,,,,,,,,,,,,,,,,8453.582590299891,8455.582701799925,8453.582590299891,8455.582701799925,8455.565747799817,8453.582590299891,,,,,,,,,,,,,,,,,,,2,M,1,14,r,CIB,2021_Oct_01_1244,2020.2.5,bodymapST1,59.99498440904964,"['Left Leg', 'Left Face', 'Chest', 'Right Leg']",
stimuli/orders/stimOrder8.xlsx,3,0,2,2,3,0,19,19,19,,,,,,,,,,,,,,,,,,,8557.566647899803,8559.566899799975,8557.566647899803,8559.566899799975,8559.549936699914,8557.566647899803,,,,,,,,,,,,,,,,,,,2,M,1,14,r,CIB,2021_Oct_01_1244,2020.2.5,bodymapST1,59.99498440904964,"['Left Leg', 'Left Face', 'Chest', 'Right Leg']",
stimuli/orders/stimOrder8.xlsx,3,0,2,2,3,0,25,25,25,,,,,,,,,,,,,,,,,,,8635.550758699887,8637.550849399995,8635.550758699887,8637.550849399995,8637.533896199893,8635.550758699887,,,,,,,,,,,,,,,,,,,2,M,1,14,r,CIB,2021_Oct_01_1244,2020.2.5,bodymapST1,59.99498440904964,"['Left Leg', 'Left Face', 'Chest', 'Right Leg']",
stimuli/orders/stimOrder8.xlsx,3,0,2,2,3,0,27,27,27,,,,,,,,,,,,,,,,,,,8661.534299999941,8663.534411699977,8661.534299999941,8663.534411699977,8663.51743509993,8661.534299999941,,,,,,,,,,,,,,,,,,,2,M,1,14,r,CIB,2021_Oct_01_1244,2020.2.5,bodymapST1,59.99498440904964,"['Left Leg', 'Left Face', 'Chest', 'Right Leg']",
stimuli/orders/stimOrder8.xlsx,3,0,2,2,3,0,29,29,29,,,,,,,,,,,,,,,,,,,8687.517818699824,8689.517864399822,8687.517818699824,8689.517864399822,8689.500992899993,8687.517818699824,,,,,,,,,,,,,,,,,,,2,M,1,14,r,CIB,2021_Oct_01_1244,2020.2.5,bodymapST1,59.99498440904964,"['Left Leg', 'Left Face', 'Chest', 'Right Leg']",
stimuli/orders/stimOrder8.xlsx,3,0,2,2,3,0,37,37,37,,,,,,,,,,,,,,,,,,,8791.502003999893,8793.502138199983,8791.502003999893,8793.502138199983,8793.48516219994,8791.502003999893,,,,,,,,,,,,,,,,,,,2,M,1,14,r,CIB,2021_Oct_01_1244,2020.2.5,bodymapST1,59.99498440904964,"['Left Leg', 'Left Face', 'Chest', 'Right Leg']",
stimuli/orders/stimOrder8.xlsx,3,0,2,2,3,0,38,38,38,,,,,,,,,,,,,,,,,,,8804.485395399854,8806.48523849994,8804.485395399854,8806.48523849994,8806.46860919986,8804.485395399854,,,,,,,,,,,,,,,,,,,2,M,1,14,r,CIB,2021_Oct_01_1244,2020.2.5,bodymapST1,59.99498440904964,"['Left Leg', 'Left Face', 'Chest', 'Right Leg']",
stimuli/orders/stimOrder8.xlsx,,0,2,2,3,,,,,,,,,,,,,,,,,,,,,,,,,,,8817.468433099799,8817.468433099799,7.407407407407419,8831.962799239904,,,,,,,,,,,,,,,,,2,M,1,14,r,CIB,2021_Oct_01_1244,2020.2.5,bodymapST1,59.99498440904964,"['Left Leg', 'Left Face', 'Chest', 'Right Leg']",
stimuli/orders/stimOrder8.xlsx,,0,2,2,3,,,,,,,,,,,,,,,,,,,,,,,,,,,,,,,0.013671860098838806,None,11.604938271604937,8834.846221240237,,,,,,,,,,,,,2,M,1,14,r,CIB,2021_Oct_01_1244,2020.2.5,bodymapST1,59.99498440904964,"['Left Leg', 'Left Face', 'Chest', 'Right Leg']",
stimuli/orders/stimOrder8.xlsx,,0,2,2,3,,,,,,,,,,,,,,,,,,,,,,,,,,,,,,,,,,,0.01356985978782177,None,48.45679012345679,8838.363404839765,,,,,,,,,2,M,1,14,r,CIB,2021_Oct_01_1244,2020.2.5,bodymapST1,59.99498440904964,"['Left Leg', 'Left Face', 'Chest', 'Right Leg']",
stimuli/orders/stimOrder2.xlsx,3,0,3,3,0,0,0,0,0,,,,,,,8867.585613699863,8867.585613699863,None,space,150.9809210000094,8867.585613699863,None,,,,,,9040.753824899904,9042.75398369995,9040.753824899904,9042.75398369995,9042.737189999782,None,,,,,,,,,,,0.013117460068315268,None,,,,,,,2,M,1,14,r,CIB,2021_Oct_01_1244,2020.2.5,bodymapST1,59.99498440904964,"['Left Leg', 'Left Face', 'Chest', 'Right Leg']",
stimuli/orders/stimOrder2.xlsx,3,0,3,3,0,0,2,2,2,,,,,,,,,,,,,,,,,,,9066.73757639993,9068.737668499816,9066.73757639993,9068.737668499816,9068.720755099785,9066.73757639993,,,,,,,,,,,,,,,,,,,2,M,1,14,r,CIB,2021_Oct_01_1244,2020.2.5,bodymapST1,59.99498440904964,"['Left Leg', 'Left Face', 'Chest', 'Right Leg']",
stimuli/orders/stimOrder2.xlsx,3,0,3,3,0,0,5,5,5,,,,,,,,,,,,,,,,,,,9105.721213999903,9107.721319899894,9105.721213999903,9107.721319899894,9107.704380799783,9105.721213999903,,,,,,,,,,,,,,,,,,,2,M,1,14,r,CIB,2021_Oct_01_1244,2020.2.5,bodymapST1,59.99498440904964,"['Left Leg', 'Left Face', 'Chest', 'Right Leg']",
stimuli/orders/stimOrder2.xlsx,3,0,3,3,0,0,10,10,10,,,,,,,,,,,,,,,,,,,9170.705085199792,9172.705182599835,9170.705085199792,9172.705182599835,9172.688240199815,9170.705085199792,,,,,,,,,,,,,,,,,,,2,M,1,14,r,CIB,2021_Oct_01_1244,2020.2.5,bodymapST1,59.99498440904964,"['Left Leg', 'Left Face', 'Chest', 'Right Leg']",
stimuli/orders/stimOrder2.xlsx,3,0,3,3,0,0,12,12,12,,,,,,,,,,,,,,,,,,,9196.688440599944,9198.68873799988,9196.688440599944,9198.68873799988,9198.671778399963,9196.688440599944,,,,,,,,,,,,,,,,,,,2,M,1,14,r,CIB,2021_Oct_01_1244,2020.2.5,bodymapST1,59.99498440904964,"['Left Leg', 'Left Face', 'Chest', 'Right Leg']",
stimuli/orders/stimOrder2.xlsx,3,0,3,3,0,0,13,13,13,,,,,,,,,,,,,,,,,,,9209.6720147999,9211.672160699964,9209.6720147999,9211.672160699964,9211.655219599837,9209.6720147999,,,,,,,,,,,,,,,,,,,2,M,1,14,r,CIB,2021_Oct_01_1244,2020.2.5,bodymapST1,59.99498440904964,"['Left Leg', 'Left Face', 'Chest', 'Right Leg']",
stimuli/orders/stimOrder2.xlsx,3,0,3,3,0,0,15,15,15,,,,,,,,,,,,,,,,,,,9235.655618099961,9237.655727999983,9235.655618099961,9237.655727999983,9237.63877650001,9235.655618099961,,,,,,,,,,,,,,,,,,,2,M,1,14,r,CIB,2021_Oct_01_1244,2020.2.5,bodymapST1,59.99498440904964,"['Left Leg', 'Left Face', 'Chest', 'Right Leg']",
stimuli/orders/stimOrder2.xlsx,3,0,3,3,0,0,23,23,23,,,,,,,,,,,,,,,,,,,9339.639808799839,9341.63960769982,9339.639808799839,9341.63960769982,9341.622940499801,9339.639808799839,,,,,,,,,,,,,,,,,,,2,M,1,14,r,CIB,2021_Oct_01_1244,2020.2.5,bodymapST1,59.99498440904964,"['Left Leg', 'Left Face', 'Chest', 'Right Leg']",
stimuli/orders/stimOrder2.xlsx,3,0,3,3,0,0,27,27,27,,,,,,,,,,,,,,,,,,,9391.623378699878,9393.623658499913,9391.623378699878,9393.623658499913,9393.606686099898,9391.623378699878,,,,,,,,,,,,,,,,,,,2,M,1,14,r,CIB,2021_Oct_01_1244,2020.2.5,bodymapST1,59.99498440904964,"['Left Leg', 'Left Face', 'Chest', 'Right Leg']",
stimuli/orders/stimOrder2.xlsx,3,0,3,3,0,0,28,28,28,,,,,,,,,,,,,,,,,,,9404.606947999913,9406.606741899857,9404.606947999913,9406.606741899857,9406.590136299841,9404.606947999913,,,,,,,,,,,,,,,,,,,2,M,1,14,r,CIB,2021_Oct_01_1244,2020.2.5,bodymapST1,59.99498440904964,"['Left Leg', 'Left Face', 'Chest', 'Right Leg']",
stimuli/orders/stimOrder2.xlsx,3,0,3,3,0,0,32,32,32,,,,,,,,,,,,,,,,,,,9456.590736099984,9458.59084259998,9456.590736099984,9458.59084259998,9458.573881099932,9456.590736099984,,,,,,,,,,,,,,,,,,,2,M,1,14,r,CIB,2021_Oct_01_1244,2020.2.5,bodymapST1,59.99498440904964,"['Left Leg', 'Left Face', 'Chest', 'Right Leg']",
stimuli/orders/stimOrder2.xlsx,3,0,3,3,0,0,33,33,33,,,,,,,,,,,,,,,,,,,9469.574138799915,9471.574055699864,9469.574138799915,9471.574055699864,9471.557315999875,9469.574138799915,,,,,,,,,,,,,,,,,,,2,M,1,14,r,CIB,2021_Oct_01_1244,2020.2.5,bodymapST1,59.99498440904964,"['Left Leg', 'Left Face', 'Chest', 'Right Leg']",
stimuli/orders/stimOrder2.xlsx,,0,3,3,0,,,,,,,,,,,,,,,,,,,,,,,,,,,9547.557934999932,9547.557934999932,-17.407407407407405,9560.318220739951,,,,,,,,,,,,,,,,,2,M,1,14,r,CIB,2021_Oct_01_1244,2020.2.5,bodymapST1,59.99498440904964,"['Left Leg', 'Left Face', 'Chest', 'Right Leg']",
stimuli/orders/stimOrder2.xlsx,,0,3,3,0,,,,,,,,,,,,,,,,,,,,,,,,,,,,,,,0.01415095990523696,None,15.92592592592593,9562.518350939965,,,,,,,,,,,,,2,M,1,14,r,CIB,2021_Oct_01_1244,2020.2.5,bodymapST1,59.99498440904964,"['Left Leg', 'Left Face', 'Chest', 'Right Leg']",
stimuli/orders/stimOrder2.xlsx,,0,3,3,0,,,,,,,,,,,,,,,,,,,,,,,,,,,,,,,,,,,0.013993659988045692,None,48.39506172839506,9566.751975439955,,,,,,,,,2,M,1,14,r,CIB,2021_Oct_01_1244,2020.2.5,bodymapST1,59.99498440904964,"['Left Leg', 'Left Face', 'Chest', 'Right Leg']",
,,,,,,,,,,,,,,,,,,,,,,,,,,,,,,,,,,,,,,,,,,,,0.013782660011202097,None,9589.908292399952,None,space,4.098935599904507,9589.908292399952,None,2,M,1,14,r,CIB,2021_Oct_01_1244,2020.2.5,bodymapST1,59.99498440904964,"['Left Leg', 'Left Face', 'Chest', 'Right Leg']",
