	SID	biopac_channel	body_site	condition	correct	date	duration	handedness	mouseclick	onset	rt	scanner	score	session	sex	skin_site	temperature	value
0	2553	51	Left Leg	Expectancy		2023_Mar_07_1230	4.999621445313096	R		3.319393599871546	2.9697547999676317	MS MH		2	M	3		23.209876543209877
1	2553	45	Left Leg	2-back Instruction		2023_Mar_07_1230	5.003922899719328	R		8.716055499855429		MS MH		2	M	3		
2	2553	7	Left Leg	Pre-trial Jitter		2023_Mar_07_1230	9.004971349844709	R		13.732243599835783		MS MH		2	M	3		
3	2553	44.0	Left Leg	pretrialfixation		2023_Mar_07_1230	1.0077128999400884	R		23.03095449996181		MS MH		2	M	3		
4	2553		Left Leg	2-back	0.0	2023_Mar_07_1230	1.989735750015825	R	0.0	24.048287899931893	0.6965459000784904	MS MH	0.0	2	M	3	48.5	
5	2553		Left Leg	2-back	1.0	2023_Mar_07_1230	1.9877813498023897	R		26.05762719991617		MS MH	12.5	2	M	3	48.5	
6	2553		Left Leg	2-back	1.0	2023_Mar_07_1230	1.9874586500227451	R	0	28.057786699850112	0.5805355999618769	MS MH	25.0	2	M	3	48.5	
7	2553		Left Leg	2-back	1.0	2023_Mar_07_1230	1.9879709500819445	R	2	30.057564299786463	0.98049829993397	MS MH	37.5	2	M	3	48.5	
8	2553		Left Leg	2-back	1.0	2023_Mar_07_1230	1.9873348500113934	R	2	32.05790869984776	0.91727240011096	MS MH	50.0	2	M	3	48.5	
9	2553		Left Leg	2-back	1.0	2023_Mar_07_1230	1.9874129502568394	R	2	34.05786449997686	0.7471286999061704	MS MH	62.5	2	M	3	48.5	
10	2553		Left Leg	2-back	1.0	2023_Mar_07_1230	1.9868561497423798	R	0	36.05816139979288	0.4999933000653982	MS MH	75.0	2	M	3	48.5	
11	2553		Left Leg	2-back	1.0	2023_Mar_07_1230	1.987418649950996	R	0	38.057919499929994	0.8138375000562519	MS MH	87.5	2	M	3	48.5	
12	2553	48.0	Left Leg	ScoreReport		2023_Mar_07_1230	5.012423099949956	R		40.0704504000023		MS MH		2	M	3		
13	2553	8	Left Leg	Post-trial Jitter		2023_Mar_07_1230	8.99761850014329	R		45.1279253999237		MS MH		2	M	3		
14	2553	20	Left Leg	PainBinary		2023_Mar_07_1230	5.000881699845195	R		54.143016499932855	1.3336453000083566	MS MH		2	M	3		1.0
15	2553	21	Left Leg	IntensityRating		2023_Mar_07_1230	5.008234899956733	R		59.164392799837515	2.069278199924156	MS MH		2	M	3		37.22222222222222
16	2553	23	Left Leg	DistractBinary		2023_Mar_07_1230	5.004679600009695	R		64.19122039992362	1.1502981001976877	MS MH		2	M	3		1.0
17	2553	9	Left Leg	Post-Q-Jitter		2023_Mar_07_1230	8.99462474999018	R		69.19630189985037		MS MH		2	M	3		
18	2553	51	Left Leg	Expectancy		2023_Mar_07_1230	5.014292349573225	R		79.42829219996929	1.8833731999620795	MS MH		2	M	3		39.074074074074076
19	2553	45	Left Leg	2-back Instruction		2023_Mar_07_1230	5.000188199803233	R		84.83535819989629		MS MH		2	M	3		
20	2553	7	Left Leg	Pre-trial Jitter		2023_Mar_07_1230	5.0025199498049915	R		89.85088979988359		MS MH		2	M	3		
21	2553	44.0	Left Leg	pretrialfixation		2023_Mar_07_1230	1.0109971999190748	R		95.17170319985598		MS MH		2	M	3		
22	2553		Left Leg	2-back	1.0	2023_Mar_07_1230	1.9891956497449428	R		96.18260929989628		MS MH	12.5	2	M	3	48.5	
23	2553		Left Leg	2-back	1.0	2023_Mar_07_1230	1.987364349886775	R		98.19182129995897		MS MH	25.0	2	M	3	48.5	
24	2553		Left Leg	2-back	1.0	2023_Mar_07_1230	1.9881076500751078	R	0	100.19152559991926	0.4636556999757886	MS MH	37.5	2	M	3	48.5	
25	2553		Left Leg	2-back	1.0	2023_Mar_07_1230	1.9880853497888893	R	2	102.19152849982493	0.6802509999834001	MS MH	50.0	2	M	3	48.5	
26	2553		Left Leg	2-back	1.0	2023_Mar_07_1230	1.9881061499472708	R	0	104.19157119980082	0.38033730001188815	MS MH	62.5	2	M	3	48.5	
27	2553		Left Leg	2-back	1.0	2023_Mar_07_1230	1.9881684503052384	R	2	106.1915474999696	0.6470771001186222	MS MH	75.0	2	M	3	48.5	
28	2553		Left Leg	2-back	1.0	2023_Mar_07_1230	1.9881068503018469	R	2	108.19161149999127	0.5137616000138223	MS MH	87.5	2	M	3	48.5	
29	2553		Left Leg	2-back	1.0	2023_Mar_07_1230	1.9880635500885546	R	2	110.19167329999618	0.7136887998785824	MS MH	100.0	2	M	3	48.5	
30	2553	48.0	Left Leg	ScoreReport		2023_Mar_07_1230	5.001549250213429	R		112.20159319997765		MS MH		2	M	3		
31	2553	8	Left Leg	Post-trial Jitter		2023_Mar_07_1230	6.998801299836487	R		117.26137109985575		MS MH		2	M	3		
32	2553	20	Left Leg	PainBinary		2023_Mar_07_1230	5.007789499824867	R		124.2819684999995	1.0832615001127124	MS MH		2	M	3		1.0
33	2553	21	Left Leg	IntensityRating		2023_Mar_07_1230	5.011571199866012	R		129.31343889981508	3.366671299794689	MS MH		2	M	3		38.2716049382716
34	2553	23	Left Leg	DistractBinary		2023_Mar_07_1230	5.002127400133759	R		134.34320489992388	1.7503330002073199	MS MH		2	M	3		1.0
35	2553	9	Left Leg	Post-Q-Jitter		2023_Mar_07_1230	6.9945575499441475	R		139.3470571998041		MS MH		2	M	3		
36	2553	42	Left Leg	0-back Instruction		2023_Mar_07_1230	5.007316799834371	R		146.36574489995837		MS MH		2	M	3		
37	2553	7	Left Leg	Pre-Trial Jitter		2023_Mar_07_1230	7.002081349957734	R		151.3851233997848		MS MH		2	M	3		
38	2553	44.0	Left Leg	pretrialfixation		2023_Mar_07_1230	1.0054278001189232	R		158.6501685997937		MS MH		2	M	3		
39	2553		Left Leg	0-back	1.0	2023_Mar_07_1230	1.9903586499858648	R	0.0	159.66599869984202	0.8297760998830199	MS MH	12.5	2	M	3	32.0	
40	2553		Left Leg	0-back	1.0	2023_Mar_07_1230	1.987360049970448	R	0.0	161.67585499980487	0.563790800049901	MS MH	25.0	2	M	3	32.0	
41	2553		Left Leg	0-back	1.0	2023_Mar_07_1230	1.988735050195828	R	0.0	163.67518889997154	0.6804265999235213	MS MH	37.5	2	M	3	32.0	
42	2553		Left Leg	0-back	1.0	2023_Mar_07_1230	1.9883153499104083	R	0.0	165.67539889994077	0.5500878999009728	MS MH	50.0	2	M	3	32.0	
43	2553		Left Leg	0-back	1.0	2023_Mar_07_1230	1.9893642500974238	R	0.0	167.67490209988318	0.4137289000209421	MS MH	62.5	2	M	3	32.0	
44	2553		Left Leg	0-back	1.0	2023_Mar_07_1230	1.9886927499901503	R	0.0	169.6752782999538	0.43045799992978573	MS MH	75.0	2	M	3	32.0	
45	2553		Left Leg	0-back	1.0	2023_Mar_07_1230	1.988960050046444	R	0.0	171.6751413999591	0.49673320003785193	MS MH	87.5	2	M	3	32.0	
46	2553		Left Leg	0-back	1.0	2023_Mar_07_1230	1.9886059497948736	R	0.0	173.6753560998477	0.49676840007305145	MS MH	100.0	2	M	3	32.0	
47	2553	48.0	Left Leg	ScoreReport		2023_Mar_07_1230	5.004862349713221	R		175.683927499922		MS MH		2	M	3		
48	2553	8	Left Leg	Post-Trial Jitter		2023_Mar_07_1230	8.99859289987944	R		180.74546589981765		MS MH		2	M	3		
49	2553	42	Left Leg	0-back Instruction		2023_Mar_07_1230	5.006468500010669	R		189.76658649998717		MS MH		2	M	3		
50	2553	7	Left Leg	Pre-Trial Jitter		2023_Mar_07_1230	5.002827350050211	R		194.78511539986357		MS MH		2	M	3		
51	2553	44.0	Left Leg	pretrialfixation		2023_Mar_07_1230	1.0111604498233646	R		200.05599019979127		MS MH		2	M	3		
52	2553		Left Leg	0-back	1.0	2023_Mar_07_1230	1.9911099500022829	R	0.0	201.066017099889	0.7132706998381764	MS MH	12.5	2	M	3	32.0	
53	2553		Left Leg	0-back	1.0	2023_Mar_07_1230	1.9875955500174314	R	0.0	203.07613419997506	0.39682030002586544	MS MH	25.0	2	M	3	32.0	
54	2553		Left Leg	0-back	1.0	2023_Mar_07_1230	1.9893670501187444	R	0.0	205.07528639980592	0.597202300094068	MS MH	37.5	2	M	3	32.0	
55	2553		Left Leg	0-back	1.0	2023_Mar_07_1230	1.9893698499072343	R	0.0	207.0752804998774	0.563685999950394	MS MH	50.0	2	M	3	32.0	
56	2553		Left Leg	0-back	1.0	2023_Mar_07_1230	1.9887308499310166	R	0.0	209.07565509993583	0.4471724999602884	MS MH	62.5	2	M	3	32.0	
57	2553		Left Leg	0-back	1.0	2023_Mar_07_1230	1.9890198498032987	R	0.0	211.07552099996246	0.38035320001654327	MS MH	75.0	2	M	3	32.0	
58	2553		Left Leg	0-back	1.0	2023_Mar_07_1230	1.9886180500034243	R	0.0	213.07573709986173	0.4174864001106471	MS MH	87.5	2	M	3	32.0	
59	2553		Left Leg	0-back	1.0	2023_Mar_07_1230	1.9893714499194175	R	0.0	215.07537589990534	0.4174701999872923	MS MH	100.0	2	M	3	32.0	
60	2553	48.0	Left Leg	ScoreReport		2023_Mar_07_1230	5.003464850131422	R		217.08504609996453		MS MH		2	M	3		
61	2553	8	Left Leg	Post-Trial Jitter		2023_Mar_07_1230	7.001480900216848	R		222.14442499983124		MS MH		2	M	3		
62	2553	51	Left Leg	Expectancy		2023_Mar_07_1230	4.998765849741176	R		229.44585669995286	3.317217699950561	MS MH		2	M	3		30.864197530864196
63	2553	44	Left Leg	0-back Instruction		2023_Mar_07_1230	5.00032199989073	R		234.83680479996838		MS MH		2	M	3		
64	2553	7	Left Leg	Pre-Trial Jitter		2023_Mar_07_1230	7.001943150069565	R		239.85269639990292		MS MH		2	M	3		
65	2553	44.0	Left Leg	pretrialfixation		2023_Mar_07_1230	0.9969524499028921	R		247.16357450000942		MS MH		2	M	3		
66	2553		Left Leg	0-back	1.0	2023_Mar_07_1230	1.9892601498868316	R	0.0	248.16743449983187	0.56323799979873	MS MH	12.5	2	M	3	48.5	
67	2553		Left Leg	0-back	1.0	2023_Mar_07_1230	1.9878210499882698	R	0.0	250.17649260000326	0.6137093999423087	MS MH	25.0	2	M	3	48.5	
68	2553		Left Leg	0-back	1.0	2023_Mar_07_1230	1.9883123498875648	R	0.0	252.17632589978166	0.54711510008201	MS MH	37.5	2	M	3	48.5	
69	2553		Left Leg	0-back	1.0	2023_Mar_07_1230	1.988925650017336	R	0.0	254.17598179983906	0.5639176000840962	MS MH	50.0	2	M	3	48.5	
70	2553		Left Leg	0-back	1.0	2023_Mar_07_1230	1.988285050028935	R	0.0	256.1763221998699	0.3804701999761164	MS MH	62.5	2	M	3	48.5	
71	2553		Left Leg	0-back	1.0	2023_Mar_07_1230	1.9887565500102937	R	0.0	258.1761146998033	0.4637817998882383	MS MH	75.0	2	M	3	48.5	
72	2553		Left Leg	0-back	1.0	2023_Mar_07_1230	1.9886499501299113	R	0.0	260.17614199989475	0.43383869994431734	MS MH	87.5	2	M	3	48.5	
73	2553		Left Leg	0-back	1.0	2023_Mar_07_1230	1.98818244994618	R	0.0	262.1764427998569	0.6336640000808984	MS MH	100.0	2	M	3	48.5	
74	2553	48.0	Left Leg	ScoreReport		2023_Mar_07_1230	5.004079649923369	R		264.1851951999124		MS MH		2	M	3		
75	2553	8	Left Leg	Post-Trial Jitter		2023_Mar_07_1230	9.002076799981296	R		269.244594699936		MS MH		2	M	3		
76	2553	20	Left Leg	PainBinary		2023_Mar_07_1230	5.0020940999966115	R		278.2613067999482	1.0003694000188261	MS MH		2	M	3		1.0
77	2553	21	Left Leg	IntensityRating		2023_Mar_07_1230	5.012268500169739	R		283.2812812998891	2.900018900167197	MS MH		2	M	3		36.91358024691358
78	2553	23	Left Leg	DistractBinary		2023_Mar_07_1230	5.004038600018248	R		288.3104743999429	1.1030475001316518	MS MH		2	M	3		1.0
79	2553	9	Left Leg	Post-Q-Jitter		2023_Mar_07_1230	8.994013849878684	R		293.3155701998621		MS MH		2	M	3		
80	2553	51	Left Leg	Expectancy		2023_Mar_07_1230	5.009890950052068	R		302.64103549998254	2.3003789999056607	MS MH		2	M	3		37.407407407407405
81	2553	44	Left Leg	0-back Instruction		2023_Mar_07_1230	5.001891099847853	R		308.0367626999505		MS MH		2	M	3		
82	2553	7	Left Leg	Pre-Trial Jitter		2023_Mar_07_1230	5.001591549953446	R		313.05360609991476		MS MH		2	M	3		
83	2553	44.0	Left Leg	pretrialfixation		2023_Mar_07_1230	1.00511684990488	R		318.3685607998632		MS MH		2	M	3		
84	2553		Left Leg	0-back	0.0	2023_Mar_07_1230	1.9904126499313861	R		319.38423769990914		MS MH	0.0	2	M	3	48.5	
85	2553		Left Leg	0-back	1.0	2023_Mar_07_1230	1.9875768499914557	R	0	321.3940227997955	0.3803664001170546	MS MH	12.5	2	M	3	48.5	
86	2553		Left Leg	0-back	1.0	2023_Mar_07_1230	1.9876501497346908	R	0	323.3939828998409	0.28430800000205636	MS MH	25.0	2	M	3	48.5	
87	2553		Left Leg	0-back	1.0	2023_Mar_07_1230	1.9880475499667227	R	0	325.39380849990994	0.33047339995391667	MS MH	37.5	2	M	3	48.5	
88	2553		Left Leg	0-back	1.0	2023_Mar_07_1230	1.9870618500281125	R	0	327.39432769990526	0.30019319988787174	MS MH	50.0	2	M	3	48.5	
89	2553		Left Leg	0-back	1.0	2023_Mar_07_1230	1.9880551497917622	R	0	329.39387029991485	0.3970983000472188	MS MH	62.5	2	M	3	48.5	
90	2553		Left Leg	0-back	1.0	2023_Mar_07_1230	1.987200350034982	R	0	331.39429669990204	0.3672952000051737	MS MH	75.0	2	M	3	48.5	
91	2553		Left Leg	0-back	1.0	2023_Mar_07_1230	1.9881108498666435	R	0	333.3938747998327	0.3804919000249356	MS MH	87.5	2	M	3	48.5	
92	2553	48.0	Left Leg	ScoreReport		2023_Mar_07_1230	5.011928900144994	R		335.407000699779		MS MH		2	M	3		
93	2553	8	Left Leg	Post-Trial Jitter		2023_Mar_07_1230	9.002430299995467	R		340.46181699982844		MS MH		2	M	3		
94	2553	20	Left Leg	PainBinary		2023_Mar_07_1230	5.001687299693003	R		349.4789260998368	1.4836495998315513	MS MH		2	M	3		1.0
95	2553	21	Left Leg	IntensityRating		2023_Mar_07_1230	5.012009399943054	R		354.4988172999583	2.5833771999459714	MS MH		2	M	3		37.96296296296296
96	2553	23	Left Leg	DistractBinary		2023_Mar_07_1230	5.002666800050065	R		359.52853399980813	0.7856473999563605	MS MH		2	M	3		1.0
97	2553	9	Left Leg	Post-Q-Jitter		2023_Mar_07_1230	8.994661949807778	R		364.53259469987825		MS MH		2	M	3		
98	2553	43	Left Leg	2-back Instruction		2023_Mar_07_1230	5.009179300162941	R		373.5504082997795		MS MH		2	M	3		
99	2553	7	Left Leg	Pre-trial Jitter		2023_Mar_07_1230	5.001274950103834	R		378.5710784997791		MS MH		2	M	3		
100	2553	44.0	Left Leg	pretrialfixation		2023_Mar_07_1230	1.0081054002512246	R		383.83437639987096		MS MH		2	M	3		
101	2553		Left Leg	2-back	1.0	2023_Mar_07_1230	1.9906329498626292	R		384.85145289986394		MS MH	12.5	2	M	3	32.0	
102	2553		Left Leg	2-back	1.0	2023_Mar_07_1230	1.9872226498555392	R		386.861513099866		MS MH	25.0	2	M	3	32.0	
103	2553		Left Leg	2-back	1.0	2023_Mar_07_1230	1.9879489501472563	R	0	388.861165799899	0.4969695000909269	MS MH	37.5	2	M	3	32.0	
104	2553		Left Leg	2-back	1.0	2023_Mar_07_1230	1.9881439502350986	R	2	390.8611209997907	0.5969809000380337	MS MH	50.0	2	M	3	32.0	
105	2553		Left Leg	2-back	1.0	2023_Mar_07_1230	1.9878104501403868	R	2	392.8612838999834	0.6129598000552505	MS MH	62.5	2	M	3	32.0	
106	2553		Left Leg	2-back	1.0	2023_Mar_07_1230	1.9881710500922054	R	2	394.86110929981805	0.7803462999872863	MS MH	75.0	2	M	3	32.0	
107	2553		Left Leg	2-back	0.0	2023_Mar_07_1230	1.9877578502055258	R		396.8612988998648		MS MH	75.0	2	M	3	32.0	
108	2553		Left Leg	2-back	1.0	2023_Mar_07_1230	1.9886121498420835	R	0	398.86093079997227	0.7968301000073552	MS MH	87.5	2	M	3	32.0	
109	2553	48.0	Left Leg	ScoreReport		2023_Mar_07_1230	5.012459999881685	R		400.8740089999046		MS MH		2	M	3		
110	2553	8	Left Leg	Post-trial Jitter		2023_Mar_07_1230	9.008761999895796	R		405.93431599996984		MS MH		2	M	3		
111	2553	43	Left Leg	2-back Instruction		2023_Mar_07_1230	4.9938261997886	R		414.9668436998036		MS MH		2	M	3		
112	2553	7	Left Leg	Pre-trial Jitter		2023_Mar_07_1230	5.001589050050825	R		419.9713397999294		MS MH		2	M	3		
113	2553	44.0	Left Leg	pretrialfixation		2023_Mar_07_1230	1.003250999841839	R		425.23722159978934		MS MH		2	M	3		
114	2553		Left Leg	2-back	1.0	2023_Mar_07_1230	1.9912636501248926	R		426.2515463999007		MS MH	12.5	2	M	3	32.0	
115	2553		Left Leg	2-back	1.0	2023_Mar_07_1230	1.9871789501048625	R		428.26194669981487		MS MH	25.0	2	M	3	32.0	
116	2553		Left Leg	2-back	1.0	2023_Mar_07_1230	1.988186249975115	R	2	430.2614633999765	0.530438199872151	MS MH	37.5	2	M	3	32.0	
117	2553		Left Leg	2-back	1.0	2023_Mar_07_1230	1.9880760500673205	R	2	432.2615168998018	0.646916100056842	MS MH	50.0	2	M	3	32.0	
118	2553		Left Leg	2-back	1.0	2023_Mar_07_1230	1.9881362500600517	R	0	434.2615248998627	0.4506395000498742	MS MH	62.5	2	M	3	32.0	
119	2553		Left Leg	2-back	1.0	2023_Mar_07_1230	1.9874755500350147	R	2	436.26188759994693	0.8967671000864357	MS MH	75.0	2	M	3	32.0	
120	2553		Left Leg	2-back	1.0	2023_Mar_07_1230	1.9878174499608576	R	2	438.26171989995055	0.8471538000740111	MS MH	87.5	2	M	3	32.0	
121	2553		Left Leg	2-back	1.0	2023_Mar_07_1230	1.987481449963525	R	0	440.26191209978424	0.6303795999847353	MS MH	100.0	2	M	3	32.0	
122	2553	48.0	Left Leg	ScoreReport		2023_Mar_07_1230	5.002498950110748	R		442.2711241999641		MS MH		2	M	3		
123	2553	8	Left Leg	Post-trial Jitter		2023_Mar_07_1230	7.0020521997939795	R		447.32974660000764		MS MH		2	M	3		
124	2553	51	Left Leg	Expectancy		2023_Mar_07_1230	5.009313700022176	R		454.65118449996226	3.2835808999370784	MS MH		2	M	3		23.703703703703706
125	2553	45	Left Leg	2-back Instruction		2023_Mar_07_1230	5.007143399678171	R		460.05233089998364		MS MH		2	M	3		
126	2553	7	Left Leg	Pre-trial Jitter		2023_Mar_07_1230	7.003080449998379	R		465.0710537999403		MS MH		2	M	3		
127	2553	44.0	Left Leg	pretrialfixation		2023_Mar_07_1230	1.012682250002399	R		472.3746527999174		MS MH		2	M	3		
128	2553		Left Leg	2-back	1.0	2023_Mar_07_1230	1.990355950081721	R		473.38581609982066		MS MH	12.5	2	M	3	48.5	
129	2553		Left Leg	2-back	1.0	2023_Mar_07_1230	1.9868509501684457	R		475.3959307000041		MS MH	25.0	2	M	3	48.5	
130	2553		Left Leg	2-back	1.0	2023_Mar_07_1230	1.9883450497873127	R	0	477.3952056998387	0.5303833000361919	MS MH	37.5	2	M	3	48.5	
131	2553		Left Leg	2-back	1.0	2023_Mar_07_1230	1.9875313502270728	R	2	479.3956204999704	1.047129699960351	MS MH	50.0	2	M	3	48.5	
132	2553		Left Leg	2-back	1.0	2023_Mar_07_1230	1.9865367501042783	R	2	481.396143599879	0.5672474000602961	MS MH	62.5	2	M	3	48.5	
133	2553		Left Leg	2-back	1.0	2023_Mar_07_1230	1.987473449902609	R	2	483.3957050999161	0.4966986000072211	MS MH	75.0	2	M	3	48.5	
134	2553		Left Leg	2-back	1.0	2023_Mar_07_1230	1.9878262500278652	R	0	485.39553029998206	0.3638168000616133	MS MH	87.5	2	M	3	48.5	
135	2553		Left Leg	2-back	1.0	2023_Mar_07_1230	1.9863525500986725	R	2	487.3962858999148	0.6669091999065131	MS MH	100.0	2	M	3	48.5	
136	2553	48.0	Left Leg	ScoreReport		2023_Mar_07_1230	5.001710850046948	R		489.4053146999795		MS MH		2	M	3		
137	2553	8	Left Leg	Post-trial Jitter		2023_Mar_07_1230	8.996389899868518	R		494.46638019988313		MS MH		2	M	3		
138	2553	20	Left Leg	PainBinary		2023_Mar_07_1230	5.000685699749738	R		503.4809700998012	1.7169629998970777	MS MH		2	M	3		1.0
139	2553	21	Left Leg	IntensityRating		2023_Mar_07_1230	5.011114399880171	R		508.5008125999011	2.0833666999824345	MS MH		2	M	3		28.641975308641975
140	2553	23	Left Leg	DistractBinary		2023_Mar_07_1230	5.002073799725622	R		513.5303824997973	2.183656900189817	MS MH		2	M	3		1.0
141	2553	9	Left Leg	Post-Q-Jitter		2023_Mar_07_1230	8.995295850094408	R		518.5338280999567		MS MH		2	M	3		
142	2553	51	Left Leg	Expectancy		2023_Mar_07_1230	5.005365199642256	R		528.6872860998847	2.7502802999224514	MS MH		2	M	3		34.135802469135804
143	2553	45	Left Leg	2-back Instruction		2023_Mar_07_1230	5.0063438499346375	R		534.0951413998846		MS MH		2	M	3		
144	2553	7	Left Leg	Pre-trial Jitter		2023_Mar_07_1230	5.002060749800876	R		539.1056446998846		MS MH		2	M	3		
145	2553	44.0	Left Leg	pretrialfixation		2023_Mar_07_1230	1.0037865997292101	R		544.4048220999539		MS MH		2	M	3		
146	2553		Left Leg	2-back	1.0	2023_Mar_07_1230	1.989658450242132	R		545.4202147999313		MS MH	12.5	2	M	3	48.5	
147	2553		Left Leg	2-back	1.0	2023_Mar_07_1230	1.987536549801007	R		547.4296491998248		MS MH	25.0	2	M	3	48.5	
148	2553		Left Leg	2-back	1.0	2023_Mar_07_1230	1.9883639498148113	R	2	549.4292541998439	0.5471002999693155	MS MH	37.5	2	M	3	48.5	
149	2553		Left Leg	2-back	1.0	2023_Mar_07_1230	1.9869495499879122	R	2	551.4299819997977	0.500238100066781	MS MH	50.0	2	M	3	48.5	
150	2553		Left Leg	2-back	1.0	2023_Mar_07_1230	1.9879190500359982	R	0	553.4295123999473	0.36379739991389215	MS MH	62.5	2	M	3	48.5	
151	2553		Left Leg	2-back	1.0	2023_Mar_07_1230	1.9872241497505456	R	0	555.4298729998991	0.5471443999558687	MS MH	75.0	2	M	3	48.5	
152	2553		Left Leg	2-back	1.0	2023_Mar_07_1230	1.9881094498559833	R	2	557.4294470997993	0.5471133000683039	MS MH	87.5	2	M	3	48.5	
153	2553		Left Leg	2-back	1.0	2023_Mar_07_1230	1.987925549969077	R	2	559.429596300004	0.6136858998797834	MS MH	100.0	2	M	3	48.5	
154	2553	48.0	Left Leg	ScoreReport		2023_Mar_07_1230	5.001234650146216	R		561.4396049999632		MS MH		2	M	3		
155	2553	8	Left Leg	Post-trial Jitter		2023_Mar_07_1230	9.00246539991349	R		566.4973945999518		MS MH		2	M	3		
156	2553	20	Left Leg	PainBinary		2023_Mar_07_1230	5.001565100159496	R		575.5145908999257	1.2669530999846756	MS MH		2	M	3		1.0
157	2553	21	Left Leg	IntensityRating		2023_Mar_07_1230	5.012144000036642	R		580.534352599876	2.9167015999555588	MS MH		2	M	3		33.086419753086425
158	2553	23	Left Leg	DistractBinary		2023_Mar_07_1230	5.002672700211406	R		585.5641420998145	2.0337002999149263	MS MH		2	M	3		1.0
159	2553	9	Left Leg	Post-Q-Jitter		2023_Mar_07_1230	9.01001274981536	R		590.568878499791		MS MH		2	M	3		
160	2553	51	Left Leg	Expectancy		2023_Mar_07_1230	5.00310575007461	R		599.8807429999579	4.1503272000700235	MS MH		2	M	3		37.71604938271605
161	2553	44	Left Leg	0-back Instruction		2023_Mar_07_1230	5.001005699858069	R		605.2735130998772		MS MH		2	M	3		
162	2553	7	Left Leg	Pre-Trial Jitter		2023_Mar_07_1230	5.002439449774101	R		610.289523099782		MS MH		2	M	3		
163	2553	44.0	Left Leg	pretrialfixation		2023_Mar_07_1230	1.0055382498539984	R		615.6046884998213		MS MH		2	M	3		
164	2553		Left Leg	0-back	1.0	2023_Mar_07_1230	1.9891995498910546	R	0.0	616.6211807997897	0.796529300045222	MS MH	12.5	2	M	3	48.5	
165	2553		Left Leg	0-back	1.0	2023_Mar_07_1230	1.9882647499907762	R	0.0	618.6299944999628	0.5007694999221712	MS MH	25.0	2	M	3	48.5	
166	2553		Left Leg	0-back	1.0	2023_Mar_07_1230	1.9890593499876559	R	0.0	620.629611399956	0.41382679995149374	MS MH	37.5	2	M	3	48.5	
167	2553		Left Leg	0-back	1.0	2023_Mar_07_1230	1.9891942499671131	R	0.0	622.6295795999467	0.4800846998114139	MS MH	50.0	2	M	3	48.5	
168	2553		Left Leg	0-back	1.0	2023_Mar_07_1230	1.9888850497081876	R	0.0	624.6297435997985	0.313674199860543	MS MH	62.5	2	M	3	48.5	
169	2553		Left Leg	0-back	1.0	2023_Mar_07_1230	1.9893899497110397	R	0.0	626.6295100999996	0.446884699864313	MS MH	75.0	2	M	3	48.5	
170	2553		Left Leg	0-back	1.0	2023_Mar_07_1230	1.9893566500395536	R	0.0	628.6295473999344	0.563837599940598	MS MH	87.5	2	M	3	48.5	
171	2553		Left Leg	0-back	1.0	2023_Mar_07_1230	1.9891182500869036	R	0.0	630.629693799885	0.550469399895519	MS MH	100.0	2	M	3	48.5	
172	2553	48.0	Left Leg	ScoreReport		2023_Mar_07_1230	5.005087150027975	R		632.6384049998596		MS MH		2	M	3		
173	2553	8	Left Leg	Post-Trial Jitter		2023_Mar_07_1230	5.002105399733409	R		637.6982842998113		MS MH		2	M	3		
174	2553	20	Left Leg	PainBinary		2023_Mar_07_1230	5.0013569998554885	R		642.715381299844	0.966969900066033	MS MH		2	M	3		1.0
175	2553	21	Left Leg	IntensityRating		2023_Mar_07_1230	5.010814300272614	R		647.7356992999557	2.23349849996157	MS MH		2	M	3		36.04938271604938
176	2553	23	Left Leg	DistractBinary		2023_Mar_07_1230	5.003123000031337	R		652.7646106998436	2.5337495000567287	MS MH		2	M	3		1.0
177	2553	9	Left Leg	Post-Q-Jitter		2023_Mar_07_1230	5.009398850146681	R		657.769846299896		MS MH		2	M	3		
178	2553	51	Left Leg	Expectancy		2023_Mar_07_1230	5.005645949859172	R		663.088479799917	2.333208000054583	MS MH		2	M	3		38.45679012345679
179	2553	44	Left Leg	0-back Instruction		2023_Mar_07_1230	5.014316949993372	R		668.4925374998711		MS MH		2	M	3		
180	2553	7	Left Leg	Pre-Trial Jitter		2023_Mar_07_1230	9.002879150211811	R		673.5066167998593		MS MH		2	M	3		
181	2553	44.0	Left Leg	pretrialfixation		2023_Mar_07_1230	1.0043223998509347	R		682.8309750999324		MS MH		2	M	3		
182	2553		Left Leg	0-back	1.0	2023_Mar_07_1230	1.9887526498641819	R	0.0	683.8387473998591	0.8298363001085818	MS MH	12.5	2	M	3	48.5	
183	2553		Left Leg	0-back	1.0	2023_Mar_07_1230	1.9882300498429686	R	0.0	685.8473711998668	0.38024760014377534	MS MH	25.0	2	M	3	48.5	
184	2553		Left Leg	0-back	1.0	2023_Mar_07_1230	1.9892970500513911	R	0.0	687.8468499998562	0.33055500010959804	MS MH	37.5	2	M	3	48.5	
185	2553		Left Leg	0-back	1.0	2023_Mar_07_1230	1.9887367498595268	R	0.0	689.8471424998716	0.44700890011154115	MS MH	50.0	2	M	3	48.5	
186	2553		Left Leg	0-back	1.0	2023_Mar_07_1230	1.9888732500839978	R	0.0	691.8470658999868	0.534542900044471	MS MH	62.5	2	M	3	48.5	
187	2553		Left Leg	0-back	1.0	2023_Mar_07_1230	1.9890517499297857	R	0.0	693.8470439999364	0.36360540008172393	MS MH	75.0	2	M	3	48.5	
188	2553		Left Leg	0-back	1.0	2023_Mar_07_1230	1.9891761499457061	R	0.0	695.8470199999865	0.5137477999087423	MS MH	87.5	2	M	3	48.5	
189	2553		Left Leg	0-back	1.0	2023_Mar_07_1230	1.9891671501100063	R	0.0	697.8470301998314	0.6971155002247542	MS MH	100.0	2	M	3	48.5	
190	2553	48.0	Left Leg	ScoreReport		2023_Mar_07_1230	5.004561749985442	R		699.8560391999781		MS MH		2	M	3		
191	2553	8	Left Leg	Post-Trial Jitter		2023_Mar_07_1230	8.99553529988043	R		704.9189308998175		MS MH		2	M	3		
192	2553	20	Left Leg	PainBinary		2023_Mar_07_1230	5.001307799946517	R		713.9327969998121	1.3355097998864949	MS MH		2	M	3		1.0
193	2553	21	Left Leg	IntensityRating		2023_Mar_07_1230	5.012862400151789	R		718.9520763999317	3.602720499970019	MS MH		2	M	3		34.50617283950617
194	2553	23	Left Leg	DistractBinary		2023_Mar_07_1230	5.0028491001576185	R		723.9821195998229	1.8669900000095367	MS MH		2	M	3		1.0
195	2553	9	Left Leg	Post-Q-Jitter		2023_Mar_07_1230	9.009024949977174	R		728.9874179000035		MS MH		2	M	3		
196	2553	26	Left Leg	ComfortRating		2023_Mar_07_1230	3.0292543997056782	R		738.0190927998628	3.0000700999516994	MS MH		2	M	3		7.407407407407419
197	2553	24	Left Leg	ValenceRating		2023_Mar_07_1230	2.97357299993746	R		741.0719656997826	2.9500311000738293	MS MH		2	M	3		57.098765432098766
198	2553	26	Left Leg	IntensityRating		2023_Mar_07_1230	2.747170699760318	R		744.0685443999246	2.73417460010387	MS MH		2	M	3		64.07407407407408
199	2553	27	Left Leg	AvoidanceRating		2023_Mar_07_1230	2.2939096996560693	R		746.8368689999916	2.2666708999313414	MS MH		2	M	3		5.185185185185176
200	2553	28	Left Leg	RelaxationRating		2023_Mar_07_1230	2.3164899998810142	R		749.1505863999482	2.3003173999022692	MS MH		2	M	3		52.28395061728395
201	2553	29	Left Leg	AttentionRating		2023_Mar_07_1230	1.7100357001181692	R		751.4871688999701	1.6833679999690503	MS MH		2	M	3		52.22222222222223
202	2553	30	Left Leg	BoredomRating		2023_Mar_07_1230	2.462816899875179	R		753.2191618999932	2.433425599941984	MS MH		2	M	3		52.59259259259259
203	2553	31	Left Leg	AlertnessRating		2023_Mar_07_1230	2.531939399894327	R		755.7012751998845	2.5171532998792827	MS MH		2	M	3		5.432098765432087
204	2553	32	Left Leg	PosThxRating		2023_Mar_07_1230	2.0303563000634313	R		758.2520972997881	2.0000369001645595	MS MH		2	M	3		-4.8148148148148096
205	2553	33	Left Leg	NegThxRating		2023_Mar_07_1230	2.180040700128302	R		760.3022781999316	2.150040900101885	MS MH		2	M	3		5.432098765432087
206	2553	34	Left Leg	SelfRating		2023_Mar_07_1230	2.530140799935907	R		762.5022316998802	2.500036799814552	MS MH		2	M	3		4.567901234567898
207	2553	35	Left Leg	OtherRating		2023_Mar_07_1230	1.5154983999673277	R		765.0512378998101	1.50030260020867	MS MH		2	M	3		-8.024691358024697
208	2553	32	Left Leg	ImageryRating		2023_Mar_07_1230	1.559785099932924	R		766.5874460998457	1.5333420999813825	MS MH		2	M	3		-5.679012345679013
209	2553	37	Left Leg	PresentRating		2023_Mar_07_1230	2.2216503999661654	R		768.1731806998141	2.2000079001300037	MS MH		2	M	3		9.012345679012341
