runSeq,trial_type,runLoop.thisRepN,runLoop.thisTrialN,runLoop.thisN,runLoop.thisIndex,trials.thisRepN,trials.thisTrialN,trials.thisN,trials.thisIndex,Begin.started,Begin.stopped,BeginTask.keys,BeginTask.rt,BeginTask.started,BeginTask.stopped,BodySiteInstructionText.started,BodySiteImg.started,BodySiteImg.stopped,BodySiteInstructionRead.keys,BodySiteInstructionRead.rt,BodySiteInstructionRead.started,BodySiteInstructionRead.stopped,ImagineInstructionText.started,ImaginationInstructionRead.keys,ImaginationInstructionRead.rt,ImaginationInstructionRead.started,ImaginationInstructionRead.stopped,BodySiteCue.started,BodySiteCue.stopped,NonStimTrialText.started,NonStimTrialText.stopped,fix_cross.started,fix_cross.stopped,ValenceRating.response,ValenceRating.rt,ValenceRating.started,ValenceRating.stopped,IntensityRating.response,IntensityRating.rt,IntensityRating.started,IntensityRating.stopped,ComfortRating.response,ComfortRating.rt,ComfortRating.started,ComfortRating.stopped,EndingText.started,EndingText.stopped,ConfirmEnd.keys,ConfirmEnd.rt,ConfirmEnd.started,ConfirmEnd.stopped,subject number,gender,bodymap first- or second-half (1 or 2),session,handedness,scanner,date,psychopyVersion,expName,frameRate,body_site_order,
,,,,,,,,,,66.53128460003063,None,space,3.5565774000715464,66.53128460003063,None,,,,,,,,,,,,,,,,,,,,,,,,,,,,,,,,,,,,,1001,f,1,1,r,CJM,2021_Jul_28_1405,2020.2.5,bodymapST1,60.03330650842134,"['Abdomen', 'Left Leg', 'Right Leg', 'Right Face']",
stimuli/orders/stimOrder3.xlsx,3,0,0,0,1,0,0,0,0,,,,,,,70.23463000007905,70.23463000007905,None,space,1018.2695774999447,70.23463000007905,None,1088.5256294000428,space,91.93076030001976,1088.5256294000428,None,1212.8934889999218,1214.893199000042,1212.8934889999218,1214.893199000042,1214.8598682000302,None,,,,,,,,,,,,,,,,,,,1001,f,1,1,r,CJM,2021_Jul_28_1405,2020.2.5,bodymapST1,60.03330650842134,"['Abdomen', 'Left Leg', 'Right Leg', 'Right Face']",
stimuli/orders/stimOrder3.xlsx,3,0,0,0,1,0,2,2,2,,,,,,,,,,,,,,,,,,,1238.8604188000318,1240.8603815999813,1238.8604188000318,1240.8603815999813,1240.8434123999905,1238.8604188000318,,,,,,,,,,,,,,,,,,,1001,f,1,1,r,CJM,2021_Jul_28_1405,2020.2.5,bodymapST1,60.03330650842134,"['Abdomen', 'Left Leg', 'Right Leg', 'Right Face']",
stimuli/orders/stimOrder3.xlsx,3,0,0,0,1,0,7,7,7,,,,,,,,,,,,,,,,,,,1303.8439239000436,1305.8442132000346,1303.8439239000436,1305.8442132000346,1305.8272339999676,1303.8439239000436,,,,,,,,,,,,,,,,,,,1001,f,1,1,r,CJM,2021_Jul_28_1405,2020.2.5,bodymapST1,60.03330650842134,"['Abdomen', 'Left Leg', 'Right Leg', 'Right Face']",
stimuli/orders/stimOrder3.xlsx,3,0,0,0,1,0,11,11,11,,,,,,,,,,,,,,,,,,,1355.8280549000483,1357.8279653999489,1355.8280549000483,1357.8279653999489,1357.8109685999807,1355.8280549000483,,,,,,,,,,,,,,,,,,,1001,f,1,1,r,CJM,2021_Jul_28_1405,2020.2.5,bodymapST1,60.03330650842134,"['Abdomen', 'Left Leg', 'Right Leg', 'Right Face']",
stimuli/orders/stimOrder3.xlsx,3,0,0,0,1,0,13,13,13,,,,,,,,,,,,,,,,,,,1381.8115580999292,1383.8114734999835,1381.8115580999292,1383.8114734999835,1383.7945157999638,1381.8115580999292,,,,,,,,,,,,,,,,,,,1001,f,1,1,r,CJM,2021_Jul_28_1405,2020.2.5,bodymapST1,60.03330650842134,"['Abdomen', 'Left Leg', 'Right Leg', 'Right Face']",
stimuli/orders/stimOrder3.xlsx,3,0,0,0,1,0,16,16,16,,,,,,,,,,,,,,,,,,,1420.795210100012,1422.7951557999477,1420.795210100012,1422.7951557999477,1422.7781458999962,1420.795210100012,,,,,,,,,,,,,,,,,,,1001,f,1,1,r,CJM,2021_Jul_28_1405,2020.2.5,bodymapST1,60.03330650842134,"['Abdomen', 'Left Leg', 'Right Leg', 'Right Face']",
stimuli/orders/stimOrder3.xlsx,3,0,0,0,1,0,20,20,20,,,,,,,,,,,,,,,,,,,1472.7789441000205,1474.7788539999165,1472.7789441000205,1474.7788539999165,1474.761902099941,1472.7789441000205,,,,,,,,,,,,,,,,,,,1001,f,1,1,r,CJM,2021_Jul_28_1405,2020.2.5,bodymapST1,60.03330650842134,"['Abdomen', 'Left Leg', 'Right Leg', 'Right Face']",
stimuli/orders/stimOrder3.xlsx,3,0,0,0,1,0,25,25,25,,,,,,,,,,,,,,,,,,,1537.762747199973,1539.7626839999575,1537.762747199973,1539.7626839999575,1539.7457212000154,1537.762747199973,,,,,,,,,,,,,,,,,,,1001,f,1,1,r,CJM,2021_Jul_28_1405,2020.2.5,bodymapST1,60.03330650842134,"['Abdomen', 'Left Leg', 'Right Leg', 'Right Face']",
stimuli/orders/stimOrder3.xlsx,3,0,0,0,1,0,31,31,31,,,,,,,,,,,,,,,,,,,1615.7464954000898,1617.7466128000524,1615.7464954000898,1617.7466128000524,1617.7296547000296,1615.7464954000898,,,,,,,,,,,,,,,,,,,1001,f,1,1,r,CJM,2021_Jul_28_1405,2020.2.5,bodymapST1,60.03330650842134,"['Abdomen', 'Left Leg', 'Right Leg', 'Right Face']",
stimuli/orders/stimOrder3.xlsx,3,0,0,0,1,0,33,33,33,,,,,,,,,,,,,,,,,,,1641.7301654000767,1643.7301229001023,1641.7301654000767,1643.7301229001023,1643.7131894999184,1641.7301654000767,,,,,,,,,,,,,,,,,,,1001,f,1,1,r,CJM,2021_Jul_28_1405,2020.2.5,bodymapST1,60.03330650842134,"['Abdomen', 'Left Leg', 'Right Leg', 'Right Face']",
stimuli/orders/stimOrder3.xlsx,3,0,0,0,1,0,34,34,34,,,,,,,,,,,,,,,,,,,1654.714481800096,1656.7298473000992,1654.714481800096,1656.7298473000992,1656.696725399932,1654.714481800096,,,,,,,,,,,,,,,,,,,1001,f,1,1,r,CJM,2021_Jul_28_1405,2020.2.5,bodymapST1,60.03330650842134,"['Abdomen', 'Left Leg', 'Right Leg', 'Right Face']",
stimuli/orders/stimOrder3.xlsx,3,0,0,0,1,0,39,39,39,,,,,,,,,,,,,,,,,,,1719.6974390998948,1721.69742579991,1719.6974390998948,1721.69742579991,1721.6804798000958,1719.6974390998948,,,,,,,,,,,,,,,,,,,1001,f,1,1,r,CJM,2021_Jul_28_1405,2020.2.5,bodymapST1,60.03330650842134,"['Abdomen', 'Left Leg', 'Right Leg', 'Right Face']",
stimuli/orders/stimOrder3.xlsx,,0,0,0,1,,,,,,,,,,,,,,,,,,,,,,,,,,,,,-15.802469135802468,1737.2143738996238,,,,,,,,,,,,,,,,,1001,f,1,1,r,CJM,2021_Jul_28_1405,2020.2.5,bodymapST1,60.03330650842134,"['Abdomen', 'Left Leg', 'Right Leg', 'Right Face']",
stimuli/orders/stimOrder3.xlsx,,0,0,0,1,,,,,,,,,,,,,,,,,,,,,,,,,,,,,,,0.01081790030002594,None,39.38271604938272,1741.194785400061,,,,,,,,,,,,,1001,f,1,1,r,CJM,2021_Jul_28_1405,2020.2.5,bodymapST1,60.03330650842134,"['Abdomen', 'Left Leg', 'Right Leg', 'Right Face']",
stimuli/orders/stimOrder3.xlsx,,0,0,0,1,,,,,,,,,,,,,,,,,,,,,,,,,,,,,,,,,,,0.013742699986323714,None,43.51851851851852,1745.494582499843,,,,,,,,,1001,f,1,1,r,CJM,2021_Jul_28_1405,2020.2.5,bodymapST1,60.03330650842134,"['Abdomen', 'Left Leg', 'Right Leg', 'Right Face']",
stimuli/orders/stimOrder7.xlsx,3,0,1,1,3,0,4,4,4,,,,,,,1750.947632299969,1750.947632299969,None,space,155.7011261000298,1750.947632299969,None,,,,,,1993.6325109000318,1995.6329588000663,1993.6325109000318,1995.6329588000663,1995.6159192998894,1993.6325109000318,,,,,,,,,,,0.01402090024203062,None,,,,,,,1001,f,1,1,r,CJM,2021_Jul_28_1405,2020.2.5,bodymapST1,60.03330650842134,"['Abdomen', 'Left Leg', 'Right Leg', 'Right Face']",
stimuli/orders/stimOrder7.xlsx,3,0,1,1,3,0,6,6,6,,,,,,,,,,,,,,,,,,,2019.6164981001057,2021.6161197999027,2019.6164981001057,2021.6161197999027,2021.5994686998893,2019.6164981001057,,,,,,,,,,,,,,,,,,,1001,f,1,1,r,CJM,2021_Jul_28_1405,2020.2.5,bodymapST1,60.03330650842134,"['Abdomen', 'Left Leg', 'Right Leg', 'Right Face']",
stimuli/orders/stimOrder7.xlsx,3,0,1,1,3,0,11,11,11,,,,,,,,,,,,,,,,,,,2084.600327299908,2086.5999517000746,2084.600327299908,2086.5999517000746,2086.5833125999197,2084.600327299908,,,,,,,,,,,,,,,,,,,1001,f,1,1,r,CJM,2021_Jul_28_1405,2020.2.5,bodymapST1,60.03330650842134,"['Abdomen', 'Left Leg', 'Right Leg', 'Right Face']",
stimuli/orders/stimOrder7.xlsx,3,0,1,1,3,0,19,19,19,,,,,,,,,,,,,,,,,,,2188.5844491000753,2190.584092899924,2188.5844491000753,2190.584092899924,2190.5674521001056,2188.5844491000753,,,,,,,,,,,,,,,,,,,1001,f,1,1,r,CJM,2021_Jul_28_1405,2020.2.5,bodymapST1,60.03330650842134,"['Abdomen', 'Left Leg', 'Right Leg', 'Right Face']",
stimuli/orders/stimOrder7.xlsx,3,0,1,1,3,0,20,20,20,,,,,,,,,,,,,,,,,,,2201.5675474999007,2203.5675510000437,2201.5675474999007,2203.5675510000437,2203.550749700051,2201.5675474999007,,,,,,,,,,,,,,,,,,,1001,f,1,1,r,CJM,2021_Jul_28_1405,2020.2.5,bodymapST1,60.03330650842134,"['Abdomen', 'Left Leg', 'Right Leg', 'Right Face']",
stimuli/orders/stimOrder7.xlsx,3,0,1,1,3,0,22,22,22,,,,,,,,,,,,,,,,,,,2227.5514312000014,2229.5510491000023,2227.5514312000014,2229.5510491000023,2229.534423599951,2227.5514312000014,,,,,,,,,,,,,,,,,,,1001,f,1,1,r,CJM,2021_Jul_28_1405,2020.2.5,bodymapST1,60.03330650842134,"['Abdomen', 'Left Leg', 'Right Leg', 'Right Face']",
stimuli/orders/stimOrder7.xlsx,3,0,1,1,3,0,23,23,23,,,,,,,,,,,,,,,,,,,2240.534484700067,2242.5344875999726,2240.534484700067,2242.5344875999726,2242.517847900046,2240.534484700067,,,,,,,,,,,,,,,,,,,1001,f,1,1,r,CJM,2021_Jul_28_1405,2020.2.5,bodymapST1,60.03330650842134,"['Abdomen', 'Left Leg', 'Right Leg', 'Right Face']",
stimuli/orders/stimOrder7.xlsx,3,0,1,1,3,0,29,29,29,,,,,,,,,,,,,,,,,,,2318.518830300076,2320.518445099937,2318.518830300076,2320.518445099937,2320.5017901998945,2318.518830300076,,,,,,,,,,,,,,,,,,,1001,f,1,1,r,CJM,2021_Jul_28_1405,2020.2.5,bodymapST1,60.03330650842134,"['Abdomen', 'Left Leg', 'Right Leg', 'Right Face']",
stimuli/orders/stimOrder7.xlsx,3,0,1,1,3,0,30,30,30,,,,,,,,,,,,,,,,,,,2331.501872099936,2333.5018805998843,2331.501872099936,2333.5018805998843,2333.485231400002,2331.501872099936,,,,,,,,,,,,,,,,,,,1001,f,1,1,r,CJM,2021_Jul_28_1405,2020.2.5,bodymapST1,60.03330650842134,"['Abdomen', 'Left Leg', 'Right Leg', 'Right Face']",
stimuli/orders/stimOrder7.xlsx,3,0,1,1,3,0,34,34,34,,,,,,,,,,,,,,,,,,,2383.4859720999375,2385.485617700033,2383.4859720999375,2385.485617700033,2385.46894959989,2383.4859720999375,,,,,,,,,,,,,,,,,,,1001,f,1,1,r,CJM,2021_Jul_28_1405,2020.2.5,bodymapST1,60.03330650842134,"['Abdomen', 'Left Leg', 'Right Leg', 'Right Face']",
stimuli/orders/stimOrder7.xlsx,3,0,1,1,3,0,36,36,36,,,,,,,,,,,,,,,,,,,2409.469516800018,2411.469159600092,2409.469516800018,2411.469159600092,2411.452487899922,2409.469516800018,,,,,,,,,,,,,,,,,,,1001,f,1,1,r,CJM,2021_Jul_28_1405,2020.2.5,bodymapST1,60.03330650842134,"['Abdomen', 'Left Leg', 'Right Leg', 'Right Face']",
stimuli/orders/stimOrder7.xlsx,3,0,1,1,3,0,37,37,37,,,,,,,,,,,,,,,,,,,2422.4525931000244,2424.4525838999543,2422.4525931000244,2424.4525838999543,2424.4359297000337,2422.4525931000244,,,,,,,,,,,,,,,,,,,1001,f,1,1,r,CJM,2021_Jul_28_1405,2020.2.5,bodymapST1,60.03330650842134,"['Abdomen', 'Left Leg', 'Right Leg', 'Right Face']",
stimuli/orders/stimOrder7.xlsx,,0,1,1,3,,,,,,,,,,,,,,,,,,,,,,,,,,,2448.436104899971,2448.436104899971,-26.41975308641976,2464.583980599884,,,,,,,,,,,,,,,,,1001,f,1,1,r,CJM,2021_Jul_28_1405,2020.2.5,bodymapST1,60.03330650842134,"['Abdomen', 'Left Leg', 'Right Leg', 'Right Face']",
stimuli/orders/stimOrder7.xlsx,,0,1,1,3,,,,,,,,,,,,,,,,,,,,,,,,,,,,,,,0.013539700070396066,None,38.2716049382716,2468.8334336001426,,,,,,,,,,,,,1001,f,1,1,r,CJM,2021_Jul_28_1405,2020.2.5,bodymapST1,60.03330650842134,"['Abdomen', 'Left Leg', 'Right Leg', 'Right Face']",
stimuli/orders/stimOrder7.xlsx,,0,1,1,3,,,,,,,,,,,,,,,,,,,,,,,,,,,,,,,,,,,0.01408969983458519,None,42.160493827160494,2473.651244000066,,,,,,,,,1001,f,1,1,r,CJM,2021_Jul_28_1405,2020.2.5,bodymapST1,60.03330650842134,"['Abdomen', 'Left Leg', 'Right Leg', 'Right Face']",
stimuli/orders/stimOrder5.xlsx,3,0,2,2,2,0,0,0,0,,,,,,,2479.5363632000517,2479.5363632000517,None,space,163.92878900002688,2479.5363632000517,None,,,,,,2657.9381375999656,2659.9377494000364,2657.9381375999656,2659.9377494000364,2659.9211095001083,None,,,,,,,,,,,0.012989999959245324,None,,,,,,,1001,f,1,1,r,CJM,2021_Jul_28_1405,2020.2.5,bodymapST1,60.03330650842134,"['Abdomen', 'Left Leg', 'Right Leg', 'Right Face']",
stimuli/orders/stimOrder5.xlsx,3,0,2,2,2,0,5,5,5,,,,,,,,,,,,,,,,,,,2722.921974299941,2724.92166360002,2722.921974299941,2724.92166360002,2724.9049515998922,2722.921974299941,,,,,,,,,,,,,,,,,,,1001,f,1,1,r,CJM,2021_Jul_28_1405,2020.2.5,bodymapST1,60.03330650842134,"['Abdomen', 'Left Leg', 'Right Leg', 'Right Face']",
stimuli/orders/stimOrder5.xlsx,3,0,2,2,2,0,8,8,8,,,,,,,,,,,,,,,,,,,2761.9056021000724,2763.9052536999807,2761.9056021000724,2763.9052536999807,2763.8885917000007,2761.9056021000724,,,,,,,,,,,,,,,,,,,1001,f,1,1,r,CJM,2021_Jul_28_1405,2020.2.5,bodymapST1,60.03330650842134,"['Abdomen', 'Left Leg', 'Right Leg', 'Right Face']",
stimuli/orders/stimOrder5.xlsx,3,0,2,2,2,0,10,10,10,,,,,,,,,,,,,,,,,,,2787.8891525999643,2789.889017299982,2787.8891525999643,2789.889017299982,2789.8721249999944,2787.8891525999643,,,,,,,,,,,,,,,,,,,1001,f,1,1,r,CJM,2021_Jul_28_1405,2020.2.5,bodymapST1,60.03330650842134,"['Abdomen', 'Left Leg', 'Right Leg', 'Right Face']",
stimuli/orders/stimOrder5.xlsx,3,0,2,2,2,0,12,12,12,,,,,,,,,,,,,,,,,,,2813.872671799967,2815.8723104998935,2813.872671799967,2815.8723104998935,2815.8556766998954,2813.872671799967,,,,,,,,,,,,,,,,,,,1001,f,1,1,r,CJM,2021_Jul_28_1405,2020.2.5,bodymapST1,60.03330650842134,"['Abdomen', 'Left Leg', 'Right Leg', 'Right Face']",
stimuli/orders/stimOrder5.xlsx,3,0,2,2,2,0,14,14,14,,,,,,,,,,,,,,,,,,,2839.856220799964,2841.855846100021,2839.856220799964,2841.855846100021,2841.8391932998784,2839.856220799964,,,,,,,,,,,,,,,,,,,1001,f,1,1,r,CJM,2021_Jul_28_1405,2020.2.5,bodymapST1,60.03330650842134,"['Abdomen', 'Left Leg', 'Right Leg', 'Right Face']",
stimuli/orders/stimOrder5.xlsx,3,0,2,2,2,0,20,20,20,,,,,,,,,,,,,,,,,,,2917.8401776999235,2919.8401816000696,2917.8401776999235,2919.8401816000696,2919.8231428000145,2917.8401776999235,,,,,,,,,,,,,,,,,,,1001,f,1,1,r,CJM,2021_Jul_28_1405,2020.2.5,bodymapST1,60.03330650842134,"['Abdomen', 'Left Leg', 'Right Leg', 'Right Face']",
stimuli/orders/stimOrder5.xlsx,3,0,2,2,2,0,26,26,26,,,,,,,,,,,,,,,,,,,2995.8241141999606,2997.8237513001077,2995.8241141999606,2997.8237513001077,2997.8070807999466,2995.8241141999606,,,,,,,,,,,,,,,,,,,1001,f,1,1,r,CJM,2021_Jul_28_1405,2020.2.5,bodymapST1,60.03330650842134,"['Abdomen', 'Left Leg', 'Right Leg', 'Right Face']",
stimuli/orders/stimOrder5.xlsx,3,0,2,2,2,0,28,28,28,,,,,,,,,,,,,,,,,,,3021.807652299991,3023.807291199919,3021.807652299991,3023.807291199919,3023.79063459998,3021.807652299991,,,,,,,,,,,,,,,,,,,1001,f,1,1,r,CJM,2021_Jul_28_1405,2020.2.5,bodymapST1,60.03330650842134,"['Abdomen', 'Left Leg', 'Right Leg', 'Right Face']",
stimuli/orders/stimOrder5.xlsx,3,0,2,2,2,0,29,29,29,,,,,,,,,,,,,,,,,,,3034.790721599944,3036.7910982000176,3034.790721599944,3036.7910982000176,3036.7740617999807,3034.790721599944,,,,,,,,,,,,,,,,,,,1001,f,1,1,r,CJM,2021_Jul_28_1405,2020.2.5,bodymapST1,60.03330650842134,"['Abdomen', 'Left Leg', 'Right Leg', 'Right Face']",
stimuli/orders/stimOrder5.xlsx,3,0,2,2,2,0,36,36,36,,,,,,,,,,,,,,,,,,,3125.7751468000934,3127.7747718999162,3125.7751468000934,3127.7747718999162,3127.758095999947,3125.7751468000934,,,,,,,,,,,,,,,,,,,1001,f,1,1,r,CJM,2021_Jul_28_1405,2020.2.5,bodymapST1,60.03330650842134,"['Abdomen', 'Left Leg', 'Right Leg', 'Right Face']",
stimuli/orders/stimOrder5.xlsx,3,0,2,2,2,0,39,39,39,,,,,,,,,,,,,,,,,,,3164.758759799879,3166.7584214000963,3164.758759799879,3166.7584214000963,3166.7417647999246,3164.758759799879,,,,,,,,,,,,,,,,,,,1001,f,1,1,r,CJM,2021_Jul_28_1405,2020.2.5,bodymapST1,60.03330650842134,"['Abdomen', 'Left Leg', 'Right Leg', 'Right Face']",
stimuli/orders/stimOrder5.xlsx,,0,2,2,2,,,,,,,,,,,,,,,,,,,,,,,,,,,,,-21.975308641975303,3178.0734185001347,,,,,,,,,,,,,,,,,1001,f,1,1,r,CJM,2021_Jul_28_1405,2020.2.5,bodymapST1,60.03330650842134,"['Abdomen', 'Left Leg', 'Right Leg', 'Right Face']",
stimuli/orders/stimOrder5.xlsx,,0,2,2,2,,,,,,,,,,,,,,,,,,,,,,,,,,,,,,,0.013037399854511023,None,43.2716049382716,3180.672321499791,,,,,,,,,,,,,1001,f,1,1,r,CJM,2021_Jul_28_1405,2020.2.5,bodymapST1,60.03330650842134,"['Abdomen', 'Left Leg', 'Right Leg', 'Right Face']",
stimuli/orders/stimOrder5.xlsx,,0,2,2,2,,,,,,,,,,,,,,,,,,,,,,,,,,,,,,,,,,,0.014036400243639946,None,42.839506172839506,3183.406011000043,,,,,,,,,1001,f,1,1,r,CJM,2021_Jul_28_1405,2020.2.5,bodymapST1,60.03330650842134,"['Abdomen', 'Left Leg', 'Right Leg', 'Right Face']",
stimuli/orders/stimOrder1.xlsx,3,0,3,3,0,0,2,2,2,,,,,,,3194.875610599993,3194.875610599993,None,space,194.26189399999566,3194.875610599993,None,,,,,,3446.7276699999347,3448.7273097001016,3446.7276699999347,3448.7273097001016,3448.7106319000013,3446.7276699999347,,,,,,,,,,,0.013825400033965707,None,,,,,,,1001,f,1,1,r,CJM,2021_Jul_28_1405,2020.2.5,bodymapST1,60.03330650842134,"['Abdomen', 'Left Leg', 'Right Leg', 'Right Face']",
stimuli/orders/stimOrder1.xlsx,3,0,3,3,0,0,4,4,4,,,,,,,,,,,,,,,,,,,3472.711201899918,3474.710844299989,3472.711201899918,3474.710844299989,3474.6941748999525,3472.711201899918,,,,,,,,,,,,,,,,,,,1001,f,1,1,r,CJM,2021_Jul_28_1405,2020.2.5,bodymapST1,60.03330650842134,"['Abdomen', 'Left Leg', 'Right Leg', 'Right Face']",
stimuli/orders/stimOrder1.xlsx,3,0,3,3,0,0,9,9,9,,,,,,,,,,,,,,,,,,,3537.695054499898,3539.6946670000907,3537.695054499898,3539.6946670000907,3539.6781065000687,3537.695054499898,,,,,,,,,,,,,,,,,,,1001,f,1,1,r,CJM,2021_Jul_28_1405,2020.2.5,bodymapST1,60.03330650842134,"['Abdomen', 'Left Leg', 'Right Leg', 'Right Face']",
stimuli/orders/stimOrder1.xlsx,3,0,3,3,0,0,15,15,15,,,,,,,,,,,,,,,,,,,3615.679007000057,3617.678642899962,3615.679007000057,3617.678642899962,3617.661972800037,3615.679007000057,,,,,,,,,,,,,,,,,,,1001,f,1,1,r,CJM,2021_Jul_28_1405,2020.2.5,bodymapST1,60.03330650842134,"['Abdomen', 'Left Leg', 'Right Leg', 'Right Face']",
stimuli/orders/stimOrder1.xlsx,3,0,3,3,0,0,16,16,16,,,,,,,,,,,,,,,,,,,3628.662066800054,3630.6620670000557,3628.662066800054,3630.6620670000557,3630.645413399907,3628.662066800054,,,,,,,,,,,,,,,,,,,1001,f,1,1,r,CJM,2021_Jul_28_1405,2020.2.5,bodymapST1,60.03330650842134,"['Abdomen', 'Left Leg', 'Right Leg', 'Right Face']",
stimuli/orders/stimOrder1.xlsx,3,0,3,3,0,0,18,18,18,,,,,,,,,,,,,,,,,,,3654.645974599989,3656.645624599885,3654.645974599989,3656.645624599885,3656.62895500008,3654.645974599989,,,,,,,,,,,,,,,,,,,1001,f,1,1,r,CJM,2021_Jul_28_1405,2020.2.5,bodymapST1,60.03330650842134,"['Abdomen', 'Left Leg', 'Right Leg', 'Right Face']",
stimuli/orders/stimOrder1.xlsx,3,0,3,3,0,0,24,24,24,,,,,,,,,,,,,,,,,,,3732.6299105000217,3734.629571999889,3732.6299105000217,3734.629571999889,3734.6129038000945,3732.6299105000217,,,,,,,,,,,,,,,,,,,1001,f,1,1,r,CJM,2021_Jul_28_1405,2020.2.5,bodymapST1,60.03330650842134,"['Abdomen', 'Left Leg', 'Right Leg', 'Right Face']",
stimuli/orders/stimOrder1.xlsx,3,0,3,3,0,0,27,27,27,,,,,,,,,,,,,,,,,,,3771.61356540001,3773.6131986998953,3771.61356540001,3773.6131986998953,3773.596545400098,3771.61356540001,,,,,,,,,,,,,,,,,,,1001,f,1,1,r,CJM,2021_Jul_28_1405,2020.2.5,bodymapST1,60.03330650842134,"['Abdomen', 'Left Leg', 'Right Leg', 'Right Face']",
stimuli/orders/stimOrder1.xlsx,3,0,3,3,0,0,30,30,30,,,,,,,,,,,,,,,,,,,3810.5972025000956,3812.5968516999856,3810.5972025000956,3812.5968516999856,3812.5801933999173,3810.5972025000956,,,,,,,,,,,,,,,,,,,1001,f,1,1,r,CJM,2021_Jul_28_1405,2020.2.5,bodymapST1,60.03330650842134,"['Abdomen', 'Left Leg', 'Right Leg', 'Right Face']",
stimuli/orders/stimOrder1.xlsx,3,0,3,3,0,0,32,32,32,,,,,,,,,,,,,,,,,,,3836.5807382001076,3838.580391699914,3836.5807382001076,3838.580391699914,3838.563722799998,3836.5807382001076,,,,,,,,,,,,,,,,,,,1001,f,1,1,r,CJM,2021_Jul_28_1405,2020.2.5,bodymapST1,60.03330650842134,"['Abdomen', 'Left Leg', 'Right Leg', 'Right Face']",
stimuli/orders/stimOrder1.xlsx,3,0,3,3,0,0,33,33,33,,,,,,,,,,,,,,,,,,,3849.5638158000074,3851.5638246000744,3849.5638158000074,3851.5638246000744,3851.5471598999575,3849.5638158000074,,,,,,,,,,,,,,,,,,,1001,f,1,1,r,CJM,2021_Jul_28_1405,2020.2.5,bodymapST1,60.03330650842134,"['Abdomen', 'Left Leg', 'Right Leg', 'Right Face']",
stimuli/orders/stimOrder1.xlsx,3,0,3,3,0,0,35,35,35,,,,,,,,,,,,,,,,,,,3875.547716599889,3877.5473682999145,3875.547716599889,3877.5473682999145,3877.5306845000014,3875.547716599889,,,,,,,,,,,,,,,,,,,1001,f,1,1,r,CJM,2021_Jul_28_1405,2020.2.5,bodymapST1,60.03330650842134,"['Abdomen', 'Left Leg', 'Right Leg', 'Right Face']",
stimuli/orders/stimOrder1.xlsx,,0,3,3,0,,,,,,,,,,,,,,,,,,,,,,,,,,,3927.5310887000524,3927.5310887000524,-20.98765432098766,3941.828963099979,,,,,,,,,,,,,,,,,1001,f,1,1,r,CJM,2021_Jul_28_1405,2020.2.5,bodymapST1,60.03330650842134,"['Abdomen', 'Left Leg', 'Right Leg', 'Right Face']",
stimuli/orders/stimOrder1.xlsx,,0,3,3,0,,,,,,,,,,,,,,,,,,,,,,,,,,,,,,,0.013518700143322349,None,37.22222222222222,3945.82845790009,,,,,,,,,,,,,1001,f,1,1,r,CJM,2021_Jul_28_1405,2020.2.5,bodymapST1,60.03330650842134,"['Abdomen', 'Left Leg', 'Right Leg', 'Right Face']",
stimuli/orders/stimOrder1.xlsx,,0,3,3,0,,,,,,,,,,,,,,,,,,,,,,,,,,,,,,,,,,,0.01401889999397099,None,43.02469135802469,3948.9952720000874,,,,,,,,,1001,f,1,1,r,CJM,2021_Jul_28_1405,2020.2.5,bodymapST1,60.03330650842134,"['Abdomen', 'Left Leg', 'Right Leg', 'Right Face']",
,,,,,,,,,,,,,,,,,,,,,,,,,,,,,,,,,,,,,,,,,,,,0.013921499950811267,None,3957.0646585000213,None,space,2.1855474000331014,3957.0646585000213,None,1001,f,1,1,r,CJM,2021_Jul_28_1405,2020.2.5,bodymapST1,60.03330650842134,"['Abdomen', 'Left Leg', 'Right Leg', 'Right Face']",
