RestT1,TaskT1,square,location,corrAns,counterbalancer.thisRepN,counterbalancer.thisTrialN,counterbalancer.thisN,counterbalancer.thisIndex,RestT1Loop.thisRepN,RestT1Loop.thisTrialN,RestT1Loop.thisN,RestT1Loop.thisIndex,TaskT1Loop.thisRepN,TaskT1Loop.thisTrialN,TaskT1Loop.thisN,TaskT1Loop.thisIndex,trials_2.thisRepN,trials_2.thisTrialN,trials_2.thisN,trials_2.thisIndex,NbackInstructions.started,NbackInstructions.stopped,NbackStart.keys,NbackStart.rt,NbackStart.started,NbackStart.stopped,fixation_2.started,fixation_2.stopped,response_2.x,response_2.y,response_2.leftButton,grid_lines_2.started,grid_lines_2.stopped,target_square_2.started,target_square_2.stopped,fixation_3.started,fixation_3.stopped,response_2.click,response_2.corr,response_2.started,response_2.stopped,fixation_1.started,fixation_1.stopped,subject number,gender,session,handedness,scanner,date,expName,psychopyVersion,frameRate,
0,1,,,,0,0,0,0,,,,,0,0,0,0,,,,,25.592009000014514,None,space,63.317289100028574,25.592009000014514,None,,,,,,,,,,,,,,,,,,4,M,4,L,CIB,2021_Jul_13_1331,WASABI Nback,2020.2.10,60.0005639956262,
0,1,5,"[0, 0]",None,0,0,0,0,,,,,0,0,0,0,0,0,0,0,,,,,,,None,None,None,None,0,90.79887340008281,None,90.79887340008281,91.79881290020421,91.78217280004174,None,0,1,90.79887340008281,None,,,4,M,4,L,CIB,2021_Jul_13_1331,WASABI Nback,2020.2.10,60.0005639956262,
0,1,2,"[0, 0.2]",None,0,0,0,0,,,,,0,0,0,0,0,1,1,1,,,,,,,,,None,None,0,91.94883060012944,None,91.94883060012944,92.94885050016455,92.93218990019523,93.93219600012526,0,1,91.94883060012944,None,,,4,M,4,L,CIB,2021_Jul_13_1331,WASABI Nback,2020.2.10,60.0005639956262,
0,1,6,"[0.2, 0]",None,0,0,0,0,,,,,0,0,0,0,0,2,2,2,,,,,,,,,None,None,0,93.94884700002149,None,93.94884700002149,94.94878170010634,94.93217440019362,95.93220740021206,0,1,93.94884700002149,None,,,4,M,4,L,CIB,2021_Jul_13_1331,WASABI Nback,2020.2.10,60.0005639956262,
0,1,9,"[0.2, -0.2]",None,0,0,0,0,,,,,0,0,0,0,0,3,3,3,,,,,,,,,None,None,0,95.9488713000901,None,95.9488713000901,96.94887710013427,96.9321946001146,97.93220970011316,0,1,95.9488713000901,None,,,4,M,4,L,CIB,2021_Jul_13_1331,WASABI Nback,2020.2.10,60.0005639956262,
0,1,3,"[0.2, 0.2]",None,0,0,0,0,,,,,0,0,0,0,0,4,4,4,,,,,,,,,None,None,0,97.94876140006818,None,97.94876140006818,98.9488695000764,98.93222930002958,99.93221930018626,0,1,97.94876140006818,None,,,4,M,4,L,CIB,2021_Jul_13_1331,WASABI Nback,2020.2.10,60.0005639956262,
0,1,9,"[0.2, -0.2]",1,0,0,0,0,,,,,0,0,0,0,0,5,5,5,,,,,,,,,None,None,0,99.948898000177,None,99.948898000177,100.94891250017099,100.93222780013457,101.93225180008449,0,1,99.948898000177,None,,,4,M,4,L,CIB,2021_Jul_13_1331,WASABI Nback,2020.2.10,60.0005639956262,
0,1,7,"[-0.2, -0.2]",None,0,0,0,0,,,,,0,0,0,0,0,6,6,6,,,,,,,,,None,None,0,101.94891620008275,None,101.94891620008275,102.94892170000821,102.93224600004032,103.93213240010664,0,1,101.94891620008275,None,,,4,M,4,L,CIB,2021_Jul_13_1331,WASABI Nback,2020.2.10,60.0005639956262,
0,1,1,"[-0.2, 0.2]",None,0,0,0,0,,,,,0,0,0,0,0,7,7,7,,,,,,,,,None,None,0,103.94892240012996,None,103.94892240012996,104.94893070007674,104.93227550014853,105.93229420017451,0,1,103.94892240012996,None,,,4,M,4,L,CIB,2021_Jul_13_1331,WASABI Nback,2020.2.10,60.0005639956262,
0,1,5,"[0, 0]",None,0,0,0,0,,,,,0,0,0,0,0,8,8,8,,,,,,,,,None,None,0,105.94888710021041,None,105.94888710021041,106.94895440014079,106.93226490006782,107.93229740019888,0,1,105.94888710021041,None,,,4,M,4,L,CIB,2021_Jul_13_1331,WASABI Nback,2020.2.10,60.0005639956262,
0,1,7,"[-0.2, -0.2]",None,0,0,0,0,,,,,0,0,0,0,0,9,9,9,,,,,,,,,None,None,0,107.9489510001149,None,107.9489510001149,108.94895380013622,108.93230130011216,109.93228469998576,0,1,107.9489510001149,None,,,4,M,4,L,CIB,2021_Jul_13_1331,WASABI Nback,2020.2.10,60.0005639956262,
0,1,5,"[0, 0]",1,0,0,0,0,,,,,0,0,0,0,0,10,10,10,,,,,,,,,None,None,0,109.94896720000543,None,109.94896720000543,110.94897100003436,110.93230099999346,111.93229050002992,0,1,109.94896720000543,None,,,4,M,4,L,CIB,2021_Jul_13_1331,WASABI Nback,2020.2.10,60.0005639956262,
0,1,6,"[0.2, 0]",None,0,0,0,0,,,,,0,0,0,0,0,11,11,11,,,,,,,,,None,None,0,111.94897470017895,None,111.94897470017895,112.94900030014105,112.93230810016394,113.9323377001565,0,1,111.94897470017895,None,,,4,M,4,L,CIB,2021_Jul_13_1331,WASABI Nback,2020.2.10,60.0005639956262,
0,1,3,"[0.2, 0.2]",None,0,0,0,0,,,,,0,0,0,0,0,12,12,12,,,,,,,,,None,None,0,113.94900280004367,None,113.94900280004367,114.94899480021559,114.93234050017782,115.9323369001504,0,1,113.94900280004367,None,,,4,M,4,L,CIB,2021_Jul_13_1331,WASABI Nback,2020.2.10,60.0005639956262,
0,1,6,"[0.2, 0]",1,0,0,0,0,,,,,0,0,0,0,0,13,13,13,,,,,,,,,None,None,0,115.9490069001913,None,115.9490069001913,116.94902619998902,116.93235960020684,117.9323488001246,0,1,115.9490069001913,None,,,4,M,4,L,CIB,2021_Jul_13_1331,WASABI Nback,2020.2.10,60.0005639956262,
0,1,8,"[0, -0.2]",None,0,0,0,0,,,,,0,0,0,0,0,14,14,14,,,,,,,,,None,None,0,117.94901600014418,None,117.94901600014418,118.94903020001948,118.9323811000213,119.93238480016589,0,1,117.94901600014418,None,,,4,M,4,L,CIB,2021_Jul_13_1331,WASABI Nback,2020.2.10,60.0005639956262,
0,1,9,"[0.2, -0.2]",None,0,0,0,0,,,,,0,0,0,0,0,15,15,15,,,,,,,,,None,None,0,119.94904640014283,None,119.94904640014283,120.94905250007287,120.9323858001735,121.93237900012173,0,1,119.94904640014283,None,,,4,M,4,L,CIB,2021_Jul_13_1331,WASABI Nback,2020.2.10,60.0005639956262,
0,1,9,"[0.2, -0.2]",None,0,0,0,0,,,,,0,0,0,0,0,16,16,16,,,,,,,,,None,None,0,121.94905580021441,None,121.94905580021441,122.94906730018556,122.93241410003975,123.93241600017063,0,1,121.94905580021441,None,,,4,M,4,L,CIB,2021_Jul_13_1331,WASABI Nback,2020.2.10,60.0005639956262,
0,1,1,"[-0.2, 0.2]",None,0,0,0,0,,,,,0,0,0,0,0,17,17,17,,,,,,,,,None,None,0,123.94906480005011,None,123.94906480005011,124.94907169998623,124.93243760010228,125.93243180005811,0,1,123.94906480005011,None,,,4,M,4,L,CIB,2021_Jul_13_1331,WASABI Nback,2020.2.10,60.0005639956262,
0,1,3,"[0.2, 0.2]",None,0,0,0,0,,,,,0,0,0,0,0,18,18,18,,,,,,,,,None,None,0,125.9491011002101,None,125.9491011002101,126.94908410008065,126.93242600001395,127.93243610020727,0,1,125.9491011002101,None,,,4,M,4,L,CIB,2021_Jul_13_1331,WASABI Nback,2020.2.10,60.0005639956262,
0,1,5,"[0, 0]",None,0,0,0,0,,,,,0,0,0,0,0,19,19,19,,,,,,,,,None,None,0,127.9490959001705,None,127.9490959001705,128.94911170005798,128.93244470003992,129.9324489000719,0,1,127.9490959001705,None,,,4,M,4,L,CIB,2021_Jul_13_1331,WASABI Nback,2020.2.10,60.0005639956262,
0,1,3,"[0.2, 0.2]",1,0,0,0,0,,,,,0,0,0,0,0,20,20,20,,,,,,,,,None,None,0,129.9491068001371,None,129.9491068001371,130.9491112001706,130.93245610012673,131.93246200005524,0,1,129.9491068001371,None,,,4,M,4,L,CIB,2021_Jul_13_1331,WASABI Nback,2020.2.10,60.0005639956262,
0,1,4,"[-0.2, 0]",None,0,0,0,0,,,,,0,0,0,0,0,21,21,21,,,,,,,,,None,None,0,131.9491342001129,None,131.9491342001129,132.94912320002913,132.9324709000066,133.93247260013595,0,1,131.9491342001129,None,,,4,M,4,L,CIB,2021_Jul_13_1331,WASABI Nback,2020.2.10,60.0005639956262,
0,1,7,"[-0.2, -0.2]",None,0,0,0,0,,,,,0,0,0,0,0,22,22,22,,,,,,,,,None,None,0,133.949151000008,None,133.949151000008,134.9491513001267,134.9325009000022,135.9324927001726,0,1,133.949151000008,None,,,4,M,4,L,CIB,2021_Jul_13_1331,WASABI Nback,2020.2.10,60.0005639956262,
0,1,4,"[-0.2, 0]",1,0,0,0,0,,,,,0,0,0,0,0,23,23,23,,,,,,,,,None,None,0,135.94914819998667,None,135.94914819998667,136.94917260017246,136.93253290001303,137.93251780001447,0,1,135.94914819998667,None,,,4,M,4,L,CIB,2021_Jul_13_1331,WASABI Nback,2020.2.10,60.0005639956262,
0,1,4,"[-0.2, 0]",None,0,0,0,0,,,,,0,0,0,0,0,24,24,24,,,,,,,,,None,None,0,137.94917410006747,None,137.94917410006747,138.94917340017855,138.93251860002056,139.93253230000846,0,1,137.94917410006747,None,,,4,M,4,L,CIB,2021_Jul_13_1331,WASABI Nback,2020.2.10,60.0005639956262,
0,1,5,"[0, 0]",None,0,0,0,0,,,,,0,0,0,0,0,25,25,25,,,,,,,,,None,None,0,139.94919780013151,None,139.94919780013151,140.94920100015588,140.9325483001303,141.93253260012716,0,1,139.94919780013151,None,,,4,M,4,L,CIB,2021_Jul_13_1331,WASABI Nback,2020.2.10,60.0005639956262,
0,1,2,"[0, 0.2]",None,0,0,0,0,,,,,0,0,0,0,0,26,26,26,,,,,,,,,None,None,0,141.9491983000189,None,141.9491983000189,142.94921630015597,142.93255220004357,143.93257760000415,0,1,141.9491983000189,None,,,4,M,4,L,CIB,2021_Jul_13_1331,WASABI Nback,2020.2.10,60.0005639956262,
0,1,6,"[0.2, 0]",None,0,0,0,0,,,,,0,0,0,0,0,27,27,27,,,,,,,,,None,None,0,143.94921370013617,None,143.94921370013617,144.94922890001908,144.93256500014104,145.93256149999797,0,1,143.94921370013617,None,,,4,M,4,L,CIB,2021_Jul_13_1331,WASABI Nback,2020.2.10,60.0005639956262,
0,1,7,"[-0.2, -0.2]",None,0,0,0,0,,,,,0,0,0,0,0,28,28,28,,,,,,,,,None,None,0,145.9492379000876,None,145.9492379000876,146.94924059999175,146.93258520006202,147.9325887002051,0,1,145.9492379000876,None,,,4,M,4,L,CIB,2021_Jul_13_1331,WASABI Nback,2020.2.10,60.0005639956262,
0,1,6,"[0.2, 0]",1,0,0,0,0,,,,,0,0,0,0,0,29,29,29,,,,,,,,,None,None,0,147.9492470000405,None,147.9492470000405,148.94925110018812,148.93246790021658,149.9325861001853,0,1,147.9492470000405,None,,,4,M,4,L,CIB,2021_Jul_13_1331,WASABI Nback,2020.2.10,60.0005639956262,
0,1,6,"[0.2, 0]",None,0,0,0,0,,,,,0,0,0,0,0,30,30,30,,,,,,,,,None,None,0,149.949260200141,None,149.949260200141,150.94926010002382,150.93260190007277,151.93259830004536,0,1,149.949260200141,None,,,4,M,4,L,CIB,2021_Jul_13_1331,WASABI Nback,2020.2.10,60.0005639956262,
0,1,7,"[-0.2, -0.2]",None,0,0,0,0,,,,,0,0,0,0,0,31,31,31,,,,,,,,,None,None,0,151.94927640003152,None,151.94927640003152,152.94915870018303,152.93260510009713,153.93262670002878,0,1,151.94927640003152,None,,,4,M,4,L,CIB,2021_Jul_13_1331,WASABI Nback,2020.2.10,60.0005639956262,
0,1,6,"[0.2, 0]",1,0,0,0,0,,,,,0,0,0,0,0,32,32,32,,,,,,,,,None,None,0,153.94928820012137,None,153.94928820012137,154.94929470005445,154.93263380019926,155.93263900000602,0,1,153.94928820012137,None,,,4,M,4,L,CIB,2021_Jul_13_1331,WASABI Nback,2020.2.10,60.0005639956262,
0,1,2,"[0, 0.2]",None,0,0,0,0,,,,,0,0,0,0,0,33,33,33,,,,,,,,,None,None,0,155.94919610000215,None,155.94919610000215,156.94931590021588,156.932657700032,157.9326461001765,0,1,155.94919610000215,None,,,4,M,4,L,CIB,2021_Jul_13_1331,WASABI Nback,2020.2.10,60.0005639956262,
0,1,5,"[0, 0]",None,0,0,0,0,,,,,0,0,0,0,0,34,34,34,,,,,,,,,None,None,0,157.94932700018398,None,157.94932700018398,158.94932380015962,158.93267110013403,159.93265790003352,0,1,157.94932700018398,None,,,4,M,4,L,CIB,2021_Jul_13_1331,WASABI Nback,2020.2.10,60.0005639956262,
0,1,4,"[-0.2, 0]",None,0,0,0,0,,,,,0,0,0,0,0,35,35,35,,,,,,,,,None,None,0,159.94933279999532,None,159.94933279999532,160.9493472999893,160.93268470000476,161.9326813002117,0,1,159.94933279999532,None,,,4,M,4,L,CIB,2021_Jul_13_1331,WASABI Nback,2020.2.10,60.0005639956262,
0,1,4,"[-0.2, 0]",None,0,0,0,0,,,,,0,0,0,0,0,36,36,36,,,,,,,,,None,None,0,161.9493536001537,None,161.9493536001537,162.9493528001476,162.93268309999257,163.93269150005654,0,1,161.9493536001537,None,,,4,M,4,L,CIB,2021_Jul_13_1331,WASABI Nback,2020.2.10,60.0005639956262,
0,1,7,"[-0.2, -0.2]",None,0,0,0,0,,,,,0,0,0,0,0,37,37,37,,,,,,,,,None,None,0,163.94935660017654,None,163.94935660017654,164.9493611000944,164.93271830002777,165.9327196001541,0,1,163.94935660017654,None,,,4,M,4,L,CIB,2021_Jul_13_1331,WASABI Nback,2020.2.10,60.0005639956262,
0,1,4,"[-0.2, 0]",1,0,0,0,0,,,,,0,0,0,0,0,38,38,38,,,,,,,,,None,None,0,165.94938340014778,None,165.94938340014778,166.94938570004888,166.9327172001358,167.93273780005984,0,1,165.94938340014778,None,,,4,M,4,L,CIB,2021_Jul_13_1331,WASABI Nback,2020.2.10,60.0005639956262,
0,1,3,"[0.2, 0.2]",None,0,0,0,0,,,,,0,0,0,0,0,39,39,39,,,,,,,,,None,None,0,167.94939790014178,None,167.94939790014178,168.94940020004287,168.93272360018454,169.93272640020587,0,1,167.94939790014178,None,,,4,M,4,L,CIB,2021_Jul_13_1331,WASABI Nback,2020.2.10,60.0005639956262,
0,1,5,"[0, 0]",None,0,0,0,0,,,,,0,0,0,0,0,40,40,40,,,,,,,,,None,None,0,169.9494110001251,None,169.9494110001251,170.94942870014347,170.93276280001737,171.93276420002803,0,1,169.9494110001251,None,,,4,M,4,L,CIB,2021_Jul_13_1331,WASABI Nback,2020.2.10,60.0005639956262,
0,1,3,"[0.2, 0.2]",1,0,0,0,0,,,,,0,0,0,0,0,41,41,41,,,,,,,,,None,None,0,171.9494211000856,None,171.9494211000856,172.9495083000511,172.9326424000319,173.93278200016357,0,1,171.9494211000856,None,,,4,M,4,L,CIB,2021_Jul_13_1331,WASABI Nback,2020.2.10,60.0005639956262,
0,1,1,"[-0.2, 0.2]",None,0,0,0,0,,,,,0,0,0,0,0,42,42,42,,,,,,,,,None,None,0,173.94944420014508,None,173.94944420014508,174.94944980018772,174.93278300017118,175.93276360002346,0,1,173.94944420014508,None,,,4,M,4,L,CIB,2021_Jul_13_1331,WASABI Nback,2020.2.10,60.0005639956262,
0,1,9,"[0.2, -0.2]",None,0,0,0,0,,,,,0,0,0,0,0,43,43,43,,,,,,,,,None,None,0,175.94948240020312,None,175.94948240020312,176.94947250001132,176.93278770009056,177.93280230020173,0,1,175.94948240020312,None,,,4,M,4,L,CIB,2021_Jul_13_1331,WASABI Nback,2020.2.10,60.0005639956262,
0,1,9,"[0.2, -0.2]",None,0,0,0,0,,,,,0,0,0,0,0,44,44,44,,,,,,,,,None,None,0,177.94946890021674,None,177.94946890021674,178.94948070007376,178.93281650007702,179.93280890001915,0,1,177.94946890021674,None,,,4,M,4,L,CIB,2021_Jul_13_1331,WASABI Nback,2020.2.10,60.0005639956262,
0,1,8,"[0, -0.2]",None,0,0,0,0,,,,,0,0,0,0,0,45,45,45,,,,,,,,,None,None,0,179.94950270000845,None,179.94950270000845,180.94948559999466,180.93282470013946,181.9328318000771,0,1,179.94950270000845,None,,,4,M,4,L,CIB,2021_Jul_13_1331,WASABI Nback,2020.2.10,60.0005639956262,
0,1,6,"[0.2, 0]",None,0,0,0,0,,,,,0,0,0,0,0,46,46,46,,,,,,,,,None,None,0,181.94950890005566,None,181.94950890005566,182.94950910005718,182.93284850008786,183.93284240015782,0,1,181.94950890005566,None,,,4,M,4,L,CIB,2021_Jul_13_1331,WASABI Nback,2020.2.10,60.0005639956262,
0,1,3,"[0.2, 0.2]",None,0,0,0,0,,,,,0,0,0,0,0,47,47,47,,,,,,,,,None,None,0,183.94950510002673,None,183.94950510002673,184.9495624001138,184.93285130010918,185.93289760011248,0,1,183.94950510002673,None,,,4,M,4,L,CIB,2021_Jul_13_1331,WASABI Nback,2020.2.10,60.0005639956262,
0,1,6,"[0.2, 0]",1,0,0,0,0,,,,,0,0,0,0,0,48,48,48,,,,,,,,,None,None,0,185.9495300000999,None,185.9495300000999,186.9495486000087,186.93286770000122,187.932352400152,0,1,185.9495300000999,None,,,4,M,4,L,CIB,2021_Jul_13_1331,WASABI Nback,2020.2.10,60.0005639956262,
0,1,5,"[0, 0]",None,0,0,0,0,,,,,0,0,0,0,0,49,49,49,,,,,,,,,None,None,0,187.94954910012893,None,187.94954910012893,188.94954500021413,188.93289220007136,189.93287860020064,0,1,187.94954910012893,None,,,4,M,4,L,CIB,2021_Jul_13_1331,WASABI Nback,2020.2.10,60.0005639956262,
0,1,7,"[-0.2, -0.2]",None,0,0,0,0,,,,,0,0,0,0,0,50,50,50,,,,,,,,,None,None,0,189.94957510009408,None,189.94957510009408,190.9495738002006,190.93289870000444,191.93289390020072,0,1,189.94957510009408,None,,,4,M,4,L,CIB,2021_Jul_13_1331,WASABI Nback,2020.2.10,60.0005639956262,
0,1,5,"[0, 0]",1,0,0,0,0,,,,,0,0,0,0,0,51,51,51,,,,,,,,,None,None,0,191.94958600006066,None,191.94958600006066,192.94957250007428,192.93290280015208,193.9329156000167,0,1,191.94958600006066,None,,,4,M,4,L,CIB,2021_Jul_13_1331,WASABI Nback,2020.2.10,60.0005639956262,
0,1,1,"[-0.2, 0.2]",None,0,0,0,0,,,,,0,0,0,0,0,52,52,52,,,,,,,,,None,None,0,193.9495906000957,None,193.9495906000957,194.94958420004696,194.93293470004573,195.93293500016443,0,1,193.9495906000957,None,,,4,M,4,L,CIB,2021_Jul_13_1331,WASABI Nback,2020.2.10,60.0005639956262,
0,1,7,"[-0.2, -0.2]",None,0,0,0,0,,,,,0,0,0,0,0,53,53,53,,,,,,,,,None,None,0,195.94959610002115,None,195.94959610002115,196.94962020008825,196.93292840011418,197.9329475001432,0,0,195.94959610002115,None,,,4,M,4,L,CIB,2021_Jul_13_1331,WASABI Nback,2020.2.10,60.0005639956262,
0,1,9,"[0.2, -0.2]",None,0,0,0,0,,,,,0,0,0,0,0,54,54,54,,,,,,,,,None,None,0,197.94961260003038,None,197.94961260003038,198.94961440004408,198.93295390019193,199.93296600016765,0,1,197.94961260003038,None,,,4,M,4,L,CIB,2021_Jul_13_1331,WASABI Nback,2020.2.10,60.0005639956262,
0,1,3,"[0.2, 0.2]",None,0,0,0,0,,,,,0,0,0,0,0,55,55,55,,,,,,,,,None,None,0,199.9496113001369,None,199.9496113001369,200.94962220010348,200.93297170009464,201.93296660017222,0,1,199.9496113001369,None,,,4,M,4,L,CIB,2021_Jul_13_1331,WASABI Nback,2020.2.10,60.0005639956262,
0,1,9,"[0.2, -0.2]",1,0,0,0,0,,,,,0,0,0,0,0,56,56,56,,,,,,,,,None,None,0,201.94964480004273,None,201.94964480004273,202.94965950003825,202.93298000004143,203.93300780002028,0,1,201.94964480004273,None,,,4,M,4,L,CIB,2021_Jul_13_1331,WASABI Nback,2020.2.10,60.0005639956262,
0,1,6,"[0.2, 0]",None,0,0,0,0,,,,,0,0,0,0,0,57,57,57,,,,,,,,,None,None,0,203.94965920015238,None,203.94965920015238,204.9496628001798,204.93288350012153,205.9330106000416,0,1,203.94965920015238,None,,,4,M,4,L,CIB,2021_Jul_13_1331,WASABI Nback,2020.2.10,60.0005639956262,
0,1,2,"[0, 0.2]",None,0,0,0,0,,,,,0,0,0,0,0,58,58,58,,,,,,,,,None,None,0,205.9495815001428,None,205.9495815001428,206.94968080008402,206.9330106000416,207.93303260020912,0,1,205.9495815001428,None,,,4,M,4,L,CIB,2021_Jul_13_1331,WASABI Nback,2020.2.10,60.0005639956262,
0,1,5,"[0, 0]",None,0,0,0,0,,,,,0,0,0,0,0,59,59,59,,,,,,,,,None,None,0,207.94955330016091,None,207.94955330016091,208.94970230013132,208.93302410002798,209.9330305000767,0,1,207.94955330016091,None,,,4,M,4,L,CIB,2021_Jul_13_1331,WASABI Nback,2020.2.10,60.0005639956262,
0,1,5,"[0, 0]",None,0,0,0,0,,,,,0,0,0,0,0,60,60,60,,,,,,,,,None,None,0,209.9496620001737,None,209.9496620001737,210.94967770017684,210.933053500019,211.9330440000631,0,1,209.9496620001737,None,,,4,M,4,L,CIB,2021_Jul_13_1331,WASABI Nback,2020.2.10,60.0005639956262,
0,1,2,"[0, 0.2]",None,0,0,0,0,,,,,0,0,0,0,0,61,61,61,,,,,,,,,None,None,0,211.9497184001375,None,211.9497184001375,212.94971770001575,212.93305310001597,213.93307620007545,0,1,211.9497184001375,None,,,4,M,4,L,CIB,2021_Jul_13_1331,WASABI Nback,2020.2.10,60.0005639956262,
0,1,6,"[0.2, 0]",None,0,0,0,0,,,,,0,0,0,0,0,62,62,62,,,,,,,,,None,None,0,213.9497378000524,None,213.9497378000524,214.94973610015586,214.93306970014237,215.93307330016978,0,1,213.9497378000524,None,,,4,M,4,L,CIB,2021_Jul_13_1331,WASABI Nback,2020.2.10,60.0005639956262,
0,1,9,"[0.2, -0.2]",None,0,0,0,0,,,,,0,0,0,0,0,63,63,63,,,,,,,,,None,None,0,215.9497551000677,None,215.9497551000677,216.94976119999774,216.93309380020946,217.9330961999949,0,1,215.9497551000677,None,,,4,M,4,L,CIB,2021_Jul_13_1331,WASABI Nback,2020.2.10,60.0005639956262,
0,1,3,"[0.2, 0.2]",None,0,0,0,0,,,,,0,0,0,0,0,64,64,64,,,,,,,,,None,None,0,217.94975400017574,None,217.94975400017574,218.94976590014994,218.9331154001411,219.93311860016547,0,1,217.94975400017574,None,,,4,M,4,L,CIB,2021_Jul_13_1331,WASABI Nback,2020.2.10,60.0005639956262,
0,1,9,"[0.2, -0.2]",1,0,0,0,0,,,,,0,0,0,0,0,65,65,65,,,,,,,,,None,None,0,219.94976850016974,None,219.94976850016974,220.94977940013632,220.93304560007527,221.93313890020363,0,1,219.94976850016974,None,,,4,M,4,L,CIB,2021_Jul_13_1331,WASABI Nback,2020.2.10,60.0005639956262,
0,1,7,"[-0.2, -0.2]",None,0,0,0,0,,,,,0,0,0,0,0,66,66,66,,,,,,,,,None,None,0,221.94979280000553,None,221.94979280000553,222.94979170011356,222.93312460021116,223.93314209999517,0,1,221.94979280000553,None,,,4,M,4,L,CIB,2021_Jul_13_1331,WASABI Nback,2020.2.10,60.0005639956262,
0,1,1,"[-0.2, 0.2]",None,0,0,0,0,,,,,0,0,0,0,0,67,67,67,,,,,,,,,None,None,0,223.94981470005587,None,223.94981470005587,224.9498133000452,224.93316080002114,225.93302680016495,0,1,223.94981470005587,None,,,4,M,4,L,CIB,2021_Jul_13_1331,WASABI Nback,2020.2.10,60.0005639956262,
0,1,5,"[0, 0]",None,0,0,0,0,,,,,0,0,0,0,0,68,68,68,,,,,,,,,None,None,0,225.9498203000985,None,225.9498203000985,226.94982050010003,226.93315520021133,227.9331622000318,0,1,225.9498203000985,None,,,4,M,4,L,CIB,2021_Jul_13_1331,WASABI Nback,2020.2.10,60.0005639956262,
0,1,7,"[-0.2, -0.2]",None,0,0,0,0,,,,,0,0,0,0,0,69,69,69,,,,,,,,,None,None,0,227.94984450004995,None,227.94984450004995,228.94983200007118,228.9331700000912,229.9331982000731,0,1,227.94984450004995,None,,,4,M,4,L,CIB,2021_Jul_13_1331,WASABI Nback,2020.2.10,60.0005639956262,
0,1,5,"[0, 0]",1,0,0,0,0,,,,,0,0,0,0,0,70,70,70,,,,,,,,,None,None,0,229.94985980005004,None,229.94985980005004,230.94986270018853,230.93318440020084,231.93315360019915,0,0,229.94985980005004,None,,,4,M,4,L,CIB,2021_Jul_13_1331,WASABI Nback,2020.2.10,60.0005639956262,
0,1,6,"[0.2, 0]",None,0,0,0,0,,,,,0,0,0,0,0,71,71,71,,,,,,,,,None,None,0,231.94986680010334,None,231.94986680010334,232.94986680010334,232.93321280018426,233.9332197001204,0,1,231.94986680010334,None,,,4,M,4,L,CIB,2021_Jul_13_1331,WASABI Nback,2020.2.10,60.0005639956262,
0,1,3,"[0.2, 0.2]",None,0,0,0,0,,,,,0,0,0,0,0,72,72,72,,,,,,,,,None,None,0,233.9498801000882,None,233.9498801000882,234.94989110017195,234.93321410007775,235.93323840014637,0,1,233.9498801000882,None,,,4,M,4,L,CIB,2021_Jul_13_1331,WASABI Nback,2020.2.10,60.0005639956262,
0,1,6,"[0.2, 0]",1,0,0,0,0,,,,,0,0,0,0,0,73,73,73,,,,,,,,,None,None,0,235.9499042001553,None,235.9499042001553,236.9499026001431,236.93325440003537,237.9332504000049,0,1,235.9499042001553,None,,,4,M,4,L,CIB,2021_Jul_13_1331,WASABI Nback,2020.2.10,60.0005639956262,
0,1,8,"[0, -0.2]",None,0,0,0,0,,,,,0,0,0,0,0,74,74,74,,,,,,,,,None,None,0,237.9499112002086,None,237.9499112002086,238.9499249001965,238.93325390014797,239.93325080000795,0,1,237.9499112002086,None,,,4,M,4,L,CIB,2021_Jul_13_1331,WASABI Nback,2020.2.10,60.0005639956262,
0,1,9,"[0.2, -0.2]",None,0,0,0,0,,,,,0,0,0,0,0,75,75,75,,,,,,,,,None,None,0,239.94985440000892,None,239.94985440000892,240.94993820018135,240.93325840006582,241.93327690009028,0,1,239.94985440000892,None,,,4,M,4,L,CIB,2021_Jul_13_1331,WASABI Nback,2020.2.10,60.0005639956262,
0,1,9,"[0.2, -0.2]",None,0,0,0,0,,,,,0,0,0,0,0,76,76,76,,,,,,,,,None,None,0,241.94994560000487,None,241.94994560000487,242.94995170016773,242.93328190012835,243.9332779000979,0,1,241.94994560000487,None,,,4,M,4,L,CIB,2021_Jul_13_1331,WASABI Nback,2020.2.10,60.0005639956262,
0,1,1,"[-0.2, 0.2]",None,0,0,0,0,,,,,0,0,0,0,0,77,77,77,,,,,,,,,None,None,0,243.94994570012204,None,243.94994570012204,244.94997080019675,244.9333004001528,245.93331810017116,0,1,243.94994570012204,None,,,4,M,4,L,CIB,2021_Jul_13_1331,WASABI Nback,2020.2.10,60.0005639956262,
0,1,3,"[0.2, 0.2]",None,0,0,0,0,,,,,0,0,0,0,0,78,78,78,,,,,,,,,None,None,0,245.94995240005665,None,245.94995240005665,246.94997600000352,246.93330160016194,247.93331660004333,0,1,245.94995240005665,None,,,4,M,4,L,CIB,2021_Jul_13_1331,WASABI Nback,2020.2.10,60.0005639956262,
0,1,5,"[0, 0]",None,0,0,0,0,,,,,0,0,0,0,0,79,79,79,,,,,,,,,None,None,0,247.9499921000097,None,247.9499921000097,248.9499908001162,248.93333880021237,249.93332970002666,0,1,247.9499921000097,None,,,4,M,4,L,CIB,2021_Jul_13_1331,WASABI Nback,2020.2.10,60.0005639956262,
0,1,3,"[0.2, 0.2]",1,0,0,0,0,,,,,0,0,0,0,0,80,80,80,,,,,,,,,None,None,0,249.94999230001122,None,249.94999230001122,250.95001400006004,250.9333449001424,251.93336700019427,0,1,249.94999230001122,None,,,4,M,4,L,CIB,2021_Jul_13_1331,WASABI Nback,2020.2.10,60.0005639956262,
0,1,4,"[-0.2, 0]",None,0,0,0,0,,,,,0,0,0,0,0,81,81,81,,,,,,,,,None,None,0,251.95002020010725,None,251.95002020010725,252.95002740016207,252.93337820004672,253.9333609000314,0,1,251.95002020010725,None,,,4,M,4,L,CIB,2021_Jul_13_1331,WASABI Nback,2020.2.10,60.0005639956262,
0,1,7,"[-0.2, -0.2]",None,0,0,0,0,,,,,0,0,0,0,0,82,82,82,,,,,,,,,None,None,0,253.95003599999472,None,253.95003599999472,254.9500351001043,254.93336830008775,255.93337450013496,0,1,253.95003599999472,None,,,4,M,4,L,CIB,2021_Jul_13_1331,WASABI Nback,2020.2.10,60.0005639956262,
0,1,4,"[-0.2, 0]",1,0,0,0,0,,,,,0,0,0,0,0,83,83,83,,,,,,,,,None,None,0,255.9500428000465,None,255.9500428000465,256.9500630002003,256.9333825001959,257.93341180006973,0,1,255.9500428000465,None,,,4,M,4,L,CIB,2021_Jul_13_1331,WASABI Nback,2020.2.10,60.0005639956262,
0,1,4,"[-0.2, 0]",None,0,0,0,0,,,,,0,0,0,0,0,84,84,84,,,,,,,,,None,None,0,257.9500578001607,None,257.9500578001607,258.9500573000405,258.9334067001473,259.93339750007726,0,1,257.9500578001607,None,,,4,M,4,L,CIB,2021_Jul_13_1331,WASABI Nback,2020.2.10,60.0005639956262,
0,1,5,"[0, 0]",None,0,0,0,0,,,,,0,0,0,0,0,85,85,85,,,,,,,,,None,None,0,259.9500790000893,None,259.9500790000893,260.9500816001091,260.933437500149,261.9334327999968,0,1,259.9500790000893,None,,,4,M,4,L,CIB,2021_Jul_13_1331,WASABI Nback,2020.2.10,60.0005639956262,
0,1,2,"[0, 0.2]",None,0,0,0,0,,,,,0,0,0,0,0,86,86,86,,,,,,,,,None,None,0,261.95008820015937,None,261.95008820015937,262.9501091002021,262.93343319999985,263.93343950016424,0,1,261.95008820015937,None,,,4,M,4,L,CIB,2021_Jul_13_1331,WASABI Nback,2020.2.10,60.0005639956262,
0,1,6,"[0.2, 0]",None,0,0,0,0,,,,,0,0,0,0,0,87,87,87,,,,,,,,,None,None,0,263.95010840008035,None,263.95010840008035,264.9500979001168,264.9334551000502,265.9334574001841,0,1,263.95010840008035,None,,,4,M,4,L,CIB,2021_Jul_13_1331,WASABI Nback,2020.2.10,60.0005639956262,
0,1,7,"[-0.2, -0.2]",None,0,0,0,0,,,,,0,0,0,0,0,88,88,88,,,,,,,,,None,None,0,265.9501263999846,None,265.9501263999846,266.95010270015337,266.9334631001111,267.9334782001097,0,1,265.9501263999846,None,,,4,M,4,L,CIB,2021_Jul_13_1331,WASABI Nback,2020.2.10,60.0005639956262,
0,1,6,"[0.2, 0]",1,0,0,0,0,,,,,0,0,0,0,0,89,89,89,,,,,,,,,None,None,0,267.9501407002099,None,267.9501407002099,268.95014980016276,268.93348320014775,269.93348570005037,0,0,267.9501407002099,None,,,4,M,4,L,CIB,2021_Jul_13_1331,WASABI Nback,2020.2.10,60.0005639956262,
0,1,6,"[0.2, 0]",None,0,0,0,0,,,,,0,0,0,0,0,90,90,90,,,,,,,,,None,None,0,269.9501509000547,None,269.9501509000547,270.95016250014305,270.9335009001661,271.93349850014783,0,1,269.9501509000547,None,,,4,M,4,L,CIB,2021_Jul_13_1331,WASABI Nback,2020.2.10,60.0005639956262,
0,1,7,"[-0.2, -0.2]",None,0,0,0,0,,,,,0,0,0,0,0,91,91,91,,,,,,,,,None,None,0,271.95016610017046,None,271.95016610017046,272.95017620013095,272.9335078999866,273.9335237001069,0,1,271.95016610017046,None,,,4,M,4,L,CIB,2021_Jul_13_1331,WASABI Nback,2020.2.10,60.0005639956262,
0,1,6,"[0.2, 0]",1,0,0,0,0,,,,,0,0,0,0,0,92,92,92,,,,,,,,,None,None,0,273.9501810001675,None,273.9501810001675,274.95019230013713,274.93351830006577,275.93353080004454,0,0,273.9501810001675,None,,,4,M,4,L,CIB,2021_Jul_13_1331,WASABI Nback,2020.2.10,60.0005639956262,
0,1,2,"[0, 0.2]",None,0,0,0,0,,,,,0,0,0,0,0,93,93,93,,,,,,,,,None,None,0,275.9501862002071,None,275.9501862002071,276.9501891999971,276.93341180006973,277.93354420014657,0,1,275.9501862002071,None,,,4,M,4,L,CIB,2021_Jul_13_1331,WASABI Nback,2020.2.10,60.0005639956262,
0,1,5,"[0, 0]",None,0,0,0,0,,,,,0,0,0,0,0,94,94,94,,,,,,,,,None,None,0,277.95021560019813,None,277.95021560019813,278.9502160002012,278.9335541999899,279.93356540007517,0,1,277.95021560019813,None,,,4,M,4,L,CIB,2021_Jul_13_1331,WASABI Nback,2020.2.10,60.0005639956262,
0,1,4,"[-0.2, 0]",None,0,0,0,0,,,,,0,0,0,0,0,95,95,95,,,,,,,,,None,None,0,279.95022590016015,None,279.95022590016015,280.9502227001358,280.9335620000493,281.9335803000722,0,1,279.95022590016015,None,,,4,M,4,L,CIB,2021_Jul_13_1331,WASABI Nback,2020.2.10,60.0005639956262,
0,1,4,"[-0.2, 0]",None,0,0,0,0,,,,,0,0,0,0,0,96,96,96,,,,,,,,,None,None,0,281.9502315002028,None,281.9502315002028,282.95023190020584,282.93357500014827,283.93360040010884,0,1,281.9502315002028,None,,,4,M,4,L,CIB,2021_Jul_13_1331,WASABI Nback,2020.2.10,60.0005639956262,
0,1,7,"[-0.2, -0.2]",None,0,0,0,0,,,,,0,0,0,0,0,97,97,97,,,,,,,,,None,None,0,283.95013120002113,None,283.95013120002113,284.9502644999884,284.9335880000144,285.9336093000602,0,1,283.95013120002113,None,,,4,M,4,L,CIB,2021_Jul_13_1331,WASABI Nback,2020.2.10,60.0005639956262,
0,1,4,"[-0.2, 0]",1,0,0,0,0,,,,,0,0,0,0,0,98,98,98,,,,,,,,,None,None,0,285.9502674001269,None,285.9502674001269,286.95027350005694,286.9336024001241,287.9336129000876,0,1,285.9502674001269,None,,,4,M,4,L,CIB,2021_Jul_13_1331,WASABI Nback,2020.2.10,60.0005639956262,
0,1,3,"[0.2, 0.2]",None,0,0,0,0,,,,,0,0,0,0,0,99,99,99,,,,,,,,,None,None,0,287.95027390006,None,287.95027390006,288.9502807999961,288.93363169999793,289.9336232000496,0,1,287.95027390006,None,,,4,M,4,L,CIB,2021_Jul_13_1331,WASABI Nback,2020.2.10,60.0005639956262,
0,1,5,"[0, 0]",None,0,0,0,0,,,,,0,0,0,0,0,100,100,100,,,,,,,,,None,None,0,289.95030020014383,None,289.95030020014383,290.9502922000829,290.9336314999964,291.9336603002157,0,1,289.95030020014383,None,,,4,M,4,L,CIB,2021_Jul_13_1331,WASABI Nback,2020.2.10,60.0005639956262,
0,1,3,"[0.2, 0.2]",1,0,0,0,0,,,,,0,0,0,0,0,101,101,101,,,,,,,,,None,None,0,291.9503150000237,None,291.9503150000237,292.95031070010737,292.933644000208,293.9336721000727,0,1,291.9503150000237,None,,,4,M,4,L,CIB,2021_Jul_13_1331,WASABI Nback,2020.2.10,60.0005639956262,
0,1,1,"[-0.2, 0.2]",None,0,0,0,0,,,,,0,0,0,0,0,102,102,102,,,,,,,,,None,None,0,293.95033090002835,None,293.95033090002835,294.950336500071,294.9336603002157,295.933673000196,0,1,293.95033090002835,None,,,4,M,4,L,CIB,2021_Jul_13_1331,WASABI Nback,2020.2.10,60.0005639956262,
0,1,9,"[0.2, -0.2]",None,0,0,0,0,,,,,0,0,0,0,0,103,103,103,,,,,,,,,None,None,0,295.95034119999036,None,295.95034119999036,296.9503316001501,296.9336983000394,297.9336818000302,0,1,295.95034119999036,None,,,4,M,4,L,CIB,2021_Jul_13_1331,WASABI Nback,2020.2.10,60.0005639956262,
0,1,9,"[0.2, -0.2]",None,0,0,0,0,,,,,0,0,0,0,0,104,104,104,,,,,,,,,None,None,0,297.9503632001579,None,297.9503632001579,298.9503547002096,298.93369450001046,299.9337067999877,0,1,297.9503632001579,None,,,4,M,4,L,CIB,2021_Jul_13_1331,WASABI Nback,2020.2.10,60.0005639956262,
0,1,8,"[0, -0.2]",None,0,0,0,0,,,,,0,0,0,0,0,105,105,105,,,,,,,,,None,None,0,299.9503536000848,None,299.9503536000848,300.95048360014334,300.9337028001901,301.93372269999236,0,1,299.9503536000848,None,,,4,M,4,L,CIB,2021_Jul_13_1331,WASABI Nback,2020.2.10,60.0005639956262,
0,1,6,"[0.2, 0]",None,0,0,0,0,,,,,0,0,0,0,0,106,106,106,,,,,,,,,None,None,0,301.950397600187,None,301.950397600187,302.9503975000698,302.9337396000046,303.93372920015827,0,1,301.950397600187,None,,,4,M,4,L,CIB,2021_Jul_13_1331,WASABI Nback,2020.2.10,60.0005639956262,
0,1,3,"[0.2, 0.2]",None,0,0,0,0,,,,,0,0,0,0,0,107,107,107,,,,,,,,,None,None,0,303.9504074000288,None,303.9504074000288,304.95042020012625,304.93373680021614,305.933753099991,0,1,303.9504074000288,None,,,4,M,4,L,CIB,2021_Jul_13_1331,WASABI Nback,2020.2.10,60.0005639956262,
0,1,6,"[0.2, 0]",1,0,0,0,0,,,,,0,0,0,0,0,108,108,108,,,,,,,,,None,None,0,305.9504231000319,None,305.9504231000319,306.9504317000974,306.9337575000245,307.9337651000824,0,1,305.9504231000319,None,,,4,M,4,L,CIB,2021_Jul_13_1331,WASABI Nback,2020.2.10,60.0005639956262,
0,1,5,"[0, 0]",None,0,0,0,0,,,,,0,0,0,0,0,109,109,109,,,,,,,,,None,None,0,307.9504397001583,None,307.9504397001583,308.95045100012794,308.93378360010684,309.9337741001509,0,1,307.9504397001583,None,,,4,M,4,L,CIB,2021_Jul_13_1331,WASABI Nback,2020.2.10,60.0005639956262,
0,1,7,"[-0.2, -0.2]",None,0,0,0,0,,,,,0,0,0,0,0,110,110,110,,,,,,,,,None,None,0,309.9504534001462,None,309.9504534001462,310.95046470011584,310.9337918001693,311.9337927000597,0,1,309.9504534001462,None,,,4,M,4,L,CIB,2021_Jul_13_1331,WASABI Nback,2020.2.10,60.0005639956262,
0,1,5,"[0, 0]",1,0,0,0,0,,,,,0,0,0,0,0,111,111,111,,,,,,,,,None,None,0,311.95047420007177,None,311.95047420007177,312.95047940011136,312.9337985999882,313.93379000015557,0,1,311.95047420007177,None,,,4,M,4,L,CIB,2021_Jul_13_1331,WASABI Nback,2020.2.10,60.0005639956262,
0,1,1,"[-0.2, 0.2]",None,0,0,0,0,,,,,0,0,0,0,0,112,112,112,,,,,,,,,None,None,0,313.95048230001703,None,313.95048230001703,314.95048100012355,314.93382959999144,315.9338383001741,0,1,313.95048230001703,None,,,4,M,4,L,CIB,2021_Jul_13_1331,WASABI Nback,2020.2.10,60.0005639956262,
0,1,7,"[-0.2, -0.2]",None,0,0,0,0,,,,,0,0,0,0,0,113,113,113,,,,,,,,,None,None,0,315.9504977001343,None,315.9504977001343,316.95051510003395,316.9338357001543,317.93383660004474,0,1,315.9504977001343,None,,,4,M,4,L,CIB,2021_Jul_13_1331,WASABI Nback,2020.2.10,60.0005639956262,
0,1,9,"[0.2, -0.2]",None,0,0,0,0,,,,,0,0,0,0,0,114,114,114,,,,,,,,,None,None,0,317.9505400999915,None,317.9505400999915,318.9505207000766,318.93384409998544,319.93385320017114,0,1,317.9505400999915,None,,,4,M,4,L,CIB,2021_Jul_13_1331,WASABI Nback,2020.2.10,60.0005639956262,
0,1,3,"[0.2, 0.2]",None,0,0,0,0,,,,,0,0,0,0,0,115,115,115,,,,,,,,,None,None,0,319.9505276000127,None,319.9505276000127,320.9505275001284,320.9338782001287,321.9338662000373,0,1,319.9505276000127,None,,,4,M,4,L,CIB,2021_Jul_13_1331,WASABI Nback,2020.2.10,60.0005639956262,
0,1,9,"[0.2, -0.2]",1,0,0,0,0,,,,,0,0,0,0,0,116,116,116,,,,,,,,,None,None,0,321.95055570011027,None,321.95055570011027,322.9505645001773,322.9338859000709,323.9338800001424,0,1,321.95055570011027,None,,,4,M,4,L,CIB,2021_Jul_13_1331,WASABI Nback,2020.2.10,60.0005639956262,
0,1,6,"[0.2, 0]",None,0,0,0,0,,,,,0,0,0,0,0,117,117,117,,,,,,,,,None,None,0,323.95054300013,None,323.95054300013,324.95062580006197,324.9339475000743,325.93388760020025,0,1,323.95054300013,None,,,4,M,4,L,CIB,2021_Jul_13_1331,WASABI Nback,2020.2.10,60.0005639956262,
0,1,2,"[0, 0.2]",None,0,0,0,0,,,,,0,0,0,0,0,118,118,118,,,,,,,,,None,None,0,325.9505645001773,None,325.9505645001773,326.95057080010884,326.933921799995,327.93392560002394,0,1,325.9505645001773,None,,,4,M,4,L,CIB,2021_Jul_13_1331,WASABI Nback,2020.2.10,60.0005639956262,
0,1,5,"[0, 0]",None,0,0,0,0,,,,,0,0,0,0,0,119,119,119,,,,,,,,,None,None,0,327.950580800185,None,327.950580800185,328.9505763000343,328.93391290004365,329.9339431000408,0,1,327.950580800185,None,,,4,M,4,L,CIB,2021_Jul_13_1331,WASABI Nback,2020.2.10,60.0005639956262,
1,0,,,,0,1,1,1,0,0,0,0,,,,,,,,,,,,,,,,,,,,,,,,,,,,,,372.9509217001032,None,4,M,4,L,CIB,2021_Jul_13_1331,WASABI Nback,2020.2.10,60.0005639956262,
