square,location,corrAns,trials.thisRepN,trials.thisTrialN,trials.thisN,trials.thisIndex,trials_2.thisRepN,trials_2.thisTrialN,trials_2.thisN,trials_2.thisIndex,fixation_1.started,fixation_1.stopped,grid_lines.started,grid_lines.stopped,target_square.started,target_square.stopped,fixation_2.started,fixation_2.stopped,response.corr,response.x,response.y,response.leftButton,response.click_left,response.click_right,response.started,response.stopped,ScoreReportText.started,ScoreReportText.stopped,ScoreReportResponse.keys,ScoreReportResponse.started,ScoreReportResponse.stopped,response_2.x,response_2.y,response_2.leftButton,grid_lines_2.started,grid_lines_2.stopped,target_square_2.started,target_square_2.stopped,fixation_3.started,fixation_3.stopped,response_2.click,response_2.corr,response_2.started,response_2.stopped,BodySiteInstructionText.started,BodySiteImg.started,BodySiteImg.stopped,BodySiteInstructionRead.keys,BodySiteInstructionRead.rt,BodySiteInstructionRead.started,BodySiteInstructionRead.stopped,response.click,IntensityRating.response,IntensityRating.rt,IntensityRating.started,IntensityRating.stopped,subject number,gender,distractMap first- or second-half (1 or 2),session,handedness,scanner,date,psychopyVersion,expName,frameRate,body_site_order,
6,"[0.2, 0]",None,0,0,0,0,,,,,702.0050262999721,None,703.0216800000053,None,703.0216800000053,704.0218138000928,704.005054499954,705.0050609000027,1,-0.8231481481481482,-0.47314814814814815,"[0, 0, 0]",0,0,703.0216800000053,None,,,,,,,,,,,,,,,,,,,,,,,,,,,,,,,1,M,2,25,r,ARB,2021_Oct_26_1823,2020.2.10,distractmap2,59.97454680401794,"['Left Leg', 'Left Face', 'Right Arm', 'Abdomen']",
6,"[0.2, 0]",1,0,1,1,1,,,,,,,705.021734100068,None,705.021734100068,706.0217404998839,706.0050552000757,707.005059099989,1,-0.8231481481481482,-0.47314814814814815,"[0, 0, 0]",0,0,705.021734100068,None,,,,,,,,,,,,,,,,,,,,,,,,,,,,,,,1,M,2,25,r,ARB,2021_Oct_26_1823,2020.2.10,distractmap2,59.97454680401794,"['Left Leg', 'Left Face', 'Right Arm', 'Abdomen']",
2,"[0, 0.2]",0,0,2,2,2,,,,,,,707.0217351000756,None,707.0217351000756,708.0217476999387,708.0050822000485,709.0050727999769,1,-0.8231481481481482,-0.47314814814814815,"[0, 0, 0]",0,0,707.0217351000756,None,,,,,,,,,,,,,,,,,,,,,,,,,,,,,,,1,M,2,25,r,ARB,2021_Oct_26_1823,2020.2.10,distractmap2,59.97454680401794,"['Left Leg', 'Left Face', 'Right Arm', 'Abdomen']",
9,"[0.2, -0.2]",0,0,3,3,3,,,,,,,709.0217591999099,None,709.0217591999099,710.0217466999311,710.0051035000943,711.0051066998858,1,-0.8231481481481482,-0.47314814814814815,"[0, 0, 0]",0,0,709.0217591999099,None,,,,,,,,,,,,,,,,,,,,,,,,,,,,,,,1,M,2,25,r,ARB,2021_Oct_26_1823,2020.2.10,distractmap2,59.97454680401794,"['Left Leg', 'Left Face', 'Right Arm', 'Abdomen']",
9,"[0.2, -0.2]",1,0,4,4,4,,,,,,,711.0217790000606,None,711.0217790000606,712.0217834999785,712.0051243000198,713.0051070998888,1,-0.8231481481481482,-0.47314814814814815,"[0, 0, 0]",0,0,711.0217790000606,None,,,,,,,,,,,,,,,,,,,,,,,,,,,,,,,1,M,2,25,r,ARB,2021_Oct_26_1823,2020.2.10,distractmap2,59.97454680401794,"['Left Leg', 'Left Face', 'Right Arm', 'Abdomen']",
6,"[0.2, 0]",0,0,5,5,5,,,,,,,713.0217859998811,None,713.0217859998811,714.0217778999358,714.0051345999818,715.0051329000853,1,-0.8231481481481482,-0.47314814814814815,"[0, 0, 0]",0,0,713.0217859998811,None,,,,,,,,,,,,,,,,,,,,,,,,,,,,,,,1,M,2,25,r,ARB,2021_Oct_26_1823,2020.2.10,distractmap2,59.97454680401794,"['Left Leg', 'Left Face', 'Right Arm', 'Abdomen']",
4,"[-0.2, 0]",0,0,6,6,6,,,,,,,715.0218022998888,None,715.0218022998888,716.0217957999557,716.0051215998828,717.0051545999013,1,-0.8231481481481482,-0.47314814814814815,"[0, 0, 0]",0,0,715.0218022998888,None,,,,,,,,,,,,,,,,,,,,,,,,,,,,,,,1,M,2,25,r,ARB,2021_Oct_26_1823,2020.2.10,distractmap2,59.97454680401794,"['Left Leg', 'Left Face', 'Right Arm', 'Abdomen']",
3,"[0.2, 0.2]",0,0,7,7,7,,,,,,,717.0218211999163,None,717.0218211999163,718.021808499936,718.005151099991,719.0051710999105,1,-0.8231481481481482,-0.47314814814814815,"[0, 0, 0]",0,0,717.0218211999163,None,,,,,,,,,,,,,,,,,,,,,,,,,,,,,,,1,M,2,25,r,ARB,2021_Oct_26_1823,2020.2.10,distractmap2,59.97454680401794,"['Left Leg', 'Left Face', 'Right Arm', 'Abdomen']",
3,"[0.2, 0.2]",1,0,8,8,8,,,,,,,719.0218207000289,None,719.0218207000289,720.0218348000199,720.0051730999257,721.005169400014,1,-0.8231481481481482,-0.47314814814814815,"[0, 0, 0]",0,0,719.0218207000289,None,,,,,,,,,,,,,,,,,,,,,,,,,,,,,,,1,M,2,25,r,ARB,2021_Oct_26_1823,2020.2.10,distractmap2,59.97454680401794,"['Left Leg', 'Left Face', 'Right Arm', 'Abdomen']",
8,"[0, -0.2]",0,0,9,9,9,,,,,,,721.0218515000306,None,721.0218515000306,722.0218195999041,722.00516709988,723.0051855000202,1,-0.8231481481481482,-0.47314814814814815,"[0, 0, 0]",0,0,721.0218515000306,None,,,,,,,,,,,,,,,,,,,,,,,,,,,,,,,1,M,2,25,r,ARB,2021_Oct_26_1823,2020.2.10,distractmap2,59.97454680401794,"['Left Leg', 'Left Face', 'Right Arm', 'Abdomen']",
1,"[-0.2, 0.2]",0,0,10,10,10,,,,,,,723.0218670000322,None,723.0218670000322,724.0218579000793,724.0051863999106,725.0052179999184,1,-0.8231481481481482,-0.47314814814814815,"[0, 0, 0]",0,0,723.0218670000322,None,,,,,,,,,,,,,,,,,,,,,,,,,,,,,,,1,M,2,25,r,ARB,2021_Oct_26_1823,2020.2.10,distractmap2,59.97454680401794,"['Left Leg', 'Left Face', 'Right Arm', 'Abdomen']",
2,"[0, 0.2]",0,0,11,11,11,,,,,,,725.0218728000764,None,725.0218728000764,726.0218779998831,726.0052155999001,727.0052153998986,1,-0.8231481481481482,-0.47314814814814815,"[0, 0, 0]",0,0,725.0218728000764,None,,,,,,,,,,,,,,,,,,,,,,,,,,,,,,,1,M,2,25,r,ARB,2021_Oct_26_1823,2020.2.10,distractmap2,59.97454680401794,"['Left Leg', 'Left Face', 'Right Arm', 'Abdomen']",
4,"[-0.2, 0]",0,0,12,12,12,,,,,,,727.0218795998953,None,727.0218795998953,728.021895899903,728.0052400999703,729.0052523000631,1,-0.8231481481481482,-0.47314814814814815,"[0, 0, 0]",0,0,727.0218795998953,None,,,,,,,,,,,,,,,,,,,,,,,,,,,,,,,1,M,2,25,r,ARB,2021_Oct_26_1823,2020.2.10,distractmap2,59.97454680401794,"['Left Leg', 'Left Face', 'Right Arm', 'Abdomen']",
4,"[-0.2, 0]",1,0,13,13,13,,,,,,,729.021887900075,None,729.021887900075,730.0218992000446,730.0052398000844,731.0052618999034,0,-0.8231481481481482,-0.47314814814814815,"[0, 0, 0]",0,0,729.021887900075,None,,,,,,,,,,,,,,,,,,,,,,,,,,,,,,,1,M,2,25,r,ARB,2021_Oct_26_1823,2020.2.10,distractmap2,59.97454680401794,"['Left Leg', 'Left Face', 'Right Arm', 'Abdomen']",
8,"[0, -0.2]",0,0,14,14,14,,,,,,,731.0219159999397,None,731.0219159999397,732.0219127999153,732.0052628000267,733.0052589999977,1,-0.8231481481481482,-0.47314814814814815,"[0, 0, 0]",0,0,731.0219159999397,None,,,,,,,,,,,,,,,,,,,,,,,,,,,,,,,1,M,2,25,r,ARB,2021_Oct_26_1823,2020.2.10,distractmap2,59.97454680401794,"['Left Leg', 'Left Face', 'Right Arm', 'Abdomen']",
5,"[0, 0]",0,0,15,15,15,,,,,,,733.0219203999732,None,733.0219203999732,734.0219397998881,734.0052859000862,735.0052924999036,1,-0.8231481481481482,-0.47314814814814815,"[0, 0, 0]",0,0,733.0219203999732,None,,,,,,,,,,,,,,,,,,,,,,,,,,,,,,,1,M,2,25,r,ARB,2021_Oct_26_1823,2020.2.10,distractmap2,59.97454680401794,"['Left Leg', 'Left Face', 'Right Arm', 'Abdomen']",
5,"[0, 0]",1,0,16,16,16,,,,,,,735.021938299993,None,735.021938299993,736.0219616999384,736.0051990998909,737.0053089999128,1,-0.8231481481481482,-0.47314814814814815,"[0, 0, 0]",0,0,735.021938299993,None,,,,,,,,,,,,,,,,,,,,,,,,,,,,,,,1,M,2,25,r,ARB,2021_Oct_26_1823,2020.2.10,distractmap2,59.97454680401794,"['Left Leg', 'Left Face', 'Right Arm', 'Abdomen']",
1,"[-0.2, 0.2]",0,0,17,17,17,,,,,,,737.0219680999871,None,737.0219680999871,738.0219771000557,738.0053071000148,739.0053115000483,1,-0.8231481481481482,-0.47314814814814815,"[0, 0, 0]",0,0,737.0219680999871,None,,,,,,,,,,,,,,,,,,,,,,,,,,,,,,,1,M,2,25,r,ARB,2021_Oct_26_1823,2020.2.10,distractmap2,59.97454680401794,"['Left Leg', 'Left Face', 'Right Arm', 'Abdomen']",
3,"[0.2, 0.2]",0,0,18,18,18,,,,,,,739.0219646000769,None,739.0219646000769,740.0219936000649,740.0053125999402,741.0053288999479,1,-0.8231481481481482,-0.47314814814814815,"[0, 0, 0]",0,0,739.0219646000769,None,,,,,,,,,,,,,,,,,,,,,,,,,,,,,,,1,M,2,25,r,ARB,2021_Oct_26_1823,2020.2.10,distractmap2,59.97454680401794,"['Left Leg', 'Left Face', 'Right Arm', 'Abdomen']",
6,"[0.2, 0]",0,0,19,19,19,,,,,,,741.0219837999903,None,741.0219837999903,742.0219910000451,742.0053550999146,743.0053534999024,1,-0.8231481481481482,-0.47314814814814815,"[0, 0, 0]",0,0,741.0219837999903,None,,,,,,,,,,,,,,,,,,,,,,,,,,,,,,,1,M,2,25,r,ARB,2021_Oct_26_1823,2020.2.10,distractmap2,59.97454680401794,"['Left Leg', 'Left Face', 'Right Arm', 'Abdomen']",
1,"[-0.2, 0.2]",0,0,20,20,20,,,,,,,743.0220073000528,None,743.0220073000528,744.0220202000346,744.0053606000729,745.0053912000731,1,-0.8231481481481482,-0.47314814814814815,"[0, 0, 0]",0,0,743.0220073000528,None,,,,,,,,,,,,,,,,,,,,,,,,,,,,,,,1,M,2,25,r,ARB,2021_Oct_26_1823,2020.2.10,distractmap2,59.97454680401794,"['Left Leg', 'Left Face', 'Right Arm', 'Abdomen']",
1,"[-0.2, 0.2]",1,0,21,21,21,,,,,,,745.022029899992,None,745.022029899992,746.0220210000407,746.0053767000791,747.0053761000745,1,-0.8231481481481482,-0.47314814814814815,"[0, 0, 0]",0,0,745.022029899992,None,,,,,,,,,,,,,,,,,,,,,,,,,,,,,,,1,M,2,25,r,ARB,2021_Oct_26_1823,2020.2.10,distractmap2,59.97454680401794,"['Left Leg', 'Left Face', 'Right Arm', 'Abdomen']",
1,"[-0.2, 0.2]",1,0,22,22,22,,,,,,,747.0220355000347,None,747.0220355000347,748.0220564999618,748.0053975000046,749.0053842000198,1,-0.8231481481481482,-0.47314814814814815,"[0, 0, 0]",0,0,747.0220355000347,None,,,,,,,,,,,,,,,,,,,,,,,,,,,,,,,1,M,2,25,r,ARB,2021_Oct_26_1823,2020.2.10,distractmap2,59.97454680401794,"['Left Leg', 'Left Face', 'Right Arm', 'Abdomen']",
3,"[0.2, 0.2]",0,0,23,23,23,,,,,,,749.0220435000956,None,749.0220435000956,750.0220512000378,750.0053932999726,751.0054204999469,1,-0.8231481481481482,-0.47314814814814815,"[0, 0, 0]",0,0,749.0220435000956,None,,,,,,,,,,,,,,,,,,,,,,,,,,,,,,,1,M,2,25,r,ARB,2021_Oct_26_1823,2020.2.10,distractmap2,59.97454680401794,"['Left Leg', 'Left Face', 'Right Arm', 'Abdomen']",
2,"[0, 0.2]",0,0,24,24,24,,,,,,,751.0220788998995,None,751.0220788998995,752.0220836000517,752.0053987998981,753.0053952999879,0,-0.8231481481481482,-0.47314814814814815,"[0, 0, 0]",0,0,751.0220788998995,None,,,,,,,,,,,,,,,,,,,,,,,,,,,,,,,1,M,2,25,r,ARB,2021_Oct_26_1823,2020.2.10,distractmap2,59.97454680401794,"['Left Leg', 'Left Face', 'Right Arm', 'Abdomen']",
1,"[-0.2, 0.2]",0,0,25,25,25,,,,,,,753.0219972000923,None,753.0219972000923,754.0220941998996,754.0054248000961,755.0054214999545,1,-0.8231481481481482,-0.47314814814814815,"[0, 0, 0]",0,0,753.0219972000923,None,,,,,,,,,,,,,,,,,,,,,,,,,,,,,,,1,M,2,25,r,ARB,2021_Oct_26_1823,2020.2.10,distractmap2,59.97454680401794,"['Left Leg', 'Left Face', 'Right Arm', 'Abdomen']",
7,"[-0.2, -0.2]",0,0,26,26,26,,,,,,,755.0221037999727,None,755.0221037999727,756.0220973000396,756.0054510999471,757.0054482000414,1,-0.8231481481481482,-0.47314814814814815,"[0, 0, 0]",0,0,755.0221037999727,None,,,,,,,,,,,,,,,,,,,,,,,,,,,,,,,1,M,2,25,r,ARB,2021_Oct_26_1823,2020.2.10,distractmap2,59.97454680401794,"['Left Leg', 'Left Face', 'Right Arm', 'Abdomen']",
7,"[-0.2, -0.2]",1,0,27,27,27,,,,,,,757.0221245000139,None,757.0221245000139,758.0221080000047,758.0054434998892,759.0054713999853,1,-0.8231481481481482,-0.47314814814814815,"[0, 0, 0]",0,0,757.0221245000139,None,,,,,,,,,,,,,,,,,,,,,,,,,,,,,,,1,M,2,25,r,ARB,2021_Oct_26_1823,2020.2.10,distractmap2,59.97454680401794,"['Left Leg', 'Left Face', 'Right Arm', 'Abdomen']",
2,"[0, 0.2]",0,0,28,28,28,,,,,,,759.0221283000428,None,759.0221283000428,760.0221470000688,760.0054665000644,761.0054770999122,1,-0.8231481481481482,-0.47314814814814815,"[0, 0, 0]",0,0,759.0221283000428,None,,,,,,,,,,,,,,,,,,,,,,,,,,,,,,,1,M,2,25,r,ARB,2021_Oct_26_1823,2020.2.10,distractmap2,59.97454680401794,"['Left Leg', 'Left Face', 'Right Arm', 'Abdomen']",
6,"[0.2, 0]",0,0,29,29,29,,,,,,,761.0221535998862,None,761.0221535998862,762.0221559000202,762.0054949000478,763.0055130000692,1,-0.8231481481481482,-0.47314814814814815,"[0, 0, 0]",0,0,761.0221535998862,None,,,,,,,,,,,,,,,,,,,,,,,,,,,,,,,1,M,2,25,r,ARB,2021_Oct_26_1823,2020.2.10,distractmap2,59.97454680401794,"['Left Leg', 'Left Face', 'Right Arm', 'Abdomen']",
,,,,,,,,,,,,,,,,,,,,,,,,,,,763.0221541998908,None,space,763.0221541998908,None,,,,,,,,,,,,,,,,,,,,,,,,,,1,M,2,25,r,ARB,2021_Oct_26_1823,2020.2.10,distractmap2,59.97454680401794,"['Left Leg', 'Left Face', 'Right Arm', 'Abdomen']",
6,"[0.2, 0]",None,,,,,0,0,0,0,819.8559355000034,None,,,,,,,,,,,,,,,,,,,,None,None,"[0, 0, 0]",820.872631700011,None,820.872631700011,821.87253589998,821.8559385000262,822.8559486998711,"[0, 0, 0]",1,820.872631700011,None,,,,,,,,,,,,,1,M,2,25,r,ARB,2021_Oct_26_1823,2020.2.10,distractmap2,59.97454680401794,"['Left Leg', 'Left Face', 'Right Arm', 'Abdomen']",
7,"[-0.2, -0.2]",None,,,,,0,1,1,1,,,,,,,,,,,,,,,,,,,,,,None,None,"[0, 0, 0]",822.8726077999454,824.8726292999927,822.8726077999454,823.8726397000719,823.855933399871,824.8559761000797,"[0, 0, 0]",1,822.8726077999454,824.8726292999927,,,,,,,,,,,,,1,M,2,25,r,ARB,2021_Oct_26_1823,2020.2.10,distractmap2,59.97454680401794,"['Left Leg', 'Left Face', 'Right Arm', 'Abdomen']",
6,"[0.2, 0]",1,,,,,0,2,2,2,,,,,,,,,,,,,,,,,,,,,,None,None,"[0, 0, 0]",824.8892985999119,826.8893403999973,824.8892985999119,825.8892985000275,825.8726230000611,826.8726627998985,"[0, 0, 0]",1,824.8892985999119,826.8893403999973,,,,,,,,,,,,,1,M,2,25,r,ARB,2021_Oct_26_1823,2020.2.10,distractmap2,59.97454680401794,"['Left Leg', 'Left Face', 'Right Arm', 'Abdomen']",
2,"[0, 0.2]",0,,,,,0,3,3,3,,,,,,,,,,,,,,,,,,,,,,None,None,"[0, 0, 0]",826.9059929999057,828.9060011000838,826.9059929999057,827.9060009999666,827.8893367000856,828.8893253998831,"[0, 0, 0]",1,826.9059929999057,828.9060011000838,,,,,,,,,,,,,1,M,2,25,r,ARB,2021_Oct_26_1823,2020.2.10,distractmap2,59.97454680401794,"['Left Leg', 'Left Face', 'Right Arm', 'Abdomen']",
5,"[0, 0]",0,,,,,0,4,4,4,,,,,,,,,,,,,,,,,,,,,,None,None,"[0, 0, 0]",828.9226708998904,830.9226935000625,828.9226708998904,829.9226836999878,829.9060148999561,830.9060017000884,"[0, 0, 0]",1,828.9226708998904,830.9226935000625,,,,,,,,,,,,,1,M,2,25,r,ARB,2021_Oct_26_1823,2020.2.10,distractmap2,59.97454680401794,"['Left Leg', 'Left Face', 'Right Arm', 'Abdomen']",
4,"[-0.2, 0]",0,,,,,0,5,5,5,,,,,,,,,,,,,,,,,,,,,,None,None,"[0, 0, 0]",830.9393587999512,832.9393557999283,830.9393587999512,831.9393565999344,831.9226847998798,832.9226818999741,"[0, 0, 0]",1,830.9393587999512,832.9393557999283,,,,,,,,,,,,,1,M,2,25,r,ARB,2021_Oct_26_1823,2020.2.10,distractmap2,59.97454680401794,"['Left Leg', 'Left Face', 'Right Arm', 'Abdomen']",
4,"[-0.2, 0]",0,,,,,0,6,6,6,,,,,,,,,,,,,,,,,,,,,,None,None,"[0, 0, 0]",832.9560171999037,834.9560549999587,832.9560171999037,833.9560302000027,833.9393895000685,834.9393863999285,"[0, 0, 0]",1,832.9560171999037,834.9560549999587,,,,,,,,,,,,,1,M,2,25,r,ARB,2021_Oct_26_1823,2020.2.10,distractmap2,59.97454680401794,"['Left Leg', 'Left Face', 'Right Arm', 'Abdomen']",
7,"[-0.2, -0.2]",0,,,,,0,7,7,7,,,,,,,,,,,,,,,,,,,,,,None,None,"[0, 0, 0]",834.9727292000316,836.9727409000043,834.9727292000316,835.9727252998855,835.9560616998933,836.9560523000546,"[0, 0, 0]",1,834.9727292000316,836.9727409000043,,,,,,,,,,,,,1,M,2,25,r,ARB,2021_Oct_26_1823,2020.2.10,distractmap2,59.97454680401794,"['Left Leg', 'Left Face', 'Right Arm', 'Abdomen']",
4,"[-0.2, 0]",1,,,,,0,8,8,8,,,,,,,,,,,,,,,,,,,,,,None,None,"[0, 0, 0]",836.9893916000146,838.9894218000118,836.9893916000146,837.9894224000163,837.9727552998811,838.972738099983,"[0, 0, 0]",1,836.9893916000146,838.9894218000118,,,,,,,,,,,,,1,M,2,25,r,ARB,2021_Oct_26_1823,2020.2.10,distractmap2,59.97454680401794,"['Left Leg', 'Left Face', 'Right Arm', 'Abdomen']",
3,"[0.2, 0.2]",0,,,,,0,9,9,9,,,,,,,,,,,,,,,,,,,,,,None,None,"[0, 0, 0]",839.0060827999841,841.006081599975,839.0060827999841,840.0060928000603,839.9894079999067,840.9894944999833,"[0, 0, 0]",1,839.0060827999841,841.006081599975,,,,,,,,,,,,,1,M,2,25,r,ARB,2021_Oct_26_1823,2020.2.10,distractmap2,59.97454680401794,"['Left Leg', 'Left Face', 'Right Arm', 'Abdomen']",
5,"[0, 0]",0,,,,,0,10,10,10,,,,,,,,,,,,,,,,,,,,,,None,None,"[0, 0, 0]",841.0227602000814,843.0227780998684,841.0227602000814,842.0227789999917,842.0061037999112,843.0061051999219,"[0, 0, 0]",1,841.0227602000814,843.0227780998684,,,,,,,,,,,,,1,M,2,25,r,ARB,2021_Oct_26_1823,2020.2.10,distractmap2,59.97454680401794,"['Left Leg', 'Left Face', 'Right Arm', 'Abdomen']",
3,"[0.2, 0.2]",1,,,,,0,11,11,11,,,,,,,,,,,,,,,,,,,,,,None,None,"[0, 0, 0]",843.039471300086,845.0394454998896,843.039471300086,844.0394585998729,844.0227820000146,845.0227938999888,"[0, 0, 0]",1,843.039471300086,845.0394454998896,,,,,,,,,,,,,1,M,2,25,r,ARB,2021_Oct_26_1823,2020.2.10,distractmap2,59.97454680401794,"['Left Leg', 'Left Face', 'Right Arm', 'Abdomen']",
1,"[-0.2, 0.2]",0,,,,,0,12,12,12,,,,,,,,,,,,,,,,,,,,,,None,None,"[0, 0, 0]",845.0561166000552,847.0561317000538,845.0561166000552,846.0561376998667,846.0394806000404,847.0394866999704,"[0, 0, 0]",1,845.0561166000552,847.0561317000538,,,,,,,,,,,,,1,M,2,25,r,ARB,2021_Oct_26_1823,2020.2.10,distractmap2,59.97454680401794,"['Left Leg', 'Left Face', 'Right Arm', 'Abdomen']",
9,"[0.2, -0.2]",0,,,,,0,13,13,13,,,,,,,,,,,,,,,,,,,,,,None,None,"[0, 0, 0]",847.0728215000127,849.0728285999503,847.0728215000127,848.0728152000811,848.0561426999047,849.0561587000266,"[0, 0, 0]",1,847.0728215000127,849.0728285999503,,,,,,,,,,,,,1,M,2,25,r,ARB,2021_Oct_26_1823,2020.2.10,distractmap2,59.97454680401794,"['Left Leg', 'Left Face', 'Right Arm', 'Abdomen']",
9,"[0.2, -0.2]",0,,,,,0,14,14,14,,,,,,,,,,,,,,,,,,,,,,None,None,"[0, 0, 0]",849.0894945999607,851.089502699906,849.0894945999607,850.0895151998848,850.0728454000782,851.0728513998911,"[0, 0, 0]",0,849.0894945999607,851.089502699906,,,,,,,,,,,,,1,M,2,25,r,ARB,2021_Oct_26_1823,2020.2.10,distractmap2,59.97454680401794,"['Left Leg', 'Left Face', 'Right Arm', 'Abdomen']",
8,"[0, -0.2]",0,,,,,0,15,15,15,,,,,,,,,,,,,,,,,,,,,,None,None,"[0, 0, 0]",851.1061748000793,853.1061702000443,851.1061748000793,852.1061690000352,852.0895163998939,853.0895340999123,"[0, 0, 0]",1,851.1061748000793,853.1061702000443,,,,,,,,,,,,,1,M,2,25,r,ARB,2021_Oct_26_1823,2020.2.10,distractmap2,59.97454680401794,"['Left Leg', 'Left Face', 'Right Arm', 'Abdomen']",
6,"[0.2, 0]",0,,,,,0,16,16,16,,,,,,,,,,,,,,,,,,,,,,None,None,"[0, 0, 0]",853.1228759000078,855.1228757998906,853.1228759000078,854.1228730999865,854.1061915999744,855.106197899906,"[0, 0, 0]",1,853.1228759000078,855.1228757998906,,,,,,,,,,,,,1,M,2,25,r,ARB,2021_Oct_26_1823,2020.2.10,distractmap2,59.97454680401794,"['Left Leg', 'Left Face', 'Right Arm', 'Abdomen']",
3,"[0.2, 0.2]",0,,,,,0,17,17,17,,,,,,,,,,,,,,,,,,,,,,None,None,"[0, 0, 0]",855.1395503999665,857.1395765000489,855.1395503999665,856.139558600029,856.1228656999301,857.1223985999823,"[0, 0, 0]",1,855.1395503999665,857.1395765000489,,,,,,,,,,,,,1,M,2,25,r,ARB,2021_Oct_26_1823,2020.2.10,distractmap2,59.97454680401794,"['Left Leg', 'Left Face', 'Right Arm', 'Abdomen']",
6,"[0.2, 0]",1,,,,,0,18,18,18,,,,,,,,,,,,,,,,,,,,,,None,None,"[0, 0, 0]",857.1562222000211,859.1562258999329,857.1562222000211,858.1562331998721,858.1395741000306,859.1395787000656,"[0, 0, 0]",0,857.1562222000211,859.1562258999329,,,,,,,,,,,,,1,M,2,25,r,ARB,2021_Oct_26_1823,2020.2.10,distractmap2,59.97454680401794,"['Left Leg', 'Left Face', 'Right Arm', 'Abdomen']",
5,"[0, 0]",0,,,,,0,19,19,19,,,,,,,,,,,,,,,,,,,,,,None,None,"[0, 0, 0]",859.1728908999357,861.1729182999115,859.1728908999357,860.1728976999875,860.1562506998889,861.156278999988,"[0, 0, 0]",1,859.1728908999357,861.1729182999115,,,,,,,,,,,,,1,M,2,25,r,ARB,2021_Oct_26_1823,2020.2.10,distractmap2,59.97454680401794,"['Left Leg', 'Left Face', 'Right Arm', 'Abdomen']",
7,"[-0.2, -0.2]",0,,,,,0,20,20,20,,,,,,,,,,,,,,,,,,,,,,None,None,"[0, 0, 0]",861.1896057000849,863.1896031999495,861.1896057000849,862.1896122999024,862.1729329000227,863.1729174000211,"[0, 0, 0]",1,861.1896057000849,863.1896031999495,,,,,,,,,,,,,1,M,2,25,r,ARB,2021_Oct_26_1823,2020.2.10,distractmap2,59.97454680401794,"['Left Leg', 'Left Face', 'Right Arm', 'Abdomen']",
5,"[0, 0]",1,,,,,0,21,21,21,,,,,,,,,,,,,,,,,,,,,,None,None,"[0, 0, 0]",863.2062724998686,865.2062870000955,863.2062724998686,864.2057890999131,864.189626300009,865.1896130999085,"[0, 0, 0]",1,863.2062724998686,865.2062870000955,,,,,,,,,,,,,1,M,2,25,r,ARB,2021_Oct_26_1823,2020.2.10,distractmap2,59.97454680401794,"['Left Leg', 'Left Face', 'Right Arm', 'Abdomen']",
1,"[-0.2, 0.2]",0,,,,,0,22,22,22,,,,,,,,,,,,,,,,,,,,,,None,None,"[0, 0, 0]",865.222955300007,867.22294960008,865.222955300007,866.2228687999304,866.2062875998672,867.206287200097,"[0, 0, 0]",1,865.222955300007,867.22294960008,,,,,,,,,,,,,1,M,2,25,r,ARB,2021_Oct_26_1823,2020.2.10,distractmap2,59.97454680401794,"['Left Leg', 'Left Face', 'Right Arm', 'Abdomen']",
7,"[-0.2, -0.2]",0,,,,,0,23,23,23,,,,,,,,,,,,,,,,,,,,,,None,None,"[0, 0, 0]",867.2396422000602,869.2396497998852,867.2396422000602,868.2396213000175,868.2229724999052,869.2229674998671,"[0, 0, 0]",1,867.2396422000602,869.2396497998852,,,,,,,,,,,,,1,M,2,25,r,ARB,2021_Oct_26_1823,2020.2.10,distractmap2,59.97454680401794,"['Left Leg', 'Left Face', 'Right Arm', 'Abdomen']",
9,"[0.2, -0.2]",0,,,,,0,24,24,24,,,,,,,,,,,,,,,,,,,,,,None,None,"[0, 0, 0]",869.2562247000169,871.2563290998805,869.2562247000169,870.2563145998865,870.2396589000709,871.2396730999462,"[0, 0, 0]",1,869.2562247000169,871.2563290998805,,,,,,,,,,,,,1,M,2,25,r,ARB,2021_Oct_26_1823,2020.2.10,distractmap2,59.97454680401794,"['Left Leg', 'Left Face', 'Right Arm', 'Abdomen']",
3,"[0.2, 0.2]",0,,,,,0,25,25,25,,,,,,,,,,,,,,,,,,,,,,None,None,"[0, 0, 0]",871.2729797000065,873.2729956000112,871.2729797000065,872.2730016000569,872.256340400083,873.2563430999871,"[0, 0, 0]",1,871.2729797000065,873.2729956000112,,,,,,,,,,,,,1,M,2,25,r,ARB,2021_Oct_26_1823,2020.2.10,distractmap2,59.97454680401794,"['Left Leg', 'Left Face', 'Right Arm', 'Abdomen']",
9,"[0.2, -0.2]",1,,,,,0,26,26,26,,,,,,,,,,,,,,,,,,,,,,None,None,"[0, 0, 0]",873.2896954000462,875.2896900000051,873.2896954000462,874.289690699894,874.2730046000797,875.2730320000555,"[0, 0, 0]",0,873.2896954000462,875.2896900000051,,,,,,,,,,,,,1,M,2,25,r,ARB,2021_Oct_26_1823,2020.2.10,distractmap2,59.97454680401794,"['Left Leg', 'Left Face', 'Right Arm', 'Abdomen']",
6,"[0.2, 0]",0,,,,,0,27,27,27,,,,,,,,,,,,,,,,,,,,,,None,None,"[0, 0, 0]",875.3063527999911,877.3063713000156,875.3063527999911,876.306375300046,876.289693800034,877.289717500098,"[0, 0, 0]",1,875.3063527999911,877.3063713000156,,,,,,,,,,,,,1,M,2,25,r,ARB,2021_Oct_26_1823,2020.2.10,distractmap2,59.97454680401794,"['Left Leg', 'Left Face', 'Right Arm', 'Abdomen']",
2,"[0, 0.2]",0,,,,,0,28,28,28,,,,,,,,,,,,,,,,,,,,,,None,None,"[0, 0, 0]",877.3230290999636,879.323057099944,877.3230290999636,878.323037300026,878.306385200005,879.306395499967,"[0, 0, 0]",1,877.3230290999636,879.323057099944,,,,,,,,,,,,,1,M,2,25,r,ARB,2021_Oct_26_1823,2020.2.10,distractmap2,59.97454680401794,"['Left Leg', 'Left Face', 'Right Arm', 'Abdomen']",
5,"[0, 0]",0,,,,,0,29,29,29,,,,,,,,,,,,,,,,,,,,,,None,None,"[0, 0, 0]",879.3397375999484,881.3397482000291,879.3397375999484,880.3397188999224,880.3230522999074,881.3230729999486,"[0, 0, 0]",1,879.3397375999484,881.3397482000291,,,,,,,,,,,,,1,M,2,25,r,ARB,2021_Oct_26_1823,2020.2.10,distractmap2,59.97454680401794,"['Left Leg', 'Left Face', 'Right Arm', 'Abdomen']",
,,,,,,,,,,,,,,,,,,,,,,,,,,,881.3563989999238,None,space,881.3563989999238,None,,,,,,,,,,,,,,,,,,,,,,,,,,1,M,2,25,r,ARB,2021_Oct_26_1823,2020.2.10,distractmap2,59.97454680401794,"['Left Leg', 'Left Face', 'Right Arm', 'Abdomen']",
5,"[0, 0]",None,0,0,0,0,,,,,1278.7932780000847,None,1281.526235199999,None,1281.526235199999,1282.526245499961,1282.526245499961,None,1,None,None,"[0, 0, 0]",,,1281.526235199999,None,,,,,,,,,,,,,,,,,,,927.4903603000566,927.4903603000566,None,space,326.70845559984446,927.4903603000566,None,"[0, 0, 0]",,,,,1,M,2,25,r,ARB,2021_Oct_26_1823,2020.2.10,distractmap2,59.97454680401794,"['Left Leg', 'Left Face', 'Right Arm', 'Abdomen']",
5,"[0, 0]",1,0,1,1,1,,,,,,,1283.5262502999976,1283.5262502999976,1283.5262502999976,1284.5263322000392,1284.5095893999096,1285.509616299998,1,None,None,"[0, 0, 0]",,,1283.5262502999976,1283.5262502999976,,,,,,,,,,,,,,,,,,,,,,,,,,"[0, 0, 0]",,,,,1,M,2,25,r,ARB,2021_Oct_26_1823,2020.2.10,distractmap2,59.97454680401794,"['Left Leg', 'Left Face', 'Right Arm', 'Abdomen']",
4,"[-0.2, 0]",0,0,2,2,2,,,,,,,1285.5262863999233,1285.5262863999233,1285.5262863999233,1286.5262738000602,1286.509632299887,1287.5096376000438,1,None,None,"[0, 0, 0]",,,1285.5262863999233,1285.5262863999233,,,,,,,,,,,,,,,,,,,,,,,,,,"[0, 0, 0]",,,,,1,M,2,25,r,ARB,2021_Oct_26_1823,2020.2.10,distractmap2,59.97454680401794,"['Left Leg', 'Left Face', 'Right Arm', 'Abdomen']",
2,"[0, 0.2]",0,0,3,3,3,,,,,,,1287.5262921999674,1287.5262921999674,1287.5262921999674,1288.5263256998733,1288.5096485998947,1289.5096281999722,1,None,None,"[0, 0, 0]",,,1287.5262921999674,1287.5262921999674,,,,,,,,,,,,,,,,,,,,,,,,,,"[0, 0, 0]",,,,,1,M,2,25,r,ARB,2021_Oct_26_1823,2020.2.10,distractmap2,59.97454680401794,"['Left Leg', 'Left Face', 'Right Arm', 'Abdomen']",
6,"[0.2, 0]",0,0,4,4,4,,,,,,,1289.5763528000098,1289.5763528000098,1289.5763528000098,1290.5763310000766,1290.559652700089,None,1,None,None,"[0, 0, 0]",,,1289.5763528000098,1289.5763528000098,,,,,,,,,,,,,,,,,,,,,,,,,,"[0, 0, 0]",,,,,1,M,2,25,r,ARB,2021_Oct_26_1823,2020.2.10,distractmap2,59.97454680401794,"['Left Leg', 'Left Face', 'Right Arm', 'Abdomen']",
8,"[0, -0.2]",0,0,5,5,5,,,,,,,1291.5430058999918,None,1291.5430058999918,1292.5430105999112,1292.5262444999535,1293.526331400033,1,None,None,"[0, 0, 0]",,,1291.5430058999918,None,,,,,,,,,,,,,,,,,,,,,,,,,,"[0, 0, 0]",,,,,1,M,2,25,r,ARB,2021_Oct_26_1823,2020.2.10,distractmap2,59.97454680401794,"['Left Leg', 'Left Face', 'Right Arm', 'Abdomen']",
1,"[-0.2, 0.2]",0,0,6,6,6,,,,,,,1293.5430224998854,1293.5430224998854,1293.5430224998854,1294.543034200091,1294.5263372000773,1295.5263620000333,1,None,None,"[0, 0, 0]",,,1293.5430224998854,1293.5430224998854,,,,,,,,,,,,,,,,,,,,,,,,,,"[0, 0, 0]",,,,,1,M,2,25,r,ARB,2021_Oct_26_1823,2020.2.10,distractmap2,59.97454680401794,"['Left Leg', 'Left Face', 'Right Arm', 'Abdomen']",
4,"[-0.2, 0]",0,0,7,7,7,,,,,,,1295.5430328000803,1295.5430328000803,1295.5430328000803,1296.5430421000347,1296.5263696999755,1297.5263664000668,1,None,None,"[0, 0, 0]",,,1295.5430328000803,1295.5430328000803,,,,,,,,,,,,,,,,,,,,,,,,,,"[0, 0, 0]",,,,,1,M,2,25,r,ARB,2021_Oct_26_1823,2020.2.10,distractmap2,59.97454680401794,"['Left Leg', 'Left Face', 'Right Arm', 'Abdomen']",
8,"[0, -0.2]",0,0,8,8,8,,,,,,,1297.5430582999252,1297.5430582999252,1297.5430582999252,1298.5430431000423,1298.5263791999314,1299.526392400032,1,None,None,"[0, 0, 0]",,,1297.5430582999252,1297.5430582999252,,,,,,,,,,,,,,,,,,,,,,,,,,"[0, 0, 0]",,,,,1,M,2,25,r,ARB,2021_Oct_26_1823,2020.2.10,distractmap2,59.97454680401794,"['Left Leg', 'Left Face', 'Right Arm', 'Abdomen']",
8,"[0, -0.2]",1,0,9,9,9,,,,,,,1299.5430713000242,1299.5430713000242,1299.5430713000242,1300.5430731999222,1300.5263106999919,1301.5263982999604,1,None,None,"[0, 0, 0]",,,1299.5430713000242,1299.5430713000242,,,,,,,,,,,,,,,,,,,,,,,,,,"[0, 0, 0]",,,,,1,M,2,25,r,ARB,2021_Oct_26_1823,2020.2.10,distractmap2,59.97454680401794,"['Left Leg', 'Left Face', 'Right Arm', 'Abdomen']",
,,,,,,,,,,,1301.5430676999968,None,,,,,,,,,,,,,,,,,,,,,,,,,,,,,,,,,,,,,,,,,50.74074074074074,1261.0918126599863,,,1,M,2,25,r,ARB,2021_Oct_26_1823,2020.2.10,distractmap2,59.97454680401794,"['Left Leg', 'Left Face', 'Right Arm', 'Abdomen']",
3,"[0.2, 0.2]",None,0,0,0,0,,,,,1318.7434884998947,None,1321.5765565000474,None,1321.5765565000474,1322.5765672000125,1322.55990880006,1323.5599277000874,1,None,None,"[0, 0, 0]",,,1321.5765565000474,None,,,,,,,,,,,,,,,,,,,,,,,,,,"[0, 0, 0]",,,0.015245340066030622,5.013329739915207,1,M,2,25,r,ARB,2021_Oct_26_1823,2020.2.10,distractmap2,59.97454680401794,"['Left Leg', 'Left Face', 'Right Arm', 'Abdomen']",
4,"[-0.2, 0]",0,0,1,1,1,,,,,,,1323.5765925000887,None,1323.5765925000887,1324.576616999926,1324.5599165000021,1325.5599311999977,1,None,None,"[0, 0, 0]",,,1323.5765925000887,None,,,,,,,,,,,,,,,,,,,,,,,,,,"[0, 0, 0]",,,,,1,M,2,25,r,ARB,2021_Oct_26_1823,2020.2.10,distractmap2,59.97454680401794,"['Left Leg', 'Left Face', 'Right Arm', 'Abdomen']",
1,"[-0.2, 0.2]",0,0,2,2,2,,,,,,,1325.5765947999898,1325.5765947999898,1325.5765947999898,1326.5766163999215,1326.5599617999978,1327.5599879000802,1,None,None,"[0, 0, 0]",,,1325.5765947999898,1325.5765947999898,,,,,,,,,,,,,,,,,,,,,,,,,,"[0, 0, 0]",,,,,1,M,2,25,r,ARB,2021_Oct_26_1823,2020.2.10,distractmap2,59.97454680401794,"['Left Leg', 'Left Face', 'Right Arm', 'Abdomen']",
2,"[0, 0.2]",0,0,3,3,3,,,,,,,1327.5766110999975,1327.5766110999975,1327.5766110999975,1328.57663149992,1328.5599696000572,1329.5598738999106,1,None,None,"[0, 0, 0]",,,1327.5766110999975,1327.5766110999975,,,,,,,,,,,,,,,,,,,,,,,,,,"[0, 0, 0]",,,,,1,M,2,25,r,ARB,2021_Oct_26_1823,2020.2.10,distractmap2,59.97454680401794,"['Left Leg', 'Left Face', 'Right Arm', 'Abdomen']",
2,"[0, 0.2]",1,0,4,4,4,,,,,,,1329.6102754999883,1329.6102754999883,1329.6102754999883,1330.6099946000613,1330.5933020000812,None,1,None,None,"[0, 0, 0]",,,1329.6102754999883,1329.6102754999883,,,,,,,,,,,,,,,,,,,,,,,,,,"[0, 0, 0]",,,,,1,M,2,25,r,ARB,2021_Oct_26_1823,2020.2.10,distractmap2,59.97454680401794,"['Left Leg', 'Left Face', 'Right Arm', 'Abdomen']",
5,"[0, 0]",0,0,5,5,5,,,,,,,1331.5933131000493,None,1331.5933131000493,1332.5932316998951,1332.57666469994,1333.5766564998776,1,None,None,"[0, 0, 0]",,,1331.5933131000493,None,,,,,,,,,,,,,,,,,,,,,,,,,,"[0, 0, 0]",,,,,1,M,2,25,r,ARB,2021_Oct_26_1823,2020.2.10,distractmap2,59.97454680401794,"['Left Leg', 'Left Face', 'Right Arm', 'Abdomen']",
1,"[-0.2, 0.2]",0,0,6,6,6,,,,,,,1333.5933159000706,1333.5933159000706,1333.5933159000706,1334.5933322000783,1334.5766698999796,1335.5766918999143,1,None,None,"[0, 0, 0]",,,1333.5933159000706,1333.5933159000706,,,,,,,,,,,,,,,,,,,,,,,,,,"[0, 0, 0]",,,,,1,M,2,25,r,ARB,2021_Oct_26_1823,2020.2.10,distractmap2,59.97454680401794,"['Left Leg', 'Left Face', 'Right Arm', 'Abdomen']",
1,"[-0.2, 0.2]",1,0,7,7,7,,,,,,,1335.5933675998822,1335.5933675998822,1335.5933675998822,1336.5933487999719,1336.5766807000618,1337.5766845000908,1,None,None,"[0, 0, 0]",,,1335.5933675998822,1335.5933675998822,,,,,,,,,,,,,,,,,,,,,,,,,,"[0, 0, 0]",,,,,1,M,2,25,r,ARB,2021_Oct_26_1823,2020.2.10,distractmap2,59.97454680401794,"['Left Leg', 'Left Face', 'Right Arm', 'Abdomen']",
8,"[0, -0.2]",0,0,8,8,8,,,,,,,1337.5932928998955,1337.5932928998955,1337.5932928998955,1338.5933896000497,1338.576698299963,1339.5767212999053,1,None,None,"[0, 0, 0]",,,1337.5932928998955,1337.5932928998955,,,,,,,,,,,,,,,,,,,,,,,,,,"[0, 0, 0]",,,,,1,M,2,25,r,ARB,2021_Oct_26_1823,2020.2.10,distractmap2,59.97454680401794,"['Left Leg', 'Left Face', 'Right Arm', 'Abdomen']",
7,"[-0.2, -0.2]",0,0,9,9,9,,,,,,,1339.5933685000055,1339.5933685000055,1339.5933685000055,1340.5933826998807,1340.5767256000545,1341.576742599951,1,None,None,"[0, 0, 0]",,,1339.5933685000055,1339.5933685000055,,,,,,,,,,,,,,,,,,,,,,,,,,"[0, 0, 0]",,,,,1,M,2,25,r,ARB,2021_Oct_26_1823,2020.2.10,distractmap2,59.97454680401794,"['Left Leg', 'Left Face', 'Right Arm', 'Abdomen']",
,,,,,,,,,,,1341.5934065999463,None,,,,,,,,,,,,,,,,,,,,,,,,,,,,,,,,,,,,,,,,,51.358024691358025,1296.2920985601377,,,1,M,2,25,r,ARB,2021_Oct_26_1823,2020.2.10,distractmap2,59.97454680401794,"['Left Leg', 'Left Face', 'Right Arm', 'Abdomen']",
3,"[0.2, 0.2]",None,,,,,0,0,0,0,1355.6102426999714,None,,,,,,,,,,,,,,,,,,,,None,None,"[0, 0, 0]",1361.6434883999173,1363.6435829000548,1361.6434883999173,1362.643577599898,1362.643577599898,1363.6435829000548,"[0, 0, 0]",1,1361.6434883999173,1363.6435829000548,,,,,,,,,,,0.015247039962559938,5.0133372398559,1,M,2,25,r,ARB,2021_Oct_26_1823,2020.2.10,distractmap2,59.97454680401794,"['Left Leg', 'Left Face', 'Right Arm', 'Abdomen']",
3,"[0.2, 0.2]",None,,,,,0,1,1,1,,,,,,,,,,,,,,,,,,,,,,None,None,"[0, 0, 0]",1363.660238099983,1365.6602696999907,1363.660238099983,1364.660262499936,1364.6435946000274,1365.643581399927,"[0, 0, 0]",1,1363.660238099983,1365.6602696999907,,,,,,,,,,,,,1,M,2,25,r,ARB,2021_Oct_26_1823,2020.2.10,distractmap2,59.97454680401794,"['Left Leg', 'Left Face', 'Right Arm', 'Abdomen']",
5,"[0, 0]",0,,,,,0,2,2,2,,,,,,,,,,,,,,,,,,,,,,None,None,"[0, 0, 0]",1365.6769290000666,1367.676934799878,1365.6769290000666,1366.6769258000422,1366.660266400082,1367.6602845999878,"[0, 0, 0]",1,1365.6769290000666,1367.676934799878,,,,,,,,,,,,,1,M,2,25,r,ARB,2021_Oct_26_1823,2020.2.10,distractmap2,59.97454680401794,"['Left Leg', 'Left Face', 'Right Arm', 'Abdomen']",
1,"[-0.2, 0.2]",0,,,,,0,3,3,3,,,,,,,,,,,,,,,,,,,,,,None,None,"[0, 0, 0]",1367.693615199998,1369.6936174998991,1367.693615199998,1368.6936264000833,1368.676939399913,1369.6769671000075,"[0, 0, 0]",1,1367.693615199998,1369.6936174998991,,,,,,,,,,,,,1,M,2,25,r,ARB,2021_Oct_26_1823,2020.2.10,distractmap2,59.97454680401794,"['Left Leg', 'Left Face', 'Right Arm', 'Abdomen']",
5,"[0, 0]",1,,,,,0,4,4,4,,,,,,,,,,,,,,,,,,,,,,None,None,"[0, 0, 0]",1369.7439456998836,None,1369.7439456998836,1370.743625300005,1370.726958299987,None,"[0, 0, 0]",1,1369.7439456998836,None,,,,,,,,,,,,,1,M,2,25,r,ARB,2021_Oct_26_1823,2020.2.10,distractmap2,59.97454680401794,"['Left Leg', 'Left Face', 'Right Arm', 'Abdomen']",
8,"[0, -0.2]",0,,,,,0,5,5,5,,,,,,,,,,,,,,,,,,,,,,None,None,"[0, 0, 0]",1371.7269818000495,1373.7270080999006,1371.7269818000495,1372.7270108999219,1372.710281800013,1373.710325599881,"[0, 0, 0]",1,1371.7269818000495,1373.7270080999006,,,,,,,,,,,,,1,M,2,25,r,ARB,2021_Oct_26_1823,2020.2.10,distractmap2,59.97454680401794,"['Left Leg', 'Left Face', 'Right Arm', 'Abdomen']",
5,"[0, 0]",1,,,,,0,6,6,6,,,,,,,,,,,,,,,,,,,,,,None,None,"[0, 0, 0]",1373.7436540999915,1375.743663799949,1373.7436540999915,1374.7436770999338,1374.7270062000025,1375.7270221000072,"[0, 0, 0]",1,1373.7436540999915,1375.743663799949,,,,,,,,,,,,,1,M,2,25,r,ARB,2021_Oct_26_1823,2020.2.10,distractmap2,59.97454680401794,"['Left Leg', 'Left Face', 'Right Arm', 'Abdomen']",
7,"[-0.2, -0.2]",0,,,,,0,7,7,7,,,,,,,,,,,,,,,,,,,,,,None,None,"[0, 0, 0]",1375.7603366998956,1377.7603519998956,1375.7603366998956,1376.7603595999535,1376.7436929999385,1377.7436855998822,"[0, 0, 0]",1,1375.7603366998956,1377.7603519998956,,,,,,,,,,,,,1,M,2,25,r,ARB,2021_Oct_26_1823,2020.2.10,distractmap2,59.97454680401794,"['Left Leg', 'Left Face', 'Right Arm', 'Abdomen']",
5,"[0, 0]",1,,,,,0,8,8,8,,,,,,,,,,,,,,,,,,,,,,None,None,"[0, 0, 0]",1377.7770463998895,1379.7770501999184,1377.7770463998895,1378.7770364000462,1378.7603607000783,1379.7603617999703,"[0, 0, 0]",1,1377.7770463998895,1379.7770501999184,,,,,,,,,,,,,1,M,2,25,r,ARB,2021_Oct_26_1823,2020.2.10,distractmap2,59.97454680401794,"['Left Leg', 'Left Face', 'Right Arm', 'Abdomen']",
7,"[-0.2, -0.2]",1,,,,,0,9,9,9,,,,,,,,,,,,,,,,,,,,,,None,None,"[0, 0, 0]",1379.7937139000278,1381.7937149999198,1379.7937139000278,1380.7937078000978,1380.7770533000585,1381.777069099946,"[0, 0, 0]",1,1379.7937139000278,1381.7937149999198,,,,,,,,,,,,,1,M,2,25,r,ARB,2021_Oct_26_1823,2020.2.10,distractmap2,59.97454680401794,"['Left Leg', 'Left Face', 'Right Arm', 'Abdomen']",
,,,,,,,,,,,1381.810379399918,None,,,,,,,,,,,,,,,,,,,,,,,,,,,,,,,,,,,,,,,,,37.098765432098766,1341.059573959792,,,1,M,2,25,r,ARB,2021_Oct_26_1823,2020.2.10,distractmap2,59.97454680401794,"['Left Leg', 'Left Face', 'Right Arm', 'Abdomen']",
6,"[0.2, 0]",None,,,,,0,0,0,0,1399.0774868000299,None,,,,,,,,,,,,,,,,,,,,None,None,"[0, 0, 0]",1401.8437979000155,1403.8439215999097,1401.8437979000155,1402.8439068999141,1402.8439068999141,1403.8439215999097,"[0, 0, 0]",1,1401.8437979000155,1403.8439215999097,,,,,,,,,,,0.014847840182483196,5.012526240199804,1,M,2,25,r,ARB,2021_Oct_26_1823,2020.2.10,distractmap2,59.97454680401794,"['Left Leg', 'Left Face', 'Right Arm', 'Abdomen']",
1,"[-0.2, 0.2]",None,,,,,0,1,1,1,,,,,,,,,,,,,,,,,,,,,,None,None,"[0, 0, 0]",1403.8605706999078,1405.8605901000556,1403.8605706999078,1404.860590999946,1404.8438973000739,1405.8439088999294,"[0, 0, 0]",1,1403.8605706999078,1405.8605901000556,,,,,,,,,,,,,1,M,2,25,r,ARB,2021_Oct_26_1823,2020.2.10,distractmap2,59.97454680401794,"['Left Leg', 'Left Face', 'Right Arm', 'Abdomen']",
6,"[0.2, 0]",1,,,,,0,2,2,2,,,,,,,,,,,,,,,,,,,,,,None,None,"[0, 0, 0]",1405.8771838000976,1407.8772811999079,1405.8771838000976,1406.8772607999854,1406.8605953000952,1407.8605984000023,"[0, 0, 0]",1,1405.8771838000976,1407.8772811999079,,,,,,,,,,,,,1,M,2,25,r,ARB,2021_Oct_26_1823,2020.2.10,distractmap2,59.97454680401794,"['Left Leg', 'Left Face', 'Right Arm', 'Abdomen']",
4,"[-0.2, 0]",0,,,,,0,3,3,3,,,,,,,,,,,,,,,,,,,,,,None,None,"[0, 0, 0]",1407.8939384999685,1409.8939549000934,1407.8939384999685,1408.893892500084,1408.8772684999276,1409.877295400016,"[0, 0, 0]",1,1407.8939384999685,1409.8939549000934,,,,,,,,,,,,,1,M,2,25,r,ARB,2021_Oct_26_1823,2020.2.10,distractmap2,59.97454680401794,"['Left Leg', 'Left Face', 'Right Arm', 'Abdomen']",
1,"[-0.2, 0.2]",0,,,,,0,4,4,4,,,,,,,,,,,,,,,,,,,,,,None,None,"[0, 0, 0]",1409.9609586999286,None,1409.9609586999286,1410.960619600024,1410.9441982000135,None,"[0, 0, 0]",1,1409.9609586999286,None,,,,,,,,,,,,,1,M,2,25,r,ARB,2021_Oct_26_1823,2020.2.10,distractmap2,59.97454680401794,"['Left Leg', 'Left Face', 'Right Arm', 'Abdomen']",
8,"[0, -0.2]",0,,,,,0,5,5,5,,,,,,,,,,,,,,,,,,,,,,None,None,"[0, 0, 0]",1411.9272926000413,1413.9273326999974,1411.9272926000413,1412.9273013998754,1412.9106447999366,1413.9106578000356,"[0, 0, 0]",1,1411.9272926000413,1413.9273326999974,,,,,,,,,,,,,1,M,2,25,r,ARB,2021_Oct_26_1823,2020.2.10,distractmap2,59.97454680401794,"['Left Leg', 'Left Face', 'Right Arm', 'Abdomen']",
1,"[-0.2, 0.2]",1,,,,,0,6,6,6,,,,,,,,,,,,,,,,,,,,,,None,None,"[0, 0, 0]",1413.943986600032,1415.9440099999774,1413.943986600032,1414.9439856999088,1414.927314599976,1415.9273363000248,"[0, 0, 0]",1,1413.943986600032,1415.9440099999774,,,,,,,,,,,,,1,M,2,25,r,ARB,2021_Oct_26_1823,2020.2.10,distractmap2,59.97454680401794,"['Left Leg', 'Left Face', 'Right Arm', 'Abdomen']",
8,"[0, -0.2]",1,,,,,0,7,7,7,,,,,,,,,,,,,,,,,,,,,,None,None,"[0, 0, 0]",1415.9606556000654,1417.9605989998672,1415.9606556000654,1416.9606697000563,1416.9439036000986,1417.9440460000187,"[0, 0, 0]",1,1415.9606556000654,1417.9605989998672,,,,,,,,,,,,,1,M,2,25,r,ARB,2021_Oct_26_1823,2020.2.10,distractmap2,59.97454680401794,"['Left Leg', 'Left Face', 'Right Arm', 'Abdomen']",
1,"[-0.2, 0.2]",1,,,,,0,8,8,8,,,,,,,,,,,,,,,,,,,,,,None,None,"[0, 0, 0]",1417.9773561998736,1419.9773703000974,1417.9773561998736,1418.977350299945,1418.9607009999454,1419.9607104999013,"[0, 0, 0]",1,1417.9773561998736,1419.9773703000974,,,,,,,,,,,,,1,M,2,25,r,ARB,2021_Oct_26_1823,2020.2.10,distractmap2,59.97454680401794,"['Left Leg', 'Left Face', 'Right Arm', 'Abdomen']",
6,"[0.2, 0]",0,,,,,0,9,9,9,,,,,,,,,,,,,,,,,,,,,,None,None,"[0, 0, 0]",1419.9940430000424,1421.99407409993,1419.9940430000424,1420.9940426000394,1420.9773937000427,1421.9774027999956,"[0, 0, 0]",1,1419.9940430000424,1421.99407409993,,,,,,,,,,,,,1,M,2,25,r,ARB,2021_Oct_26_1823,2020.2.10,distractmap2,59.97454680401794,"['Left Leg', 'Left Face', 'Right Arm', 'Abdomen']",
,,,,,,,,,,,1422.0107257000636,None,,,,,,,,,,,,,,,,,,,,,,,,,,,,,,,,,,,,,,,,,35.37037037037037,1377.3265130601358,,,1,M,2,25,r,ARB,2021_Oct_26_1823,2020.2.10,distractmap2,59.97454680401794,"['Left Leg', 'Left Face', 'Right Arm', 'Abdomen']",
6,"[0.2, 0]",None,0,0,0,0,,,,,1435.2610599999316,None,1442.0608826000243,None,1442.0608826000243,1443.0608876999468,1443.0442274999805,1444.0442458000034,1,None,None,"[0, 0, 0]",,,1442.0608826000243,None,,,,,,,,,,,,,,,,,,,,,,,,,,"[0, 0, 0]",,,0.014818539842963219,5.012535139918327,1,M,2,25,r,ARB,2021_Oct_26_1823,2020.2.10,distractmap2,59.97454680401794,"['Left Leg', 'Left Face', 'Right Arm', 'Abdomen']",
6,"[0.2, 0]",1,0,1,1,1,,,,,,,1444.0609081999864,1444.0609081999864,1444.0609081999864,1445.0609082998708,1445.0442540000658,1446.044257499976,1,None,None,"[0, 0, 0]",,,1444.0609081999864,1444.0609081999864,,,,,,,,,,,,,,,,,,,,,,,,,,"[0, 0, 0]",,,,,1,M,2,25,r,ARB,2021_Oct_26_1823,2020.2.10,distractmap2,59.97454680401794,"['Left Leg', 'Left Face', 'Right Arm', 'Abdomen']",
1,"[-0.2, 0.2]",0,0,2,2,2,,,,,,,1446.0609150000382,1446.0609150000382,1446.0609150000382,1447.0609349999577,1447.0442723999731,1448.044274999993,1,None,None,"[0, 0, 0]",,,1446.0609150000382,1446.0609150000382,,,,,,,,,,,,,,,,,,,,,,,,,,"[0, 0, 0]",,,,,1,M,2,25,r,ARB,2021_Oct_26_1823,2020.2.10,distractmap2,59.97454680401794,"['Left Leg', 'Left Face', 'Right Arm', 'Abdomen']",
8,"[0, -0.2]",0,0,3,3,3,,,,,,,1448.0609490000643,1448.0609490000643,1448.0609490000643,1449.060938599985,1449.0442880999763,1450.0442846999504,1,None,None,"[0, 0, 0]",,,1448.0609490000643,1448.0609490000643,,,,,,,,,,,,,,,,,,,,,,,,,,"[0, 0, 0]",,,,,1,M,2,25,r,ARB,2021_Oct_26_1823,2020.2.10,distractmap2,59.97454680401794,"['Left Leg', 'Left Face', 'Right Arm', 'Abdomen']",
1,"[-0.2, 0.2]",0,0,4,4,4,,,,,,,1450.0944014000706,1450.0944014000706,1450.0944014000706,1451.0943108000793,1451.0776031999849,None,0,None,None,"[0, 0, 0]",,,1450.0944014000706,1450.0944014000706,,,,,,,,,,,,,,,,,,,,,,,,,,"[0, 0, 0]",,,,,1,M,2,25,r,ARB,2021_Oct_26_1823,2020.2.10,distractmap2,59.97454680401794,"['Left Leg', 'Left Face', 'Right Arm', 'Abdomen']",
4,"[-0.2, 0]",0,0,5,5,5,,,,,,,1452.077623799909,None,1452.077623799909,1453.0776432000566,1453.0609780999366,1454.0609909999184,1,None,None,"[0, 0, 0]",,,1452.077623799909,None,,,,,,,,,,,,,,,,,,,,,,,,,,"[0, 0, 0]",,,,,1,M,2,25,r,ARB,2021_Oct_26_1823,2020.2.10,distractmap2,59.97454680401794,"['Left Leg', 'Left Face', 'Right Arm', 'Abdomen']",
5,"[0, 0]",0,0,6,6,6,,,,,,,1454.077632999979,1454.077632999979,1454.077632999979,1455.0776406000368,1455.0609977999702,1456.0610074000433,1,None,None,"[0, 0, 0]",,,1454.077632999979,1454.077632999979,,,,,,,,,,,,,,,,,,,,,,,,,,"[0, 0, 0]",,,,,1,M,2,25,r,ARB,2021_Oct_26_1823,2020.2.10,distractmap2,59.97454680401794,"['Left Leg', 'Left Face', 'Right Arm', 'Abdomen']",
7,"[-0.2, -0.2]",0,0,7,7,7,,,,,,,1456.0776680000126,1456.0776680000126,1456.0776680000126,1457.0775820999406,1457.0610040999018,1458.061018700013,1,None,None,"[0, 0, 0]",,,1456.0776680000126,1456.0776680000126,,,,,,,,,,,,,,,,,,,,,,,,,,"[0, 0, 0]",,,,,1,M,2,25,r,ARB,2021_Oct_26_1823,2020.2.10,distractmap2,59.97454680401794,"['Left Leg', 'Left Face', 'Right Arm', 'Abdomen']",
7,"[-0.2, -0.2]",1,0,8,8,8,,,,,,,1458.0776794999838,1458.0776794999838,1458.0776794999838,1459.0776831998955,1459.0610229999293,1460.0610418999568,1,None,None,"[0, 0, 0]",,,1458.0776794999838,1458.0776794999838,,,,,,,,,,,,,,,,,,,,,,,,,,"[0, 0, 0]",,,,,1,M,2,25,r,ARB,2021_Oct_26_1823,2020.2.10,distractmap2,59.97454680401794,"['Left Leg', 'Left Face', 'Right Arm', 'Abdomen']",
7,"[-0.2, -0.2]",1,0,9,9,9,,,,,,,1460.0776903999504,1460.0776903999504,1460.0776903999504,1461.0776919999626,1461.0610291999765,1462.0610452000983,1,None,None,"[0, 0, 0]",,,1460.0776903999504,1460.0776903999504,,,,,,,,,,,,,,,,,,,,,,,,,,"[0, 0, 0]",,,,,1,M,2,25,r,ARB,2021_Oct_26_1823,2020.2.10,distractmap2,59.97454680401794,"['Left Leg', 'Left Face', 'Right Arm', 'Abdomen']",
,,,,,,,,,,,1462.077695999993,None,,,,,,,,,,,,,,,,,,,,,,,,,,,,,,,,,,,,,,,,,45.49382716049382,1418.5271264598705,,,1,M,2,25,r,ARB,2021_Oct_26_1823,2020.2.10,distractmap2,59.97454680401794,"['Left Leg', 'Left Face', 'Right Arm', 'Abdomen']",
8,"[0, -0.2]",None,0,0,0,0,,,,,1477.3114883999806,None,1482.1111514000222,None,1482.1111514000222,1483.1112027000636,1483.0945597998798,1484.094564500032,1,None,None,"[0, 0, 0]",,,1482.1111514000222,None,,,,,,,,,,,,,,,,,,,,,,,,,,"[0, 0, 0]",,,0.01454494008794427,5.011981740128249,1,M,2,25,r,ARB,2021_Oct_26_1823,2020.2.10,distractmap2,59.97454680401794,"['Left Leg', 'Left Face', 'Right Arm', 'Abdomen']",
6,"[0.2, 0]",0,0,1,1,1,,,,,,,1484.111242200015,None,1484.111242200015,1485.1112299000379,1485.094555000076,1486.0945818999317,1,None,None,"[0, 0, 0]",,,1484.111242200015,None,,,,,,,,,,,,,,,,,,,,,,,,,,"[0, 0, 0]",,,,,1,M,2,25,r,ARB,2021_Oct_26_1823,2020.2.10,distractmap2,59.97454680401794,"['Left Leg', 'Left Face', 'Right Arm', 'Abdomen']",
6,"[0.2, 0]",1,0,2,2,2,,,,,,,1486.1112530999817,1486.1112530999817,1486.1112530999817,1487.1112484999467,1487.0946303999517,1488.0945981999394,1,None,None,"[0, 0, 0]",,,1486.1112530999817,1486.1112530999817,,,,,,,,,,,,,,,,,,,,,,,,,,"[0, 0, 0]",,,,,1,M,2,25,r,ARB,2021_Oct_26_1823,2020.2.10,distractmap2,59.97454680401794,"['Left Leg', 'Left Face', 'Right Arm', 'Abdomen']",
2,"[0, 0.2]",0,0,3,3,3,,,,,,,1488.1112659999635,1488.1112659999635,1488.1112659999635,1489.1112802000716,1489.0946076998953,1490.0945983999409,1,None,None,"[0, 0, 0]",,,1488.1112659999635,1488.1112659999635,,,,,,,,,,,,,,,,,,,,,,,,,,"[0, 0, 0]",,,,,1,M,2,25,r,ARB,2021_Oct_26_1823,2020.2.10,distractmap2,59.97454680401794,"['Left Leg', 'Left Face', 'Right Arm', 'Abdomen']",
1,"[-0.2, 0.2]",0,0,4,4,4,,,,,,,1490.211459199898,1490.211459199898,1490.211459199898,1491.2112753998954,1491.1946060000919,None,1,None,None,"[0, 0, 0]",,,1490.211459199898,1490.211459199898,,,,,,,,,,,,,,,,,,,,,,,,,,"[0, 0, 0]",,,,,1,M,2,25,r,ARB,2021_Oct_26_1823,2020.2.10,distractmap2,59.97454680401794,"['Left Leg', 'Left Face', 'Right Arm', 'Abdomen']",
6,"[0.2, 0]",0,0,5,5,5,,,,,,,1492.127955700038,None,1492.127955700038,1493.1279831998982,1493.1113092000596,1494.111302800011,1,None,None,"[0, 0, 0]",,,1492.127955700038,None,,,,,,,,,,,,,,,,,,,,,,,,,,"[0, 0, 0]",,,,,1,M,2,25,r,ARB,2021_Oct_26_1823,2020.2.10,distractmap2,59.97454680401794,"['Left Leg', 'Left Face', 'Right Arm', 'Abdomen']",
9,"[0.2, -0.2]",0,0,6,6,6,,,,,,,1494.127962199971,1494.127962199971,1494.127962199971,1495.1279831000138,1495.1113237000536,1496.1113332000095,1,None,None,"[0, 0, 0]",,,1494.127962199971,1494.127962199971,,,,,,,,,,,,,,,,,,,,,,,,,,"[0, 0, 0]",,,,,1,M,2,25,r,ARB,2021_Oct_26_1823,2020.2.10,distractmap2,59.97454680401794,"['Left Leg', 'Left Face', 'Right Arm', 'Abdomen']",
1,"[-0.2, 0.2]",0,0,7,7,7,,,,,,,1496.1279772000853,1496.1279772000853,1496.1279772000853,1497.128001499921,1497.1113360999152,1498.1113285000902,1,None,None,"[0, 0, 0]",,,1496.1279772000853,1496.1279772000853,,,,,,,,,,,,,,,,,,,,,,,,,,"[0, 0, 0]",,,,,1,M,2,25,r,ARB,2021_Oct_26_1823,2020.2.10,distractmap2,59.97454680401794,"['Left Leg', 'Left Face', 'Right Arm', 'Abdomen']",
6,"[0.2, 0]",0,0,8,8,8,,,,,,,1498.128011799883,1498.128011799883,1498.128011799883,1499.1280042999424,1499.1113467998803,1500.111347500002,1,None,None,"[0, 0, 0]",,,1498.128011799883,1498.128011799883,,,,,,,,,,,,,,,,,,,,,,,,,,"[0, 0, 0]",,,,,1,M,2,25,r,ARB,2021_Oct_26_1823,2020.2.10,distractmap2,59.97454680401794,"['Left Leg', 'Left Face', 'Right Arm', 'Abdomen']",
6,"[0.2, 0]",1,0,9,9,9,,,,,,,1500.1280356999487,1500.1280356999487,1500.1280356999487,1501.1280280998908,1501.1113622998819,1502.1113740999717,1,None,None,"[0, 0, 0]",,,1500.1280356999487,1500.1280356999487,,,,,,,,,,,,,,,,,,,,,,,,,,"[0, 0, 0]",,,,,1,M,2,25,r,ARB,2021_Oct_26_1823,2020.2.10,distractmap2,59.97454680401794,"['Left Leg', 'Left Face', 'Right Arm', 'Abdomen']",
,,,,,,,,,,,1502.1280217999592,None,,,,,,,,,,,,,,,,,,,,,,,,,,,,,,,,,,,,,,,,,44.629629629629626,1457.777150360169,,,1,M,2,25,r,ARB,2021_Oct_26_1823,2020.2.10,distractmap2,59.97454680401794,"['Left Leg', 'Left Face', 'Right Arm', 'Abdomen']",
9,"[0.2, -0.2]",None,0,0,0,0,,,,,1515.3453216000926,None,1522.1615460000467,None,1522.1615460000467,1523.1615255998913,1523.1448717000894,1524.1448768998962,1,None,None,"[0, 0, 0]",,,1522.1615460000467,None,,,,,,,,,,,,,,,,,,,,,,,,,,"[0, 0, 0]",,,0.014831139938905835,5.012540939962491,1,M,2,25,r,ARB,2021_Oct_26_1823,2020.2.10,distractmap2,59.97454680401794,"['Left Leg', 'Left Face', 'Right Arm', 'Abdomen']",
9,"[0.2, -0.2]",1,0,1,1,1,,,,,,,1524.161561399931,1524.161561399931,1524.161561399931,1525.1615665000863,1525.1448915000074,1526.144912000047,1,None,None,"[0, 0, 0]",,,1524.161561399931,1524.161561399931,,,,,,,,,,,,,,,,,,,,,,,,,,"[0, 0, 0]",,,,,1,M,2,25,r,ARB,2021_Oct_26_1823,2020.2.10,distractmap2,59.97454680401794,"['Left Leg', 'Left Face', 'Right Arm', 'Abdomen']",
9,"[0.2, -0.2]",1,0,2,2,2,,,,,,,1526.161554899998,1526.161554899998,1526.161554899998,1527.1615710998885,1527.1449315999635,1528.1449263000395,1,None,None,"[0, 0, 0]",,,1526.161554899998,1526.161554899998,,,,,,,,,,,,,,,,,,,,,,,,,,"[0, 0, 0]",,,,,1,M,2,25,r,ARB,2021_Oct_26_1823,2020.2.10,distractmap2,59.97454680401794,"['Left Leg', 'Left Face', 'Right Arm', 'Abdomen']",
3,"[0.2, 0.2]",0,0,3,3,3,,,,,,,1528.1615549998824,1528.1615549998824,1528.1615549998824,1529.1615365000907,1529.144919599872,1530.1449575999286,1,None,None,"[0, 0, 0]",,,1528.1615549998824,1528.1615549998824,,,,,,,,,,,,,,,,,,,,,,,,,,"[0, 0, 0]",,,,,1,M,2,25,r,ARB,2021_Oct_26_1823,2020.2.10,distractmap2,59.97454680401794,"['Left Leg', 'Left Face', 'Right Arm', 'Abdomen']",
5,"[0, 0]",0,0,4,4,4,,,,,,,1530.1951178000309,1530.1951178000309,1530.1951178000309,1531.194955300074,1531.1782716000453,None,1,None,None,"[0, 0, 0]",,,1530.1951178000309,1530.1951178000309,,,,,,,,,,,,,,,,,,,,,,,,,,"[0, 0, 0]",,,,,1,M,2,25,r,ARB,2021_Oct_26_1823,2020.2.10,distractmap2,59.97454680401794,"['Left Leg', 'Left Face', 'Right Arm', 'Abdomen']",
4,"[-0.2, 0]",0,0,5,5,5,,,,,,,1532.178288300056,None,1532.178288300056,1533.178290599957,1533.1616092000622,1534.1616434000898,1,None,None,"[0, 0, 0]",,,1532.178288300056,None,,,,,,,,,,,,,,,,,,,,,,,,,,"[0, 0, 0]",,,,,1,M,2,25,r,ARB,2021_Oct_26_1823,2020.2.10,distractmap2,59.97454680401794,"['Left Leg', 'Left Face', 'Right Arm', 'Abdomen']",
9,"[0.2, -0.2]",0,0,6,6,6,,,,,,,1534.1783093998674,1534.1783093998674,1534.1783093998674,1535.1783169999253,1535.1616299999878,1536.161636200035,1,None,None,"[0, 0, 0]",,,1534.1783093998674,1534.1783093998674,,,,,,,,,,,,,,,,,,,,,,,,,,"[0, 0, 0]",,,,,1,M,2,25,r,ARB,2021_Oct_26_1823,2020.2.10,distractmap2,59.97454680401794,"['Left Leg', 'Left Face', 'Right Arm', 'Abdomen']",
6,"[0.2, 0]",0,0,7,7,7,,,,,,,1536.1783153000288,1536.1783153000288,1536.1783153000288,1537.1783310999162,1537.1616700000595,1538.1616507999133,1,None,None,"[0, 0, 0]",,,1536.1783153000288,1536.1783153000288,,,,,,,,,,,,,,,,,,,,,,,,,,"[0, 0, 0]",,,,,1,M,2,25,r,ARB,2021_Oct_26_1823,2020.2.10,distractmap2,59.97454680401794,"['Left Leg', 'Left Face', 'Right Arm', 'Abdomen']",
2,"[0, 0.2]",0,0,8,8,8,,,,,,,1538.1783403998706,1538.1783403998706,1538.1783403998706,1539.1783364999574,1539.161680399906,1540.161674800096,1,None,None,"[0, 0, 0]",,,1538.1783403998706,1538.1783403998706,,,,,,,,,,,,,,,,,,,,,,,,,,"[0, 0, 0]",,,,,1,M,2,25,r,ARB,2021_Oct_26_1823,2020.2.10,distractmap2,59.97454680401794,"['Left Leg', 'Left Face', 'Right Arm', 'Abdomen']",
2,"[0, 0.2]",1,0,9,9,9,,,,,,,1540.178356999997,1540.178356999997,1540.178356999997,1541.1783533999696,1541.1616756999865,1542.1617070999928,1,None,None,"[0, 0, 0]",,,1540.178356999997,1540.178356999997,,,,,,,,,,,,,,,,,,,,,,,,,,"[0, 0, 0]",,,,,1,M,2,25,r,ARB,2021_Oct_26_1823,2020.2.10,distractmap2,59.97454680401794,"['Left Leg', 'Left Face', 'Right Arm', 'Abdomen']",
,,,,,,,,,,,1542.1783720999956,None,,,,,,,,,,,,,,,,,,,,,,,,,,,,,,,,,,,,,,,,,45.98765432098765,1501.1769632599317,,,1,M,2,25,r,ARB,2021_Oct_26_1823,2020.2.10,distractmap2,59.97454680401794,"['Left Leg', 'Left Face', 'Right Arm', 'Abdomen']",
7,"[-0.2, -0.2]",None,,,,,0,0,0,0,1558.3287855000235,None,,,,,,,,,,,,,,,,,,,,None,None,"[0, 0, 0]",1562.22862170008,1564.228531199973,1562.22862170008,1563.2285390999168,1563.2285390999168,1564.228531199973,"[0, 0, 0]",1,1562.22862170008,1564.228531199973,,,,,,,,,,,0.01537584001198411,5.013670339947566,1,M,2,25,r,ARB,2021_Oct_26_1823,2020.2.10,distractmap2,59.97454680401794,"['Left Leg', 'Left Face', 'Right Arm', 'Abdomen']",
7,"[-0.2, -0.2]",None,,,,,0,1,1,1,,,,,,,,,,,,,,,,,,,,,,None,None,"[0, 0, 0]",1564.2452306998894,1566.2452414000873,1564.2452306998894,1565.245215300005,1565.228543800069,1566.228562100092,"[0, 0, 0]",1,1564.2452306998894,1566.2452414000873,,,,,,,,,,,,,1,M,2,25,r,ARB,2021_Oct_26_1823,2020.2.10,distractmap2,59.97454680401794,"['Left Leg', 'Left Face', 'Right Arm', 'Abdomen']",
7,"[-0.2, -0.2]",1,,,,,0,2,2,2,,,,,,,,,,,,,,,,,,,,,,None,None,"[0, 0, 0]",1566.2618849000428,1568.2619004000444,1566.2618849000428,1567.2619137999136,1567.2452495000325,1568.2452563999686,"[0, 0, 0]",1,1566.2618849000428,1568.2619004000444,,,,,,,,,,,,,1,M,2,25,r,ARB,2021_Oct_26_1823,2020.2.10,distractmap2,59.97454680401794,"['Left Leg', 'Left Face', 'Right Arm', 'Abdomen']",
5,"[0, 0]",0,,,,,0,3,3,3,,,,,,,,,,,,,,,,,,,,,,None,None,"[0, 0, 0]",1568.2785906998906,1570.2785906998906,1568.2785906998906,1569.278583999956,1569.2619252000004,1570.2619378000963,"[0, 0, 0]",1,1568.2785906998906,1570.2785906998906,,,,,,,,,,,,,1,M,2,25,r,ARB,2021_Oct_26_1823,2020.2.10,distractmap2,59.97454680401794,"['Left Leg', 'Left Face', 'Right Arm', 'Abdomen']",
1,"[-0.2, 0.2]",0,,,,,0,4,4,4,,,,,,,,,,,,,,,,,,,,,,None,None,"[0, 0, 0]",1570.328244500095,None,1570.328244500095,1571.328592600068,1571.3119465000927,None,"[0, 0, 0]",1,1570.328244500095,None,,,,,,,,,,,,,1,M,2,25,r,ARB,2021_Oct_26_1823,2020.2.10,distractmap2,59.97454680401794,"['Left Leg', 'Left Face', 'Right Arm', 'Abdomen']",
6,"[0.2, 0]",0,,,,,0,5,5,5,,,,,,,,,,,,,,,,,,,,,,None,None,"[0, 0, 0]",1572.3119572000578,1574.3119516998995,1572.3119572000578,1573.3119524999056,1573.295292200055,1574.2953129999805,"[0, 0, 0]",1,1572.3119572000578,1574.3119516998995,,,,,,,,,,,,,1,M,2,25,r,ARB,2021_Oct_26_1823,2020.2.10,distractmap2,59.97454680401794,"['Left Leg', 'Left Face', 'Right Arm', 'Abdomen']",
1,"[-0.2, 0.2]",1,,,,,0,6,6,6,,,,,,,,,,,,,,,,,,,,,,None,None,"[0, 0, 0]",1574.3286170999054,1576.328650200041,1574.3286170999054,1575.3286464998964,1575.3119687999133,1576.3119914000854,"[0, 0, 0]",1,1574.3286170999054,1576.328650200041,,,,,,,,,,,,,1,M,2,25,r,ARB,2021_Oct_26_1823,2020.2.10,distractmap2,59.97454680401794,"['Left Leg', 'Left Face', 'Right Arm', 'Abdomen']",
7,"[-0.2, -0.2]",0,,,,,0,7,7,7,,,,,,,,,,,,,,,,,,,,,,None,None,"[0, 0, 0]",1576.3453156999312,1578.3453251000028,1576.3453156999312,1577.345318299951,1577.3286591998767,1578.3286679999437,"[0, 0, 0]",1,1576.3453156999312,1578.3453251000028,,,,,,,,,,,,,1,M,2,25,r,ARB,2021_Oct_26_1823,2020.2.10,distractmap2,59.97454680401794,"['Left Leg', 'Left Face', 'Right Arm', 'Abdomen']",
6,"[0.2, 0]",0,,,,,0,8,8,8,,,,,,,,,,,,,,,,,,,,,,None,None,"[0, 0, 0]",1578.3619860000908,1580.3620189998765,1578.3619860000908,1579.362011600053,1579.3453518000897,1580.3448290999513,"[0, 0, 0]",1,1578.3619860000908,1580.3620189998765,,,,,,,,,,,,,1,M,2,25,r,ARB,2021_Oct_26_1823,2020.2.10,distractmap2,59.97454680401794,"['Left Leg', 'Left Face', 'Right Arm', 'Abdomen']",
7,"[-0.2, -0.2]",1,,,,,0,9,9,9,,,,,,,,,,,,,,,,,,,,,,None,None,"[0, 0, 0]",1580.3786651000846,1582.3787018998992,1580.3786651000846,1581.37868539989,1581.362036000006,1582.362109299982,"[0, 0, 0]",0,1580.3786651000846,1582.3787018998992,,,,,,,,,,,,,1,M,2,25,r,ARB,2021_Oct_26_1823,2020.2.10,distractmap2,59.97454680401794,"['Left Leg', 'Left Face', 'Right Arm', 'Abdomen']",
,,,,,,,,,,,1582.3953674999066,None,,,,,,,,,,,,,,,,,,,,,,,,,,,,,,,,,,,,,,,,,44.50617283950618,1540.4941417600494,,,1,M,2,25,r,ARB,2021_Oct_26_1823,2020.2.10,distractmap2,59.97454680401794,"['Left Leg', 'Left Face', 'Right Arm', 'Abdomen']",
4,"[-0.2, 0]",None,,,,,0,0,0,0,1599.6123567000031,None,,,,,,,,,,,,,,,,,,,,None,None,"[0, 0, 0]",1602.4288572000805,1604.4288598999847,1602.4288572000805,1603.42885320005,1603.42885320005,1604.4288598999847,"[0, 0, 0]",1,1602.4288572000805,1604.4288598999847,,,,,,,,,,,0.015185639960691333,5.013248240109533,1,M,2,25,r,ARB,2021_Oct_26_1823,2020.2.10,distractmap2,59.97454680401794,"['Left Leg', 'Left Face', 'Right Arm', 'Abdomen']",
5,"[0, 0]",None,,,,,0,1,1,1,,,,,,,,,,,,,,,,,,,,,,None,None,"[0, 0, 0]",1604.445557900006,1606.445564799942,1604.445557900006,1605.4455400998704,1605.4288947999012,1606.4288884999696,"[0, 0, 0]",1,1604.445557900006,1606.445564799942,,,,,,,,,,,,,1,M,2,25,r,ARB,2021_Oct_26_1823,2020.2.10,distractmap2,59.97454680401794,"['Left Leg', 'Left Face', 'Right Arm', 'Abdomen']",
6,"[0.2, 0]",0,,,,,0,2,2,2,,,,,,,,,,,,,,,,,,,,,,None,None,"[0, 0, 0]",1606.4622190999798,1608.4622474999633,1606.4622190999798,1607.462229900062,1607.4454779000953,1608.445579299936,"[0, 0, 0]",1,1606.4622190999798,1608.4622474999633,,,,,,,,,,,,,1,M,2,25,r,ARB,2021_Oct_26_1823,2020.2.10,distractmap2,59.97454680401794,"['Left Leg', 'Left Face', 'Right Arm', 'Abdomen']",
1,"[-0.2, 0.2]",0,,,,,0,3,3,3,,,,,,,,,,,,,,,,,,,,,,None,None,"[0, 0, 0]",1608.4788931000512,1610.4789197999053,1608.4788931000512,1609.4789235999342,1609.4622651999816,1610.4622712000273,"[0, 0, 0]",1,1608.4788931000512,1610.4789197999053,,,,,,,,,,,,,1,M,2,25,r,ARB,2021_Oct_26_1823,2020.2.10,distractmap2,59.97454680401794,"['Left Leg', 'Left Face', 'Right Arm', 'Abdomen']",
6,"[0.2, 0]",1,,,,,0,4,4,4,,,,,,,,,,,,,,,,,,,,,,None,None,"[0, 0, 0]",1610.5300588998944,None,1610.5300588998944,1611.5456087999046,1611.5122857000679,None,"[0, 0, 0]",1,1610.5300588998944,None,,,,,,,,,,,,,1,M,2,25,r,ARB,2021_Oct_26_1823,2020.2.10,distractmap2,59.97454680401794,"['Left Leg', 'Left Face', 'Right Arm', 'Abdomen']",
1,"[-0.2, 0.2]",1,,,,,0,5,5,5,,,,,,,,,,,,,,,,,,,,,,None,None,"[0, 0, 0]",1612.5122871999629,1614.5123218998779,1612.5122871999629,1613.5122988000512,1613.495626699878,1614.495630200021,"[0, 0, 0]",1,1612.5122871999629,1614.5123218998779,,,,,,,,,,,,,1,M,2,25,r,ARB,2021_Oct_26_1823,2020.2.10,distractmap2,59.97454680401794,"['Left Leg', 'Left Face', 'Right Arm', 'Abdomen']",
2,"[0, 0.2]",0,,,,,0,6,6,6,,,,,,,,,,,,,,,,,,,,,,None,None,"[0, 0, 0]",1614.5289324000478,1616.5289759000298,1614.5289324000478,1615.5288696000353,1615.512296400033,1616.512311700033,"[0, 0, 0]",1,1614.5289324000478,1616.5289759000298,,,,,,,,,,,,,1,M,2,25,r,ARB,2021_Oct_26_1823,2020.2.10,distractmap2,59.97454680401794,"['Left Leg', 'Left Face', 'Right Arm', 'Abdomen']",
3,"[0.2, 0.2]",0,,,,,0,7,7,7,,,,,,,,,,,,,,,,,,,,,,None,None,"[0, 0, 0]",1616.5456459000707,1618.5456576999277,1616.5456459000707,1617.5456345998682,1617.5289696999826,1618.528978999937,"[0, 0, 0]",1,1616.5456459000707,1618.5456576999277,,,,,,,,,,,,,1,M,2,25,r,ARB,2021_Oct_26_1823,2020.2.10,distractmap2,59.97454680401794,"['Left Leg', 'Left Face', 'Right Arm', 'Abdomen']",
6,"[0.2, 0]",0,,,,,0,8,8,8,,,,,,,,,,,,,,,,,,,,,,None,None,"[0, 0, 0]",1618.5622207999695,1620.5623620999977,1618.5622207999695,1619.5623421999626,1619.5456564000342,1620.5456544999033,"[0, 0, 0]",1,1618.5622207999695,1620.5623620999977,,,,,,,,,,,,,1,M,2,25,r,ARB,2021_Oct_26_1823,2020.2.10,distractmap2,59.97454680401794,"['Left Leg', 'Left Face', 'Right Arm', 'Abdomen']",
3,"[0.2, 0.2]",1,,,,,0,9,9,9,,,,,,,,,,,,,,,,,,,,,,None,None,"[0, 0, 0]",1620.5790156999137,1622.579006700078,1620.5790156999137,1621.579003599938,1621.562354600057,1622.5623669999186,"[0, 0, 0]",1,1620.5790156999137,1622.579006700078,,,,,,,,,,,,,1,M,2,25,r,ARB,2021_Oct_26_1823,2020.2.10,distractmap2,59.97454680401794,"['Left Leg', 'Left Face', 'Right Arm', 'Abdomen']",
,,,,,,,,,,,1622.595678200014,None,,,,,,,,,,,,,,,,,,,,,,,,,,,,,,,,,,,,,,,,,36.7283950617284,1584.211385459872,,,1,M,2,25,r,ARB,2021_Oct_26_1823,2020.2.10,distractmap2,59.97454680401794,"['Left Leg', 'Left Face', 'Right Arm', 'Abdomen']",
2,"[0, 0.2]",None,0,0,0,0,,,,,1639.9460626998916,None,1642.6458419000264,None,1642.6458419000264,1643.6458517999854,1643.6292069000192,1644.6292173999827,1,None,None,"[0, 0, 0]",,,1642.6458419000264,None,,,,,,,,,,,,,,,,,,,,,,,,,,"[0, 0, 0]",,,0.014986040070652962,5.012885840144008,1,M,2,25,r,ARB,2021_Oct_26_1823,2020.2.10,distractmap2,59.97454680401794,"['Left Leg', 'Left Face', 'Right Arm', 'Abdomen']",
8,"[0, -0.2]",0,0,1,1,1,,,,,,,1644.6458727999125,1644.6458727999125,1644.6458727999125,1645.645886800019,1645.6292181999888,1646.6292340999935,0,None,None,"[0, 0, 0]",,,1644.6458727999125,1644.6458727999125,,,,,,,,,,,,,,,,,,,,,,,,,,"[0, 0, 0]",,,,,1,M,2,25,r,ARB,2021_Oct_26_1823,2020.2.10,distractmap2,59.97454680401794,"['Left Leg', 'Left Face', 'Right Arm', 'Abdomen']",
1,"[-0.2, 0.2]",0,0,2,2,2,,,,,,,1646.6458910999354,1646.6458910999354,1646.6458910999354,1647.6458896000404,1647.629233899992,1648.6292449000757,1,None,None,"[0, 0, 0]",,,1646.6458910999354,1646.6458910999354,,,,,,,,,,,,,,,,,,,,,,,,,,"[0, 0, 0]",,,,,1,M,2,25,r,ARB,2021_Oct_26_1823,2020.2.10,distractmap2,59.97454680401794,"['Left Leg', 'Left Face', 'Right Arm', 'Abdomen']",
2,"[0, 0.2]",0,0,3,3,3,,,,,,,1648.6458936999552,1648.6458936999552,1648.6458936999552,1649.6459220999386,1649.629258299945,1650.629247700097,1,None,None,"[0, 0, 0]",,,1648.6458936999552,1648.6458936999552,,,,,,,,,,,,,,,,,,,,,,,,,,"[0, 0, 0]",,,,,1,M,2,25,r,ARB,2021_Oct_26_1823,2020.2.10,distractmap2,59.97454680401794,"['Left Leg', 'Left Face', 'Right Arm', 'Abdomen']",
2,"[0, 0.2]",1,0,4,4,4,,,,,,,1650.6632304000668,1650.6632304000668,1650.6632304000668,1651.662598399911,1651.6459375000559,1652.645921899937,1,None,None,"[0, 0, 0]",,,1650.6632304000668,1650.6632304000668,,,,,,,,,,,,,,,,,,,,,,,,,,"[0, 0, 0]",,,,,1,M,2,25,r,ARB,2021_Oct_26_1823,2020.2.10,distractmap2,59.97454680401794,"['Left Leg', 'Left Face', 'Right Arm', 'Abdomen']",
7,"[-0.2, -0.2]",0,0,5,5,5,,,,,,,1652.6626132999081,None,1652.6626132999081,1653.6626136000268,1653.6459429999813,1654.6459381999448,1,None,None,"[0, 0, 0]",,,1652.6626132999081,None,,,,,,,,,,,,,,,,,,,,,,,,,,"[0, 0, 0]",,,,,1,M,2,25,r,ARB,2021_Oct_26_1823,2020.2.10,distractmap2,59.97454680401794,"['Left Leg', 'Left Face', 'Right Arm', 'Abdomen']",
9,"[0.2, -0.2]",0,0,6,6,6,,,,,,,1654.66262009996,1654.66262009996,1654.66262009996,1655.6626174000558,1655.6459472998977,1656.6459625000134,1,None,None,"[0, 0, 0]",,,1654.66262009996,1654.66262009996,,,,,,,,,,,,,,,,,,,,,,,,,,"[0, 0, 0]",,,,,1,M,2,25,r,ARB,2021_Oct_26_1823,2020.2.10,distractmap2,59.97454680401794,"['Left Leg', 'Left Face', 'Right Arm', 'Abdomen']",
9,"[0.2, -0.2]",1,0,7,7,7,,,,,,,1656.6626470999327,1656.6626470999327,1656.6626470999327,1657.6626285000239,1657.6459910999984,1658.6459715999663,0,None,None,"[0, 0, 0]",,,1656.6626470999327,1656.6626470999327,,,,,,,,,,,,,,,,,,,,,,,,,,"[0, 0, 0]",,,,,1,M,2,25,r,ARB,2021_Oct_26_1823,2020.2.10,distractmap2,59.97454680401794,"['Left Leg', 'Left Face', 'Right Arm', 'Abdomen']",
4,"[-0.2, 0]",0,0,8,8,8,,,,,,,1658.6626591999084,1658.6626591999084,1658.6626591999084,1659.6626601000316,1659.645987200085,1660.646022300003,1,None,None,"[0, 0, 0]",,,1658.6626591999084,1658.6626591999084,,,,,,,,,,,,,,,,,,,,,,,,,,"[0, 0, 0]",,,,,1,M,2,25,r,ARB,2021_Oct_26_1823,2020.2.10,distractmap2,59.97454680401794,"['Left Leg', 'Left Face', 'Right Arm', 'Abdomen']",
5,"[0, 0]",0,0,9,9,9,,,,,,,1660.6626599999145,1660.6626599999145,1660.6626599999145,1661.6626806999557,1661.6460180000868,1662.646022300003,1,None,None,"[0, 0, 0]",,,1660.6626599999145,1660.6626599999145,,,,,,,,,,,,,,,,,,,,,,,,,,"[0, 0, 0]",,,,,1,M,2,25,r,ARB,2021_Oct_26_1823,2020.2.10,distractmap2,59.97454680401794,"['Left Leg', 'Left Face', 'Right Arm', 'Abdomen']",
,,,,,,,,,,,1662.662669799989,None,,,,,,,,,,,,,,,,,,,,,,,,,,,,,,,,,,,,,,,,,50.679012345679006,1620.6617602598853,,,1,M,2,25,r,ARB,2021_Oct_26_1823,2020.2.10,distractmap2,59.97454680401794,"['Left Leg', 'Left Face', 'Right Arm', 'Abdomen']",
2,"[0, 0.2]",None,0,0,0,0,,,,,1675.8797850999981,None,1682.6960885999724,None,1682.6960885999724,1683.6961920999456,1683.6795455999672,1684.6795252000447,1,None,None,"[0, 0, 0]",,,1682.6960885999724,None,,,,,,,,,,,,,,,,,,,,,,,,,,"[0, 0, 0]",,,0.0148901401553303,5.012761740246788,1,M,2,25,r,ARB,2021_Oct_26_1823,2020.2.10,distractmap2,59.97454680401794,"['Left Leg', 'Left Face', 'Right Arm', 'Abdomen']",
2,"[0, 0.2]",1,0,1,1,1,,,,,,,1684.6962059000507,1684.6962059000507,1684.6962059000507,1685.6962276999839,1685.679546300089,1686.6795449999627,1,None,None,"[0, 0, 0]",,,1684.6962059000507,1684.6962059000507,,,,,,,,,,,,,,,,,,,,,,,,,,"[0, 0, 0]",,,,,1,M,2,25,r,ARB,2021_Oct_26_1823,2020.2.10,distractmap2,59.97454680401794,"['Left Leg', 'Left Face', 'Right Arm', 'Abdomen']",
1,"[-0.2, 0.2]",0,0,2,2,2,,,,,,,1686.6961958000902,1686.6961958000902,1686.6961958000902,1687.6962275998667,1687.6795455999672,1688.6795737999491,1,None,None,"[0, 0, 0]",,,1686.6961958000902,1686.6961958000902,,,,,,,,,,,,,,,,,,,,,,,,,,"[0, 0, 0]",,,,,1,M,2,25,r,ARB,2021_Oct_26_1823,2020.2.10,distractmap2,59.97454680401794,"['Left Leg', 'Left Face', 'Right Arm', 'Abdomen']",
2,"[0, 0.2]",0,0,3,3,3,,,,,,,1688.6962480999064,1688.6962480999064,1688.6962480999064,1689.6962421999779,1689.6795727000572,1690.679571100045,1,None,None,"[0, 0, 0]",,,1688.6962480999064,1688.6962480999064,,,,,,,,,,,,,,,,,,,,,,,,,,"[0, 0, 0]",,,,,1,M,2,25,r,ARB,2021_Oct_26_1823,2020.2.10,distractmap2,59.97454680401794,"['Left Leg', 'Left Face', 'Right Arm', 'Abdomen']",
2,"[0, 0.2]",1,0,4,4,4,,,,,,,1690.7465407999698,1690.7465407999698,1690.7465407999698,1691.7462623999454,1691.7295985000674,None,1,None,None,"[0, 0, 0]",,,1690.7465407999698,1690.7465407999698,,,,,,,,,,,,,,,,,,,,,,,,,,"[0, 0, 0]",,,,,1,M,2,25,r,ARB,2021_Oct_26_1823,2020.2.10,distractmap2,59.97454680401794,"['Left Leg', 'Left Face', 'Right Arm', 'Abdomen']",
4,"[-0.2, 0]",0,0,5,5,5,,,,,,,1692.7129436999094,None,1692.7129436999094,1693.712929100031,1693.6962745999917,1694.6962842999492,1,None,None,"[0, 0, 0]",,,1692.7129436999094,None,,,,,,,,,,,,,,,,,,,,,,,,,,"[0, 0, 0]",,,,,1,M,2,25,r,ARB,2021_Oct_26_1823,2020.2.10,distractmap2,59.97454680401794,"['Left Leg', 'Left Face', 'Right Arm', 'Abdomen']",
6,"[0.2, 0]",0,0,6,6,6,,,,,,,1694.7129363999702,1694.7129363999702,1694.7129363999702,1695.712968699867,1695.6963029000908,1696.6963249000255,1,None,None,"[0, 0, 0]",,,1694.7129363999702,1694.7129363999702,,,,,,,,,,,,,,,,,,,,,,,,,,"[0, 0, 0]",,,,,1,M,2,25,r,ARB,2021_Oct_26_1823,2020.2.10,distractmap2,59.97454680401794,"['Left Leg', 'Left Face', 'Right Arm', 'Abdomen']",
8,"[0, -0.2]",0,0,7,7,7,,,,,,,1696.7129482999444,1696.7129482999444,1696.7129482999444,1697.712959199911,1697.696320899995,1698.6963277000468,1,None,None,"[0, 0, 0]",,,1696.7129482999444,1696.7129482999444,,,,,,,,,,,,,,,,,,,,,,,,,,"[0, 0, 0]",,,,,1,M,2,25,r,ARB,2021_Oct_26_1823,2020.2.10,distractmap2,59.97454680401794,"['Left Leg', 'Left Face', 'Right Arm', 'Abdomen']",
9,"[0.2, -0.2]",0,0,8,8,8,,,,,,,1698.7129883000161,1698.7129883000161,1698.7129883000161,1699.7129873998929,1699.696325399913,1700.6963527998887,1,None,None,"[0, 0, 0]",,,1698.7129883000161,1698.7129883000161,,,,,,,,,,,,,,,,,,,,,,,,,,"[0, 0, 0]",,,,,1,M,2,25,r,ARB,2021_Oct_26_1823,2020.2.10,distractmap2,59.97454680401794,"['Left Leg', 'Left Face', 'Right Arm', 'Abdomen']",
9,"[0.2, -0.2]",1,0,9,9,9,,,,,,,1700.7130273000803,1700.7130273000803,1700.7130273000803,1701.7130229999311,1701.6963446999434,1702.6963510999922,1,None,None,"[0, 0, 0]",,,1700.7130273000803,1700.7130273000803,,,,,,,,,,,,,,,,,,,,,,,,,,"[0, 0, 0]",,,,,1,M,2,25,r,ARB,2021_Oct_26_1823,2020.2.10,distractmap2,59.97454680401794,"['Left Leg', 'Left Face', 'Right Arm', 'Abdomen']",
,,,,,,,,,,,1702.713020300027,None,,,,,,,,,,,,,,,,,,,,,,,,,,,,,,,,,,,,,,,,,46.60493827160494,1661.8955234601162,,,1,M,2,25,r,ARB,2021_Oct_26_1823,2020.2.10,distractmap2,59.97454680401794,"['Left Leg', 'Left Face', 'Right Arm', 'Abdomen']",
2,"[0, 0.2]",None,,,,,0,0,0,0,1718.2802746999077,None,,,,,,,,,,,,,,,,,,,,None,None,"[0, 0, 0]",1722.7631214999128,1724.7632013000548,1722.7631214999128,1723.7631949998904,1723.7631949998904,1724.7632013000548,"[0, 0, 0]",1,1722.7631214999128,1724.7632013000548,,,,,,,,,,,0.014769139932468534,5.0124296399299055,1,M,2,25,r,ARB,2021_Oct_26_1823,2020.2.10,distractmap2,59.97454680401794,"['Left Leg', 'Left Face', 'Right Arm', 'Abdomen']",
5,"[0, 0]",None,,,,,0,1,1,1,,,,,,,,,,,,,,,,,,,,,,None,None,"[0, 0, 0]",1724.779846600024,1726.7798824999481,1724.779846600024,1725.7798707999755,1725.763195199892,1726.763225399889,"[0, 0, 0]",1,1724.779846600024,1726.7798824999481,,,,,,,,,,,,,1,M,2,25,r,ARB,2021_Oct_26_1823,2020.2.10,distractmap2,59.97454680401794,"['Left Leg', 'Left Face', 'Right Arm', 'Abdomen']",
6,"[0.2, 0]",0,,,,,0,2,2,2,,,,,,,,,,,,,,,,,,,,,,None,None,"[0, 0, 0]",1726.796557799913,1728.7965589999221,1726.796557799913,1727.7965591999236,1727.7798921999056,1728.779899700079,"[0, 0, 0]",1,1726.796557799913,1728.7965589999221,,,,,,,,,,,,,1,M,2,25,r,ARB,2021_Oct_26_1823,2020.2.10,distractmap2,59.97454680401794,"['Left Leg', 'Left Face', 'Right Arm', 'Abdomen']",
1,"[-0.2, 0.2]",0,,,,,0,3,3,3,,,,,,,,,,,,,,,,,,,,,,None,None,"[0, 0, 0]",1728.813218700001,1730.813268299913,1728.813218700001,1729.8132643999998,1729.796478400007,1730.7965639000759,"[0, 0, 0]",1,1728.813218700001,1730.813268299913,,,,,,,,,,,,,1,M,2,25,r,ARB,2021_Oct_26_1823,2020.2.10,distractmap2,59.97454680401794,"['Left Leg', 'Left Face', 'Right Arm', 'Abdomen']",
6,"[0.2, 0]",1,,,,,0,4,4,4,,,,,,,,,,,,,,,,,,,,,,None,None,"[0, 0, 0]",1730.8635318998713,None,1730.8635318998713,1731.8632644999307,1731.846618300071,None,"[0, 0, 0]",1,1730.8635318998713,None,,,,,,,,,,,,,1,M,2,25,r,ARB,2021_Oct_26_1823,2020.2.10,distractmap2,59.97454680401794,"['Left Leg', 'Left Face', 'Right Arm', 'Abdomen']",
6,"[0.2, 0]",0,,,,,0,5,5,5,,,,,,,,,,,,,,,,,,,,,,None,None,"[0, 0, 0]",1732.846595699899,1734.8465978999157,1732.846595699899,1733.8466578000225,1733.8299435998779,1734.8299304998945,"[0, 0, 0]",1,1732.846595699899,1734.8465978999157,,,,,,,,,,,,,1,M,2,25,r,ARB,2021_Oct_26_1823,2020.2.10,distractmap2,59.97454680401794,"['Left Leg', 'Left Face', 'Right Arm', 'Abdomen']",
9,"[0.2, -0.2]",0,,,,,0,6,6,6,,,,,,,,,,,,,,,,,,,,,,None,None,"[0, 0, 0]",1734.863296699943,1736.8632817000616,1734.863296699943,1735.8632914999034,1735.8466121000238,1736.8466443000361,"[0, 0, 0]",1,1734.863296699943,1736.8632817000616,,,,,,,,,,,,,1,M,2,25,r,ARB,2021_Oct_26_1823,2020.2.10,distractmap2,59.97454680401794,"['Left Leg', 'Left Face', 'Right Arm', 'Abdomen']",
6,"[0.2, 0]",1,,,,,0,7,7,7,,,,,,,,,,,,,,,,,,,,,,None,None,"[0, 0, 0]",1736.8799483000766,1738.8799785999581,1736.8799483000766,1737.8799715000205,1737.8633238999173,1738.8633071000222,"[0, 0, 0]",1,1736.8799483000766,1738.8799785999581,,,,,,,,,,,,,1,M,2,25,r,ARB,2021_Oct_26_1823,2020.2.10,distractmap2,59.97454680401794,"['Left Leg', 'Left Face', 'Right Arm', 'Abdomen']",
3,"[0.2, 0.2]",0,,,,,0,8,8,8,,,,,,,,,,,,,,,,,,,,,,None,None,"[0, 0, 0]",1738.8966566999443,1740.89665349992,1738.8966566999443,1739.8966415999457,1739.8799707998987,1740.8799997000024,"[0, 0, 0]",1,1738.8966566999443,1740.89665349992,,,,,,,,,,,,,1,M,2,25,r,ARB,2021_Oct_26_1823,2020.2.10,distractmap2,59.97454680401794,"['Left Leg', 'Left Face', 'Right Arm', 'Abdomen']",
9,"[0.2, -0.2]",0,,,,,0,9,9,9,,,,,,,,,,,,,,,,,,,,,,None,None,"[0, 0, 0]",1740.913330399897,1742.9133516999427,1740.913330399897,1741.9133498000447,1741.8966820000205,1742.8966804998927,"[0, 0, 0]",1,1740.913330399897,1742.9133516999427,,,,,,,,,,,,,1,M,2,25,r,ARB,2021_Oct_26_1823,2020.2.10,distractmap2,59.97454680401794,"['Left Leg', 'Left Face', 'Right Arm', 'Abdomen']",
,,,,,,,,,,,1742.9300130999181,None,,,,,,,,,,,,,,,,,,,,,,,,,,,,,,,,,,,,,,,,,37.77777777777778,1702.345562059898,,,1,M,2,25,r,ARB,2021_Oct_26_1823,2020.2.10,distractmap2,59.97454680401794,"['Left Leg', 'Left Face', 'Right Arm', 'Abdomen']",
4,"[-0.2, 0]",None,0,0,0,0,,,,,1760.2460519000888,None,1762.9800994000398,None,1762.9800994000398,1763.9801892999094,1763.963533299975,1764.9635200998746,1,None,None,"[0, 0, 0]",,,1762.9800994000398,None,,,,,,,,,,,,,,,,,,,,,,,,,,"[0, 0, 0]",,,0.0150962402112782,5.013090840075165,1,M,2,25,r,ARB,2021_Oct_26_1823,2020.2.10,distractmap2,59.97454680401794,"['Left Leg', 'Left Face', 'Right Arm', 'Abdomen']",
7,"[-0.2, -0.2]",0,0,1,1,1,,,,,,,1764.9801914999261,1764.9801914999261,1764.9801914999261,1765.980189899914,1765.9635415999219,1766.9635393999051,1,None,None,"[0, 0, 0]",,,1764.9801914999261,1764.9801914999261,,,,,,,,,,,,,,,,,,,,,,,,,,"[0, 0, 0]",,,,,1,M,2,25,r,ARB,2021_Oct_26_1823,2020.2.10,distractmap2,59.97454680401794,"['Left Leg', 'Left Face', 'Right Arm', 'Abdomen']",
7,"[-0.2, -0.2]",1,0,2,2,2,,,,,,,1766.9801954000723,1766.9801954000723,1766.9801954000723,1767.9802077000495,1767.9635604999494,1768.9635689000133,1,None,None,"[0, 0, 0]",,,1766.9801954000723,1766.9801954000723,,,,,,,,,,,,,,,,,,,,,,,,,,"[0, 0, 0]",,,,,1,M,2,25,r,ARB,2021_Oct_26_1823,2020.2.10,distractmap2,59.97454680401794,"['Left Leg', 'Left Face', 'Right Arm', 'Abdomen']",
4,"[-0.2, 0]",0,0,3,3,3,,,,,,,1768.9802298999857,1768.9802298999857,1768.9802298999857,1769.980222800048,1769.9636039999314,1770.9635588999372,1,None,None,"[0, 0, 0]",,,1768.9802298999857,1768.9802298999857,,,,,,,,,,,,,,,,,,,,,,,,,,"[0, 0, 0]",,,,,1,M,2,25,r,ARB,2021_Oct_26_1823,2020.2.10,distractmap2,59.97454680401794,"['Left Leg', 'Left Face', 'Right Arm', 'Abdomen']",
8,"[0, -0.2]",0,0,4,4,4,,,,,,,1771.030261799926,1771.030261799926,1771.030261799926,1772.0302460000385,1772.0135977999307,None,1,None,None,"[0, 0, 0]",,,1771.030261799926,1771.030261799926,,,,,,,,,,,,,,,,,,,,,,,,,,"[0, 0, 0]",,,,,1,M,2,25,r,ARB,2021_Oct_26_1823,2020.2.10,distractmap2,59.97454680401794,"['Left Leg', 'Left Face', 'Right Arm', 'Abdomen']",
4,"[-0.2, 0]",0,0,5,5,5,,,,,,,1772.9969130998943,None,1772.9969130998943,1773.9969212999567,1773.9802900999784,1774.9802920999937,1,None,None,"[0, 0, 0]",,,1772.9969130998943,None,,,,,,,,,,,,,,,,,,,,,,,,,,"[0, 0, 0]",,,,,1,M,2,25,r,ARB,2021_Oct_26_1823,2020.2.10,distractmap2,59.97454680401794,"['Left Leg', 'Left Face', 'Right Arm', 'Abdomen']",
7,"[-0.2, -0.2]",0,0,6,6,6,,,,,,,1774.9969498999417,1774.9969498999417,1774.9969498999417,1775.9969474999234,1775.9802892999724,1776.980304100085,1,None,None,"[0, 0, 0]",,,1774.9969498999417,1774.9969498999417,,,,,,,,,,,,,,,,,,,,,,,,,,"[0, 0, 0]",,,,,1,M,2,25,r,ARB,2021_Oct_26_1823,2020.2.10,distractmap2,59.97454680401794,"['Left Leg', 'Left Face', 'Right Arm', 'Abdomen']",
6,"[0.2, 0]",0,0,7,7,7,,,,,,,1776.9969178999308,1776.9969178999308,1776.9969178999308,1777.9969723999966,1777.9803003999405,1778.9803136999253,1,None,None,"[0, 0, 0]",,,1776.9969178999308,1776.9969178999308,,,,,,,,,,,,,,,,,,,,,,,,,,"[0, 0, 0]",,,,,1,M,2,25,r,ARB,2021_Oct_26_1823,2020.2.10,distractmap2,59.97454680401794,"['Left Leg', 'Left Face', 'Right Arm', 'Abdomen']",
6,"[0.2, 0]",1,0,8,8,8,,,,,,,1778.9969893998932,1778.9969893998932,1778.9969893998932,1779.9969889000058,1779.9803313000593,1780.980343699921,1,None,None,"[0, 0, 0]",,,1778.9969893998932,1778.9969893998932,,,,,,,,,,,,,,,,,,,,,,,,,,"[0, 0, 0]",,,,,1,M,2,25,r,ARB,2021_Oct_26_1823,2020.2.10,distractmap2,59.97454680401794,"['Left Leg', 'Left Face', 'Right Arm', 'Abdomen']",
1,"[-0.2, 0.2]",0,0,9,9,9,,,,,,,1780.996995399939,1780.996995399939,1780.996995399939,1781.9970150000881,1781.9803287999239,1782.9803331999574,1,None,None,"[0, 0, 0]",,,1780.996995399939,1780.996995399939,,,,,,,,,,,,,,,,,,,,,,,,,,"[0, 0, 0]",,,,,1,M,2,25,r,ARB,2021_Oct_26_1823,2020.2.10,distractmap2,59.97454680401794,"['Left Leg', 'Left Face', 'Right Arm', 'Abdomen']",
,,,,,,,,,,,1782.9970114000607,None,,,,,,,,,,,,,,,,,,,,,,,,,,,,,,,,,,,,,,,,,45.18518518518519,1741.1125418599695,,,1,M,2,25,r,ARB,2021_Oct_26_1823,2020.2.10,distractmap2,59.97454680401794,"['Left Leg', 'Left Face', 'Right Arm', 'Abdomen']",
3,"[0.2, 0.2]",None,,,,,0,0,0,0,1798.2305683998857,None,,,,,,,,,,,,,,,,,,,,None,None,"[0, 0, 0]",1803.0471518000122,1805.0471721999347,1803.0471518000122,1804.04717419995,1804.04717419995,1805.0471721999347,"[0, 0, 0]",1,1803.0471518000122,1805.0471721999347,,,,,,,,,,,0.015101540135219693,5.01310084015131,1,M,2,25,r,ARB,2021_Oct_26_1823,2020.2.10,distractmap2,59.97454680401794,"['Left Leg', 'Left Face', 'Right Arm', 'Abdomen']",
9,"[0.2, -0.2]",None,,,,,0,1,1,1,,,,,,,,,,,,,,,,,,,,,,None,None,"[0, 0, 0]",1805.0638558000792,1807.0638780000154,1805.0638558000792,1806.063873999985,1806.047203999944,1807.0471522998996,"[0, 0, 0]",1,1805.0638558000792,1807.0638780000154,,,,,,,,,,,,,1,M,2,25,r,ARB,2021_Oct_26_1823,2020.2.10,distractmap2,59.97454680401794,"['Left Leg', 'Left Face', 'Right Arm', 'Abdomen']",
3,"[0.2, 0.2]",1,,,,,0,2,2,2,,,,,,,,,,,,,,,,,,,,,,None,None,"[0, 0, 0]",1807.080560100032,1809.0805542999879,1807.080560100032,1808.0805416000076,1808.0638880000915,1809.0638715999667,"[0, 0, 0]",1,1807.080560100032,1809.0805542999879,,,,,,,,,,,,,1,M,2,25,r,ARB,2021_Oct_26_1823,2020.2.10,distractmap2,59.97454680401794,"['Left Leg', 'Left Face', 'Right Arm', 'Abdomen']",
7,"[-0.2, -0.2]",0,,,,,0,3,3,3,,,,,,,,,,,,,,,,,,,,,,None,None,"[0, 0, 0]",1809.0972112000454,1811.0972601000685,1809.0972112000454,1810.097237000009,1810.0805693999864,1811.0805712998845,"[0, 0, 0]",1,1809.0972112000454,1811.0972601000685,,,,,,,,,,,,,1,M,2,25,r,ARB,2021_Oct_26_1823,2020.2.10,distractmap2,59.97454680401794,"['Left Leg', 'Left Face', 'Right Arm', 'Abdomen']",
8,"[0, -0.2]",0,,,,,0,4,4,4,,,,,,,,,,,,,,,,,,,,,,None,None,"[0, 0, 0]",1811.1806129999459,None,1811.1806129999459,1812.1805759000126,1812.1639228998683,None,"[0, 0, 0]",1,1811.1806129999459,None,,,,,,,,,,,,,1,M,2,25,r,ARB,2021_Oct_26_1823,2020.2.10,distractmap2,59.97454680401794,"['Left Leg', 'Left Face', 'Right Arm', 'Abdomen']",
4,"[-0.2, 0]",0,,,,,0,5,5,5,,,,,,,,,,,,,,,,,,,,,,None,None,"[0, 0, 0]",1813.1305760999676,1815.130591900088,1813.1305760999676,1814.1306080999784,1814.1139219999313,1815.1139251999557,"[0, 0, 0]",1,1813.1305760999676,1815.130591900088,,,,,,,,,,,,,1,M,2,25,r,ARB,2021_Oct_26_1823,2020.2.10,distractmap2,59.97454680401794,"['Left Leg', 'Left Face', 'Right Arm', 'Abdomen']",
4,"[-0.2, 0]",0,,,,,0,6,6,6,,,,,,,,,,,,,,,,,,,,,,None,None,"[0, 0, 0]",1815.147177600069,1817.1472934999038,1815.147177600069,1816.1472735998686,1816.130575899966,1817.1306259999983,"[0, 0, 0]",0,1815.147177600069,1817.1472934999038,,,,,,,,,,,,,1,M,2,25,r,ARB,2021_Oct_26_1823,2020.2.10,distractmap2,59.97454680401794,"['Left Leg', 'Left Face', 'Right Arm', 'Abdomen']",
1,"[-0.2, 0.2]",0,,,,,0,7,7,7,,,,,,,,,,,,,,,,,,,,,,None,None,"[0, 0, 0]",1817.1639441000298,1819.1639797999524,1817.1639441000298,1818.1639837000985,1818.1473334000912,1819.1473183000926,"[0, 0, 0]",1,1817.1639441000298,1819.1639797999524,,,,,,,,,,,,,1,M,2,25,r,ARB,2021_Oct_26_1823,2020.2.10,distractmap2,59.97454680401794,"['Left Leg', 'Left Face', 'Right Arm', 'Abdomen']",
4,"[-0.2, 0]",1,,,,,0,8,8,8,,,,,,,,,,,,,,,,,,,,,,None,None,"[0, 0, 0]",1819.1806290000677,1821.180655400036,1819.1806290000677,1820.1806385000236,1820.163987699896,1821.1639928000513,"[0, 0, 0]",1,1819.1806290000677,1821.180655400036,,,,,,,,,,,,,1,M,2,25,r,ARB,2021_Oct_26_1823,2020.2.10,distractmap2,59.97454680401794,"['Left Leg', 'Left Face', 'Right Arm', 'Abdomen']",
8,"[0, -0.2]",0,,,,,0,9,9,9,,,,,,,,,,,,,,,,,,,,,,None,None,"[0, 0, 0]",1821.1973285998683,1823.1973454998806,1821.1973285998683,1822.1973460000008,1822.180651600007,1823.1806747999508,"[0, 0, 0]",1,1821.1973285998683,1823.1973454998806,,,,,,,,,,,,,1,M,2,25,r,ARB,2021_Oct_26_1823,2020.2.10,distractmap2,59.97454680401794,"['Left Leg', 'Left Face', 'Right Arm', 'Abdomen']",
,,,,,,,,,,,1823.2140089999884,None,,,,,,,,,,,,,,,,,,,,,,,,,,,,,,,,,,,,,,,,,36.91358024691358,1782.0293056601658,,,1,M,2,25,r,ARB,2021_Oct_26_1823,2020.2.10,distractmap2,59.97454680401794,"['Left Leg', 'Left Face', 'Right Arm', 'Abdomen']",
2,"[0, 0.2]",None,,,,,0,0,0,0,1840.4308122000657,None,,,,,,,,,,,,,,,,,,,,None,None,"[0, 0, 0]",1843.247442800086,1845.2475197000895,1843.247442800086,1844.2475139000453,1844.2475139000453,1845.2475197000895,"[0, 0, 0]",1,1843.247442800086,1845.2475197000895,,,,,,,,,,,0.015362639911472797,5.013620639918372,1,M,2,25,r,ARB,2021_Oct_26_1823,2020.2.10,distractmap2,59.97454680401794,"['Left Leg', 'Left Face', 'Right Arm', 'Abdomen']",
5,"[0, 0]",None,,,,,0,1,1,1,,,,,,,,,,,,,,,,,,,,,,None,None,"[0, 0, 0]",1845.2642015998717,1847.2642081000376,1845.2642015998717,1846.2641799000558,1846.2475419000257,1847.2475540998857,"[0, 0, 0]",1,1845.2642015998717,1847.2642081000376,,,,,,,,,,,,,1,M,2,25,r,ARB,2021_Oct_26_1823,2020.2.10,distractmap2,59.97454680401794,"['Left Leg', 'Left Face', 'Right Arm', 'Abdomen']",
3,"[0.2, 0.2]",0,,,,,0,2,2,2,,,,,,,,,,,,,,,,,,,,,,None,None,"[0, 0, 0]",1847.2808828998823,1849.280893499963,1847.2808828998823,1848.2808749999385,1848.2642181999981,1849.2642286999617,"[0, 0, 0]",1,1847.2808828998823,1849.280893499963,,,,,,,,,,,,,1,M,2,25,r,ARB,2021_Oct_26_1823,2020.2.10,distractmap2,59.97454680401794,"['Left Leg', 'Left Face', 'Right Arm', 'Abdomen']",
5,"[0, 0]",1,,,,,0,3,3,3,,,,,,,,,,,,,,,,,,,,,,None,None,"[0, 0, 0]",1849.297558600083,1851.297588000074,1849.297558600083,1850.2975902999751,1850.2808816998731,1851.2809148000088,"[0, 0, 0]",1,1849.297558600083,1851.297588000074,,,,,,,,,,,,,1,M,2,25,r,ARB,2021_Oct_26_1823,2020.2.10,distractmap2,59.97454680401794,"['Left Leg', 'Left Face', 'Right Arm', 'Abdomen']",
2,"[0, 0.2]",0,,,,,0,4,4,4,,,,,,,,,,,,,,,,,,,,,,None,None,"[0, 0, 0]",1851.3478657999076,None,1851.3478657999076,1852.3475961999502,1852.3309219998773,None,"[0, 0, 0]",1,1851.3478657999076,None,,,,,,,,,,,,,1,M,2,25,r,ARB,2021_Oct_26_1823,2020.2.10,distractmap2,59.97454680401794,"['Left Leg', 'Left Face', 'Right Arm', 'Abdomen']",
8,"[0, -0.2]",0,,,,,0,5,5,5,,,,,,,,,,,,,,,,,,,,,,None,None,"[0, 0, 0]",1853.330927300034,1855.3309384998865,1853.330927300034,1854.3309202999808,1854.314271299867,1855.3142643000465,"[0, 0, 0]",1,1853.330927300034,1855.3309384998865,,,,,,,,,,,,,1,M,2,25,r,ARB,2021_Oct_26_1823,2020.2.10,distractmap2,59.97454680401794,"['Left Leg', 'Left Face', 'Right Arm', 'Abdomen']",
4,"[-0.2, 0]",0,,,,,0,6,6,6,,,,,,,,,,,,,,,,,,,,,,None,None,"[0, 0, 0]",1855.3476070999168,1857.3476211999077,1855.3476070999168,1856.3475975000765,1856.330944800051,1857.330942099914,"[0, 0, 0]",1,1855.3476070999168,1857.3476211999077,,,,,,,,,,,,,1,M,2,25,r,ARB,2021_Oct_26_1823,2020.2.10,distractmap2,59.97454680401794,"['Left Leg', 'Left Face', 'Right Arm', 'Abdomen']",
8,"[0, -0.2]",1,,,,,0,7,7,7,,,,,,,,,,,,,,,,,,,,,,None,None,"[0, 0, 0]",1857.3642720000353,1859.3643104000948,1857.3642720000353,1858.364299000008,1858.3476354999002,1859.3476231000386,"[0, 0, 0]",1,1857.3642720000353,1859.3643104000948,,,,,,,,,,,,,1,M,2,25,r,ARB,2021_Oct_26_1823,2020.2.10,distractmap2,59.97454680401794,"['Left Leg', 'Left Face', 'Right Arm', 'Abdomen']",
7,"[-0.2, -0.2]",0,,,,,0,8,8,8,,,,,,,,,,,,,,,,,,,,,,None,None,"[0, 0, 0]",1859.3809795000125,1861.3809720999561,1859.3809795000125,1860.3809825000353,1860.364299400011,1861.3643274998758,"[0, 0, 0]",1,1859.3809795000125,1861.3809720999561,,,,,,,,,,,,,1,M,2,25,r,ARB,2021_Oct_26_1823,2020.2.10,distractmap2,59.97454680401794,"['Left Leg', 'Left Face', 'Right Arm', 'Abdomen']",
8,"[0, -0.2]",1,,,,,0,9,9,9,,,,,,,,,,,,,,,,,,,,,,None,None,"[0, 0, 0]",1861.39766040002,1863.397674900014,1861.39766040002,1862.3976608999074,1862.3810042999685,1863.3810076999944,"[0, 0, 0]",1,1861.39766040002,1863.397674900014,,,,,,,,,,,,,1,M,2,25,r,ARB,2021_Oct_26_1823,2020.2.10,distractmap2,59.97454680401794,"['Left Leg', 'Left Face', 'Right Arm', 'Abdomen']",
,,,,,,,,,,,1863.4143588999286,None,,,,,,,,,,,,,,,,,,,,,,,,,,,,,,,,,,,,,,,,,36.91358024691358,1823.3801710600965,,,1,M,2,25,r,ARB,2021_Oct_26_1823,2020.2.10,distractmap2,59.97454680401794,"['Left Leg', 'Left Face', 'Right Arm', 'Abdomen']",
2,"[0, 0.2]",None,,,,,0,0,0,0,1878.8650193000212,None,,,,,,,,,,,,,,,,,,,,None,None,"[0, 0, 0]",1883.44782510004,1885.4478607000783,1883.44782510004,1884.447854500031,1884.447854500031,1885.4478607000783,"[0, 0, 0]",1,1883.44782510004,1885.4478607000783,,,,,,,,,,,0.014836939983069897,5.012570039834827,1,M,2,25,r,ARB,2021_Oct_26_1823,2020.2.10,distractmap2,59.97454680401794,"['Left Leg', 'Left Face', 'Right Arm', 'Abdomen']",
2,"[0, 0.2]",None,,,,,0,1,1,1,,,,,,,,,,,,,,,,,,,,,,None,None,"[0, 0, 0]",1885.464526799973,1887.464539699955,1885.464526799973,1886.4645447998773,1886.44785519992,1887.447858700063,"[0, 0, 0]",1,1885.464526799973,1887.464539699955,,,,,,,,,,,,,1,M,2,25,r,ARB,2021_Oct_26_1823,2020.2.10,distractmap2,59.97454680401794,"['Left Leg', 'Left Face', 'Right Arm', 'Abdomen']",
2,"[0, 0.2]",1,,,,,0,2,2,2,,,,,,,,,,,,,,,,,,,,,,None,None,"[0, 0, 0]",1887.481192999985,1889.4812181999441,1887.481192999985,1888.481208999874,1888.4645521000493,1889.464549300028,"[0, 0, 0]",1,1887.481192999985,1889.4812181999441,,,,,,,,,,,,,1,M,2,25,r,ARB,2021_Oct_26_1823,2020.2.10,distractmap2,59.97454680401794,"['Left Leg', 'Left Face', 'Right Arm', 'Abdomen']",
8,"[0, -0.2]",0,,,,,0,3,3,3,,,,,,,,,,,,,,,,,,,,,,None,None,"[0, 0, 0]",1889.4978966999333,1891.4978950999212,1889.4978966999333,1890.4978843000717,1890.4812175999396,1891.4812282999046,"[0, 0, 0]",1,1889.4978966999333,1891.4978950999212,,,,,,,,,,,,,1,M,2,25,r,ARB,2021_Oct_26_1823,2020.2.10,distractmap2,59.97454680401794,"['Left Leg', 'Left Face', 'Right Arm', 'Abdomen']",
2,"[0, 0.2]",1,,,,,0,4,4,4,,,,,,,,,,,,,,,,,,,,,,None,None,"[0, 0, 0]",1891.5482153000776,None,1891.5482153000776,1892.5479053000454,1892.5312421000563,None,"[0, 0, 0]",1,1891.5482153000776,None,,,,,,,,,,,,,1,M,2,25,r,ARB,2021_Oct_26_1823,2020.2.10,distractmap2,59.97454680401794,"['Left Leg', 'Left Face', 'Right Arm', 'Abdomen']",
5,"[0, 0]",0,,,,,0,5,5,5,,,,,,,,,,,,,,,,,,,,,,None,None,"[0, 0, 0]",1893.531254899921,1895.5312558999285,1893.531254899921,1894.5312478998676,1894.5145914999302,1895.5146172000095,"[0, 0, 0]",1,1893.531254899921,1895.5312558999285,,,,,,,,,,,,,1,M,2,25,r,ARB,2021_Oct_26_1823,2020.2.10,distractmap2,59.97454680401794,"['Left Leg', 'Left Face', 'Right Arm', 'Abdomen']",
1,"[-0.2, 0.2]",0,,,,,0,6,6,6,,,,,,,,,,,,,,,,,,,,,,None,None,"[0, 0, 0]",1895.5479266000912,1897.5479597998783,1895.5479266000912,1896.5479291998781,1896.53127710009,1897.5312735000625,"[0, 0, 0]",1,1895.5479266000912,1897.5479597998783,,,,,,,,,,,,,1,M,2,25,r,ARB,2021_Oct_26_1823,2020.2.10,distractmap2,59.97454680401794,"['Left Leg', 'Left Face', 'Right Arm', 'Abdomen']",
1,"[-0.2, 0.2]",0,,,,,0,7,7,7,,,,,,,,,,,,,,,,,,,,,,None,None,"[0, 0, 0]",1897.5646438000258,1899.5645840999205,1897.5646438000258,1898.5646319000516,1898.547955099959,1899.5479566000868,"[0, 0, 0]",1,1897.5646438000258,1899.5645840999205,,,,,,,,,,,,,1,M,2,25,r,ARB,2021_Oct_26_1823,2020.2.10,distractmap2,59.97454680401794,"['Left Leg', 'Left Face', 'Right Arm', 'Abdomen']",
6,"[0.2, 0]",0,,,,,0,8,8,8,,,,,,,,,,,,,,,,,,,,,,None,None,"[0, 0, 0]",1899.5812883998733,1901.581324199913,1899.5812883998733,1900.5813156000804,1900.5646303000394,1901.5646392998751,"[0, 0, 0]",1,1899.5812883998733,1901.581324199913,,,,,,,,,,,,,1,M,2,25,r,ARB,2021_Oct_26_1823,2020.2.10,distractmap2,59.97454680401794,"['Left Leg', 'Left Face', 'Right Arm', 'Abdomen']",
1,"[-0.2, 0.2]",1,,,,,0,9,9,9,,,,,,,,,,,,,,,,,,,,,,None,None,"[0, 0, 0]",1901.5979883999098,1903.597989999922,1901.5979883999098,1902.597986199893,1902.5813164000865,1903.5813338998705,"[0, 0, 0]",1,1901.5979883999098,1903.597989999922,,,,,,,,,,,,,1,M,2,25,r,ARB,2021_Oct_26_1823,2020.2.10,distractmap2,59.97454680401794,"['Left Leg', 'Left Face', 'Right Arm', 'Abdomen']",
,,,,,,,,,,,1903.6147239999846,None,,,,,,,,,,,,,,,,,,,,,,,,,,,,,,,,,,,,,,,,,25.061728395061728,1863.7646490598563,,,1,M,2,25,r,ARB,2021_Oct_26_1823,2020.2.10,distractmap2,59.97454680401794,"['Left Leg', 'Left Face', 'Right Arm', 'Abdomen']",
3,"[0.2, 0.2]",None,,,,,0,0,0,0,2137.450600299984,None,,,,,,,,,,,,,,,,,,,,None,None,"[0, 0, 0]",2140.0831911000423,2142.083318399964,2140.0831911000423,2141.0833085998893,2141.0833085998893,2142.083318399964,"[0, 0, 0]",1,2140.0831911000423,2142.083318399964,1922.298457399942,1922.298457399942,None,space,180.46094320015982,1922.298457399942,None,,,,0.014004740165546536,5.010902140289545,1,M,2,25,r,ARB,2021_Oct_26_1823,2020.2.10,distractmap2,59.97454680401794,"['Left Leg', 'Left Face', 'Right Arm', 'Abdomen']",
3,"[0.2, 0.2]",None,,,,,0,1,1,1,,,,,,,,,,,,,,,,,,,,,,None,None,"[0, 0, 0]",2142.0999867999926,2144.099989200011,2142.0999867999926,2143.0999853000976,2143.083319599973,2144.083336799871,"[0, 0, 0]",1,2142.0999867999926,2144.099989200011,,,,,,,,,,,,,1,M,2,25,r,ARB,2021_Oct_26_1823,2020.2.10,distractmap2,59.97454680401794,"['Left Leg', 'Left Face', 'Right Arm', 'Abdomen']",
5,"[0, 0]",0,,,,,0,2,2,2,,,,,,,,,,,,,,,,,,,,,,None,None,"[0, 0, 0]",2144.1166538000107,2146.1166934999637,2144.1166538000107,2145.1166814998724,2145.1000103999395,2146.1000190998893,"[0, 0, 0]",1,2144.1166538000107,2146.1166934999637,,,,,,,,,,,,,1,M,2,25,r,ARB,2021_Oct_26_1823,2020.2.10,distractmap2,59.97454680401794,"['Left Leg', 'Left Face', 'Right Arm', 'Abdomen']",
1,"[-0.2, 0.2]",0,,,,,0,3,3,3,,,,,,,,,,,,,,,,,,,,,,None,None,"[0, 0, 0]",2146.133348400006,2148.133351400029,2146.133348400006,2147.133342999965,2147.11669779988,2148.1167148000095,"[0, 0, 0]",1,2146.133348400006,2148.133351400029,,,,,,,,,,,,,1,M,2,25,r,ARB,2021_Oct_26_1823,2020.2.10,distractmap2,59.97454680401794,"['Left Leg', 'Left Face', 'Right Arm', 'Abdomen']",
5,"[0, 0]",1,,,,,0,4,4,4,,,,,,,,,,,,,,,,,,,,,,None,None,"[0, 0, 0]",2148.200213900069,None,2148.200213900069,2149.199946299894,2149.1833611999173,None,"[0, 0, 0]",1,2148.200213900069,None,,,,,,,,,,,,,1,M,2,25,r,ARB,2021_Oct_26_1823,2020.2.10,distractmap2,59.97454680401794,"['Left Leg', 'Left Face', 'Right Arm', 'Abdomen']",
8,"[0, -0.2]",0,,,,,0,5,5,5,,,,,,,,,,,,,,,,,,,,,,None,None,"[0, 0, 0]",2150.1667116000317,2152.1667351999786,2150.1667116000317,2151.1667184000835,2151.150152399903,2152.1500722998753,"[0, 0, 0]",1,2150.1667116000317,2152.1667351999786,,,,,,,,,,,,,1,M,2,25,r,ARB,2021_Oct_26_1823,2020.2.10,distractmap2,59.97454680401794,"['Left Leg', 'Left Face', 'Right Arm', 'Abdomen']",
5,"[0, 0]",1,,,,,0,6,6,6,,,,,,,,,,,,,,,,,,,,,,None,None,"[0, 0, 0]",2152.1833881000057,2154.1834233999252,2152.1833881000057,2153.1834064000286,2153.1667470000684,2154.1667633999605,"[0, 0, 0]",1,2152.1833881000057,2154.1834233999252,,,,,,,,,,,,,1,M,2,25,r,ARB,2021_Oct_26_1823,2020.2.10,distractmap2,59.97454680401794,"['Left Leg', 'Left Face', 'Right Arm', 'Abdomen']",
7,"[-0.2, -0.2]",0,,,,,0,7,7,7,,,,,,,,,,,,,,,,,,,,,,None,None,"[0, 0, 0]",2154.200075800065,2156.2001034000423,2154.200075800065,2155.2000935999677,2155.1834315999877,2156.183433299884,"[0, 0, 0]",1,2154.200075800065,2156.2001034000423,,,,,,,,,,,,,1,M,2,25,r,ARB,2021_Oct_26_1823,2020.2.10,distractmap2,59.97454680401794,"['Left Leg', 'Left Face', 'Right Arm', 'Abdomen']",
5,"[0, 0]",1,,,,,0,8,8,8,,,,,,,,,,,,,,,,,,,,,,None,None,"[0, 0, 0]",2156.2167869000696,2158.216774899978,2156.2167869000696,2157.2167912998702,2157.2000696000177,2158.200104099931,"[0, 0, 0]",1,2156.2167869000696,2158.216774899978,,,,,,,,,,,,,1,M,2,25,r,ARB,2021_Oct_26_1823,2020.2.10,distractmap2,59.97454680401794,"['Left Leg', 'Left Face', 'Right Arm', 'Abdomen']",
7,"[-0.2, -0.2]",1,,,,,0,9,9,9,,,,,,,,,,,,,,,,,,,,,,None,None,"[0, 0, 0]",2158.2334441998973,2160.233459400013,2158.2334441998973,2159.233444399899,2159.2167722999584,2160.216808799887,"[0, 0, 0]",0,2158.2334441998973,2160.233459400013,,,,,,,,,,,,,1,M,2,25,r,ARB,2021_Oct_26_1823,2020.2.10,distractmap2,59.97454680401794,"['Left Leg', 'Left Face', 'Right Arm', 'Abdomen']",
,,,,,,,,,,,2160.250137700001,None,,,,,,,,,,,,,,,,,,,,,,,,,,,,,,,,,,,,,,,,,24.93827160493827,2118.248996859882,,,1,M,2,25,r,ARB,2021_Oct_26_1823,2020.2.10,distractmap2,59.97454680401794,"['Left Leg', 'Left Face', 'Right Arm', 'Abdomen']",
5,"[0, 0]",None,0,0,0,0,,,,,2173.4839443000965,None,2180.3003026000224,None,2180.3003026000224,2181.300349700032,2181.2836440000683,2182.283672800055,1,None,None,"[0, 0, 0]",,,2180.3003026000224,None,,,,,,,,,,,,,,,,,,,,,,,,,,"[0, 0, 0]",,,0.0151241400744766,5.013181740185246,1,M,2,25,r,ARB,2021_Oct_26_1823,2020.2.10,distractmap2,59.97454680401794,"['Left Leg', 'Left Face', 'Right Arm', 'Abdomen']",
5,"[0, 0]",1,0,1,1,1,,,,,,,2182.3003223999403,None,2182.3003223999403,2183.300324300071,2183.2836688000243,2184.2836734000593,1,None,None,"[0, 0, 0]",,,2182.3003223999403,None,,,,,,,,,,,,,,,,,,,,,,,,,,"[0, 0, 0]",,,,,1,M,2,25,r,ARB,2021_Oct_26_1823,2020.2.10,distractmap2,59.97454680401794,"['Left Leg', 'Left Face', 'Right Arm', 'Abdomen']",
4,"[-0.2, 0]",0,0,2,2,2,,,,,,,2184.3003338999115,2184.3003338999115,2184.3003338999115,2185.3003471998964,2185.2836883999407,2186.2836859999225,1,None,None,"[0, 0, 0]",,,2184.3003338999115,2184.3003338999115,,,,,,,,,,,,,,,,,,,,,,,,,,"[0, 0, 0]",,,,,1,M,2,25,r,ARB,2021_Oct_26_1823,2020.2.10,distractmap2,59.97454680401794,"['Left Leg', 'Left Face', 'Right Arm', 'Abdomen']",
2,"[0, 0.2]",0,0,3,3,3,,,,,,,2186.3003364999313,2186.3003364999313,2186.3003364999313,2187.300352399936,2187.2836921999697,2188.2837076999713,1,None,None,"[0, 0, 0]",,,2186.3003364999313,2186.3003364999313,,,,,,,,,,,,,,,,,,,,,,,,,,"[0, 0, 0]",,,,,1,M,2,25,r,ARB,2021_Oct_26_1823,2020.2.10,distractmap2,59.97454680401794,"['Left Leg', 'Left Face', 'Right Arm', 'Abdomen']",
6,"[0.2, 0]",0,0,4,4,4,,,,,,,2188.3502789998893,2188.3502789998893,2188.3502789998893,2189.3503576999065,2189.3503576999065,None,1,None,None,"[0, 0, 0]",,,2188.3502789998893,2188.3502789998893,,,,,,,,,,,,,,,,,,,,,,,,,,"[0, 0, 0]",,,,,1,M,2,25,r,ARB,2021_Oct_26_1823,2020.2.10,distractmap2,59.97454680401794,"['Left Leg', 'Left Face', 'Right Arm', 'Abdomen']",
8,"[0, -0.2]",0,0,5,5,5,,,,,,,2190.3170360000804,None,2190.3170360000804,2191.3170459999237,2191.3003942999057,2192.3004051998723,1,None,None,"[0, 0, 0]",,,2190.3170360000804,None,,,,,,,,,,,,,,,,,,,,,,,,,,"[0, 0, 0]",,,,,1,M,2,25,r,ARB,2021_Oct_26_1823,2020.2.10,distractmap2,59.97454680401794,"['Left Leg', 'Left Face', 'Right Arm', 'Abdomen']",
1,"[-0.2, 0.2]",0,0,6,6,6,,,,,,,2192.317072399892,2192.317072399892,2192.317072399892,2193.3170590000227,2193.3003491999116,2194.3004004000686,1,None,None,"[0, 0, 0]",,,2192.317072399892,2192.317072399892,,,,,,,,,,,,,,,,,,,,,,,,,,"[0, 0, 0]",,,,,1,M,2,25,r,ARB,2021_Oct_26_1823,2020.2.10,distractmap2,59.97454680401794,"['Left Leg', 'Left Face', 'Right Arm', 'Abdomen']",
4,"[-0.2, 0]",0,0,7,7,7,,,,,,,2194.317089299904,2194.317089299904,2194.317089299904,2195.317075799918,2195.300411199918,2196.3004224000033,1,None,None,"[0, 0, 0]",,,2194.317089299904,2194.317089299904,,,,,,,,,,,,,,,,,,,,,,,,,,"[0, 0, 0]",,,,,1,M,2,25,r,ARB,2021_Oct_26_1823,2020.2.10,distractmap2,59.97454680401794,"['Left Leg', 'Left Face', 'Right Arm', 'Abdomen']",
8,"[0, -0.2]",0,0,8,8,8,,,,,,,2196.317097600084,2196.317097600084,2196.317097600084,2197.317114399979,2197.300524899969,2198.3004461999517,1,None,None,"[0, 0, 0]",,,2196.317097600084,2196.317097600084,,,,,,,,,,,,,,,,,,,,,,,,,,"[0, 0, 0]",,,,,1,M,2,25,r,ARB,2021_Oct_26_1823,2020.2.10,distractmap2,59.97454680401794,"['Left Leg', 'Left Face', 'Right Arm', 'Abdomen']",
8,"[0, -0.2]",1,0,9,9,9,,,,,,,2198.3170999998692,2198.3170999998692,2198.3170999998692,2199.3171059000306,2199.300469300011,2200.300440199906,1,None,None,"[0, 0, 0]",,,2198.3170999998692,2198.3170999998692,,,,,,,,,,,,,,,,,,,,,,,,,,"[0, 0, 0]",,,,,1,M,2,25,r,ARB,2021_Oct_26_1823,2020.2.10,distractmap2,59.97454680401794,"['Left Leg', 'Left Face', 'Right Arm', 'Abdomen']",
,,,,,,,,,,,2200.3171184998937,None,,,,,,,,,,,,,,,,,,,,,,,,,,,,,,,,,,,,,,,,,30.308641975308642,2159.5499942600727,,,1,M,2,25,r,ARB,2021_Oct_26_1823,2020.2.10,distractmap2,59.97454680401794,"['Left Leg', 'Left Face', 'Right Arm', 'Abdomen']",
3,"[0.2, 0.2]",None,0,0,0,0,,,,,2215.534129800042,None,2220.3506412999704,None,2220.3506412999704,2221.350653399946,2221.3339476000983,2222.3339799998794,1,None,None,"[0, 0, 0]",,,2220.3506412999704,None,,,,,,,,,,,,,,,,,,,,,,,,,,"[0, 0, 0]",,,0.014465040061622858,5.011816740036011,1,M,2,25,r,ARB,2021_Oct_26_1823,2020.2.10,distractmap2,59.97454680401794,"['Left Leg', 'Left Face', 'Right Arm', 'Abdomen']",
4,"[-0.2, 0]",0,0,1,1,1,,,,,,,2222.3506503999233,None,2222.3506503999233,2223.350668200059,2223.3339861999266,2224.3339746999554,1,None,None,"[0, 0, 0]",,,2222.3506503999233,None,,,,,,,,,,,,,,,,,,,,,,,,,,"[0, 0, 0]",,,,,1,M,2,25,r,ARB,2021_Oct_26_1823,2020.2.10,distractmap2,59.97454680401794,"['Left Leg', 'Left Face', 'Right Arm', 'Abdomen']",
1,"[-0.2, 0.2]",0,0,2,2,2,,,,,,,2224.3506803000346,2224.3506803000346,2224.3506803000346,2225.35067659989,2225.3339811998885,2226.3339940998703,0,None,None,"[0, 0, 0]",,,2224.3506803000346,2224.3506803000346,,,,,,,,,,,,,,,,,,,,,,,,,,"[0, 0, 0]",,,,,1,M,2,25,r,ARB,2021_Oct_26_1823,2020.2.10,distractmap2,59.97454680401794,"['Left Leg', 'Left Face', 'Right Arm', 'Abdomen']",
2,"[0, 0.2]",0,0,3,3,3,,,,,,,2226.350692299893,2226.350692299893,2226.350692299893,2227.350701800082,2227.33406880009,2228.334008200094,1,None,None,"[0, 0, 0]",,,2226.350692299893,2226.350692299893,,,,,,,,,,,,,,,,,,,,,,,,,,"[0, 0, 0]",,,,,1,M,2,25,r,ARB,2021_Oct_26_1823,2020.2.10,distractmap2,59.97454680401794,"['Left Leg', 'Left Face', 'Right Arm', 'Abdomen']",
2,"[0, 0.2]",1,0,4,4,4,,,,,,,2228.4177023000084,2228.4177023000084,2228.4177023000084,2229.41738489992,2229.4007158998866,None,1,None,None,"[0, 0, 0]",,,2228.4177023000084,2228.4177023000084,,,,,,,,,,,,,,,,,,,,,,,,,,"[0, 0, 0]",,,,,1,M,2,25,r,ARB,2021_Oct_26_1823,2020.2.10,distractmap2,59.97454680401794,"['Left Leg', 'Left Face', 'Right Arm', 'Abdomen']",
5,"[0, 0]",0,0,5,5,5,,,,,,,2230.3673735999037,None,2230.3673735999037,2231.3674037000164,2231.3507373998873,2232.350753000006,1,None,None,"[0, 0, 0]",,,2230.3673735999037,None,,,,,,,,,,,,,,,,,,,,,,,,,,"[0, 0, 0]",,,,,1,M,2,25,r,ARB,2021_Oct_26_1823,2020.2.10,distractmap2,59.97454680401794,"['Left Leg', 'Left Face', 'Right Arm', 'Abdomen']",
1,"[-0.2, 0.2]",0,0,6,6,6,,,,,,,2232.3673803999554,2232.3673803999554,2232.3673803999554,2233.367412700085,2233.3507538998965,2234.3507518998813,1,None,None,"[0, 0, 0]",,,2232.3673803999554,2232.3673803999554,,,,,,,,,,,,,,,,,,,,,,,,,,"[0, 0, 0]",,,,,1,M,2,25,r,ARB,2021_Oct_26_1823,2020.2.10,distractmap2,59.97454680401794,"['Left Leg', 'Left Face', 'Right Arm', 'Abdomen']",
1,"[-0.2, 0.2]",1,0,7,7,7,,,,,,,2234.367403199896,2234.367403199896,2234.367403199896,2235.3674308999907,2235.350758400047,2236.350771199912,1,None,None,"[0, 0, 0]",,,2234.367403199896,2234.367403199896,,,,,,,,,,,,,,,,,,,,,,,,,,"[0, 0, 0]",,,,,1,M,2,25,r,ARB,2021_Oct_26_1823,2020.2.10,distractmap2,59.97454680401794,"['Left Leg', 'Left Face', 'Right Arm', 'Abdomen']",
8,"[0, -0.2]",0,0,8,8,8,,,,,,,2236.3674361999147,2236.3674361999147,2236.3674361999147,2237.3674308999907,2237.350777100073,2238.3507928999607,1,None,None,"[0, 0, 0]",,,2236.3674361999147,2236.3674361999147,,,,,,,,,,,,,,,,,,,,,,,,,,"[0, 0, 0]",,,,,1,M,2,25,r,ARB,2021_Oct_26_1823,2020.2.10,distractmap2,59.97454680401794,"['Left Leg', 'Left Face', 'Right Arm', 'Abdomen']",
7,"[-0.2, -0.2]",0,0,9,9,9,,,,,,,2238.3674530000426,2238.3674530000426,2238.3674530000426,2239.367458099965,2239.3508111000992,2240.3508045999333,1,None,None,"[0, 0, 0]",,,2238.3674530000426,2238.3674530000426,,,,,,,,,,,,,,,,,,,,,,,,,,"[0, 0, 0]",,,,,1,M,2,25,r,ARB,2021_Oct_26_1823,2020.2.10,distractmap2,59.97454680401794,"['Left Leg', 'Left Face', 'Right Arm', 'Abdomen']",
,,,,,,,,,,,2240.3674542000517,None,,,,,,,,,,,,,,,,,,,,,,,,,,,,,,,,,,,,,,,,,29.567901234567902,2197.400063060224,,,1,M,2,25,r,ARB,2021_Oct_26_1823,2020.2.10,distractmap2,59.97454680401794,"['Left Leg', 'Left Face', 'Right Arm', 'Abdomen']",
6,"[0.2, 0]",None,,,,,0,0,0,0,2253.6176463998854,None,,,,,,,,,,,,,,,,,,,,None,None,"[0, 0, 0]",2260.4176157000475,2262.41764479992,2260.4176157000475,2261.4176381998695,2261.4009588998742,2262.400983199943,"[0, 0, 0]",1,2260.4176157000475,2262.41764479992,,,,,,,,,,,0.014691839925944805,5.012276639929041,1,M,2,25,r,ARB,2021_Oct_26_1823,2020.2.10,distractmap2,59.97454680401794,"['Left Leg', 'Left Face', 'Right Arm', 'Abdomen']",
