RestT1,TaskT1,square,location,corrAns,counterbalancer.thisRepN,counterbalancer.thisTrialN,counterbalancer.thisN,counterbalancer.thisIndex,RestT1Loop.thisRepN,RestT1Loop.thisTrialN,RestT1Loop.thisN,RestT1Loop.thisIndex,TaskT1Loop.thisRepN,TaskT1Loop.thisTrialN,TaskT1Loop.thisN,TaskT1Loop.thisIndex,trials_2.thisRepN,trials_2.thisTrialN,trials_2.thisN,trials_2.thisIndex,fixation_1.started,fixation_1.stopped,NbackInstructions.started,NbackInstructions.stopped,NbackStart.keys,NbackStart.rt,NbackStart.started,NbackStart.stopped,fixation_2.started,fixation_2.stopped,response_2.x,response_2.y,response_2.leftButton,grid_lines_2.started,grid_lines_2.stopped,target_square_2.started,target_square_2.stopped,fixation_3.started,fixation_3.stopped,response_2.click,response_2.corr,response_2.started,response_2.stopped,response_2.rt,subject number,gender,session,handedness,scanner,date,expName,psychopyVersion,frameRate,
1,0,,,,0,0,0,0,0,0,0,0,,,,,,,,,161.9189995000006,None,,,,,,,,,,,,,,,,,,,,,,,5,M,13,R,CJM,2021_Oct_04_2006,WASABI Nback,2020.2.10,59.98289287874596,
0,1,,,,0,1,1,1,,,,,0,0,0,0,,,,,,,434.78768020000007,None,space,32.44118450000042,434.78768020000007,None,,,,,,,,,,,,,,,,,5,M,13,R,CJM,2021_Oct_04_2006,WASABI Nback,2020.2.10,59.98289287874596,
0,1,5,"[0, 0]",None,0,1,1,1,,,,,0,0,0,0,0,0,0,0,,,,,,,,,None,None,None,None,[],None,None,None,None,None,None,[],[],None,None,,5,M,13,R,CJM,2021_Oct_04_2006,WASABI Nback,2020.2.10,59.98289287874596,
0,1,2,"[0, 0.2]",None,0,1,1,1,,,,,0,0,0,0,0,1,1,1,,,,,,,,,,,None,None,0,470.9046294,None,470.9046294,471.9047025,471.8879702000004,None,0,1,470.9046294,None,,5,M,13,R,CJM,2021_Oct_04_2006,WASABI Nback,2020.2.10,59.98289287874596,
0,1,6,"[0.2, 0]",None,0,1,1,1,,,,,0,0,0,0,0,2,2,2,,,,,,,,,,,None,None,0,472.2712975000004,None,472.2712975000004,473.27129740000055,473.2546295000002,474.2546376999999,0,1,472.2712975000004,None,,5,M,13,R,CJM,2021_Oct_04_2006,WASABI Nback,2020.2.10,59.98289287874596,
0,1,9,"[0.2, -0.2]",None,0,1,1,1,,,,,0,0,0,0,0,3,3,3,,,,,,,,,,,None,None,0,474.2713123000003,None,474.2713123000003,475.2713282000004,475.2546572000001,476.2546525000007,0,1,474.2713123000003,None,,5,M,13,R,CJM,2021_Oct_04_2006,WASABI Nback,2020.2.10,59.98289287874596,
0,1,3,"[0.2, 0.2]",None,0,1,1,1,,,,,0,0,0,0,0,4,4,4,,,,,,,,,,,None,None,0,476.2713197000003,None,476.2713197000003,477.2713295000003,477.2546790000006,478.2546785000004,0,1,476.2713197000003,None,,5,M,13,R,CJM,2021_Oct_04_2006,WASABI Nback,2020.2.10,59.98289287874596,
0,1,9,"[0.2, -0.2]",1,0,1,1,1,,,,,0,0,0,0,0,5,5,5,,,,,,,,,,,None,None,0,478.27134509999996,None,478.27134509999996,479.2713452000007,479.25467260000005,480.25469729999986,0,1,478.27134509999996,None,,5,M,13,R,CJM,2021_Oct_04_2006,WASABI Nback,2020.2.10,59.98289287874596,
0,1,7,"[-0.2, -0.2]",None,0,1,1,1,,,,,0,0,0,0,0,6,6,6,,,,,,,,,,,None,None,0,480.2713472000005,None,480.2713472000005,481.2713640000002,481.25468980000005,482.2546989000002,0,1,480.2713472000005,None,,5,M,13,R,CJM,2021_Oct_04_2006,WASABI Nback,2020.2.10,59.98289287874596,
0,1,1,"[-0.2, 0.2]",None,0,1,1,1,,,,,0,0,0,0,0,7,7,7,,,,,,,,,,,None,None,0,482.2713588000006,None,482.2713588000006,483.2713653999999,483.25471300000027,484.2547086000004,0,1,482.2713588000006,None,,5,M,13,R,CJM,2021_Oct_04_2006,WASABI Nback,2020.2.10,59.98289287874596,
0,1,5,"[0, 0]",None,0,1,1,1,,,,,0,0,0,0,0,8,8,8,,,,,,,,,,,None,None,0,484.2713824000002,None,484.2713824000002,485.2713911999999,485.2547179000003,486.2547288000005,0,1,484.2713824000002,None,,5,M,13,R,CJM,2021_Oct_04_2006,WASABI Nback,2020.2.10,59.98289287874596,
0,1,7,"[-0.2, -0.2]",None,0,1,1,1,,,,,0,0,0,0,0,9,9,9,,,,,,,,,,,None,None,0,486.2713994000005,None,486.2713994000005,487.2714048000007,487.25473039999997,488.25474290000056,0,1,486.2713994000005,None,,5,M,13,R,CJM,2021_Oct_04_2006,WASABI Nback,2020.2.10,59.98289287874596,
0,1,5,"[0, 0]",1,0,1,1,1,,,,,0,0,0,0,0,10,10,10,,,,,,,,,,,None,None,0,488.2714016,None,488.2714016,489.27140580000014,489.25475559999995,490.2547546000005,0,1,488.2714016,None,,5,M,13,R,CJM,2021_Oct_04_2006,WASABI Nback,2020.2.10,59.98289287874596,
0,1,6,"[0.2, 0]",None,0,1,1,1,,,,,0,0,0,0,0,11,11,11,,,,,,,,,,,None,None,0,490.27142749999985,None,490.27142749999985,491.2714272000003,491.25476340000023,492.2547783,0,1,490.27142749999985,None,,5,M,13,R,CJM,2021_Oct_04_2006,WASABI Nback,2020.2.10,59.98289287874596,
0,1,3,"[0.2, 0.2]",None,0,1,1,1,,,,,0,0,0,0,0,12,12,12,,,,,,,,,,,None,None,0,492.2714439000001,None,492.2714439000001,493.2714452,493.2547861000003,494.25478939999994,0,1,492.2714439000001,None,,5,M,13,R,CJM,2021_Oct_04_2006,WASABI Nback,2020.2.10,59.98289287874596,
0,1,6,"[0.2, 0]",1,0,1,1,1,,,,,0,0,0,0,0,13,13,13,,,,,,,,,,,None,None,0,494.27145350000046,None,494.27145350000046,495.2714672000002,495.25480060000064,496.25479840000025,0,1,494.27145350000046,None,,5,M,13,R,CJM,2021_Oct_04_2006,WASABI Nback,2020.2.10,59.98289287874596,
0,1,8,"[0, -0.2]",None,0,1,1,1,,,,,0,0,0,0,0,14,14,14,,,,,,,,,,,None,None,0,496.2714719000005,None,496.2714719000005,497.271479,497.2547921000005,498.2548159000007,0,1,496.2714719000005,None,,5,M,13,R,CJM,2021_Oct_04_2006,WASABI Nback,2020.2.10,59.98289287874596,
0,1,9,"[0.2, -0.2]",None,0,1,1,1,,,,,0,0,0,0,0,15,15,15,,,,,,,,,,,None,None,0,498.2714990000004,None,498.2714990000004,499.2714839,499.2548391,500.2548288000007,0,1,498.2714990000004,None,,5,M,13,R,CJM,2021_Oct_04_2006,WASABI Nback,2020.2.10,59.98289287874596,
0,1,9,"[0.2, -0.2]",None,0,1,1,1,,,,,0,0,0,0,0,16,16,16,,,,,,,,,,,None,None,0,500.27149270000064,None,500.27149270000064,501.2715143000005,501.2548372000001,502.2548047,0,1,500.27149270000064,None,,5,M,13,R,CJM,2021_Oct_04_2006,WASABI Nback,2020.2.10,59.98289287874596,
0,1,1,"[-0.2, 0.2]",None,0,1,1,1,,,,,0,0,0,0,0,17,17,17,,,,,,,,,,,None,None,0,502.27150710000024,None,502.27150710000024,503.27152600000045,503.2548577000007,504.2548646000005,0,1,502.27150710000024,None,,5,M,13,R,CJM,2021_Oct_04_2006,WASABI Nback,2020.2.10,59.98289287874596,
0,1,3,"[0.2, 0.2]",None,0,1,1,1,,,,,0,0,0,0,0,18,18,18,,,,,,,,,,,None,None,0,504.27153460000045,None,504.27153460000045,505.27153240000007,505.2548729,506.2548850000003,0,1,504.27153460000045,None,,5,M,13,R,CJM,2021_Oct_04_2006,WASABI Nback,2020.2.10,59.98289287874596,
0,1,5,"[0, 0]",None,0,1,1,1,,,,,0,0,0,0,0,19,19,19,,,,,,,,,,,None,None,0,506.27155910000056,None,506.27155910000056,507.27154880000035,507.2548850000003,508.2548870999999,0,1,506.27155910000056,None,,5,M,13,R,CJM,2021_Oct_04_2006,WASABI Nback,2020.2.10,59.98289287874596,
0,1,3,"[0.2, 0.2]",1,0,1,1,1,,,,,0,0,0,0,0,20,20,20,,,,,,,,,,,None,None,0,508.2715616000005,None,508.2715616000005,509.27157520000037,509.2549035000002,510.25484360000064,0,1,508.2715616000005,None,,5,M,13,R,CJM,2021_Oct_04_2006,WASABI Nback,2020.2.10,59.98289287874596,
0,1,4,"[-0.2, 0]",None,0,1,1,1,,,,,0,0,0,0,0,21,21,21,,,,,,,,,,,None,None,0,510.2715678000004,None,510.2715678000004,511.2716463000006,511.25491050000073,512.2549521000001,0,1,510.2715678000004,None,,5,M,13,R,CJM,2021_Oct_04_2006,WASABI Nback,2020.2.10,59.98289287874596,
0,1,7,"[-0.2, -0.2]",None,0,1,1,1,,,,,0,0,0,0,0,22,22,22,,,,,,,,,,,None,None,0,512.2715963,None,512.2715963,513.2715994999999,513.2549379000002,514.2549535000007,0,1,512.2715963,None,,5,M,13,R,CJM,2021_Oct_04_2006,WASABI Nback,2020.2.10,59.98289287874596,
0,1,4,"[-0.2, 0]",1,0,1,1,1,,,,,0,0,0,0,0,23,23,23,,,,,,,,,,,None,None,0,514.2716012000001,None,514.2716012000001,515.2716227000001,515.2549540999998,516.2549521999999,0,1,514.2716012000001,None,,5,M,13,R,CJM,2021_Oct_04_2006,WASABI Nback,2020.2.10,59.98289287874596,
0,1,4,"[-0.2, 0]",None,0,1,1,1,,,,,0,0,0,0,0,24,24,24,,,,,,,,,,,None,None,0,516.2716149000007,None,516.2716149000007,517.2716230000005,517.2549654000004,518.2549749,0,1,516.2716149000007,None,,5,M,13,R,CJM,2021_Oct_04_2006,WASABI Nback,2020.2.10,59.98289287874596,
0,1,5,"[0, 0]",None,0,1,1,1,,,,,0,0,0,0,0,25,25,25,,,,,,,,,,,None,None,0,518.2716317000004,None,518.2716317000004,519.2716623000006,519.2549764000005,520.2549923000006,0,1,518.2716317000004,None,,5,M,13,R,CJM,2021_Oct_04_2006,WASABI Nback,2020.2.10,59.98289287874596,
0,1,2,"[0, 0.2]",None,0,1,1,1,,,,,0,0,0,0,0,26,26,26,,,,,,,,,,,None,None,0,520.2716545000003,None,520.2716545000003,521.2717161,521.2549905000005,522.2549994000001,0,1,520.2716545000003,None,,5,M,13,R,CJM,2021_Oct_04_2006,WASABI Nback,2020.2.10,59.98289287874596,
0,1,6,"[0.2, 0]",None,0,1,1,1,,,,,0,0,0,0,0,27,27,27,,,,,,,,,,,None,None,0,522.2716619000003,None,522.2716619000003,523.2716725,523.2549251,524.2550148999999,0,1,522.2716619000003,None,,5,M,13,R,CJM,2021_Oct_04_2006,WASABI Nback,2020.2.10,59.98289287874596,
0,1,7,"[-0.2, -0.2]",None,0,1,1,1,,,,,0,0,0,0,0,28,28,28,,,,,,,,,,,None,None,0,524.2716930000006,None,524.2716930000006,525.2716803000003,525.2550422000004,526.2550446000005,0,1,524.2716930000006,None,,5,M,13,R,CJM,2021_Oct_04_2006,WASABI Nback,2020.2.10,59.98289287874596,
0,1,6,"[0.2, 0]",1,0,1,1,1,,,,,0,0,0,0,0,29,29,29,,,,,,,,,,,None,None,0,526.2716988000002,None,526.2716988000002,527.2716490000003,527.2550347000006,528.2550452000005,0,1,526.2716988000002,None,,5,M,13,R,CJM,2021_Oct_04_2006,WASABI Nback,2020.2.10,59.98289287874596,
0,1,6,"[0.2, 0]",None,0,1,1,1,,,,,0,0,0,0,0,30,30,30,,,,,,,,,,,None,None,0,528.2717056000001,None,528.2717056000001,529.2717232000005,529.2550594000004,530.2550592000007,0,1,528.2717056000001,None,,5,M,13,R,CJM,2021_Oct_04_2006,WASABI Nback,2020.2.10,59.98289287874596,
0,1,7,"[-0.2, -0.2]",None,0,1,1,1,,,,,0,0,0,0,0,31,31,31,,,,,,,,,,,None,None,0,530.2716369,None,530.2716369,531.2717012000003,531.2550830999999,532.2550738999998,0,1,530.2716369,None,,5,M,13,R,CJM,2021_Oct_04_2006,WASABI Nback,2020.2.10,59.98289287874596,
0,1,6,"[0.2, 0]",1,0,1,1,1,,,,,0,0,0,0,0,32,32,32,,,,,,,,,,,None,None,0,532.2717536,None,532.2717536,533.2717399000003,533.2550847000002,534.2551109000005,0,1,532.2717536,None,,5,M,13,R,CJM,2021_Oct_04_2006,WASABI Nback,2020.2.10,59.98289287874596,
0,1,2,"[0, 0.2]",None,0,1,1,1,,,,,0,0,0,0,0,33,33,33,,,,,,,,,,,None,None,0,534.2717640999999,None,534.2717640999999,535.2717751999999,535.2550956000005,536.2551102000007,0,1,534.2717640999999,None,,5,M,13,R,CJM,2021_Oct_04_2006,WASABI Nback,2020.2.10,59.98289287874596,
0,1,5,"[0, 0]",None,0,1,1,1,,,,,0,0,0,0,0,34,34,34,,,,,,,,,,,None,None,0,536.2717699000004,None,536.2717699000004,537.2717857000007,537.2551362000004,538.2551231000007,0,1,536.2717699000004,None,,5,M,13,R,CJM,2021_Oct_04_2006,WASABI Nback,2020.2.10,59.98289287874596,
0,1,4,"[-0.2, 0]",None,0,1,1,1,,,,,0,0,0,0,0,35,35,35,,,,,,,,,,,None,None,0,538.2717854000002,None,538.2717854000002,539.2717866000003,539.2551276000004,540.2551619000005,0,1,538.2717854000002,None,,5,M,13,R,CJM,2021_Oct_04_2006,WASABI Nback,2020.2.10,59.98289287874596,
0,1,4,"[-0.2, 0]",None,0,1,1,1,,,,,0,0,0,0,0,36,36,36,,,,,,,,,,,None,None,0,540.2718150000001,None,540.2718150000001,541.2718011000006,541.2551665999999,542.2551541000003,0,1,540.2718150000001,None,,5,M,13,R,CJM,2021_Oct_04_2006,WASABI Nback,2020.2.10,59.98289287874596,
0,1,7,"[-0.2, -0.2]",None,0,1,1,1,,,,,0,0,0,0,0,37,37,37,,,,,,,,,,,None,None,0,542.2718116000005,None,542.2718116000005,543.2718340000001,543.2551726000002,544.2551667000007,0,1,542.2718116000005,None,,5,M,13,R,CJM,2021_Oct_04_2006,WASABI Nback,2020.2.10,59.98289287874596,
0,1,4,"[-0.2, 0]",1,0,1,1,1,,,,,0,0,0,0,0,38,38,38,,,,,,,,,,,None,None,0,544.2718337000006,None,544.2718337000006,545.2718290000003,545.2551917000001,546.2552060000007,0,1,544.2718337000006,None,,5,M,13,R,CJM,2021_Oct_04_2006,WASABI Nback,2020.2.10,59.98289287874596,
0,1,3,"[0.2, 0.2]",None,0,1,1,1,,,,,0,0,0,0,0,39,39,39,,,,,,,,,,,None,None,0,546.271839,None,546.271839,547.2718752999999,547.2551910000002,548.2552015000001,0,1,546.271839,None,,5,M,13,R,CJM,2021_Oct_04_2006,WASABI Nback,2020.2.10,59.98289287874596,
0,1,5,"[0, 0]",None,0,1,1,1,,,,,0,0,0,0,0,40,40,40,,,,,,,,,,,None,None,0,548.2718694000005,None,548.2718694000005,549.2718832,549.2552298999999,550.2552271000004,0,1,548.2718694000005,None,,5,M,13,R,CJM,2021_Oct_04_2006,WASABI Nback,2020.2.10,59.98289287874596,
0,1,3,"[0.2, 0.2]",1,0,1,1,1,,,,,0,0,0,0,0,41,41,41,,,,,,,,,,,None,None,0,550.2718688000004,None,550.2718688000004,551.2719035999999,551.2552412000005,552.2552341999999,0,1,550.2718688000004,None,,5,M,13,R,CJM,2021_Oct_04_2006,WASABI Nback,2020.2.10,59.98289287874596,
0,1,1,"[-0.2, 0.2]",None,0,1,1,1,,,,,0,0,0,0,0,42,42,42,,,,,,,,,,,None,None,0,552.2718854000004,None,552.2718854000004,553.2718947000003,553.2552427999999,554.2552392000007,0,1,552.2718854000004,None,,5,M,13,R,CJM,2021_Oct_04_2006,WASABI Nback,2020.2.10,59.98289287874596,
0,1,9,"[0.2, -0.2]",None,0,1,1,1,,,,,0,0,0,0,0,43,43,43,,,,,,,,,,,None,None,0,554.2719219999999,None,554.2719219999999,555.2719146,555.2552550999999,556.2552722999999,0,1,554.2719219999999,None,,5,M,13,R,CJM,2021_Oct_04_2006,WASABI Nback,2020.2.10,59.98289287874596,
0,1,9,"[0.2, -0.2]",None,0,1,1,1,,,,,0,0,0,0,0,44,44,44,,,,,,,,,,,None,None,0,556.2719213,None,556.2719213,557.2719364000004,557.2552862000002,558.2551686000006,0,1,556.2719213,None,,5,M,13,R,CJM,2021_Oct_04_2006,WASABI Nback,2020.2.10,59.98289287874596,
0,1,8,"[0, -0.2]",None,0,1,1,1,,,,,0,0,0,0,0,45,45,45,,,,,,,,,,,None,None,0,558.2719439000002,None,558.2719439000002,559.2718613000006,559.2553008000004,560.2552795000001,0,1,558.2719439000002,None,,5,M,13,R,CJM,2021_Oct_04_2006,WASABI Nback,2020.2.10,59.98289287874596,
0,1,6,"[0.2, 0]",None,0,1,1,1,,,,,0,0,0,0,0,46,46,46,,,,,,,,,,,None,None,0,560.2719565000007,None,560.2719565000007,561.2719634000005,561.255298,562.2553225000001,0,1,560.2719565000007,None,,5,M,13,R,CJM,2021_Oct_04_2006,WASABI Nback,2020.2.10,59.98289287874596,
0,1,3,"[0.2, 0.2]",None,0,1,1,1,,,,,0,0,0,0,0,47,47,47,,,,,,,,,,,None,None,0,562.2719796000001,None,562.2719796000001,563.2719714000004,563.2553357000006,564.2553261000003,0,1,562.2719796000001,None,,5,M,13,R,CJM,2021_Oct_04_2006,WASABI Nback,2020.2.10,59.98289287874596,
0,1,6,"[0.2, 0]",1,0,1,1,1,,,,,0,0,0,0,0,48,48,48,,,,,,,,,,,None,None,0,564.2719936000003,None,564.2719936000003,565.2719973000003,565.2553472,566.2553348000001,0,1,564.2719936000003,None,,5,M,13,R,CJM,2021_Oct_04_2006,WASABI Nback,2020.2.10,59.98289287874596,
0,1,5,"[0, 0]",None,0,1,1,1,,,,,0,0,0,0,0,49,49,49,,,,,,,,,,,None,None,0,566.2719993999999,None,566.2719993999999,567.2720001000007,567.2553492000006,568.2553537000003,0,1,566.2719993999999,None,,5,M,13,R,CJM,2021_Oct_04_2006,WASABI Nback,2020.2.10,59.98289287874596,
0,1,7,"[-0.2, -0.2]",None,0,1,1,1,,,,,0,0,0,0,0,50,50,50,,,,,,,,,,,None,None,0,568.2720238000002,None,568.2720238000002,569.2720161000007,569.2553607,570.2553648000003,0,1,568.2720238000002,None,,5,M,13,R,CJM,2021_Oct_04_2006,WASABI Nback,2020.2.10,59.98289287874596,
0,1,5,"[0, 0]",1,0,1,1,1,,,,,0,0,0,0,0,51,51,51,,,,,,,,,,,None,None,0,570.2720284000006,None,570.2720284000006,571.2720396000004,571.2553782000005,572.2552764000002,0,1,570.2720284000006,None,,5,M,13,R,CJM,2021_Oct_04_2006,WASABI Nback,2020.2.10,59.98289287874596,
0,1,1,"[-0.2, 0.2]",None,0,1,1,1,,,,,0,0,0,0,0,52,52,52,,,,,,,,,,,None,None,0,572.2720401000006,None,572.2720401000006,573.2720550000004,573.2554097000002,574.2554014000007,0,1,572.2720401000006,None,,5,M,13,R,CJM,2021_Oct_04_2006,WASABI Nback,2020.2.10,59.98289287874596,
0,1,7,"[-0.2, -0.2]",None,0,1,1,1,,,,,0,0,0,0,0,53,53,53,,,,,,,,,,,None,None,0,574.2720551000002,None,574.2720551000002,575.2720813000005,575.2554036000001,576.2554101000005,0,1,574.2720551000002,None,,5,M,13,R,CJM,2021_Oct_04_2006,WASABI Nback,2020.2.10,59.98289287874596,
0,1,9,"[0.2, -0.2]",None,0,1,1,1,,,,,0,0,0,0,0,54,54,54,,,,,,,,,,,None,None,0,576.2720029000002,None,576.2720029000002,577.2720776000006,577.2554104000001,578.2554225000003,0,1,576.2720029000002,None,,5,M,13,R,CJM,2021_Oct_04_2006,WASABI Nback,2020.2.10,59.98289287874596,
0,1,3,"[0.2, 0.2]",None,0,1,1,1,,,,,0,0,0,0,0,55,55,55,,,,,,,,,,,None,None,0,578.2720835999999,None,578.2720835999999,579.2721039000007,579.2554329000004,580.2554479999999,0,1,578.2720835999999,None,,5,M,13,R,CJM,2021_Oct_04_2006,WASABI Nback,2020.2.10,59.98289287874596,
0,1,9,"[0.2, -0.2]",1,0,1,1,1,,,,,0,0,0,0,0,56,56,56,,,,,,,,,,,None,None,0,580.2721102000005,None,580.2721102000005,581.2721265,581.2554579000007,582.2554557000003,0,1,580.2721102000005,None,,5,M,13,R,CJM,2021_Oct_04_2006,WASABI Nback,2020.2.10,59.98289287874596,
0,1,6,"[0.2, 0]",None,0,1,1,1,,,,,0,0,0,0,0,57,57,57,,,,,,,,,,,None,None,0,582.2721173999998,None,582.2721173999998,583.2721468,583.2554604000006,584.2554875000005,0,1,582.2721173999998,None,,5,M,13,R,CJM,2021_Oct_04_2006,WASABI Nback,2020.2.10,59.98289287874596,
0,1,2,"[0, 0.2]",None,0,1,1,1,,,,,0,0,0,0,0,58,58,58,,,,,,,,,,,None,None,0,584.2721549000007,None,584.2721549000007,585.2721544000005,585.2554807000006,586.2554823,0,1,584.2721549000007,None,,5,M,13,R,CJM,2021_Oct_04_2006,WASABI Nback,2020.2.10,59.98289287874596,
0,1,5,"[0, 0]",None,0,1,1,1,,,,,0,0,0,0,0,59,59,59,,,,,,,,,,,None,None,0,586.2721546000002,None,586.2721546000002,587.2721734000006,587.2554975000003,588.2555081,0,1,586.2721546000002,None,,5,M,13,R,CJM,2021_Oct_04_2006,WASABI Nback,2020.2.10,59.98289287874596,
0,1,5,"[0, 0]",None,0,1,1,1,,,,,0,0,0,0,0,60,60,60,,,,,,,,,,,None,None,0,588.2721738,None,588.2721738,589.2721805000001,589.2555134000004,590.2555189000004,0,1,588.2721738,None,,5,M,13,R,CJM,2021_Oct_04_2006,WASABI Nback,2020.2.10,59.98289287874596,
0,1,2,"[0, 0.2]",None,0,1,1,1,,,,,0,0,0,0,0,61,61,61,,,,,,,,,,,None,None,0,590.2721971999999,None,590.2721971999999,591.2722031000003,591.2554928,592.2555369000002,0,1,590.2721971999999,None,,5,M,13,R,CJM,2021_Oct_04_2006,WASABI Nback,2020.2.10,59.98289287874596,
0,1,6,"[0.2, 0]",None,0,1,1,1,,,,,0,0,0,0,0,62,62,62,,,,,,,,,,,None,None,0,592.2722086000003,None,592.2722086000003,593.2722156,593.2555399000003,594.2555744000001,0,1,592.2722086000003,None,,5,M,13,R,CJM,2021_Oct_04_2006,WASABI Nback,2020.2.10,59.98289287874596,
0,1,9,"[0.2, -0.2]",None,0,1,1,1,,,,,0,0,0,0,0,63,63,63,,,,,,,,,,,None,None,0,594.2722184000004,None,594.2722184000004,595.2722223999999,595.2555627000002,596.2555692000005,0,1,594.2722184000004,None,,5,M,13,R,CJM,2021_Oct_04_2006,WASABI Nback,2020.2.10,59.98289287874596,
0,1,3,"[0.2, 0.2]",None,0,1,1,1,,,,,0,0,0,0,0,64,64,64,,,,,,,,,,,None,None,0,596.2722440000007,None,596.2722440000007,597.2722477000007,597.2555950000005,598.2555802000006,0,1,596.2722440000007,None,,5,M,13,R,CJM,2021_Oct_04_2006,WASABI Nback,2020.2.10,59.98289287874596,
0,1,9,"[0.2, -0.2]",1,0,1,1,1,,,,,0,0,0,0,0,65,65,65,,,,,,,,,,,None,None,0,598.2722591000002,None,598.2722591000002,599.2721330000004,599.2555907000005,600.2555923,0,1,598.2722591000002,None,,5,M,13,R,CJM,2021_Oct_04_2006,WASABI Nback,2020.2.10,59.98289287874596,
0,1,7,"[-0.2, -0.2]",None,0,1,1,1,,,,,0,0,0,0,0,66,66,66,,,,,,,,,,,None,None,0,600.2722674000006,None,600.2722674000006,601.272277,601.2556110000005,602.2556110000005,0,1,600.2722674000006,None,,5,M,13,R,CJM,2021_Oct_04_2006,WASABI Nback,2020.2.10,59.98289287874596,
0,1,1,"[-0.2, 0.2]",None,0,1,1,1,,,,,0,0,0,0,0,67,67,67,,,,,,,,,,,None,None,0,602.2722788000001,None,602.2722788000001,603.2722875,603.2556348000007,604.2556263000006,0,1,602.2722788000001,None,,5,M,13,R,CJM,2021_Oct_04_2006,WASABI Nback,2020.2.10,59.98289287874596,
0,1,5,"[0, 0]",None,0,1,1,1,,,,,0,0,0,0,0,68,68,68,,,,,,,,,,,None,None,0,604.2723028,None,604.2723028,605.2722995000004,605.2556377000001,606.2556650000006,0,1,604.2723028,None,,5,M,13,R,CJM,2021_Oct_04_2006,WASABI Nback,2020.2.10,59.98289287874596,
0,1,7,"[-0.2, -0.2]",None,0,1,1,1,,,,,0,0,0,0,0,69,69,69,,,,,,,,,,,None,None,0,606.2723116000006,None,606.2723116000006,607.2723243999999,607.2556583000005,608.2556902000006,0,1,606.2723116000006,None,,5,M,13,R,CJM,2021_Oct_04_2006,WASABI Nback,2020.2.10,59.98289287874596,
0,1,5,"[0, 0]",1,0,1,1,1,,,,,0,0,0,0,0,70,70,70,,,,,,,,,,,None,None,0,608.2723234000005,None,608.2723234000005,609.2722256000006,609.2556623999999,610.2556635000001,0,1,608.2723234000005,None,,5,M,13,R,CJM,2021_Oct_04_2006,WASABI Nback,2020.2.10,59.98289287874596,
0,1,6,"[0.2, 0]",None,0,1,1,1,,,,,0,0,0,0,0,71,71,71,,,,,,,,,,,None,None,0,610.2723534000006,None,610.2723534000006,611.2723467000005,611.2556814,612.2556843000002,0,1,610.2723534000006,None,,5,M,13,R,CJM,2021_Oct_04_2006,WASABI Nback,2020.2.10,59.98289287874596,
0,1,3,"[0.2, 0.2]",None,0,1,1,1,,,,,0,0,0,0,0,72,72,72,,,,,,,,,,,None,None,0,612.2723553000005,None,612.2723553000005,613.2723685999999,613.2556983000004,614.2557063000004,0,1,612.2723553000005,None,,5,M,13,R,CJM,2021_Oct_04_2006,WASABI Nback,2020.2.10,59.98289287874596,
0,1,6,"[0.2, 0]",1,0,1,1,1,,,,,0,0,0,0,0,73,73,73,,,,,,,,,,,None,None,0,614.2723837000003,None,614.2723837000003,615.2723845,615.2557073000007,616.2557094000003,0,1,614.2723837000003,None,,5,M,13,R,CJM,2021_Oct_04_2006,WASABI Nback,2020.2.10,59.98289287874596,
0,1,8,"[0, -0.2]",None,0,1,1,1,,,,,0,0,0,0,0,74,74,74,,,,,,,,,,,None,None,0,616.2723951000007,None,616.2723951000007,617.2723829000006,617.2557231999999,618.2557313000007,0,1,616.2723951000007,None,,5,M,13,R,CJM,2021_Oct_04_2006,WASABI Nback,2020.2.10,59.98289287874596,
0,1,9,"[0.2, -0.2]",None,0,1,1,1,,,,,0,0,0,0,0,75,75,75,,,,,,,,,,,None,None,0,618.2724023000001,None,618.2724023000001,619.2724119000004,619.2557388000005,620.2557454000007,0,1,618.2724023000001,None,,5,M,13,R,CJM,2021_Oct_04_2006,WASABI Nback,2020.2.10,59.98289287874596,
0,1,9,"[0.2, -0.2]",None,0,1,1,1,,,,,0,0,0,0,0,76,76,76,,,,,,,,,,,None,None,0,620.2724041000001,None,620.2724041000001,621.2724240000007,621.2556628000002,622.2557639000006,0,1,620.2724041000001,None,,5,M,13,R,CJM,2021_Oct_04_2006,WASABI Nback,2020.2.10,59.98289287874596,
0,1,1,"[-0.2, 0.2]",None,0,1,1,1,,,,,0,0,0,0,0,77,77,77,,,,,,,,,,,None,None,0,622.2724330000001,None,622.2724330000001,623.2724421000003,623.2557735999999,624.2557860000006,0,1,622.2724330000001,None,,5,M,13,R,CJM,2021_Oct_04_2006,WASABI Nback,2020.2.10,59.98289287874596,
0,1,3,"[0.2, 0.2]",None,0,1,1,1,,,,,0,0,0,0,0,78,78,78,,,,,,,,,,,None,None,0,624.2724494000004,None,624.2724494000004,625.2724402000003,625.2557903000006,626.2557913999999,0,1,624.2724494000004,None,,5,M,13,R,CJM,2021_Oct_04_2006,WASABI Nback,2020.2.10,59.98289287874596,
0,1,5,"[0, 0]",None,0,1,1,1,,,,,0,0,0,0,0,79,79,79,,,,,,,,,,,None,None,0,626.2724652000006,None,626.2724652000006,627.2724742999999,627.2558073,628.2557766,0,1,626.2724652000006,None,,5,M,13,R,CJM,2021_Oct_04_2006,WASABI Nback,2020.2.10,59.98289287874596,
0,1,3,"[0.2, 0.2]",1,0,1,1,1,,,,,0,0,0,0,0,80,80,80,,,,,,,,,,,None,None,0,628.2724759000002,None,628.2724759000002,629.2724854000007,629.2558202999999,630.2558155000006,0,1,628.2724759000002,None,,5,M,13,R,CJM,2021_Oct_04_2006,WASABI Nback,2020.2.10,59.98289287874596,
0,1,4,"[-0.2, 0]",None,0,1,1,1,,,,,0,0,0,0,0,81,81,81,,,,,,,,,,,None,None,0,630.2724951999999,None,630.2724951999999,631.2724857000003,631.2558274000003,632.255838,0,1,630.2724951999999,None,,5,M,13,R,CJM,2021_Oct_04_2006,WASABI Nback,2020.2.10,59.98289287874596,
0,1,7,"[-0.2, -0.2]",None,0,1,1,1,,,,,0,0,0,0,0,82,82,82,,,,,,,,,,,None,None,0,632.2725155000007,None,632.2725155000007,633.2725165000002,633.2558435999999,634.2558472000001,0,1,632.2725155000007,None,,5,M,13,R,CJM,2021_Oct_04_2006,WASABI Nback,2020.2.10,59.98289287874596,
0,1,4,"[-0.2, 0]",1,0,1,1,1,,,,,0,0,0,0,0,83,83,83,,,,,,,,,,,None,None,0,634.2725138000005,None,634.2725138000005,635.2725215,635.2558632999999,636.2558894000003,0,1,634.2725138000005,None,,5,M,13,R,CJM,2021_Oct_04_2006,WASABI Nback,2020.2.10,59.98289287874596,
0,1,4,"[-0.2, 0]",None,0,1,1,1,,,,,0,0,0,0,0,84,84,84,,,,,,,,,,,None,None,0,636.2725326,None,636.2725326,637.2725485000001,637.2557796000001,638.2558876000003,0,1,636.2725326,None,,5,M,13,R,CJM,2021_Oct_04_2006,WASABI Nback,2020.2.10,59.98289287874596,
0,1,5,"[0, 0]",None,0,1,1,1,,,,,0,0,0,0,0,85,85,85,,,,,,,,,,,None,None,0,638.2725617000006,None,638.2725617000006,639.2725624000004,639.2558918000004,640.2559031000001,0,1,638.2725617000006,None,,5,M,13,R,CJM,2021_Oct_04_2006,WASABI Nback,2020.2.10,59.98289287874596,
0,1,2,"[0, 0.2]",None,0,1,1,1,,,,,0,0,0,0,0,86,86,86,,,,,,,,,,,None,None,0,640.2725586000006,None,640.2725586000006,641.2725650000002,641.2559070000007,642.2559248000007,0,1,640.2725586000006,None,,5,M,13,R,CJM,2021_Oct_04_2006,WASABI Nback,2020.2.10,59.98289287874596,
0,1,6,"[0.2, 0]",None,0,1,1,1,,,,,0,0,0,0,0,87,87,87,,,,,,,,,,,None,None,0,642.2725795000006,None,642.2725795000006,643.2725934,643.2559294000002,644.2559379000004,0,1,642.2725795000006,None,,5,M,13,R,CJM,2021_Oct_04_2006,WASABI Nback,2020.2.10,59.98289287874596,
0,1,7,"[-0.2, -0.2]",None,0,1,1,1,,,,,0,0,0,0,0,88,88,88,,,,,,,,,,,None,None,0,644.2725983,None,644.2725983,645.2726118999999,645.2559188000005,646.2559255000006,0,1,644.2725983,None,,5,M,13,R,CJM,2021_Oct_04_2006,WASABI Nback,2020.2.10,59.98289287874596,
0,1,6,"[0.2, 0]",1,0,1,1,1,,,,,0,0,0,0,0,89,89,89,,,,,,,,,,,None,None,0,646.2726003000007,None,646.2726003000007,647.2726152000005,647.2559599000006,648.2559601000003,0,1,646.2726003000007,None,,5,M,13,R,CJM,2021_Oct_04_2006,WASABI Nback,2020.2.10,59.98289287874596,
0,1,6,"[0.2, 0]",None,0,1,1,1,,,,,0,0,0,0,0,90,90,90,,,,,,,,,,,None,None,0,648.2726356000003,None,648.2726356000003,649.2726369000002,649.2559630000005,650.2559752000006,0,1,648.2726356000003,None,,5,M,13,R,CJM,2021_Oct_04_2006,WASABI Nback,2020.2.10,59.98289287874596,
0,1,7,"[-0.2, -0.2]",None,0,1,1,1,,,,,0,0,0,0,0,91,91,91,,,,,,,,,,,None,None,0,650.2726327,None,650.2726327,651.2726583000003,651.2558924000004,652.2559928999999,0,1,650.2726327,None,,5,M,13,R,CJM,2021_Oct_04_2006,WASABI Nback,2020.2.10,59.98289287874596,
0,1,6,"[0.2, 0]",1,0,1,1,1,,,,,0,0,0,0,0,92,92,92,,,,,,,,,,,None,None,0,652.2726505,None,652.2726505,653.2726713000002,653.2560012000004,654.2559082000007,0,1,652.2726505,None,,5,M,13,R,CJM,2021_Oct_04_2006,WASABI Nback,2020.2.10,59.98289287874596,
0,1,2,"[0, 0.2]",None,0,1,1,1,,,,,0,0,0,0,0,93,93,93,,,,,,,,,,,None,None,0,654.2726777000007,None,654.2726777000007,655.2726267000007,655.2560100000001,656.2560211,0,1,654.2726777000007,None,,5,M,13,R,CJM,2021_Oct_04_2006,WASABI Nback,2020.2.10,59.98289287874596,
0,1,5,"[0, 0]",None,0,1,1,1,,,,,0,0,0,0,0,94,94,94,,,,,,,,,,,None,None,0,656.2726781000001,None,656.2726781000001,657.2727021999999,657.2560532000007,658.2560480000002,0,1,656.2726781000001,None,,5,M,13,R,CJM,2021_Oct_04_2006,WASABI Nback,2020.2.10,59.98289287874596,
0,1,4,"[-0.2, 0]",None,0,1,1,1,,,,,0,0,0,0,0,95,95,95,,,,,,,,,,,None,None,0,658.2726110000003,None,658.2726110000003,659.2727023000007,659.2560641999999,660.2559956000005,0,1,658.2726110000003,None,,5,M,13,R,CJM,2021_Oct_04_2006,WASABI Nback,2020.2.10,59.98289287874596,
0,1,4,"[-0.2, 0]",None,0,1,1,1,,,,,0,0,0,0,0,96,96,96,,,,,,,,,,,None,None,0,660.2727297000001,None,660.2727297000001,661.2727242000001,661.2560543,662.2560767000004,0,1,660.2727297000001,None,,5,M,13,R,CJM,2021_Oct_04_2006,WASABI Nback,2020.2.10,59.98289287874596,
0,1,7,"[-0.2, -0.2]",None,0,1,1,1,,,,,0,0,0,0,0,97,97,97,,,,,,,,,,,None,None,0,662.2727365000001,None,662.2727365000001,663.2727312000006,663.2560750000002,664.2560827000007,0,1,662.2727365000001,None,,5,M,13,R,CJM,2021_Oct_04_2006,WASABI Nback,2020.2.10,59.98289287874596,
0,1,4,"[-0.2, 0]",1,0,1,1,1,,,,,0,0,0,0,0,98,98,98,,,,,,,,,,,None,None,0,664.2727504000004,None,664.2727504000004,665.2727454000005,665.2560954999999,666.2560985999999,0,1,664.2727504000004,None,,5,M,13,R,CJM,2021_Oct_04_2006,WASABI Nback,2020.2.10,59.98289287874596,
0,1,3,"[0.2, 0.2]",None,0,1,1,1,,,,,0,0,0,0,0,99,99,99,,,,,,,,,,,None,None,0,666.2727517000003,None,666.2727517000003,667.2727702000002,667.2561206999999,668.2561354,0,1,666.2727517000003,None,,5,M,13,R,CJM,2021_Oct_04_2006,WASABI Nback,2020.2.10,59.98289287874596,
0,1,5,"[0, 0]",None,0,1,1,1,,,,,0,0,0,0,0,100,100,100,,,,,,,,,,,None,None,0,668.2727828000006,None,668.2727828000006,669.2727912999999,669.2561277000004,670.2561285000002,0,1,668.2727828000006,None,,5,M,13,R,CJM,2021_Oct_04_2006,WASABI Nback,2020.2.10,59.98289287874596,
0,1,3,"[0.2, 0.2]",1,0,1,1,1,,,,,0,0,0,0,0,101,101,101,,,,,,,,,,,None,None,0,670.2727828000006,None,670.2727828000006,671.2727093000003,671.2561413000003,672.2561432000002,0,1,670.2727828000006,None,,5,M,13,R,CJM,2021_Oct_04_2006,WASABI Nback,2020.2.10,59.98289287874596,
0,1,1,"[-0.2, 0.2]",None,0,1,1,1,,,,,0,0,0,0,0,102,102,102,,,,,,,,,,,None,None,0,672.2728115,None,672.2728115,673.2727860000005,673.2561549000002,674.2561613000007,0,1,672.2728115,None,,5,M,13,R,CJM,2021_Oct_04_2006,WASABI Nback,2020.2.10,59.98289287874596,
0,1,9,"[0.2, -0.2]",None,0,1,1,1,,,,,0,0,0,0,0,103,103,103,,,,,,,,,,,None,None,0,674.2728287,None,674.2728287,675.2728258000006,675.2561929000003,676.2561940000005,0,1,674.2728287,None,,5,M,13,R,CJM,2021_Oct_04_2006,WASABI Nback,2020.2.10,59.98289287874596,
0,1,9,"[0.2, -0.2]",None,0,1,1,1,,,,,0,0,0,0,0,104,104,104,,,,,,,,,,,None,None,0,676.2728431000005,None,676.2728431000005,677.2728563999999,677.2561899000002,678.2562035999999,0,1,676.2728431000005,None,,5,M,13,R,CJM,2021_Oct_04_2006,WASABI Nback,2020.2.10,59.98289287874596,
0,1,8,"[0, -0.2]",None,0,1,1,1,,,,,0,0,0,0,0,105,105,105,,,,,,,,,,,None,None,0,678.2728461000006,None,678.2728461000006,679.2728691000002,679.2562123000007,680.2561997000003,0,1,678.2728461000006,None,,5,M,13,R,CJM,2021_Oct_04_2006,WASABI Nback,2020.2.10,59.98289287874596,
0,1,6,"[0.2, 0]",None,0,1,1,1,,,,,0,0,0,0,0,106,106,106,,,,,,,,,,,None,None,0,680.2728628000004,None,680.2728628000004,681.2728679000002,681.2562206000002,682.2562257,0,1,680.2728628000004,None,,5,M,13,R,CJM,2021_Oct_04_2006,WASABI Nback,2020.2.10,59.98289287874596,
0,1,3,"[0.2, 0.2]",None,0,1,1,1,,,,,0,0,0,0,0,107,107,107,,,,,,,,,,,None,None,0,682.2728741999999,None,682.2728741999999,683.2728862000004,683.2562315000005,684.2562323000002,0,1,682.2728741999999,None,,5,M,13,R,CJM,2021_Oct_04_2006,WASABI Nback,2020.2.10,59.98289287874596,
0,1,6,"[0.2, 0]",1,0,1,1,1,,,,,0,0,0,0,0,108,108,108,,,,,,,,,,,None,None,0,684.2728970000007,None,684.2728970000007,685.2729134000001,685.2562637000001,686.2561487000003,0,1,684.2728970000007,None,,5,M,13,R,CJM,2021_Oct_04_2006,WASABI Nback,2020.2.10,59.98289287874596,
0,1,5,"[0, 0]",None,0,1,1,1,,,,,0,0,0,0,0,109,109,109,,,,,,,,,,,None,None,0,686.2729190999999,None,686.2729190999999,687.2729348000003,687.2562656999999,688.2562684000004,0,1,686.2729190999999,None,,5,M,13,R,CJM,2021_Oct_04_2006,WASABI Nback,2020.2.10,59.98289287874596,
0,1,7,"[-0.2, -0.2]",None,0,1,1,1,,,,,0,0,0,0,0,110,110,110,,,,,,,,,,,None,None,0,688.272935,None,688.272935,689.2729316000004,689.2562728000003,690.2562848000007,0,1,688.272935,None,,5,M,13,R,CJM,2021_Oct_04_2006,WASABI Nback,2020.2.10,59.98289287874596,
0,1,5,"[0, 0]",1,0,1,1,1,,,,,0,0,0,0,0,111,111,111,,,,,,,,,,,None,None,0,690.2729399,None,690.2729399,691.2729566000007,691.2563094000006,692.2562954000005,0,1,690.2729399,None,,5,M,13,R,CJM,2021_Oct_04_2006,WASABI Nback,2020.2.10,59.98289287874596,
0,1,1,"[-0.2, 0.2]",None,0,1,1,1,,,,,0,0,0,0,0,112,112,112,,,,,,,,,,,None,None,0,692.2729684000005,None,692.2729684000005,693.2729666000005,693.2563306000002,694.2563266000006,0,1,692.2729684000005,None,,5,M,13,R,CJM,2021_Oct_04_2006,WASABI Nback,2020.2.10,59.98289287874596,
0,1,7,"[-0.2, -0.2]",None,0,1,1,1,,,,,0,0,0,0,0,113,113,113,,,,,,,,,,,None,None,1,694.2729888000003,None,694.2729888000003,695.2729857000004,695.2563211000006,696.2563557000003,1,0,694.2729888000003,None,1.633562200000597,5,M,13,R,CJM,2021_Oct_04_2006,WASABI Nback,2020.2.10,59.98289287874596,
0,1,9,"[0.2, -0.2]",None,0,1,1,1,,,,,0,0,0,0,0,114,114,114,,,,,,,,,,,None,None,0,696.2729908000001,None,696.2729908000001,697.2730068000001,697.2563389000006,698.2563424,0,1,696.2729908000001,None,,5,M,13,R,CJM,2021_Oct_04_2006,WASABI Nback,2020.2.10,59.98289287874596,
0,1,3,"[0.2, 0.2]",None,0,1,1,1,,,,,0,0,0,0,0,115,115,115,,,,,,,,,,,None,None,0,698.2730070000007,None,698.2730070000007,699.2730161,699.2563778000003,700.2564166000002,0,1,698.2730070000007,None,,5,M,13,R,CJM,2021_Oct_04_2006,WASABI Nback,2020.2.10,59.98289287874596,
0,1,9,"[0.2, -0.2]",1,0,1,1,1,,,,,0,0,0,0,0,116,116,116,,,,,,,,,,,None,None,0,700.2730240999999,None,700.2730240999999,701.2730251000003,701.2563731,702.2564003000007,0,1,700.2730240999999,None,,5,M,13,R,CJM,2021_Oct_04_2006,WASABI Nback,2020.2.10,59.98289287874596,
0,1,6,"[0.2, 0]",None,0,1,1,1,,,,,0,0,0,0,0,117,117,117,,,,,,,,,,,None,None,0,702.2730486999999,None,702.2730486999999,703.2730517,703.2563876000004,704.2563928,0,1,702.2730486999999,None,,5,M,13,R,CJM,2021_Oct_04_2006,WASABI Nback,2020.2.10,59.98289287874596,
0,1,2,"[0, 0.2]",None,0,1,1,1,,,,,0,0,0,0,0,118,118,118,,,,,,,,,,,None,None,0,704.2730491000002,None,704.2730491000002,705.2730673000005,705.2564203000002,706.2564192,0,1,704.2730491000002,None,,5,M,13,R,CJM,2021_Oct_04_2006,WASABI Nback,2020.2.10,59.98289287874596,
0,1,5,"[0, 0]",None,0,1,1,1,,,,,0,0,0,0,0,119,119,119,,,,,,,,,,,None,None,0,706.2730666000007,None,706.2730666000007,707.2730969000004,707.2564184000003,708.2564458000006,0,1,706.2730666000007,None,,5,M,13,R,CJM,2021_Oct_04_2006,WASABI Nback,2020.2.10,59.98289287874596,
