square,location,corrAns,trials.thisRepN,trials.thisTrialN,trials.thisN,trials.thisIndex,trials_2.thisRepN,trials_2.thisTrialN,trials_2.thisN,trials_2.thisIndex,fixation_1.started,fixation_1.stopped,grid_lines.started,grid_lines.stopped,target_square.started,target_square.stopped,fixation_2.started,fixation_2.stopped,response.corr,response.x,response.y,response.leftButton,response.click_left,response.click_right,response.started,response.stopped,ScoreReportText.started,ScoreReportText.stopped,ScoreReportResponse.keys,ScoreReportResponse.started,ScoreReportResponse.stopped,response_2.x,response_2.y,response_2.leftButton,grid_lines_2.started,grid_lines_2.stopped,target_square_2.started,target_square_2.stopped,fixation_3.started,fixation_3.stopped,response_2.click,response_2.corr,response_2.started,response_2.stopped,BodySiteInstructionText.started,BodySiteImg.started,BodySiteImg.stopped,BodySiteInstructionRead.keys,BodySiteInstructionRead.rt,BodySiteInstructionRead.started,BodySiteInstructionRead.stopped,response.click,IntensityRating.response,IntensityRating.rt,IntensityRating.started,IntensityRating.stopped,response.rt_left,response.rt_right,response_2.rt_left,response_2.rt_right,subject number,gender,distractMap first- or second-half (1 or 2),session,handedness,scanner,date,psychopyVersion,expName,frameRate,body_site_order,
6,"[0.2, 0]",None,0,0,0,0,,,,,62.4184113999363,None,63.45175460004248,None,63.45175460004248,64.45175940007903,64.43509949999861,None,1,0.012962962962962963,0.10740740740740741,"[0, 0, 0]",0,0,63.45175460004248,None,,,,,,,,,,,,,,,,,,,,,,,,,,,,,,,,,,,3,F,1,18,L,MS,2021_Sep_03_1432,2020.2.10,distractmap1,60.00128402328517,"['Right Face', 'Left Leg', 'Right Arm', 'Right Leg']",
6,"[0.2, 0]",1,0,1,1,1,,,,,,,65.4350895001553,None,65.4350895001553,66.43510350002907,66.41842740005814,67.41844120016322,0,0.012962962962962963,0.10740740740740741,"[0, 0, 0]",0,0,65.4350895001553,None,,,,,,,,,,,,,,,,,,,,,,,,,,,,,,,,,,,3,F,1,18,L,MS,2021_Sep_03_1432,2020.2.10,distractmap1,60.00128402328517,"['Right Face', 'Left Leg', 'Right Arm', 'Right Leg']",
2,"[0, 0.2]",0,0,2,2,2,,,,,,,67.43510839994997,None,67.43510839994997,68.43511620000936,68.41844930010848,69.41843980015256,0,0.012962962962962963,0.10740740740740741,"[0, 0, 0]",0,0,67.43510839994997,None,,,,,,,,,,,,,,,,,,,,,,,,,,,,,,,,,,,3,F,1,18,L,MS,2021_Sep_03_1432,2020.2.10,distractmap1,60.00128402328517,"['Right Face', 'Left Leg', 'Right Arm', 'Right Leg']",
9,"[0.2, -0.2]",0,0,3,3,3,,,,,,,69.43513009999879,None,69.43513009999879,70.43512729997747,70.4183447000105,71.41846540011466,0,0.012962962962962963,0.10740740740740741,"[0, 0, 0]",0,0,69.43513009999879,None,,,,,,,,,,,,,,,,,,,,,,,,,,,,,,,,,,,3,F,1,18,L,MS,2021_Sep_03_1432,2020.2.10,distractmap1,60.00128402328517,"['Right Face', 'Left Leg', 'Right Arm', 'Right Leg']",
9,"[0.2, -0.2]",1,0,4,4,4,,,,,,,71.43515060003847,None,71.43515060003847,72.4350080001168,72.41849850001745,73.41847530007362,0,0.012962962962962963,0.10740740740740741,"[0, 0, 0]",0,0,71.43515060003847,None,,,,,,,,,,,,,,,,,,,,,,,,,,,,,,,,,,,3,F,1,18,L,MS,2021_Sep_03_1432,2020.2.10,distractmap1,60.00128402328517,"['Right Face', 'Left Leg', 'Right Arm', 'Right Leg']",
6,"[0.2, 0]",0,0,5,5,5,,,,,,,73.43516610004008,None,73.43516610004008,74.4351703999564,74.41851840005256,75.41849160008132,0,0.012962962962962963,0.10740740740740741,"[0, 0, 0]",0,0,73.43516610004008,None,,,,,,,,,,,,,,,,,,,,,,,,,,,,,,,,,,,3,F,1,18,L,MS,2021_Sep_03_1432,2020.2.10,distractmap1,60.00128402328517,"['Right Face', 'Left Leg', 'Right Arm', 'Right Leg']",
4,"[-0.2, 0]",0,0,6,6,6,,,,,,,75.43516710004769,None,75.43516710004769,76.43514860002324,76.418519299943,77.41851310012862,0,0.012962962962962963,0.10740740740740741,"[0, 0, 0]",0,0,75.43516710004769,None,,,,,,,,,,,,,,,,,,,,,,,,,,,,,,,,,,,3,F,1,18,L,MS,2021_Sep_03_1432,2020.2.10,distractmap1,60.00128402328517,"['Right Face', 'Left Leg', 'Right Arm', 'Right Leg']",
3,"[0.2, 0.2]",0,0,7,7,7,,,,,,,77.43519140011631,None,77.43519140011631,78.43519310001284,78.41851360001601,79.41854420001619,0,0.012962962962962963,0.10740740740740741,"[0, 0, 0]",0,0,77.43519140011631,None,,,,,,,,,,,,,,,,,,,,,,,,,,,,,,,,,,,3,F,1,18,L,MS,2021_Sep_03_1432,2020.2.10,distractmap1,60.00128402328517,"['Right Face', 'Left Leg', 'Right Arm', 'Right Leg']",
3,"[0.2, 0.2]",1,0,8,8,8,,,,,,,79.4352108000312,None,79.4352108000312,80.43520270008594,80.4185373999644,None,1,0.012962962962962963,0.10740740740740741,"[0, 0, 0]",0,0,79.4352108000312,None,,,,,,,,,,,,,,,,,,,,,,,,,,,,,,,,,,,3,F,1,18,L,MS,2021_Sep_03_1432,2020.2.10,distractmap1,60.00128402328517,"['Right Face', 'Left Leg', 'Right Arm', 'Right Leg']",
8,"[0, -0.2]",0,0,9,9,9,,,,,,,81.41856210003607,None,81.41856210003607,82.4185707999859,82.40188840008341,83.40189810004085,0,0.012962962962962963,0.10740740740740741,"[0, 0, 0]",0,0,81.41856210003607,None,,,,,,,,,,,,,,,,,,,,,,,,,,,,,,,,,,,3,F,1,18,L,MS,2021_Sep_03_1432,2020.2.10,distractmap1,60.00128402328517,"['Right Face', 'Left Leg', 'Right Arm', 'Right Leg']",
1,"[-0.2, 0.2]",0,0,10,10,10,,,,,,,83.41855880012736,None,83.41855880012736,84.41858890000731,84.40191669994965,85.40192380012013,0,0.012962962962962963,0.10740740740740741,"[0, 0, 0]",0,0,83.41855880012736,None,,,,,,,,,,,,,,,,,,,,,,,,,,,,,,,,,,,3,F,1,18,L,MS,2021_Sep_03_1432,2020.2.10,distractmap1,60.00128402328517,"['Right Face', 'Left Leg', 'Right Arm', 'Right Leg']",
2,"[0, 0.2]",0,0,11,11,11,,,,,,,85.41856439993717,None,85.41856439993717,86.41858669999056,86.40197520004585,87.40193930012174,0,0.012962962962962963,0.10740740740740741,"[0, 0, 0]",0,0,85.41856439993717,None,,,,,,,,,,,,,,,,,,,,,,,,,,,,,,,,,,,3,F,1,18,L,MS,2021_Sep_03_1432,2020.2.10,distractmap1,60.00128402328517,"['Right Face', 'Left Leg', 'Right Arm', 'Right Leg']",
4,"[-0.2, 0]",0,0,12,12,12,,,,,,,87.41862020012923,None,87.41862020012923,88.41859759995714,88.4019404000137,89.40196290006861,1,0.012962962962962963,0.10740740740740741,"[0, 0, 0]",0,0,87.41862020012923,None,,,,,,,,,,,,,,,,,,,,,,,,,,,,,,,,,,,3,F,1,18,L,MS,2021_Sep_03_1432,2020.2.10,distractmap1,60.00128402328517,"['Right Face', 'Left Leg', 'Right Arm', 'Right Leg']",
4,"[-0.2, 0]",1,0,13,13,13,,,,,,,89.41861890000291,None,89.41861890000291,90.41863390011713,90.40195460012183,91.401970700128,1,0.012962962962962963,0.10740740740740741,"[0, 0, 0]",0,0,89.41861890000291,None,,,,,,,,,,,,,,,,,,,,,,,,,,,,,,,,,,,3,F,1,18,L,MS,2021_Sep_03_1432,2020.2.10,distractmap1,60.00128402328517,"['Right Face', 'Left Leg', 'Right Arm', 'Right Leg']",
8,"[0, -0.2]",0,0,14,14,14,,,,,,,91.41863430012017,None,91.41863430012017,92.4186438000761,92.4019496999681,93.4019677999895,1,0.012962962962962963,0.10740740740740741,"[0, 0, 0]",0,0,91.41863430012017,None,,,,,,,,,,,,,,,,,,,,,,,,,,,,,,,,,,,3,F,1,18,L,MS,2021_Sep_03_1432,2020.2.10,distractmap1,60.00128402328517,"['Right Face', 'Left Leg', 'Right Arm', 'Right Leg']",
5,"[0, 0]",0,0,15,15,15,,,,,,,93.4186615999788,None,93.4186615999788,94.4186523000244,94.40196990012191,95.40202139993198,0,0.012962962962962963,0.10740740740740741,"[0, 0, 0]",0,0,93.4186615999788,None,,,,,,,,,,,,,,,,,,,,,,,,,,,,,,,,,,,3,F,1,18,L,MS,2021_Sep_03_1432,2020.2.10,distractmap1,60.00128402328517,"['Right Face', 'Left Leg', 'Right Arm', 'Right Leg']",
5,"[0, 0]",1,0,16,16,16,,,,,,,95.41868950007483,None,95.41868950007483,96.43534770002589,96.40200480003841,97.40200700005516,0,0.012962962962962963,0.10740740740740741,"[0, 0, 0]",0,0,95.41868950007483,None,,,,,,,,,,,,,,,,,,,,,,,,,,,,,,,,,,,3,F,1,18,L,MS,2021_Sep_03_1432,2020.2.10,distractmap1,60.00128402328517,"['Right Face', 'Left Leg', 'Right Arm', 'Right Leg']",
1,"[-0.2, 0.2]",0,0,17,17,17,,,,,,,97.41866370011121,None,97.41866370011121,98.41869730013423,98.40203170012683,99.4020175000187,0,0.012962962962962963,0.10740740740740741,"[0, 0, 0]",0,0,97.41866370011121,None,,,,,,,,,,,,,,,,,,,,,,,,,,,,,,,,,,,3,F,1,18,L,MS,2021_Sep_03_1432,2020.2.10,distractmap1,60.00128402328517,"['Right Face', 'Left Leg', 'Right Arm', 'Right Leg']",
3,"[0.2, 0.2]",0,0,18,18,18,,,,,,,99.41870010015555,None,99.41870010015555,100.41869339998811,100.40204300009646,101.40205799997784,0,0.012962962962962963,0.10740740740740741,"[0, 0, 0]",0,0,99.41870010015555,None,,,,,,,,,,,,,,,,,,,,,,,,,,,,,,,,,,,3,F,1,18,L,MS,2021_Sep_03_1432,2020.2.10,distractmap1,60.00128402328517,"['Right Face', 'Left Leg', 'Right Arm', 'Right Leg']",
6,"[0.2, 0]",0,0,19,19,19,,,,,,,101.41872099996544,None,101.41872099996544,102.41871999995783,102.40205519995652,103.40206620004028,0,0.012962962962962963,0.10740740740740741,"[0, 0, 0]",0,0,101.41872099996544,None,,,,,,,,,,,,,,,,,,,,,,,,,,,,,,,,,,,3,F,1,18,L,MS,2021_Sep_03_1432,2020.2.10,distractmap1,60.00128402328517,"['Right Face', 'Left Leg', 'Right Arm', 'Right Leg']",
1,"[-0.2, 0.2]",0,0,20,20,20,,,,,,,103.41872450010851,None,103.41872450010851,104.4187372000888,104.40207109996118,105.40207189996727,0,0.012962962962962963,0.10740740740740741,"[0, 0, 0]",0,0,103.41872450010851,None,,,,,,,,,,,,,,,,,,,,,,,,,,,,,,,,,,,3,F,1,18,L,MS,2021_Sep_03_1432,2020.2.10,distractmap1,60.00128402328517,"['Right Face', 'Left Leg', 'Right Arm', 'Right Leg']",
1,"[-0.2, 0.2]",1,0,21,21,21,,,,,,,105.4187457000371,None,105.4187457000371,106.4187549999915,106.40208910009824,107.40210690000094,1,0.012962962962962963,0.10740740740740741,"[0, 0, 0]",0,0,105.4187457000371,None,,,,,,,,,,,,,,,,,,,,,,,,,,,,,,,,,,,3,F,1,18,L,MS,2021_Sep_03_1432,2020.2.10,distractmap1,60.00128402328517,"['Right Face', 'Left Leg', 'Right Arm', 'Right Leg']",
1,"[-0.2, 0.2]",1,0,22,22,22,,,,,,,107.41875290009193,None,107.41875290009193,108.41877270000987,108.40211300016381,109.40210220008157,1,0.012962962962962963,0.10740740740740741,"[0, 0, 0]",0,0,107.41875290009193,None,,,,,,,,,,,,,,,,,,,,,,,,,,,,,,,,,,,3,F,1,18,L,MS,2021_Sep_03_1432,2020.2.10,distractmap1,60.00128402328517,"['Right Face', 'Left Leg', 'Right Arm', 'Right Leg']",
3,"[0.2, 0.2]",0,0,23,23,23,,,,,,,109.41878130007535,None,109.41878130007535,110.41881470009685,110.40199090004899,111.40212510013953,1,0.012962962962962963,0.10740740740740741,"[0, 0, 0]",0,0,109.41878130007535,None,,,,,,,,,,,,,,,,,,,,,,,,,,,,,,,,,,,3,F,1,18,L,MS,2021_Sep_03_1432,2020.2.10,distractmap1,60.00128402328517,"['Right Face', 'Left Leg', 'Right Arm', 'Right Leg']",
2,"[0, 0.2]",0,0,24,24,24,,,,,,,111.41880189999938,None,111.41880189999938,112.41880820016377,112.40217939997092,113.40214140014723,1,0.012962962962962963,0.10740740740740741,"[0, 0, 0]",0,0,111.41880189999938,None,,,,,,,,,,,,,,,,,,,,,,,,,,,,,,,,,,,3,F,1,18,L,MS,2021_Sep_03_1432,2020.2.10,distractmap1,60.00128402328517,"['Right Face', 'Left Leg', 'Right Arm', 'Right Leg']",
1,"[-0.2, 0.2]",0,0,25,25,25,,,,,,,113.41879649995826,None,113.41879649995826,114.41882200003602,114.40215860004537,115.402146599954,1,0.012962962962962963,0.10740740740740741,"[0, 0, 0]",0,0,113.41879649995826,None,,,,,,,,,,,,,,,,,,,,,,,,,,,,,,,,,,,3,F,1,18,L,MS,2021_Sep_03_1432,2020.2.10,distractmap1,60.00128402328517,"['Right Face', 'Left Leg', 'Right Arm', 'Right Leg']",
7,"[-0.2, -0.2]",0,0,26,26,26,,,,,,,115.41881820000708,None,115.41881820000708,116.41884610010311,116.40216960012913,117.40217230003327,1,0.012962962962962963,0.10740740740740741,"[0, 0, 0]",0,0,115.41881820000708,None,,,,,,,,,,,,,,,,,,,,,,,,,,,,,,,,,,,3,F,1,18,L,MS,2021_Sep_03_1432,2020.2.10,distractmap1,60.00128402328517,"['Right Face', 'Left Leg', 'Right Arm', 'Right Leg']",
7,"[-0.2, -0.2]",1,0,27,27,27,,,,,,,117.41885700006969,None,117.41885700006969,118.41882929997519,118.40219509997405,119.40219970000908,1,0.012962962962962963,0.10740740740740741,"[0, 0, 0]",0,0,117.41885700006969,None,,,,,,,,,,,,,,,,,,,,,,,,,,,,,,,,,,,3,F,1,18,L,MS,2021_Sep_03_1432,2020.2.10,distractmap1,60.00128402328517,"['Right Face', 'Left Leg', 'Right Arm', 'Right Leg']",
2,"[0, 0.2]",0,0,28,28,28,,,,,,,119.41872830013745,None,119.41872830013745,120.41887159994803,120.40216160006821,121.40220160013996,1,0.012962962962962963,0.10740740740740741,"[0, 0, 0]",0,0,119.41872830013745,None,,,,,,,,,,,,,,,,,,,,,,,,,,,,,,,,,,,3,F,1,18,L,MS,2021_Sep_03_1432,2020.2.10,distractmap1,60.00128402328517,"['Right Face', 'Left Leg', 'Right Arm', 'Right Leg']",
6,"[0.2, 0]",0,0,29,29,29,,,,,,,121.41887490008958,None,121.41887490008958,122.41887359996326,122.40222269995138,123.40221840003505,1,0.012962962962962963,0.10740740740740741,"[0, 0, 0]",0,0,121.41887490008958,None,,,,,,,,,,,,,,,,,,,,,,,,,,,,,,,,,,,3,F,1,18,L,MS,2021_Sep_03_1432,2020.2.10,distractmap1,60.00128402328517,"['Right Face', 'Left Leg', 'Right Arm', 'Right Leg']",
,,,,,,,,,,,,,,,,,,,,,,,,,,,123.45223210006952,None,space,123.45223210006952,None,,,,,,,,,,,,,,,,,,,,,,,,,,,,,,3,F,1,18,L,MS,2021_Sep_03_1432,2020.2.10,distractmap1,60.00128402328517,"['Right Face', 'Left Leg', 'Right Arm', 'Right Leg']",
6,"[0.2, 0]",None,,,,,0,0,0,0,138.9856724999845,None,,,,,,,,,,,,,,,,,,,,None,None,"[0, 0, 0]",140.0023465999402,None,140.0023465999402,141.0023525999859,140.98569180001505,141.98571399995126,"[0, 0, 0]",1,140.0023465999402,None,,,,,,,,,,,,,,,,,3,F,1,18,L,MS,2021_Sep_03_1432,2020.2.10,distractmap1,60.00128402328517,"['Right Face', 'Left Leg', 'Right Arm', 'Right Leg']",
7,"[-0.2, -0.2]",None,,,,,0,1,1,1,,,,,,,,,,,,,,,,,,,,,,None,None,"[0, 0, 0]",142.00236900011078,144.00229079998098,142.00236900011078,143.00238379999064,142.98558310000226,143.98572360002436,"[0, 0, 0]",1,142.00236900011078,144.00229079998098,,,,,,,,,,,,,,,,,3,F,1,18,L,MS,2021_Sep_03_1432,2020.2.10,distractmap1,60.00128402328517,"['Right Face', 'Left Leg', 'Right Arm', 'Right Leg']",
6,"[0.2, 0]",1,,,,,0,2,2,2,,,,,,,,,,,,,,,,,,,,,,None,None,"[0, 0, 0]",144.01905969996005,146.01905270013958,144.01905969996005,145.0190952999983,145.00238930014893,146.00233300006948,"[0, 0, 0]",1,144.01905969996005,146.01905270013958,,,,,,,,,,,,,,,,,3,F,1,18,L,MS,2021_Sep_03_1432,2020.2.10,distractmap1,60.00128402328517,"['Right Face', 'Left Leg', 'Right Arm', 'Right Leg']",
2,"[0, 0.2]",0,,,,,0,3,3,3,,,,,,,,,,,,,,,,,,,,,,None,None,"[0, 0, 0]",146.03574950015172,148.03575189993717,146.03574950015172,147.03575840010308,147.0190749000758,148.01906980015337,"[0, 0, 0]",1,146.03574950015172,148.03575189993717,,,,,,,,,,,,,,,,,3,F,1,18,L,MS,2021_Sep_03_1432,2020.2.10,distractmap1,60.00128402328517,"['Right Face', 'Left Leg', 'Right Arm', 'Right Leg']",
5,"[0, 0]",0,,,,,0,4,4,4,,,,,,,,,,,,,,,,,,,,,,None,None,"[0, 0, 0]",148.05242950003594,150.05243290006183,148.05242950003594,149.05242360010743,149.0357711999677,150.03576080012135,"[0, 0, 0]",1,148.05242950003594,150.05243290006183,,,,,,,,,,,,,,,,,3,F,1,18,L,MS,2021_Sep_03_1432,2020.2.10,distractmap1,60.00128402328517,"['Right Face', 'Left Leg', 'Right Arm', 'Right Leg']",
4,"[-0.2, 0]",0,,,,,0,5,5,5,,,,,,,,,,,,,,,,,,,,,,None,None,"[0, 0, 0]",150.0690987999551,152.06910450011492,150.0690987999551,151.06910150009207,151.0524353000801,152.05244420003146,"[0, 0, 0]",1,150.0690987999551,152.06910450011492,,,,,,,,,,,,,,,,,3,F,1,18,L,MS,2021_Sep_03_1432,2020.2.10,distractmap1,60.00128402328517,"['Right Face', 'Left Leg', 'Right Arm', 'Right Leg']",
4,"[-0.2, 0]",0,,,,,0,6,6,6,,,,,,,,,,,,,,,,,,,,,,None,None,"[0, 0, 0]",152.08578380011022,154.08579739998095,152.08578380011022,153.08583030011505,153.06912490003742,154.06912070000544,"[0, 0, 0]",1,152.08578380011022,154.08579739998095,,,,,,,,,,,,,,,,,3,F,1,18,L,MS,2021_Sep_03_1432,2020.2.10,distractmap1,60.00128402328517,"['Right Face', 'Left Leg', 'Right Arm', 'Right Leg']",
7,"[-0.2, -0.2]",0,,,,,0,7,7,7,,,,,,,,,,,,,,,,,,,,,,None,None,"[0, 0, 0]",154.1024595000781,156.10248190001585,154.1024595000781,155.1024593000766,155.08581900014542,156.08582170004956,"[0, 0, 0]",1,154.1024595000781,156.10248190001585,,,,,,,,,,,,,,,,,3,F,1,18,L,MS,2021_Sep_03_1432,2020.2.10,distractmap1,60.00128402328517,"['Right Face', 'Left Leg', 'Right Arm', 'Right Leg']",
4,"[-0.2, 0]",1,,,,,0,8,8,8,,,,,,,,,,,,,,,,,,,,,,None,None,"[0, 0, 0]",156.11916060000658,158.11915919999592,156.11916060000658,157.11915339995176,157.10237400000915,158.10248710005544,"[0, 0, 0]",1,156.11916060000658,158.11915919999592,,,,,,,,,,,,,,,,,3,F,1,18,L,MS,2021_Sep_03_1432,2020.2.10,distractmap1,60.00128402328517,"['Right Face', 'Left Leg', 'Right Arm', 'Right Leg']",
3,"[0.2, 0.2]",0,,,,,0,9,9,9,,,,,,,,,,,,,,,,,,,,,,None,None,"[0, 0, 0]",158.1358241001144,160.13584630005062,158.1358241001144,159.13583540008403,159.11917249998078,160.11916820006445,"[0, 0, 0]",1,158.1358241001144,160.13584630005062,,,,,,,,,,,,,,,,,3,F,1,18,L,MS,2021_Sep_03_1432,2020.2.10,distractmap1,60.00128402328517,"['Right Face', 'Left Leg', 'Right Arm', 'Right Leg']",
5,"[0, 0]",0,,,,,0,10,10,10,,,,,,,,,,,,,,,,,,,,,,None,None,"[0, 0, 0]",160.15252080000937,162.15251850010827,160.15252080000937,161.1691910000518,161.15254199993797,162.15251850010827,"[0, 0, 0]",1,160.15252080000937,162.15251850010827,,,,,,,,,,,,,,,,,3,F,1,18,L,MS,2021_Sep_03_1432,2020.2.10,distractmap1,60.00128402328517,"['Right Face', 'Left Leg', 'Right Arm', 'Right Leg']",
3,"[0.2, 0.2]",1,,,,,0,11,11,11,,,,,,,,,,,,,,,,,,,,,,None,None,"[0, 0, 0]",162.16915039997548,164.16920180013403,162.16915039997548,163.1692139999941,163.15254080016166,164.15253720013425,"[0, 0, 0]",1,162.16915039997548,164.16920180013403,,,,,,,,,,,,,,,,,3,F,1,18,L,MS,2021_Sep_03_1432,2020.2.10,distractmap1,60.00128402328517,"['Right Face', 'Left Leg', 'Right Arm', 'Right Leg']",
1,"[-0.2, 0.2]",0,,,,,0,12,12,12,,,,,,,,,,,,,,,,,,,,,,None,None,"[0, 0, 0]",164.18589060008526,166.1858880999498,164.18589060008526,165.1858755000867,165.16920510004275,166.16924550011754,"[0, 0, 0]",1,164.18589060008526,166.1858880999498,,,,,,,,,,,,,,,,,3,F,1,18,L,MS,2021_Sep_03_1432,2020.2.10,distractmap1,60.00128402328517,"['Right Face', 'Left Leg', 'Right Arm', 'Right Leg']",
9,"[0.2, -0.2]",0,,,,,0,13,13,13,,,,,,,,,,,,,,,,,,,,,,None,None,"[0, 0, 0]",166.2025558000896,168.20257540000603,166.2025558000896,167.20257800002582,167.18589680013247,168.18589570000768,"[0, 0, 0]",1,166.2025558000896,168.20257540000603,,,,,,,,,,,,,,,,,3,F,1,18,L,MS,2021_Sep_03_1432,2020.2.10,distractmap1,60.00128402328517,"['Right Face', 'Left Leg', 'Right Arm', 'Right Leg']",
9,"[0.2, -0.2]",0,,,,,0,14,14,14,,,,,,,,,,,,,,,,,,,,,,None,None,"[0, 0, 0]",168.21923270006664,170.2192619999405,168.21923270006664,169.21924070012756,169.2025840000715,170.20259580016136,"[0, 0, 0]",1,168.21923270006664,170.2192619999405,,,,,,,,,,,,,,,,,3,F,1,18,L,MS,2021_Sep_03_1432,2020.2.10,distractmap1,60.00128402328517,"['Right Face', 'Left Leg', 'Right Arm', 'Right Leg']",
8,"[0, -0.2]",0,,,,,0,15,15,15,,,,,,,,,,,,,,,,,,,,,,None,None,"[0, 0, 0]",170.23594260006212,172.2359337999951,170.23594260006212,171.23582970001735,171.2192653999664,172.21928100008518,"[0, 0, 0]",1,170.23594260006212,172.2359337999951,,,,,,,,,,,,,,,,,3,F,1,18,L,MS,2021_Sep_03_1432,2020.2.10,distractmap1,60.00128402328517,"['Right Face', 'Left Leg', 'Right Arm', 'Right Leg']",
6,"[0.2, 0]",0,,,,,0,16,16,16,,,,,,,,,,,,,,,,,,,,,,None,None,"[0, 0, 0]",172.25260529993102,174.252501900075,172.25260529993102,173.2526157000102,173.23593760002404,174.235954800155,"[0, 0, 0]",1,172.25260529993102,174.252501900075,,,,,,,,,,,,,,,,,3,F,1,18,L,MS,2021_Sep_03_1432,2020.2.10,distractmap1,60.00128402328517,"['Right Face', 'Left Leg', 'Right Arm', 'Right Leg']",
3,"[0.2, 0.2]",0,,,,,0,17,17,17,,,,,,,,,,,,,,,,,,,,,,None,None,"[0, 0, 0]",174.26930320006795,176.26931440015323,174.26930320006795,175.2692935001105,175.25263550016098,176.25264360010624,"[0, 0, 0]",1,174.26930320006795,176.26931440015323,,,,,,,,,,,,,,,,,3,F,1,18,L,MS,2021_Sep_03_1432,2020.2.10,distractmap1,60.00128402328517,"['Right Face', 'Left Leg', 'Right Arm', 'Right Leg']",
6,"[0.2, 0]",1,,,,,0,18,18,18,,,,,,,,,,,,,,,,,,,,,,None,None,"[0, 0, 0]",176.285975900013,178.28597710002214,176.285975900013,177.28599380003288,177.26933460007422,178.26932630012743,"[0, 0, 0]",1,176.285975900013,178.28597710002214,,,,,,,,,,,,,,,,,3,F,1,18,L,MS,2021_Sep_03_1432,2020.2.10,distractmap1,60.00128402328517,"['Right Face', 'Left Leg', 'Right Arm', 'Right Leg']",
5,"[0, 0]",0,,,,,0,19,19,19,,,,,,,,,,,,,,,,,,,,,,None,None,"[0, 0, 0]",178.302661200054,180.30266240006313,178.302661200054,179.30271730013192,179.28600349999033,180.28601690009236,"[0, 0, 0]",1,178.302661200054,180.30266240006313,,,,,,,,,,,,,,,,,3,F,1,18,L,MS,2021_Sep_03_1432,2020.2.10,distractmap1,60.00128402328517,"['Right Face', 'Left Leg', 'Right Arm', 'Right Leg']",
7,"[-0.2, -0.2]",0,,,,,0,20,20,20,,,,,,,,,,,,,,,,,,,,,,None,None,"[0, 0, 0]",180.31934579997323,182.31933340011165,180.31934579997323,181.31935320002958,181.3025440000929,182.30270010000095,"[0, 0, 0]",1,180.31934579997323,182.31933340011165,,,,,,,,,,,,,,,,,3,F,1,18,L,MS,2021_Sep_03_1432,2020.2.10,distractmap1,60.00128402328517,"['Right Face', 'Left Leg', 'Right Arm', 'Right Leg']",
5,"[0, 0]",1,,,,,0,21,21,21,,,,,,,,,,,,,,,,,,,,,,None,None,"[0, 0, 0]",182.33602000004612,184.33604790014215,182.33602000004612,183.33603290002793,183.3192422001157,184.3193860000465,"[0, 0, 0]",1,182.33602000004612,184.33604790014215,,,,,,,,,,,,,,,,,3,F,1,18,L,MS,2021_Sep_03_1432,2020.2.10,distractmap1,60.00128402328517,"['Right Face', 'Left Leg', 'Right Arm', 'Right Leg']",
1,"[-0.2, 0.2]",0,,,,,0,22,22,22,,,,,,,,,,,,,,,,,,,,,,None,None,"[0, 0, 0]",184.35271330014803,186.3527212999761,184.35271330014803,185.35272189998068,185.3360395000782,186.3359642000869,"[0, 0, 0]",1,184.35271330014803,186.3527212999761,,,,,,,,,,,,,,,,,3,F,1,18,L,MS,2021_Sep_03_1432,2020.2.10,distractmap1,60.00128402328517,"['Right Face', 'Left Leg', 'Right Arm', 'Right Leg']",
7,"[-0.2, -0.2]",0,,,,,0,23,23,23,,,,,,,,,,,,,,,,,,,,,,None,None,"[0, 0, 0]",186.3693836000748,188.36942050000653,186.3693836000748,187.36938569997437,187.35273650009185,188.35271060001105,"[0, 0, 0]",1,186.3693836000748,188.36942050000653,,,,,,,,,,,,,,,,,3,F,1,18,L,MS,2021_Sep_03_1432,2020.2.10,distractmap1,60.00128402328517,"['Right Face', 'Left Leg', 'Right Arm', 'Right Leg']",
9,"[0.2, -0.2]",0,,,,,0,24,24,24,,,,,,,,,,,,,,,,,,,,,,None,None,"[0, 0, 0]",188.38604450016282,190.38607190013863,188.38604450016282,189.38608120009303,189.3694005999714,190.36942070000805,"[0, 0, 0]",1,188.38604450016282,190.38607190013863,,,,,,,,,,,,,,,,,3,F,1,18,L,MS,2021_Sep_03_1432,2020.2.10,distractmap1,60.00128402328517,"['Right Face', 'Left Leg', 'Right Arm', 'Right Leg']",
3,"[0.2, 0.2]",0,,,,,0,25,25,25,,,,,,,,,,,,,,,,,,,,,,None,None,"[0, 0, 0]",190.40275110001676,192.4027726999484,190.40275110001676,191.4027808001265,191.3860971000977,192.38607849995606,"[0, 0, 0]",1,190.40275110001676,192.4027726999484,,,,,,,,,,,,,,,,,3,F,1,18,L,MS,2021_Sep_03_1432,2020.2.10,distractmap1,60.00128402328517,"['Right Face', 'Left Leg', 'Right Arm', 'Right Leg']",
9,"[0.2, -0.2]",1,,,,,0,26,26,26,,,,,,,,,,,,,,,,,,,,,,None,None,"[0, 0, 0]",192.41928740008734,194.41945590008982,192.41928740008734,193.41943070013076,193.40279090008698,194.40279219998047,"[0, 0, 0]",1,192.41928740008734,194.41945590008982,,,,,,,,,,,,,,,,,3,F,1,18,L,MS,2021_Sep_03_1432,2020.2.10,distractmap1,60.00128402328517,"['Right Face', 'Left Leg', 'Right Arm', 'Right Leg']",
6,"[0.2, 0]",0,,,,,0,27,27,27,,,,,,,,,,,,,,,,,,,,,,None,None,"[0, 0, 0]",194.43611100013368,196.4360275999643,194.43611100013368,195.43615920003504,195.4194726999849,196.41935910005122,"[0, 0, 0]",1,194.43611100013368,196.4360275999643,,,,,,,,,,,,,,,,,3,F,1,18,L,MS,2021_Sep_03_1432,2020.2.10,distractmap1,60.00128402328517,"['Right Face', 'Left Leg', 'Right Arm', 'Right Leg']",
2,"[0, 0.2]",0,,,,,0,28,28,28,,,,,,,,,,,,,,,,,,,,,,None,None,"[0, 0, 0]",196.45281099993736,198.45282729994506,196.45281099993736,197.4528288000729,197.43614770006388,198.43617630004883,"[0, 0, 0]",1,196.45281099993736,198.45282729994506,,,,,,,,,,,,,,,,,3,F,1,18,L,MS,2021_Sep_03_1432,2020.2.10,distractmap1,60.00128402328517,"['Right Face', 'Left Leg', 'Right Arm', 'Right Leg']",
5,"[0, 0]",0,,,,,0,29,29,29,,,,,,,,,,,,,,,,,,,,,,None,None,"[0, 0, 0]",198.46947310003452,200.46938599995337,198.46947310003452,199.46950180013664,199.45283600012772,200.45284000015818,"[0, 0, 0]",1,198.46947310003452,200.46938599995337,,,,,,,,,,,,,,,,,3,F,1,18,L,MS,2021_Sep_03_1432,2020.2.10,distractmap1,60.00128402328517,"['Right Face', 'Left Leg', 'Right Arm', 'Right Leg']",
,,,,,,,,,,,,,,,,,,,,,,,,,,,200.5195160000585,None,space,200.5195160000585,None,,,,,,,,,,,,,,,,,,,,,,,,,,,,,,3,F,1,18,L,MS,2021_Sep_03_1432,2020.2.10,distractmap1,60.00128402328517,"['Right Face', 'Left Leg', 'Right Arm', 'Right Leg']",
5,"[0, 0]",None,0,0,0,0,,,,,402.2377158999443,None,407.0211674000602,None,407.0211674000602,408.02117300010286,408.0044905000832,409.0045221999753,1,None,None,"[0, 0, 0]",,,407.0211674000602,None,,,,,,,,,,,,,,,,,,,205.38650270015933,205.38650270015933,None,space,169.43462559999898,205.38650270015933,None,"[0, 0, 0]",,,,,,,,,3,F,1,18,L,MS,2021_Sep_03_1432,2020.2.10,distractmap1,60.00128402328517,"['Right Face', 'Left Leg', 'Right Arm', 'Right Leg']",
5,"[0, 0]",1,0,1,1,1,,,,,,,409.0211796001531,None,409.0211796001531,410.021184500074,410.00453249993734,411.0045360000804,1,None,None,"[0, 0, 0]",,,409.0211796001531,None,,,,,,,,,,,,,,,,,,,,,,,,,,"[0, 0, 0]",,,,,,,,,3,F,1,18,L,MS,2021_Sep_03_1432,2020.2.10,distractmap1,60.00128402328517,"['Right Face', 'Left Leg', 'Right Arm', 'Right Leg']",
4,"[-0.2, 0]",0,0,2,2,2,,,,,,,411.02118879999034,411.02118879999034,411.02118879999034,412.02120280009694,412.00454080011696,413.00453280005604,1,None,None,"[0, 0, 0]",,,411.02118879999034,411.02118879999034,,,,,,,,,,,,,,,,,,,,,,,,,,"[0, 0, 0]",,,,,,,,,3,F,1,18,L,MS,2021_Sep_03_1432,2020.2.10,distractmap1,60.00128402328517,"['Right Face', 'Left Leg', 'Right Arm', 'Right Leg']",
2,"[0, 0.2]",0,0,3,3,3,,,,,,,413.0211543000769,413.0211543000769,413.0211543000769,414.0212073000148,414.0045630999375,415.0045574000105,1,None,None,"[0, 0, 0]",,,413.0211543000769,413.0211543000769,,,,,,,,,,,,,,,,,,,,,,,,,,"[0, 0, 0]",,,,,,,,,3,F,1,18,L,MS,2021_Sep_03_1432,2020.2.10,distractmap1,60.00128402328517,"['Right Face', 'Left Leg', 'Right Arm', 'Right Leg']",
6,"[0.2, 0]",0,0,4,4,4,,,,,,,415.10457110009156,415.10457110009156,415.10457110009156,416.1045661000535,416.08790010004304,None,1,None,None,"[0, 0, 0]",,,415.10457110009156,415.10457110009156,,,,,,,,,,,,,,,,,,,,,,,,,,"[0, 0, 0]",,,,,,,,,3,F,1,18,L,MS,2021_Sep_03_1432,2020.2.10,distractmap1,60.00128402328517,"['Right Face', 'Left Leg', 'Right Arm', 'Right Leg']",
8,"[0, -0.2]",0,0,5,5,5,,,,,,,417.0379079999402,None,417.0379079999402,418.0379252000712,418.02125889994204,419.0212435000576,1,None,None,"[0, 0, 0]",,,417.0379079999402,None,,,,,,,,,,,,,,,,,,,,,,,,,,"[0, 0, 0]",,,,,,,,,3,F,1,18,L,MS,2021_Sep_03_1432,2020.2.10,distractmap1,60.00128402328517,"['Right Face', 'Left Leg', 'Right Arm', 'Right Leg']",
1,"[-0.2, 0.2]",0,0,6,6,6,,,,,,,419.03792140004225,419.03792140004225,419.03792140004225,420.0379200000316,420.02126589999534,421.0212765999604,1,None,None,"[0, 0, 0]",,,419.03792140004225,419.03792140004225,,,,,,,,,,,,,,,,,,,,,,,,,,"[0, 0, 0]",,,,,,,,,3,F,1,18,L,MS,2021_Sep_03_1432,2020.2.10,distractmap1,60.00128402328517,"['Right Face', 'Left Leg', 'Right Arm', 'Right Leg']",
4,"[-0.2, 0]",0,0,7,7,7,,,,,,,421.0380023000762,421.0380023000762,421.0380023000762,422.0379137999844,422.0212675000075,423.0212795000989,1,None,None,"[0, 0, 0]",,,421.0380023000762,421.0380023000762,,,,,,,,,,,,,,,,,,,,,,,,,,"[0, 0, 0]",,,,,,,,,3,F,1,18,L,MS,2021_Sep_03_1432,2020.2.10,distractmap1,60.00128402328517,"['Right Face', 'Left Leg', 'Right Arm', 'Right Leg']",
8,"[0, -0.2]",0,0,8,8,8,,,,,,,423.0379627000075,423.0379627000075,423.0379627000075,424.03796149999835,424.0212867001537,425.0212896000594,1,None,None,"[0, 0, 0]",,,423.0379627000075,423.0379627000075,,,,,,,,,,,,,,,,,,,,,,,,,,"[0, 0, 0]",,,,,,,,,3,F,1,18,L,MS,2021_Sep_03_1432,2020.2.10,distractmap1,60.00128402328517,"['Right Face', 'Left Leg', 'Right Arm', 'Right Leg']",
8,"[0, -0.2]",1,0,9,9,9,,,,,,,425.0379697000608,425.0379697000608,425.0379697000608,426.03799460013397,426.02131840004586,427.02131580002606,1,None,None,"[0, 0, 0]",,,425.0379697000608,425.0379697000608,,,,,,,,,,,,,,,,,,,,,,,,,,"[0, 0, 0]",,,,,,,,,3,F,1,18,L,MS,2021_Sep_03_1432,2020.2.10,distractmap1,60.00128402328517,"['Right Face', 'Left Leg', 'Right Arm', 'Right Leg']",
,,,,,,,,,,,427.0379920999985,None,,,,,,,,,,,,,,,,,,,,,,,,,,,,,,,,,,,,,,,,,42.839506172839506,387.7096750100609,,,,,,,3,F,1,18,L,MS,2021_Sep_03_1432,2020.2.10,distractmap1,60.00128402328517,"['Right Face', 'Left Leg', 'Right Arm', 'Right Leg']",
3,"[0.2, 0.2]",None,,,,,0,0,0,0,440.2714508001227,None,,,,,,,,,,,,,,,,,,,,None,None,"[0, 0, 0]",447.10469760000706,None,447.10469760000706,448.10483089997433,448.0881845999975,449.0881579001434,"[0, 0, 0]",1,447.10469760000706,None,,,,,,,,,,,0.015122690005227923,5.012598589994013,,,,,3,F,1,18,L,MS,2021_Sep_03_1432,2020.2.10,distractmap1,60.00128402328517,"['Right Face', 'Left Leg', 'Right Arm', 'Right Leg']",
3,"[0.2, 0.2]",None,,,,,0,1,1,1,,,,,,,,,,,,,,,,,,,,,,None,None,"[0, 0, 0]",449.10482520004734,451.10492040007375,449.10482520004734,450.1048404001631,450.08819120004773,451.08820410002954,"[0, 0, 0]",0,449.10482520004734,451.10492040007375,,,,,,,,,,,,,,,,,3,F,1,18,L,MS,2021_Sep_03_1432,2020.2.10,distractmap1,60.00128402328517,"['Right Face', 'Left Leg', 'Right Arm', 'Right Leg']",
5,"[0, 0]",0,,,,,0,2,2,2,,,,,,,,,,,,,,,,,,,,,,None,None,"[0, 0, 0]",451.1215123999864,453.1215488000307,451.1215123999864,452.12150890007615,452.10485080000944,453.1048872999381,"[0, 0, 0]",1,451.1215123999864,453.1215488000307,,,,,,,,,,,,,,,,,3,F,1,18,L,MS,2021_Sep_03_1432,2020.2.10,distractmap1,60.00128402328517,"['Right Face', 'Left Leg', 'Right Arm', 'Right Leg']",
1,"[-0.2, 0.2]",0,,,,,0,3,3,3,,,,,,,,,,,,,,,,,,,,,,None,None,"[0, 0, 0]",453.13819850003347,455.1382520000916,453.13819850003347,454.13817259995267,454.12151460000314,455.12158409995027,"[0, 0, 0]",0,453.13819850003347,455.1382520000916,,,,,,,,,,,,,,,,,3,F,1,18,L,MS,2021_Sep_03_1432,2020.2.10,distractmap1,60.00128402328517,"['Right Face', 'Left Leg', 'Right Arm', 'Right Leg']",
5,"[0, 0]",1,,,,,0,4,4,4,,,,,,,,,,,,,,,,,,,,,,None,None,"[0, 0, 0]",455.188068700023,None,455.188068700023,456.18822870007716,456.18822870007716,None,"[0, 0, 0]",1,455.188068700023,None,,,,,,,,,,,,,,,,,3,F,1,18,L,MS,2021_Sep_03_1432,2020.2.10,distractmap1,60.00128402328517,"['Right Face', 'Left Leg', 'Right Arm', 'Right Leg']",
8,"[0, -0.2]",0,,,,,0,5,5,5,,,,,,,,,,,,,,,,,,,,,,None,None,"[0, 0, 0]",457.1715635000728,459.17158120009117,457.1715635000728,458.1715824001003,458.1549162999727,459.1549049001187,"[0, 0, 0]",1,457.1715635000728,459.17158120009117,,,,,,,,,,,,,,,,,3,F,1,18,L,MS,2021_Sep_03_1432,2020.2.10,distractmap1,60.00128402328517,"['Right Face', 'Left Leg', 'Right Arm', 'Right Leg']",
5,"[0, 0]",1,,,,,0,6,6,6,,,,,,,,,,,,,,,,,,,,,,None,None,"[0, 0, 0]",459.1882545000408,461.1882794999983,459.1882545000408,460.1882408999372,460.17159539996646,461.17159859999083,"[0, 0, 0]",0,459.1882545000408,461.1882794999983,,,,,,,,,,,,,,,,,3,F,1,18,L,MS,2021_Sep_03_1432,2020.2.10,distractmap1,60.00128402328517,"['Right Face', 'Left Leg', 'Right Arm', 'Right Leg']",
7,"[-0.2, -0.2]",0,,,,,0,7,7,7,,,,,,,,,,,,,,,,,,,,,,None,None,"[0, 0, 0]",461.2049412999768,463.2049587001093,461.2049412999768,462.2049483000301,462.18825850007124,463.1882891000714,"[0, 0, 0]",1,461.2049412999768,463.2049587001093,,,,,,,,,,,,,,,,,3,F,1,18,L,MS,2021_Sep_03_1432,2020.2.10,distractmap1,60.00128402328517,"['Right Face', 'Left Leg', 'Right Arm', 'Right Leg']",
5,"[0, 0]",1,,,,,0,8,8,8,,,,,,,,,,,,,,,,,,,,,,None,None,"[0, 0, 0]",463.22160069993697,465.22161220014095,463.22160069993697,464.2216407000087,464.204952100059,465.2049686999526,"[0, 0, 0]",1,463.22160069993697,465.22161220014095,,,,,,,,,,,,,,,,,3,F,1,18,L,MS,2021_Sep_03_1432,2020.2.10,distractmap1,60.00128402328517,"['Right Face', 'Left Leg', 'Right Arm', 'Right Leg']",
7,"[-0.2, -0.2]",1,,,,,0,9,9,9,,,,,,,,,,,,,,,,,,,,,,None,None,"[0, 0, 0]",465.23830409999937,467.2383240000345,465.23830409999937,466.23831679997966,466.22164599993266,467.22163929999806,"[0, 0, 0]",0,465.23830409999937,467.2383240000345,,,,,,,,,,,,,,,,,3,F,1,18,L,MS,2021_Sep_03_1432,2020.2.10,distractmap1,60.00128402328517,"['Right Face', 'Left Leg', 'Right Arm', 'Right Leg']",
,,,,,,,,,,,467.25498430011794,None,,,,,,,,,,,,,,,,,,,,,,,,,,,,,,,,,,,,,,,,,29.506172839506174,431.8099103101995,,,,,,,3,F,1,18,L,MS,2021_Sep_03_1432,2020.2.10,distractmap1,60.00128402328517,"['Right Face', 'Left Leg', 'Right Arm', 'Right Leg']",
3,"[0.2, 0.2]",None,0,0,0,0,,,,,482.45503369998187,None,487.32181999995373,None,487.32181999995373,488.32180600007996,488.3051644000225,489.30514449998736,1,None,None,"[0, 0, 0]",,,487.32181999995373,None,,,,,,,,,,,,,,,,,,,,,,,,,,"[0, 0, 0]",,,0.01521908980794251,5.01280498993583,,,,,3,F,1,18,L,MS,2021_Sep_03_1432,2020.2.10,distractmap1,60.00128402328517,"['Right Face', 'Left Leg', 'Right Arm', 'Right Leg']",
4,"[-0.2, 0]",0,0,1,1,1,,,,,,,489.32182379998267,None,489.32182379998267,490.32183940010145,490.305155799957,491.3051799000241,1,None,None,"[0, 0, 0]",,,489.32182379998267,None,,,,,,,,,,,,,,,,,,,,,,,,,,"[0, 0, 0]",,,,,,,,,3,F,1,18,L,MS,2021_Sep_03_1432,2020.2.10,distractmap1,60.00128402328517,"['Right Face', 'Left Leg', 'Right Arm', 'Right Leg']",
1,"[-0.2, 0.2]",0,0,2,2,2,,,,,,,491.32184270001017,491.32184270001017,491.32184270001017,492.3218455000315,492.30517089995556,493.3051939001307,1,None,None,"[0, 0, 0]",,,491.32184270001017,491.32184270001017,,,,,,,,,,,,,,,,,,,,,,,,,,"[0, 0, 0]",,,,,,,,,3,F,1,18,L,MS,2021_Sep_03_1432,2020.2.10,distractmap1,60.00128402328517,"['Right Face', 'Left Leg', 'Right Arm', 'Right Leg']",
2,"[0, 0.2]",0,0,3,3,3,,,,,,,493.3218481000513,493.3218481000513,493.3218481000513,494.3218731000088,494.30519940005615,495.30520609999076,1,None,None,"[0, 0, 0]",,,493.3218481000513,493.3218481000513,,,,,,,,,,,,,,,,,,,,,,,,,,"[0, 0, 0]",,,,,,,,,3,F,1,18,L,MS,2021_Sep_03_1432,2020.2.10,distractmap1,60.00128402328517,"['Right Face', 'Left Leg', 'Right Arm', 'Right Leg']",
2,"[0, 0.2]",1,0,4,4,4,,,,,,,495.37187779997475,495.37187779997475,495.37187779997475,496.37187979999,496.3552101000678,None,1,None,None,"[0, 0, 0]",,,495.37187779997475,495.37187779997475,,,,,,,,,,,,,,,,,,,,,,,,,,"[0, 0, 0]",,,,,,,,,3,F,1,18,L,MS,2021_Sep_03_1432,2020.2.10,distractmap1,60.00128402328517,"['Right Face', 'Left Leg', 'Right Arm', 'Right Leg']",
5,"[0, 0]",0,0,5,5,5,,,,,,,497.3385628000833,None,497.3385628000833,498.3385683000088,498.3218841000926,499.32191359996796,1,None,None,"[0, 0, 0]",,,497.3385628000833,None,,,,,,,,,,,,,,,,,,,,,,,,,,"[0, 0, 0]",,,,,,,,,3,F,1,18,L,MS,2021_Sep_03_1432,2020.2.10,distractmap1,60.00128402328517,"['Right Face', 'Left Leg', 'Right Arm', 'Right Leg']",
1,"[-0.2, 0.2]",0,0,6,6,6,,,,,,,499.33856580010615,499.33856580010615,499.33856580010615,500.33857639995404,500.32192240003496,501.3219264000654,1,None,None,"[0, 0, 0]",,,499.33856580010615,499.33856580010615,,,,,,,,,,,,,,,,,,,,,,,,,,"[0, 0, 0]",,,,,,,,,3,F,1,18,L,MS,2021_Sep_03_1432,2020.2.10,distractmap1,60.00128402328517,"['Right Face', 'Left Leg', 'Right Arm', 'Right Leg']",
1,"[-0.2, 0.2]",1,0,7,7,7,,,,,,,501.3385932999663,501.3385932999663,501.3385932999663,502.3385990001261,502.3219219001476,503.3219376001507,1,None,None,"[0, 0, 0]",,,501.3385932999663,501.3385932999663,,,,,,,,,,,,,,,,,,,,,,,,,,"[0, 0, 0]",,,,,,,,,3,F,1,18,L,MS,2021_Sep_03_1432,2020.2.10,distractmap1,60.00128402328517,"['Right Face', 'Left Leg', 'Right Arm', 'Right Leg']",
8,"[0, -0.2]",0,0,8,8,8,,,,,,,503.338609599974,503.338609599974,503.338609599974,504.3386069999542,504.32192940008827,505.32194370008074,1,None,None,"[0, 0, 0]",,,503.338609599974,503.338609599974,,,,,,,,,,,,,,,,,,,,,,,,,,"[0, 0, 0]",,,,,,,,,3,F,1,18,L,MS,2021_Sep_03_1432,2020.2.10,distractmap1,60.00128402328517,"['Right Face', 'Left Leg', 'Right Arm', 'Right Leg']",
7,"[-0.2, -0.2]",0,0,9,9,9,,,,,,,505.338612300111,505.338612300111,505.338612300111,506.33865709998645,506.3219735000748,507.32197339995764,1,None,None,"[0, 0, 0]",,,505.338612300111,505.338612300111,,,,,,,,,,,,,,,,,,,,,,,,,,"[0, 0, 0]",,,,,,,,,3,F,1,18,L,MS,2021_Sep_03_1432,2020.2.10,distractmap1,60.00128402328517,"['Right Face', 'Left Leg', 'Right Arm', 'Right Leg']",
,,,,,,,,,,,507.3386176000349,None,,,,,,,,,,,,,,,,,,,,,,,,,,,,,,,,,,,,,,,,,31.48148148148148,473.2439796102699,,,,,,,3,F,1,18,L,MS,2021_Sep_03_1432,2020.2.10,distractmap1,60.00128402328517,"['Right Face', 'Left Leg', 'Right Arm', 'Right Leg']",
6,"[0.2, 0]",None,,,,,0,0,0,0,525.2554305000231,None,,,,,,,,,,,,,,,,,,,,None,None,"[0, 0, 0]",527.4054698001128,None,527.4054698001128,528.4054767000489,528.3887955001555,529.3888195001055,"[0, 0, 0]",1,527.4054698001128,None,,,,,,,,,,,0.014824189944192767,5.012066389899701,,,,,3,F,1,18,L,MS,2021_Sep_03_1432,2020.2.10,distractmap1,60.00128402328517,"['Right Face', 'Left Leg', 'Right Arm', 'Right Leg']",
1,"[-0.2, 0.2]",None,,,,,0,1,1,1,,,,,,,,,,,,,,,,,,,,,,None,None,"[0, 0, 0]",529.4054926000535,531.4054950000718,529.4054926000535,530.4054948000703,530.3888108001556,531.3888276000507,"[0, 0, 0]",1,529.4054926000535,531.4054950000718,,,,,,,,,,,,,,,,,3,F,1,18,L,MS,2021_Sep_03_1432,2020.2.10,distractmap1,60.00128402328517,"['Right Face', 'Left Leg', 'Right Arm', 'Right Leg']",
6,"[0.2, 0]",1,,,,,0,2,2,2,,,,,,,,,,,,,,,,,,,,,,None,None,"[0, 0, 0]",531.4221582999453,533.4221695000306,531.4221582999453,532.4221669000108,532.4054926000535,533.4055162000004,"[0, 0, 0]",1,531.4221582999453,533.4221695000306,,,,,,,,,,,,,,,,,3,F,1,18,L,MS,2021_Sep_03_1432,2020.2.10,distractmap1,60.00128402328517,"['Right Face', 'Left Leg', 'Right Arm', 'Right Leg']",
4,"[-0.2, 0]",0,,,,,0,3,3,3,,,,,,,,,,,,,,,,,,,,,,None,None,"[0, 0, 0]",533.438855699962,535.4388486000244,533.438855699962,534.4388616001233,534.4221721999347,535.4221874000505,"[0, 0, 0]",1,533.438855699962,535.4388486000244,,,,,,,,,,,,,,,,,3,F,1,18,L,MS,2021_Sep_03_1432,2020.2.10,distractmap1,60.00128402328517,"['Right Face', 'Left Leg', 'Right Arm', 'Right Leg']",
1,"[-0.2, 0.2]",0,,,,,0,4,4,4,,,,,,,,,,,,,,,,,,,,,,None,None,"[0, 0, 0]",535.5055277000647,None,535.5055277000647,536.5055395001546,536.4888605000451,None,"[0, 0, 0]",0,535.5055277000647,None,,,,,,,,,,,,,,,,,3,F,1,18,L,MS,2021_Sep_03_1432,2020.2.10,distractmap1,60.00128402328517,"['Right Face', 'Left Leg', 'Right Arm', 'Right Leg']",
8,"[0, -0.2]",0,,,,,0,5,5,5,,,,,,,,,,,,,,,,,,,,,,None,None,"[0, 0, 0]",537.4722198001109,539.4722281000577,537.4722198001109,538.4722510001156,538.4555613000412,539.4555760000367,"[0, 0, 0]",1,537.4722198001109,539.4722281000577,,,,,,,,,,,,,,,,,3,F,1,18,L,MS,2021_Sep_03_1432,2020.2.10,distractmap1,60.00128402328517,"['Right Face', 'Left Leg', 'Right Arm', 'Right Leg']",
1,"[-0.2, 0.2]",1,,,,,0,6,6,6,,,,,,,,,,,,,,,,,,,,,,None,None,"[0, 0, 0]",539.4888979000971,541.4889198001474,539.4888979000971,540.4888981999829,540.4722293999512,541.4721224000677,"[0, 0, 0]",1,539.4888979000971,541.4889198001474,,,,,,,,,,,,,,,,,3,F,1,18,L,MS,2021_Sep_03_1432,2020.2.10,distractmap1,60.00128402328517,"['Right Face', 'Left Leg', 'Right Arm', 'Right Leg']",
8,"[0, -0.2]",1,,,,,0,7,7,7,,,,,,,,,,,,,,,,,,,,,,None,None,"[0, 0, 0]",541.5055780000985,543.5055937001016,541.5055780000985,542.5055788999889,542.4889247999527,543.4889325001277,"[0, 0, 0]",0,541.5055780000985,543.5055937001016,,,,,,,,,,,,,,,,,3,F,1,18,L,MS,2021_Sep_03_1432,2020.2.10,distractmap1,60.00128402328517,"['Right Face', 'Left Leg', 'Right Arm', 'Right Leg']",
1,"[-0.2, 0.2]",1,,,,,0,8,8,8,,,,,,,,,,,,,,,,,,,,,,None,None,"[0, 0, 0]",543.5222312000114,545.5222833999433,543.5222312000114,544.5222589999903,544.5056060999632,545.5056096999906,"[0, 0, 0]",1,543.5222312000114,545.5222833999433,,,,,,,,,,,,,,,,,3,F,1,18,L,MS,2021_Sep_03_1432,2020.2.10,distractmap1,60.00128402328517,"['Right Face', 'Left Leg', 'Right Arm', 'Right Leg']",
6,"[0.2, 0]",0,,,,,0,9,9,9,,,,,,,,,,,,,,,,,,,,,,None,None,"[0, 0, 0]",545.5389413000084,547.5389587001409,545.5389413000084,546.5389644999523,546.5222702000756,547.522292900132,"[0, 0, 0]",1,545.5389413000084,547.5389587001409,,,,,,,,,,,,,,,,,3,F,1,18,L,MS,2021_Sep_03_1432,2020.2.10,distractmap1,60.00128402328517,"['Right Face', 'Left Leg', 'Right Arm', 'Right Leg']",
,,,,,,,,,,,547.5556098001543,None,,,,,,,,,,,,,,,,,,,,,,,,,,,,,,,,,,,,,,,,,35.80246913580247,512.1443823103327,,,,,,,3,F,1,18,L,MS,2021_Sep_03_1432,2020.2.10,distractmap1,60.00128402328517,"['Right Face', 'Left Leg', 'Right Arm', 'Right Leg']",
6,"[0.2, 0]",None,0,0,0,0,,,,,562.755748800002,None,567.6224615999963,None,567.6224615999963,568.6224511000328,568.6057955001015,569.6057989001274,1,None,None,"[0, 0, 0]",,,567.6224615999963,None,,,,,,,,,,,,,,,,,,,,,,,,,,"[0, 0, 0]",,,0.014733589719980955,5.011895189760253,,,,,3,F,1,18,L,MS,2021_Sep_03_1432,2020.2.10,distractmap1,60.00128402328517,"['Right Face', 'Left Leg', 'Right Arm', 'Right Leg']",
6,"[0.2, 0]",1,0,1,1,1,,,,,,,569.6224720999599,None,569.6224720999599,570.6224831000436,570.6058251000941,571.6058342999313,1,None,None,"[0, 0, 0]",,,569.6224720999599,None,,,,,,,,,,,,,,,,,,,,,,,,,,"[0, 0, 0]",,,,,,,,,3,F,1,18,L,MS,2021_Sep_03_1432,2020.2.10,distractmap1,60.00128402328517,"['Right Face', 'Left Leg', 'Right Arm', 'Right Leg']",
1,"[-0.2, 0.2]",0,0,2,2,2,,,,,,,571.6224998999387,571.6224998999387,571.6224998999387,572.6224706000648,572.6058811999392,573.60584069998,1,None,None,"[0, 0, 0]",,,571.6224998999387,571.6224998999387,,,,,,,,,,,,,,,,,,,,,,,,,,"[0, 0, 0]",,,,,,,,,3,F,1,18,L,MS,2021_Sep_03_1432,2020.2.10,distractmap1,60.00128402328517,"['Right Face', 'Left Leg', 'Right Arm', 'Right Leg']",
8,"[0, -0.2]",0,0,3,3,3,,,,,,,573.6224744999781,573.6224744999781,573.6224744999781,574.6225028999615,574.6058465000242,575.6058601001278,1,None,None,"[0, 0, 0]",,,573.6224744999781,573.6224744999781,,,,,,,,,,,,,,,,,,,,,,,,,,"[0, 0, 0]",,,,,,,,,3,F,1,18,L,MS,2021_Sep_03_1432,2020.2.10,distractmap1,60.00128402328517,"['Right Face', 'Left Leg', 'Right Arm', 'Right Leg']",
1,"[-0.2, 0.2]",0,0,4,4,4,,,,,,,575.6558030999731,575.6558030999731,575.6558030999731,576.6557302000001,576.6557302000001,None,1,None,None,"[0, 0, 0]",,,575.6558030999731,575.6558030999731,,,,,,,,,,,,,,,,,,,,,,,,,,"[0, 0, 0]",,,,,,,,,3,F,1,18,L,MS,2021_Sep_03_1432,2020.2.10,distractmap1,60.00128402328517,"['Right Face', 'Left Leg', 'Right Arm', 'Right Leg']",
4,"[-0.2, 0]",0,0,5,5,5,,,,,,,577.6391950000543,None,577.6391950000543,578.639114700025,578.6224998000544,579.6225511000957,1,None,None,"[0, 0, 0]",,,577.6391950000543,None,,,,,,,,,,,,,,,,,,,,,,,,,,"[0, 0, 0]",,,,,,,,,3,F,1,18,L,MS,2021_Sep_03_1432,2020.2.10,distractmap1,60.00128402328517,"['Right Face', 'Left Leg', 'Right Arm', 'Right Leg']",
5,"[0, 0]",0,0,6,6,6,,,,,,,579.6392204000149,579.6392204000149,579.6392204000149,580.6392202000134,580.622538600117,581.6225757999346,1,None,None,"[0, 0, 0]",,,579.6392204000149,579.6392204000149,,,,,,,,,,,,,,,,,,,,,,,,,,"[0, 0, 0]",,,,,,,,,3,F,1,18,L,MS,2021_Sep_03_1432,2020.2.10,distractmap1,60.00128402328517,"['Right Face', 'Left Leg', 'Right Arm', 'Right Leg']",
7,"[-0.2, -0.2]",0,0,7,7,7,,,,,,,581.6392453999724,581.6392453999724,581.6392453999724,582.6392413000576,582.6225752001628,583.6225896000396,1,None,None,"[0, 0, 0]",,,581.6392453999724,581.6392453999724,,,,,,,,,,,,,,,,,,,,,,,,,,"[0, 0, 0]",,,,,,,,,3,F,1,18,L,MS,2021_Sep_03_1432,2020.2.10,distractmap1,60.00128402328517,"['Right Face', 'Left Leg', 'Right Arm', 'Right Leg']",
7,"[-0.2, -0.2]",1,0,8,8,8,,,,,,,583.6392546000425,583.6392546000425,583.6392546000425,584.6392485001124,584.6225998001173,585.6225910000503,1,None,None,"[0, 0, 0]",,,583.6392546000425,583.6392546000425,,,,,,,,,,,,,,,,,,,,,,,,,,"[0, 0, 0]",,,,,,,,,3,F,1,18,L,MS,2021_Sep_03_1432,2020.2.10,distractmap1,60.00128402328517,"['Right Face', 'Left Leg', 'Right Arm', 'Right Leg']",
7,"[-0.2, -0.2]",1,0,9,9,9,,,,,,,585.6392288999632,585.6392288999632,585.6392288999632,586.6392771999817,586.6225972000975,587.6226250000764,1,None,None,"[0, 0, 0]",,,585.6392288999632,585.6392288999632,,,,,,,,,,,,,,,,,,,,,,,,,,"[0, 0, 0]",,,,,,,,,3,F,1,18,L,MS,2021_Sep_03_1432,2020.2.10,distractmap1,60.00128402328517,"['Right Face', 'Left Leg', 'Right Arm', 'Right Leg']",
,,,,,,,,,,,587.6392874000594,None,,,,,,,,,,,,,,,,,,,,,,,,,,,,,,,,,,,,,,,,,32.77777777777778,550.9950868098531,,,,,,,3,F,1,18,L,MS,2021_Sep_03_1432,2020.2.10,distractmap1,60.00128402328517,"['Right Face', 'Left Leg', 'Right Arm', 'Right Leg']",
7,"[-0.2, -0.2]",None,,,,,0,0,0,0,603.4227486001328,None,,,,,,,,,,,,,,,,,,,,None,None,"[0, 0, 0]",607.7061252000276,None,607.7061252000276,608.7061081000138,608.6894555001054,None,"[0, 0, 0]",0,607.7061252000276,None,,,,,,,,,,,0.014364790171384811,5.011169690173119,,,,,3,F,1,18,L,MS,2021_Sep_03_1432,2020.2.10,distractmap1,60.00128402328517,"['Right Face', 'Left Leg', 'Right Arm', 'Right Leg']",
7,"[-0.2, -0.2]",None,,,,,0,1,1,1,,,,,,,,,,,,,,,,,,,,,,None,None,"[0, 0, 0]",609.6894631001633,611.6894730001222,609.6894631001633,610.6894754001405,610.6728254000191,611.67280629999,"[0, 0, 0]",1,609.6894631001633,611.6894730001222,,,,,,,,,,,,,,,,,3,F,1,18,L,MS,2021_Sep_03_1432,2020.2.10,distractmap1,60.00128402328517,"['Right Face', 'Left Leg', 'Right Arm', 'Right Leg']",
7,"[-0.2, -0.2]",1,,,,,0,2,2,2,,,,,,,,,,,,,,,,,,,,,,None,None,"[0, 0, 0]",611.7061259001493,613.7061541001312,611.7061259001493,612.7061371000018,612.6894787000492,613.6894936000463,"[0, 0, 0]",1,611.7061259001493,613.7061541001312,,,,,,,,,,,,,,,,,3,F,1,18,L,MS,2021_Sep_03_1432,2020.2.10,distractmap1,60.00128402328517,"['Right Face', 'Left Leg', 'Right Arm', 'Right Leg']",
5,"[0, 0]",0,,,,,0,3,3,3,,,,,,,,,,,,,,,,,,,,,,None,None,"[0, 0, 0]",613.7228308999911,615.7228510000277,613.7228308999911,614.7228304001037,614.7061618999578,615.7061705000233,"[0, 0, 0]",0,613.7228308999911,615.7228510000277,,,,,,,,,,,,,,,,,3,F,1,18,L,MS,2021_Sep_03_1432,2020.2.10,distractmap1,60.00128402328517,"['Right Face', 'Left Leg', 'Right Arm', 'Right Leg']",
1,"[-0.2, 0.2]",0,,,,,0,4,4,4,,,,,,,,,,,,,,,,,,,,,,None,None,"[0, 0, 0]",615.8061999001075,None,615.8061999001075,616.8061945999507,616.7895180000924,None,"[0, 0, 0]",0,615.8061999001075,None,,,,,,,,,,,,,,,,,3,F,1,18,L,MS,2021_Sep_03_1432,2020.2.10,distractmap1,60.00128402328517,"['Right Face', 'Left Leg', 'Right Arm', 'Right Leg']",
6,"[0.2, 0]",0,,,,,0,5,5,5,,,,,,,,,,,,,,,,,,,,,,None,None,"[0, 0, 0]",617.756202599965,619.7562129001599,617.756202599965,618.7562293000519,618.7395244000945,619.7395264999941,"[0, 0, 0]",1,617.756202599965,619.7562129001599,,,,,,,,,,,,,,,,,3,F,1,18,L,MS,2021_Sep_03_1432,2020.2.10,distractmap1,60.00128402328517,"['Right Face', 'Left Leg', 'Right Arm', 'Right Leg']",
1,"[-0.2, 0.2]",1,,,,,0,6,6,6,,,,,,,,,,,,,,,,,,,,,,None,None,"[0, 0, 0]",619.7728665999603,621.7728739001323,619.7728665999603,620.7728043999523,620.7562250001356,621.7562248001341,"[0, 0, 0]",1,619.7728665999603,621.7728739001323,,,,,,,,,,,,,,,,,3,F,1,18,L,MS,2021_Sep_03_1432,2020.2.10,distractmap1,60.00128402328517,"['Right Face', 'Left Leg', 'Right Arm', 'Right Leg']",
7,"[-0.2, -0.2]",0,,,,,0,7,7,7,,,,,,,,,,,,,,,,,,,,,,None,None,"[0, 0, 0]",621.7895579999313,623.7895639000926,621.7895579999313,622.7895676000044,622.7728993999772,623.7729114000686,"[0, 0, 0]",1,621.7895579999313,623.7895639000926,,,,,,,,,,,,,,,,,3,F,1,18,L,MS,2021_Sep_03_1432,2020.2.10,distractmap1,60.00128402328517,"['Right Face', 'Left Leg', 'Right Arm', 'Right Leg']",
6,"[0.2, 0]",0,,,,,0,8,8,8,,,,,,,,,,,,,,,,,,,,,,None,None,"[0, 0, 0]",623.806224900065,625.806240499951,623.806224900065,624.8062561000697,624.7895969001111,625.7895975001156,"[0, 0, 0]",1,623.806224900065,625.806240499951,,,,,,,,,,,,,,,,,3,F,1,18,L,MS,2021_Sep_03_1432,2020.2.10,distractmap1,60.00128402328517,"['Right Face', 'Left Leg', 'Right Arm', 'Right Leg']",
7,"[-0.2, -0.2]",1,,,,,0,9,9,9,,,,,,,,,,,,,,,,,,,,,,None,None,"[0, 0, 0]",625.8229485000484,627.8229884000029,625.8229485000484,626.8229346000589,626.8062607001048,627.8062786001246,"[0, 0, 0]",0,625.8229485000484,627.8229884000029,,,,,,,,,,,,,,,,,3,F,1,18,L,MS,2021_Sep_03_1432,2020.2.10,distractmap1,60.00128402328517,"['Right Face', 'Left Leg', 'Right Arm', 'Right Leg']",
,,,,,,,,,,,627.8396028000861,None,,,,,,,,,,,,,,,,,,,,,,,,,,,,,,,,,,,,,,,,,34.01234567901235,588.7950512098614,,,,,,,3,F,1,18,L,MS,2021_Sep_03_1432,2020.2.10,distractmap1,60.00128402328517,"['Right Face', 'Left Leg', 'Right Arm', 'Right Leg']",
8,"[0, -0.2]",None,0,0,0,0,,,,,641.0563837999944,None,647.9064342000056,None,647.9064342000056,648.9064404000528,648.8897629999556,649.8897957999725,1,None,None,"[0, 0, 0]",,,647.9064342000056,None,,,,,,,,,,,,,,,,,,,,,,,,,,"[0, 0, 0]",,,0.014687290182337165,5.011782390065491,,,,,3,F,1,18,L,MS,2021_Sep_03_1432,2020.2.10,distractmap1,60.00128402328517,"['Right Face', 'Left Leg', 'Right Arm', 'Right Leg']",
6,"[0.2, 0]",0,0,1,1,1,,,,,,,649.9064563000575,None,649.9064563000575,650.9064595999662,650.889800200006,651.8897977001034,1,None,None,"[0, 0, 0]",,,649.9064563000575,None,,,,,,,,,,,,,,,,,,,,,,,,,,"[0, 0, 0]",,,,,,,,,3,F,1,18,L,MS,2021_Sep_03_1432,2020.2.10,distractmap1,60.00128402328517,"['Right Face', 'Left Leg', 'Right Arm', 'Right Leg']",
6,"[0.2, 0]",1,0,2,2,2,,,,,,,651.9064726000652,651.9064726000652,651.9064726000652,652.9064756999724,652.889800200006,653.8898219999392,1,None,None,"[0, 0, 0]",,,651.9064726000652,651.9064726000652,,,,,,,,,,,,,,,,,,,,,,,,,,"[0, 0, 0]",,,,,,,,,3,F,1,18,L,MS,2021_Sep_03_1432,2020.2.10,distractmap1,60.00128402328517,"['Right Face', 'Left Leg', 'Right Arm', 'Right Leg']",
2,"[0, 0.2]",0,0,3,3,3,,,,,,,653.9064770000987,653.9064770000987,653.9064770000987,654.9064961001277,654.8898179000244,655.8898517999332,1,None,None,"[0, 0, 0]",,,653.9064770000987,653.9064770000987,,,,,,,,,,,,,,,,,,,,,,,,,,"[0, 0, 0]",,,,,,,,,3,F,1,18,L,MS,2021_Sep_03_1432,2020.2.10,distractmap1,60.00128402328517,"['Right Face', 'Left Leg', 'Right Arm', 'Right Leg']",
1,"[-0.2, 0.2]",0,0,4,4,4,,,,,,,655.9398427000269,655.9398427000269,655.9398427000269,656.9398403000087,656.9231678000651,None,1,None,None,"[0, 0, 0]",,,655.9398427000269,655.9398427000269,,,,,,,,,,,,,,,,,,,,,,,,,,"[0, 0, 0]",,,,,,,,,3,F,1,18,L,MS,2021_Sep_03_1432,2020.2.10,distractmap1,60.00128402328517,"['Right Face', 'Left Leg', 'Right Arm', 'Right Leg']",
6,"[0.2, 0]",0,0,5,5,5,,,,,,,657.9231702999678,None,657.9231702999678,658.9231957001612,658.9065229000989,659.906548100058,1,None,None,"[0, 0, 0]",,,657.9231702999678,None,,,,,,,,,,,,,,,,,,,,,,,,,,"[0, 0, 0]",,,,,,,,,3,F,1,18,L,MS,2021_Sep_03_1432,2020.2.10,distractmap1,60.00128402328517,"['Right Face', 'Left Leg', 'Right Arm', 'Right Leg']",
9,"[0.2, -0.2]",0,0,6,6,6,,,,,,,659.9232088001445,659.9232088001445,659.9232088001445,660.9231931001414,660.9065431000199,661.9065296000335,1,None,None,"[0, 0, 0]",,,659.9232088001445,659.9232088001445,,,,,,,,,,,,,,,,,,,,,,,,,,"[0, 0, 0]",,,,,,,,,3,F,1,18,L,MS,2021_Sep_03_1432,2020.2.10,distractmap1,60.00128402328517,"['Right Face', 'Left Leg', 'Right Arm', 'Right Leg']",
1,"[-0.2, 0.2]",0,0,7,7,7,,,,,,,661.9231976000592,661.9231976000592,661.9231976000592,662.9232161000837,662.9065614000428,663.9065642999485,1,None,None,"[0, 0, 0]",,,661.9231976000592,661.9231976000592,,,,,,,,,,,,,,,,,,,,,,,,,,"[0, 0, 0]",,,,,,,,,3,F,1,18,L,MS,2021_Sep_03_1432,2020.2.10,distractmap1,60.00128402328517,"['Right Face', 'Left Leg', 'Right Arm', 'Right Leg']",
6,"[0.2, 0]",0,0,8,8,8,,,,,,,663.9232286000624,663.9232286000624,663.9232286000624,664.9232181000989,664.9065720001236,665.9065656999592,1,None,None,"[0, 0, 0]",,,663.9232286000624,663.9232286000624,,,,,,,,,,,,,,,,,,,,,,,,,,"[0, 0, 0]",,,,,,,,,3,F,1,18,L,MS,2021_Sep_03_1432,2020.2.10,distractmap1,60.00128402328517,"['Right Face', 'Left Leg', 'Right Arm', 'Right Leg']",
6,"[0.2, 0]",1,0,9,9,9,,,,,,,665.9232308999635,665.9232308999635,665.9232308999635,666.9232539001387,666.9065954999533,667.9065899001434,1,None,None,"[0, 0, 0]",,,665.9232308999635,665.9232308999635,,,,,,,,,,,,,,,,,,,,,,,,,,"[0, 0, 0]",,,,,,,,,3,F,1,18,L,MS,2021_Sep_03_1432,2020.2.10,distractmap1,60.00128402328517,"['Right Face', 'Left Leg', 'Right Arm', 'Right Leg']",
,,,,,,,,,,,667.9232410001568,None,,,,,,,,,,,,,,,,,,,,,,,,,,,,,,,,,,,,,,,,,28.14814814814815,632.9790180101991,,,,,,,3,F,1,18,L,MS,2021_Sep_03_1432,2020.2.10,distractmap1,60.00128402328517,"['Right Face', 'Left Leg', 'Right Arm', 'Right Leg']",
4,"[-0.2, 0]",None,,,,,0,0,0,0,685.123402700061,None,,,,,,,,,,,,,,,,,,,,None,None,"[0, 0, 0]",687.990100499941,None,687.990100499941,688.9900949001312,688.9734334000386,689.9734794001561,"[0, 0, 0]",1,687.990100499941,None,,,,,,,,,,,0.014405089896172285,5.011153989937156,,,,,3,F,1,18,L,MS,2021_Sep_03_1432,2020.2.10,distractmap1,60.00128402328517,"['Right Face', 'Left Leg', 'Right Arm', 'Right Leg']",
5,"[0, 0]",None,,,,,0,1,1,1,,,,,,,,,,,,,,,,,,,,,,None,None,"[0, 0, 0]",689.9901050000917,691.9901171999518,689.9901050000917,690.9901189999655,690.973445000127,691.9734623001423,"[0, 0, 0]",1,689.9901050000917,691.9901171999518,,,,,,,,,,,,,,,,,3,F,1,18,L,MS,2021_Sep_03_1432,2020.2.10,distractmap1,60.00128402328517,"['Right Face', 'Left Leg', 'Right Arm', 'Right Leg']",
6,"[0.2, 0]",0,,,,,0,2,2,2,,,,,,,,,,,,,,,,,,,,,,None,None,"[0, 0, 0]",692.0067783000413,694.0068223001435,692.0067783000413,693.0067873999942,692.9901249001268,693.9901241001207,"[0, 0, 0]",1,692.0067783000413,694.0068223001435,,,,,,,,,,,,,,,,,3,F,1,18,L,MS,2021_Sep_03_1432,2020.2.10,distractmap1,60.00128402328517,"['Right Face', 'Left Leg', 'Right Arm', 'Right Leg']",
1,"[-0.2, 0.2]",0,,,,,0,3,3,3,,,,,,,,,,,,,,,,,,,,,,None,None,"[0, 0, 0]",694.0234592000488,696.0234815999866,694.0234592000488,695.023462699959,695.0068139999639,696.00680870004,"[0, 0, 0]",1,694.0234592000488,696.0234815999866,,,,,,,,,,,,,,,,,3,F,1,18,L,MS,2021_Sep_03_1432,2020.2.10,distractmap1,60.00128402328517,"['Right Face', 'Left Leg', 'Right Arm', 'Right Leg']",
6,"[0.2, 0]",1,,,,,0,4,4,4,,,,,,,,,,,,,,,,,,,,,,None,None,"[0, 0, 0]",696.1401613999624,None,696.1401613999624,697.1401619000826,697.1235042000189,None,"[0, 0, 0]",0,696.1401613999624,None,,,,,,,,,,,,,,,,,3,F,1,18,L,MS,2021_Sep_03_1432,2020.2.10,distractmap1,60.00128402328517,"['Right Face', 'Left Leg', 'Right Arm', 'Right Leg']",
1,"[-0.2, 0.2]",1,,,,,0,5,5,5,,,,,,,,,,,,,,,,,,,,,,None,None,"[0, 0, 0]",698.0568458000198,700.0568460000213,698.0568458000198,699.0568381000776,699.0401673000306,700.0401902999729,"[0, 0, 0]",0,698.0568458000198,700.0568460000213,,,,,,,,,,,,,,,,,3,F,1,18,L,MS,2021_Sep_03_1432,2020.2.10,distractmap1,60.00128402328517,"['Right Face', 'Left Leg', 'Right Arm', 'Right Leg']",
2,"[0, 0.2]",0,,,,,0,6,6,6,,,,,,,,,,,,,,,,,,,,,,None,None,"[0, 0, 0]",700.0735082000028,702.0735323000699,700.0735082000028,701.0735357000958,701.0568610001355,702.0568687000778,"[0, 0, 0]",1,700.0735082000028,702.0735323000699,,,,,,,,,,,,,,,,,3,F,1,18,L,MS,2021_Sep_03_1432,2020.2.10,distractmap1,60.00128402328517,"['Right Face', 'Left Leg', 'Right Arm', 'Right Leg']",
3,"[0.2, 0.2]",0,,,,,0,7,7,7,,,,,,,,,,,,,,,,,,,,,,None,None,"[0, 0, 0]",702.0902092999313,704.0901977000758,702.0902092999313,703.0902066000272,703.0735363001004,704.0735582001507,"[0, 0, 0]",1,702.0902092999313,704.0901977000758,,,,,,,,,,,,,,,,,3,F,1,18,L,MS,2021_Sep_03_1432,2020.2.10,distractmap1,60.00128402328517,"['Right Face', 'Left Leg', 'Right Arm', 'Right Leg']",
6,"[0.2, 0]",0,,,,,0,8,8,8,,,,,,,,,,,,,,,,,,,,,,None,None,"[0, 0, 0]",704.1068953999784,706.1068911000621,704.1068953999784,705.1068990000058,705.090222200146,706.0902116999496,"[0, 0, 0]",1,704.1068953999784,706.1068911000621,,,,,,,,,,,,,,,,,3,F,1,18,L,MS,2021_Sep_03_1432,2020.2.10,distractmap1,60.00128402328517,"['Right Face', 'Left Leg', 'Right Arm', 'Right Leg']",
3,"[0.2, 0.2]",1,,,,,0,9,9,9,,,,,,,,,,,,,,,,,,,,,,None,None,"[0, 0, 0]",706.1235526001547,708.1235938000027,706.1235526001547,707.1235712000635,707.1068971999921,708.1069291001186,"[0, 0, 0]",0,706.1235526001547,708.1235938000027,,,,,,,,,,,,,,,,,3,F,1,18,L,MS,2021_Sep_03_1432,2020.2.10,distractmap1,60.00128402328517,"['Right Face', 'Left Leg', 'Right Arm', 'Right Leg']",
,,,,,,,,,,,708.1402615001425,None,,,,,,,,,,,,,,,,,,,,,,,,,,,,,,,,,,,,,,,,,35.80246913580247,673.7794642099179,,,,,,,3,F,1,18,L,MS,2021_Sep_03_1432,2020.2.10,distractmap1,60.00128402328517,"['Right Face', 'Left Leg', 'Right Arm', 'Right Leg']",
9,"[0.2, -0.2]",None,0,0,0,0,,,,,725.3569767000154,None,728.2071183000226,None,728.2071183000226,729.2070874001365,729.1904287000652,730.190416000085,1,None,None,"[0, 0, 0]",,,728.2071183000226,None,,,,,,,,,,,,,,,,,,,,,,,,,,"[0, 0, 0]",,,0.01431749016046524,5.011066390201449,,,,,3,F,1,18,L,MS,2021_Sep_03_1432,2020.2.10,distractmap1,60.00128402328517,"['Right Face', 'Left Leg', 'Right Arm', 'Right Leg']",
9,"[0.2, -0.2]",1,0,1,1,1,,,,,,,730.2071064000484,None,730.2071064000484,731.2071033001412,731.1904484000988,732.1904428999405,1,None,None,"[0, 0, 0]",,,730.2071064000484,None,,,,,,,,,,,,,,,,,,,,,,,,,,"[0, 0, 0]",,,,,,,,,3,F,1,18,L,MS,2021_Sep_03_1432,2020.2.10,distractmap1,60.00128402328517,"['Right Face', 'Left Leg', 'Right Arm', 'Right Leg']",
9,"[0.2, -0.2]",1,0,2,2,2,,,,,,,732.2071215000469,732.2071215000469,732.2071215000469,733.2070969999768,733.1904219000135,734.1904462000821,1,None,None,"[0, 0, 0]",,,732.2071215000469,732.2071215000469,,,,,,,,,,,,,,,,,,,,,,,,,,"[0, 0, 0]",,,,,,,,,3,F,1,18,L,MS,2021_Sep_03_1432,2020.2.10,distractmap1,60.00128402328517,"['Right Face', 'Left Leg', 'Right Arm', 'Right Leg']",
3,"[0.2, 0.2]",0,0,3,3,3,,,,,,,734.2071080000605,734.2071080000605,734.2071080000605,735.2071086999495,735.1904400000349,736.190469800029,1,None,None,"[0, 0, 0]",,,734.2071080000605,734.2071080000605,,,,,,,,,,,,,,,,,,,,,,,,,,"[0, 0, 0]",,,,,,,,,3,F,1,18,L,MS,2021_Sep_03_1432,2020.2.10,distractmap1,60.00128402328517,"['Right Face', 'Left Leg', 'Right Arm', 'Right Leg']",
5,"[0, 0]",0,0,4,4,4,,,,,,,736.2903696000576,736.2903696000576,736.2903696000576,737.29049569997,737.2738129999489,None,1,None,None,"[0, 0, 0]",,,736.2903696000576,736.2903696000576,,,,,,,,,,,,,,,,,,,,,,,,,,"[0, 0, 0]",,,,,,,,,3,F,1,18,L,MS,2021_Sep_03_1432,2020.2.10,distractmap1,60.00128402328517,"['Right Face', 'Left Leg', 'Right Arm', 'Right Leg']",
4,"[-0.2, 0]",0,0,5,5,5,,,,,,,738.2238183999434,None,738.2238183999434,739.2238251001108,739.2071671001613,740.2071794001386,1,None,None,"[0, 0, 0]",,,738.2238183999434,None,,,,,,,,,,,,,,,,,,,,,,,,,,"[0, 0, 0]",,,,,,,,,3,F,1,18,L,MS,2021_Sep_03_1432,2020.2.10,distractmap1,60.00128402328517,"['Right Face', 'Left Leg', 'Right Arm', 'Right Leg']",
9,"[0.2, -0.2]",0,0,6,6,6,,,,,,,740.2238555999938,740.2238555999938,740.2238555999938,741.2238297001459,741.2071945001371,742.2071813000366,1,None,None,"[0, 0, 0]",,,740.2238555999938,740.2238555999938,,,,,,,,,,,,,,,,,,,,,,,,,,"[0, 0, 0]",,,,,,,,,3,F,1,18,L,MS,2021_Sep_03_1432,2020.2.10,distractmap1,60.00128402328517,"['Right Face', 'Left Leg', 'Right Arm', 'Right Leg']",
6,"[0.2, 0]",0,0,7,7,7,,,,,,,742.223856800003,742.223856800003,742.223856800003,743.223847999936,743.2072024000809,744.2072044000961,1,None,None,"[0, 0, 0]",,,742.223856800003,742.223856800003,,,,,,,,,,,,,,,,,,,,,,,,,,"[0, 0, 0]",,,,,,,,,3,F,1,18,L,MS,2021_Sep_03_1432,2020.2.10,distractmap1,60.00128402328517,"['Right Face', 'Left Leg', 'Right Arm', 'Right Leg']",
2,"[0, 0.2]",0,0,8,8,8,,,,,,,744.2238539000973,744.2238539000973,744.2238539000973,745.2239057000261,745.2072073000018,746.2072318999562,1,None,None,"[0, 0, 0]",,,744.2238539000973,744.2238539000973,,,,,,,,,,,,,,,,,,,,,,,,,,"[0, 0, 0]",,,,,,,,,3,F,1,18,L,MS,2021_Sep_03_1432,2020.2.10,distractmap1,60.00128402328517,"['Right Face', 'Left Leg', 'Right Arm', 'Right Leg']",
2,"[0, 0.2]",1,0,9,9,9,,,,,,,746.2239037000109,746.2239037000109,746.2239037000109,747.2238980000839,747.2072213001084,748.2072420001496,0,None,None,"[0, 0, 0]",,,746.2239037000109,746.2239037000109,,,,,,,,,,,,,,,,,,,,,,,,,,"[0, 0, 0]",,,,,,,,,3,F,1,18,L,MS,2021_Sep_03_1432,2020.2.10,distractmap1,60.00128402328517,"['Right Face', 'Left Leg', 'Right Arm', 'Right Leg']",
,,,,,,,,,,,748.2239064001478,None,,,,,,,,,,,,,,,,,,,,,,,,,,,,,,,,,,,,,,,,,31.790123456790127,709.6624330100603,,,,,,,3,F,1,18,L,MS,2021_Sep_03_1432,2020.2.10,distractmap1,60.00128402328517,"['Right Face', 'Left Leg', 'Right Arm', 'Right Leg']",
2,"[0, 0.2]",None,0,0,0,0,,,,,762.0573734999634,None,768.2740844001528,None,768.2740844001528,769.2740811000112,769.2407468000893,770.2407523000147,1,None,None,"[0, 0, 0]",,,768.2740844001528,None,,,,,,,,,,,,,,,,,,,,,,,,,,"[0, 0, 0]",,,0.014925690134987235,5.012289490085095,,,,,3,F,1,18,L,MS,2021_Sep_03_1432,2020.2.10,distractmap1,60.00128402328517,"['Right Face', 'Left Leg', 'Right Arm', 'Right Leg']",
8,"[0, -0.2]",0,0,1,1,1,,,,,,,770.2740901000798,None,770.2740901000798,771.2740760999732,771.2574210001621,772.2574215000495,0,None,None,"[0, 0, 0]",,,770.2740901000798,None,,,,,,,,,,,,,,,,,,,,,,,,,,"[0, 0, 0]",,,,,,,,,3,F,1,18,L,MS,2021_Sep_03_1432,2020.2.10,distractmap1,60.00128402328517,"['Right Face', 'Left Leg', 'Right Arm', 'Right Leg']",
1,"[-0.2, 0.2]",0,0,2,2,2,,,,,,,772.274103499949,772.274103499949,772.274103499949,773.274115000153,773.2574364000466,774.2574531999417,1,None,None,"[0, 0, 0]",,,772.274103499949,772.274103499949,,,,,,,,,,,,,,,,,,,,,,,,,,"[0, 0, 0]",,,,,,,,,3,F,1,18,L,MS,2021_Sep_03_1432,2020.2.10,distractmap1,60.00128402328517,"['Right Face', 'Left Leg', 'Right Arm', 'Right Leg']",
2,"[0, 0.2]",0,0,3,3,3,,,,,,,774.274159300141,774.274159300141,774.274159300141,775.2741205999628,775.2574674999341,776.2574537000619,1,None,None,"[0, 0, 0]",,,774.274159300141,774.274159300141,,,,,,,,,,,,,,,,,,,,,,,,,,"[0, 0, 0]",,,,,,,,,3,F,1,18,L,MS,2021_Sep_03_1432,2020.2.10,distractmap1,60.00128402328517,"['Right Face', 'Left Leg', 'Right Arm', 'Right Leg']",
2,"[0, 0.2]",1,0,4,4,4,,,,,,,776.3408115999773,776.3408115999773,776.3408115999773,777.3408103999682,777.324136500014,None,1,None,None,"[0, 0, 0]",,,776.3408115999773,776.3408115999773,,,,,,,,,,,,,,,,,,,,,,,,,,"[0, 0, 0]",,,,,,,,,3,F,1,18,L,MS,2021_Sep_03_1432,2020.2.10,distractmap1,60.00128402328517,"['Right Face', 'Left Leg', 'Right Arm', 'Right Leg']",
7,"[-0.2, -0.2]",0,0,5,5,5,,,,,,,778.2908234000206,None,778.2908234000206,779.29083730001,779.2741791999433,780.2741774001624,1,None,None,"[0, 0, 0]",,,778.2908234000206,None,,,,,,,,,,,,,,,,,,,,,,,,,,"[0, 0, 0]",,,,,,,,,3,F,1,18,L,MS,2021_Sep_03_1432,2020.2.10,distractmap1,60.00128402328517,"['Right Face', 'Left Leg', 'Right Arm', 'Right Leg']",
9,"[0.2, -0.2]",0,0,6,6,6,,,,,,,780.2908481999766,780.2908481999766,780.2908481999766,781.2908501999918,781.2741668000817,782.2741481999401,1,None,None,"[0, 0, 0]",,,780.2908481999766,780.2908481999766,,,,,,,,,,,,,,,,,,,,,,,,,,"[0, 0, 0]",,,,,,,,,3,F,1,18,L,MS,2021_Sep_03_1432,2020.2.10,distractmap1,60.00128402328517,"['Right Face', 'Left Leg', 'Right Arm', 'Right Leg']",
9,"[0.2, -0.2]",1,0,7,7,7,,,,,,,782.2908580999356,782.2908580999356,782.2908580999356,783.2908578000497,783.2741821000818,784.2742062001489,0,None,None,"[0, 0, 0]",,,782.2908580999356,782.2908580999356,,,,,,,,,,,,,,,,,,,,,,,,,,"[0, 0, 0]",,,,,,,,,3,F,1,18,L,MS,2021_Sep_03_1432,2020.2.10,distractmap1,60.00128402328517,"['Right Face', 'Left Leg', 'Right Arm', 'Right Leg']",
4,"[-0.2, 0]",0,0,8,8,8,,,,,,,784.2908420001622,784.2908420001622,784.2908420001622,785.2908880000468,785.2742165001109,786.274289400084,1,None,None,"[0, 0, 0]",,,784.2908420001622,784.2908420001622,,,,,,,,,,,,,,,,,,,,,,,,,,"[0, 0, 0]",,,,,,,,,3,F,1,18,L,MS,2021_Sep_03_1432,2020.2.10,distractmap1,60.00128402328517,"['Right Face', 'Left Leg', 'Right Arm', 'Right Leg']",
5,"[0, 0]",0,0,9,9,9,,,,,,,786.2908695000224,786.2908695000224,786.2908695000224,787.2908861001488,787.274224499939,788.2742493001278,1,None,None,"[0, 0, 0]",,,786.2908695000224,786.2908695000224,,,,,,,,,,,,,,,,,,,,,,,,,,"[0, 0, 0]",,,,,,,,,3,F,1,18,L,MS,2021_Sep_03_1432,2020.2.10,distractmap1,60.00128402328517,"['Right Face', 'Left Leg', 'Right Arm', 'Right Leg']",
,,,,,,,,,,,788.2909212000668,None,,,,,,,,,,,,,,,,,,,,,,,,,,,,,,,,,,,,,,,,,35.432098765432094,755.5795695101842,,,,,,,3,F,1,18,L,MS,2021_Sep_03_1432,2020.2.10,distractmap1,60.00128402328517,"['Right Face', 'Left Leg', 'Right Arm', 'Right Leg']",
2,"[0, 0.2]",None,0,0,0,0,,,,,805.4910419001244,None,808.3410616000183,None,808.3410616000183,809.3410627001431,809.3243863999378,810.3243949001189,1,None,None,"[0, 0, 0]",,,808.3410616000183,None,,,,,,,,,,,,,,,,,,,,,,,,,,"[0, 0, 0]",,,0.014864190015941858,5.012323989998549,,,,,3,F,1,18,L,MS,2021_Sep_03_1432,2020.2.10,distractmap1,60.00128402328517,"['Right Face', 'Left Leg', 'Right Arm', 'Right Leg']",
2,"[0, 0.2]",1,0,1,1,1,,,,,,,810.341082100058,None,810.341082100058,811.3410805000458,811.3244086001068,812.32443040004,1,None,None,"[0, 0, 0]",,,810.341082100058,None,,,,,,,,,,,,,,,,,,,,,,,,,,"[0, 0, 0]",,,,,,,,,3,F,1,18,L,MS,2021_Sep_03_1432,2020.2.10,distractmap1,60.00128402328517,"['Right Face', 'Left Leg', 'Right Arm', 'Right Leg']",
1,"[-0.2, 0.2]",0,0,2,2,2,,,,,,,812.3410841999575,812.3410841999575,812.3410841999575,813.3411092001479,813.3244398001116,814.3244503000751,1,None,None,"[0, 0, 0]",,,812.3410841999575,812.3410841999575,,,,,,,,,,,,,,,,,,,,,,,,,,"[0, 0, 0]",,,,,,,,,3,F,1,18,L,MS,2021_Sep_03_1432,2020.2.10,distractmap1,60.00128402328517,"['Right Face', 'Left Leg', 'Right Arm', 'Right Leg']",
2,"[0, 0.2]",0,0,3,3,3,,,,,,,814.3411119999364,814.3411119999364,814.3411119999364,815.3411247001495,815.3244324000552,816.3244344000705,1,None,None,"[0, 0, 0]",,,814.3411119999364,814.3411119999364,,,,,,,,,,,,,,,,,,,,,,,,,,"[0, 0, 0]",,,,,,,,,3,F,1,18,L,MS,2021_Sep_03_1432,2020.2.10,distractmap1,60.00128402328517,"['Right Face', 'Left Leg', 'Right Arm', 'Right Leg']",
2,"[0, 0.2]",1,0,4,4,4,,,,,,,816.3911238000728,816.3911238000728,816.3911238000728,817.3911317000166,817.3744572999422,None,1,None,None,"[0, 0, 0]",,,816.3911238000728,816.3911238000728,,,,,,,,,,,,,,,,,,,,,,,,,,"[0, 0, 0]",,,,,,,,,3,F,1,18,L,MS,2021_Sep_03_1432,2020.2.10,distractmap1,60.00128402328517,"['Right Face', 'Left Leg', 'Right Arm', 'Right Leg']",
4,"[-0.2, 0]",0,0,5,5,5,,,,,,,818.3578016001265,None,818.3578016001265,819.3578139001038,819.3411418001633,820.3411479999777,1,None,None,"[0, 0, 0]",,,818.3578016001265,None,,,,,,,,,,,,,,,,,,,,,,,,,,"[0, 0, 0]",,,,,,,,,3,F,1,18,L,MS,2021_Sep_03_1432,2020.2.10,distractmap1,60.00128402328517,"['Right Face', 'Left Leg', 'Right Arm', 'Right Leg']",
6,"[0.2, 0]",0,0,6,6,6,,,,,,,820.3578234000597,820.3578234000597,820.3578234000597,821.3578218000475,821.3411459999625,822.3411698001437,1,None,None,"[0, 0, 0]",,,820.3578234000597,820.3578234000597,,,,,,,,,,,,,,,,,,,,,,,,,,"[0, 0, 0]",,,,,,,,,3,F,1,18,L,MS,2021_Sep_03_1432,2020.2.10,distractmap1,60.00128402328517,"['Right Face', 'Left Leg', 'Right Arm', 'Right Leg']",
8,"[0, -0.2]",0,0,7,7,7,,,,,,,822.3578439000994,822.3578439000994,822.3578439000994,823.3578542999458,823.3411682001315,824.3411761000752,1,None,None,"[0, 0, 0]",,,822.3578439000994,822.3578439000994,,,,,,,,,,,,,,,,,,,,,,,,,,"[0, 0, 0]",,,,,,,,,3,F,1,18,L,MS,2021_Sep_03_1432,2020.2.10,distractmap1,60.00128402328517,"['Right Face', 'Left Leg', 'Right Arm', 'Right Leg']",
9,"[0.2, -0.2]",0,0,8,8,8,,,,,,,824.3578294001054,824.3578294001054,824.3578294001054,825.3578552999534,825.341211500112,826.3412653999403,1,None,None,"[0, 0, 0]",,,824.3578294001054,824.3578294001054,,,,,,,,,,,,,,,,,,,,,,,,,,"[0, 0, 0]",,,,,,,,,3,F,1,18,L,MS,2021_Sep_03_1432,2020.2.10,distractmap1,60.00128402328517,"['Right Face', 'Left Leg', 'Right Arm', 'Right Leg']",
9,"[0.2, -0.2]",1,0,9,9,9,,,,,,,826.3578673000447,826.3578673000447,826.3578673000447,827.3578641000204,827.3412045000587,828.3412283000071,1,None,None,"[0, 0, 0]",,,826.3578673000447,826.3578673000447,,,,,,,,,,,,,,,,,,,,,,,,,,"[0, 0, 0]",,,,,,,,,3,F,1,18,L,MS,2021_Sep_03_1432,2020.2.10,distractmap1,60.00128402328517,"['Right Face', 'Left Leg', 'Right Arm', 'Right Leg']",
,,,,,,,,,,,828.3578896000981,None,,,,,,,,,,,,,,,,,,,,,,,,,,,,,,,,,,,,,,,,,45.49382716049382,795.6465774101671,,,,,,,3,F,1,18,L,MS,2021_Sep_03_1432,2020.2.10,distractmap1,60.00128402328517,"['Right Face', 'Left Leg', 'Right Arm', 'Right Leg']",
2,"[0, 0.2]",None,,,,,0,0,0,0,846.1580411000177,None,,,,,,,,,,,,,,,,,,,,None,None,"[0, 0, 0]",848.4080551001243,None,848.4080551001243,849.4080568000209,849.3913789000362,850.3913947001565,"[0, 0, 0]",1,848.4080551001243,None,,,,,,,,,,,0.014829689869657159,5.012293689884245,,,,,3,F,1,18,L,MS,2021_Sep_03_1432,2020.2.10,distractmap1,60.00128402328517,"['Right Face', 'Left Leg', 'Right Arm', 'Right Leg']",
5,"[0, 0]",None,,,,,0,1,1,1,,,,,,,,,,,,,,,,,,,,,,None,None,"[0, 0, 0]",850.4080292000435,852.4080779999495,850.4080292000435,851.4080738001503,851.3914121000562,852.3914077000227,"[0, 0, 0]",1,850.4080292000435,852.4080779999495,,,,,,,,,,,,,,,,,3,F,1,18,L,MS,2021_Sep_03_1432,2020.2.10,distractmap1,60.00128402328517,"['Right Face', 'Left Leg', 'Right Arm', 'Right Leg']",
6,"[0.2, 0]",0,,,,,0,2,2,2,,,,,,,,,,,,,,,,,,,,,,None,None,"[0, 0, 0]",852.4247715000529,854.4247469999827,852.4247715000529,853.4247405000497,853.4080912999343,854.4081008001231,"[0, 0, 0]",1,852.4247715000529,854.4247469999827,,,,,,,,,,,,,,,,,3,F,1,18,L,MS,2021_Sep_03_1432,2020.2.10,distractmap1,60.00128402328517,"['Right Face', 'Left Leg', 'Right Arm', 'Right Leg']",
1,"[-0.2, 0.2]",0,,,,,0,3,3,3,,,,,,,,,,,,,,,,,,,,,,None,None,"[0, 0, 0]",854.4414165001363,856.4414516000543,854.4414165001363,855.4414349000435,855.4247906000819,856.4247809001245,"[0, 0, 0]",1,854.4414165001363,856.4414516000543,,,,,,,,,,,,,,,,,3,F,1,18,L,MS,2021_Sep_03_1432,2020.2.10,distractmap1,60.00128402328517,"['Right Face', 'Left Leg', 'Right Arm', 'Right Leg']",
6,"[0.2, 0]",1,,,,,0,4,4,4,,,,,,,,,,,,,,,,,,,,,,None,None,"[0, 0, 0]",856.5248302000109,None,856.5248302000109,857.524806200061,857.5081277999561,None,"[0, 0, 0]",1,856.5248302000109,None,,,,,,,,,,,,,,,,,3,F,1,18,L,MS,2021_Sep_03_1432,2020.2.10,distractmap1,60.00128402328517,"['Right Face', 'Left Leg', 'Right Arm', 'Right Leg']",
6,"[0.2, 0]",0,,,,,0,5,5,5,,,,,,,,,,,,,,,,,,,,,,None,None,"[0, 0, 0]",858.4747993000783,860.4748138999566,858.4747993000783,859.4748077001423,859.458124200115,860.4581631000619,"[0, 0, 0]",1,858.4747993000783,860.4748138999566,,,,,,,,,,,,,,,,,3,F,1,18,L,MS,2021_Sep_03_1432,2020.2.10,distractmap1,60.00128402328517,"['Right Face', 'Left Leg', 'Right Arm', 'Right Leg']",
9,"[0.2, -0.2]",0,,,,,0,6,6,6,,,,,,,,,,,,,,,,,,,,,,None,None,"[0, 0, 0]",860.4914701001253,862.4914907999337,860.4914701001253,861.4914645000827,861.4748176001012,862.4748399001546,"[0, 0, 0]",1,860.4914701001253,862.4914907999337,,,,,,,,,,,,,,,,,3,F,1,18,L,MS,2021_Sep_03_1432,2020.2.10,distractmap1,60.00128402328517,"['Right Face', 'Left Leg', 'Right Arm', 'Right Leg']",
6,"[0.2, 0]",1,,,,,0,7,7,7,,,,,,,,,,,,,,,,,,,,,,None,None,"[0, 0, 0]",862.508167100139,864.5081941999961,862.508167100139,863.5081573999487,863.4915253999643,864.4915124000981,"[0, 0, 0]",0,862.508167100139,864.5081941999961,,,,,,,,,,,,,,,,,3,F,1,18,L,MS,2021_Sep_03_1432,2020.2.10,distractmap1,60.00128402328517,"['Right Face', 'Left Leg', 'Right Arm', 'Right Leg']",
3,"[0.2, 0.2]",0,,,,,0,8,8,8,,,,,,,,,,,,,,,,,,,,,,None,None,"[0, 0, 0]",864.5248300000094,866.5248692999594,864.5248300000094,865.5249059000053,865.508192300098,866.5081964000128,"[0, 0, 0]",1,864.5248300000094,866.5248692999594,,,,,,,,,,,,,,,,,3,F,1,18,L,MS,2021_Sep_03_1432,2020.2.10,distractmap1,60.00128402328517,"['Right Face', 'Left Leg', 'Right Arm', 'Right Leg']",
9,"[0.2, -0.2]",0,,,,,0,9,9,9,,,,,,,,,,,,,,,,,,,,,,None,None,"[0, 0, 0]",866.5415366000962,868.541551399976,866.5415366000962,867.5415395000018,867.5248992000706,868.5248819000553,"[0, 0, 0]",1,866.5415366000962,868.541551399976,,,,,,,,,,,,,,,,,3,F,1,18,L,MS,2021_Sep_03_1432,2020.2.10,distractmap1,60.00128402328517,"['Right Face', 'Left Leg', 'Right Arm', 'Right Leg']",
,,,,,,,,,,,868.5581952000502,None,,,,,,,,,,,,,,,,,,,,,,,,,,,,,,,,,,,,,,,,,30.185185185185187,833.6631426098756,,,,,,,3,F,1,18,L,MS,2021_Sep_03_1432,2020.2.10,distractmap1,60.00128402328517,"['Right Face', 'Left Leg', 'Right Arm', 'Right Leg']",
3,"[0.2, 0.2]",None,,,,,0,0,0,0,886.3582725001033,None,,,,,,,,,,,,,,,,,,,,None,None,"[0, 0, 0]",888.6083841000218,None,888.6083841000218,889.6083823000081,889.5917052000295,890.5917291000951,"[0, 0, 0]",1,888.6083841000218,None,,,,,,,,,,,0.015210290206596255,5.012733490206301,,,,,3,F,1,18,L,MS,2021_Sep_03_1432,2020.2.10,distractmap1,60.00128402328517,"['Right Face', 'Left Leg', 'Right Arm', 'Right Leg']",
9,"[0.2, -0.2]",None,,,,,0,1,1,1,,,,,,,,,,,,,,,,,,,,,,None,None,"[0, 0, 0]",890.6083772000857,892.6084036999382,890.6083772000857,891.6083963001147,891.5917452999856,892.5917326000053,"[0, 0, 0]",1,890.6083772000857,892.6084036999382,,,,,,,,,,,,,,,,,3,F,1,18,L,MS,2021_Sep_03_1432,2020.2.10,distractmap1,60.00128402328517,"['Right Face', 'Left Leg', 'Right Arm', 'Right Leg']",
3,"[0.2, 0.2]",1,,,,,0,2,2,2,,,,,,,,,,,,,,,,,,,,,,None,None,"[0, 0, 0]",892.6250806001481,894.6250909001101,892.6250806001481,893.6250702999532,893.6084028999321,894.6084305001423,"[0, 0, 0]",0,892.6250806001481,894.6250909001101,,,,,,,,,,,,,,,,,3,F,1,18,L,MS,2021_Sep_03_1432,2020.2.10,distractmap1,60.00128402328517,"['Right Face', 'Left Leg', 'Right Arm', 'Right Leg']",
7,"[-0.2, -0.2]",0,,,,,0,3,3,3,,,,,,,,,,,,,,,,,,,,,,None,None,"[0, 0, 0]",894.6417507000733,896.6417847999837,894.6417507000733,895.6417591001373,895.6251060001086,896.6251068999991,"[0, 0, 0]",0,894.6417507000733,896.6417847999837,,,,,,,,,,,,,,,,,3,F,1,18,L,MS,2021_Sep_03_1432,2020.2.10,distractmap1,60.00128402328517,"['Right Face', 'Left Leg', 'Right Arm', 'Right Leg']",
8,"[0, -0.2]",0,,,,,0,4,4,4,,,,,,,,,,,,,,,,,,,,,,None,None,"[0, 0, 0]",896.725106799975,None,896.725106799975,897.7251004001591,897.7084466000088,None,"[0, 0, 0]",1,896.725106799975,None,,,,,,,,,,,,,,,,,3,F,1,18,L,MS,2021_Sep_03_1432,2020.2.10,distractmap1,60.00128402328517,"['Right Face', 'Left Leg', 'Right Arm', 'Right Leg']",
4,"[-0.2, 0]",0,,,,,0,5,5,5,,,,,,,,,,,,,,,,,,,,,,None,None,"[0, 0, 0]",898.6751064001583,900.6751276000869,898.6751064001583,899.6751427999698,899.6584648001008,900.6584704001434,"[0, 0, 0]",1,898.6751064001583,900.6751276000869,,,,,,,,,,,,,,,,,3,F,1,18,L,MS,2021_Sep_03_1432,2020.2.10,distractmap1,60.00128402328517,"['Right Face', 'Left Leg', 'Right Arm', 'Right Leg']",
4,"[-0.2, 0]",0,,,,,0,6,6,6,,,,,,,,,,,,,,,,,,,,,,None,None,"[0, 0, 0]",900.6918061000761,902.6918208999559,900.6918061000761,901.6917070001364,901.6751389000565,902.6751886000857,"[0, 0, 0]",1,900.6918061000761,902.6918208999559,,,,,,,,,,,,,,,,,3,F,1,18,L,MS,2021_Sep_03_1432,2020.2.10,distractmap1,60.00128402328517,"['Right Face', 'Left Leg', 'Right Arm', 'Right Leg']",
1,"[-0.2, 0.2]",0,,,,,0,7,7,7,,,,,,,,,,,,,,,,,,,,,,None,None,"[0, 0, 0]",902.7084659000393,904.7084991000593,902.7084659000393,903.7084975000471,903.6918320001569,904.691834300058,"[0, 0, 0]",1,902.7084659000393,904.7084991000593,,,,,,,,,,,,,,,,,3,F,1,18,L,MS,2021_Sep_03_1432,2020.2.10,distractmap1,60.00128402328517,"['Right Face', 'Left Leg', 'Right Arm', 'Right Leg']",
4,"[-0.2, 0]",1,,,,,0,8,8,8,,,,,,,,,,,,,,,,,,,,,,None,None,"[0, 0, 0]",904.725196500076,906.7251720000058,904.725196500076,905.7251665000804,905.708497799933,906.7085271000396,"[0, 0, 0]",1,904.725196500076,906.7251720000058,,,,,,,,,,,,,,,,,3,F,1,18,L,MS,2021_Sep_03_1432,2020.2.10,distractmap1,60.00128402328517,"['Right Face', 'Left Leg', 'Right Arm', 'Right Leg']",
8,"[0, -0.2]",0,,,,,0,9,9,9,,,,,,,,,,,,,,,,,,,,,,None,None,"[0, 0, 0]",906.7417449001223,908.7418637000956,906.7417449001223,907.7418728000484,907.7251796000637,908.7252041001339,"[0, 0, 0]",1,906.7417449001223,908.7418637000956,,,,,,,,,,,,,,,,,3,F,1,18,L,MS,2021_Sep_03_1432,2020.2.10,distractmap1,60.00128402328517,"['Right Face', 'Left Leg', 'Right Arm', 'Right Leg']",
,,,,,,,,,,,908.7585279999766,None,,,,,,,,,,,,,,,,,,,,,,,,,,,,,,,,,,,,,,,,,24.567901234567902,872.564255110221,,,,,,,3,F,1,18,L,MS,2021_Sep_03_1432,2020.2.10,distractmap1,60.00128402328517,"['Right Face', 'Left Leg', 'Right Arm', 'Right Leg']",
4,"[-0.2, 0]",None,0,0,0,0,,,,,924.7086819000542,None,928.8253632001579,None,928.8253632001579,929.8253787001595,929.8086943000089,930.8087146000471,1,None,None,"[0, 0, 0]",,,928.8253632001579,None,,,,,,,,,,,,,,,,,,,,,,,,,,"[0, 0, 0]",,,0.014448589878156781,5.011353689711541,,,,,3,F,1,18,L,MS,2021_Sep_03_1432,2020.2.10,distractmap1,60.00128402328517,"['Right Face', 'Left Leg', 'Right Arm', 'Right Leg']",
7,"[-0.2, -0.2]",0,0,1,1,1,,,,,,,930.8253862001002,None,930.8253862001002,931.825393000152,931.8087274001446,932.8087454999331,0,None,None,"[0, 0, 0]",,,930.8253862001002,None,,,,,,,,,,,,,,,,,,,,,,,,,,"[0, 0, 0]",,,,,,,,,3,F,1,18,L,MS,2021_Sep_03_1432,2020.2.10,distractmap1,60.00128402328517,"['Right Face', 'Left Leg', 'Right Arm', 'Right Leg']",
7,"[-0.2, -0.2]",1,0,2,2,2,,,,,,,932.8253828000743,932.8253828000743,932.8253828000743,933.8254060000181,933.808761500055,934.8087337999605,0,None,None,"[1, 0, 0]",,,932.8253828000743,932.8253828000743,,,,,,,,,,,,,,,,,,,,,,,,,,"[1, 0, 0]",,,,,1.9133775001391768,1.2966680999379605,,,3,F,1,18,L,MS,2021_Sep_03_1432,2020.2.10,distractmap1,60.00128402328517,"['Right Face', 'Left Leg', 'Right Arm', 'Right Leg']",
4,"[-0.2, 0]",0,0,3,3,3,,,,,,,934.8254126999527,934.8254126999527,934.8254126999527,935.8254156000912,935.8087534001097,936.8087677999865,0,None,None,"[0, 0, 0]",,,934.8254126999527,934.8254126999527,,,,,,,,,,,,,,,,,,,,,,,,,,"[0, 0, 0]",,,,,,,,,3,F,1,18,L,MS,2021_Sep_03_1432,2020.2.10,distractmap1,60.00128402328517,"['Right Face', 'Left Leg', 'Right Arm', 'Right Leg']",
8,"[0, -0.2]",0,0,4,4,4,,,,,,,936.8921018000692,936.8921018000692,936.8921018000692,937.892098300159,937.8754452001303,None,1,None,None,"[0, 0, 0]",,,936.8921018000692,936.8921018000692,,,,,,,,,,,,,,,,,,,,,,,,,,"[0, 0, 0]",,,,,,,,,3,F,1,18,L,MS,2021_Sep_03_1432,2020.2.10,distractmap1,60.00128402328517,"['Right Face', 'Left Leg', 'Right Arm', 'Right Leg']",
4,"[-0.2, 0]",0,0,5,5,5,,,,,,,938.8421134999953,None,938.8421134999953,939.8421120999847,939.8254362000152,940.825451800134,0,None,None,"[0, 0, 0]",,,938.8421134999953,None,,,,,,,,,,,,,,,,,,,,,,,,,,"[0, 0, 0]",,,,,,,,,3,F,1,18,L,MS,2021_Sep_03_1432,2020.2.10,distractmap1,60.00128402328517,"['Right Face', 'Left Leg', 'Right Arm', 'Right Leg']",
7,"[-0.2, -0.2]",0,0,6,6,6,,,,,,,940.8420802999754,940.8420802999754,940.8420802999754,941.842128300108,941.8254706000444,942.825463199988,1,None,None,"[0, 0, 0]",,,940.8420802999754,940.8420802999754,,,,,,,,,,,,,,,,,,,,,,,,,,"[0, 0, 0]",,,,,,,,,3,F,1,18,L,MS,2021_Sep_03_1432,2020.2.10,distractmap1,60.00128402328517,"['Right Face', 'Left Leg', 'Right Arm', 'Right Leg']",
6,"[0.2, 0]",0,0,7,7,7,,,,,,,942.8421291001141,942.8421291001141,942.8421291001141,943.8421080000699,943.8254862001631,944.8254788001068,1,None,None,"[0, 0, 0]",,,942.8421291001141,942.8421291001141,,,,,,,,,,,,,,,,,,,,,,,,,,"[0, 0, 0]",,,,,,,,,3,F,1,18,L,MS,2021_Sep_03_1432,2020.2.10,distractmap1,60.00128402328517,"['Right Face', 'Left Leg', 'Right Arm', 'Right Leg']",
6,"[0.2, 0]",1,0,8,8,8,,,,,,,944.8421500001568,944.8421500001568,944.8421500001568,945.8421430999879,945.8255141000263,946.825511300005,0,None,None,"[0, 0, 0]",,,944.8421500001568,944.8421500001568,,,,,,,,,,,,,,,,,,,,,,,,,,"[0, 0, 0]",,,,,,,,,3,F,1,18,L,MS,2021_Sep_03_1432,2020.2.10,distractmap1,60.00128402328517,"['Right Face', 'Left Leg', 'Right Arm', 'Right Leg']",
1,"[-0.2, 0.2]",0,0,9,9,9,,,,,,,946.8421793000307,946.8421793000307,946.8421793000307,947.8422271001618,947.8255054999609,948.8255338000599,1,None,None,"[0, 0, 0]",,,946.8421793000307,946.8421793000307,,,,,,,,,,,,,,,,,,,,,,,,,,"[0, 0, 0]",,,,,,,,,3,F,1,18,L,MS,2021_Sep_03_1432,2020.2.10,distractmap1,60.00128402328517,"['Right Face', 'Left Leg', 'Right Arm', 'Right Leg']",
,,,,,,,,,,,948.8421972999349,None,,,,,,,,,,,,,,,,,,,,,,,,,,,,,,,,,,,,,,,,,42.03703703703703,912.1305976100266,,,,,,,3,F,1,18,L,MS,2021_Sep_03_1432,2020.2.10,distractmap1,60.00128402328517,"['Right Face', 'Left Leg', 'Right Arm', 'Right Leg']",
2,"[0, 0.2]",None,,,,,0,0,0,0,962.0923003000207,None,,,,,,,,,,,,,,,,,,,,None,None,"[0, 0, 0]",968.8924118001014,None,968.8924118001014,969.8923987001181,969.8757515000179,970.8757404000498,"[0, 0, 0]",1,968.8924118001014,None,,,,,,,,,,,0.015071190195158124,5.012773790163919,,,,,3,F,1,18,L,MS,2021_Sep_03_1432,2020.2.10,distractmap1,60.00128402328517,"['Right Face', 'Left Leg', 'Right Arm', 'Right Leg']",
5,"[0, 0]",None,,,,,0,1,1,1,,,,,,,,,,,,,,,,,,,,,,None,None,"[0, 0, 0]",970.892410099972,972.8923929000739,970.892410099972,971.8923778999597,971.8757031999994,972.8757309999783,"[0, 0, 0]",1,970.892410099972,972.8923929000739,,,,,,,,,,,,,,,,,3,F,1,18,L,MS,2021_Sep_03_1432,2020.2.10,distractmap1,60.00128402328517,"['Right Face', 'Left Leg', 'Right Arm', 'Right Leg']",
3,"[0.2, 0.2]",0,,,,,0,2,2,2,,,,,,,,,,,,,,,,,,,,,,None,None,"[0, 0, 0]",972.9090605999809,974.9090736000799,972.9090605999809,973.909060700098,973.8923828999978,974.892408600077,"[0, 0, 0]",1,972.9090605999809,974.9090736000799,,,,,,,,,,,,,,,,,3,F,1,18,L,MS,2021_Sep_03_1432,2020.2.10,distractmap1,60.00128402328517,"['Right Face', 'Left Leg', 'Right Arm', 'Right Leg']",
5,"[0, 0]",1,,,,,0,3,3,3,,,,,,,,,,,,,,,,,,,,,,None,None,"[0, 0, 0]",974.9257400000934,976.9256370000076,974.9257400000934,975.9257486001588,975.909093500115,976.9090935999993,"[0, 0, 0]",0,974.9257400000934,976.9256370000076,,,,,,,,,,,,,,,,,3,F,1,18,L,MS,2021_Sep_03_1432,2020.2.10,distractmap1,60.00128402328517,"['Right Face', 'Left Leg', 'Right Arm', 'Right Leg']",
2,"[0, 0.2]",0,,,,,0,4,4,4,,,,,,,,,,,,,,,,,,,,,,None,None,"[0, 0, 0]",976.9757685000077,None,976.9757685000077,977.9757570000365,977.9590938000474,None,"[0, 0, 0]",1,976.9757685000077,None,,,,,,,,,,,,,,,,,3,F,1,18,L,MS,2021_Sep_03_1432,2020.2.10,distractmap1,60.00128402328517,"['Right Face', 'Left Leg', 'Right Arm', 'Right Leg']",
8,"[0, -0.2]",0,,,,,0,5,5,5,,,,,,,,,,,,,,,,,,,,,,None,None,"[0, 0, 0]",978.959099000087,980.9591250000522,978.959099000087,979.9591119000688,979.9423144001048,980.9424419000279,"[0, 0, 0]",1,978.959099000087,980.9591250000522,,,,,,,,,,,,,,,,,3,F,1,18,L,MS,2021_Sep_03_1432,2020.2.10,distractmap1,60.00128402328517,"['Right Face', 'Left Leg', 'Right Arm', 'Right Leg']",
4,"[-0.2, 0]",0,,,,,0,6,6,6,,,,,,,,,,,,,,,,,,,,,,None,None,"[0, 0, 0]",980.9757974001113,982.9758039000444,980.9757974001113,981.9757946999744,981.9591262999456,982.9591157000978,"[0, 0, 0]",1,980.9757974001113,982.9758039000444,,,,,,,,,,,,,,,,,3,F,1,18,L,MS,2021_Sep_03_1432,2020.2.10,distractmap1,60.00128402328517,"['Right Face', 'Left Leg', 'Right Arm', 'Right Leg']",
8,"[0, -0.2]",1,,,,,0,7,7,7,,,,,,,,,,,,,,,,,,,,,,None,None,"[0, 0, 0]",982.9924588999711,984.9924922001082,982.9924588999711,983.9924755000975,983.9758186000399,984.9758121001069,"[0, 0, 0]",0,982.9924588999711,984.9924922001082,,,,,,,,,,,,,,,,,3,F,1,18,L,MS,2021_Sep_03_1432,2020.2.10,distractmap1,60.00128402328517,"['Right Face', 'Left Leg', 'Right Arm', 'Right Leg']",
7,"[-0.2, -0.2]",0,,,,,0,8,8,8,,,,,,,,,,,,,,,,,,,,,,None,None,"[0, 0, 0]",985.0091550999787,987.0091743001249,985.0091550999787,986.0091479001567,985.9924848000519,986.9924956001341,"[0, 0, 0]",1,985.0091550999787,987.0091743001249,,,,,,,,,,,,,,,,,3,F,1,18,L,MS,2021_Sep_03_1432,2020.2.10,distractmap1,60.00128402328517,"['Right Face', 'Left Leg', 'Right Arm', 'Right Leg']",
8,"[0, -0.2]",1,,,,,0,9,9,9,,,,,,,,,,,,,,,,,,,,,,None,None,"[0, 0, 0]",987.0257123999763,989.0258486999664,987.0257123999763,988.0258494999725,988.009182699956,989.0090588000603,"[0, 0, 0]",0,987.0257123999763,989.0258486999664,,,,,,,,,,,,,,,,,3,F,1,18,L,MS,2021_Sep_03_1432,2020.2.10,distractmap1,60.00128402328517,"['Right Face', 'Left Leg', 'Right Arm', 'Right Leg']",
,,,,,,,,,,,989.0425311999861,None,,,,,,,,,,,,,,,,,,,,,,,,,,,,,,,,,,,,,,,,,31.790123456790127,952.8982977098785,,,,,,,3,F,1,18,L,MS,2021_Sep_03_1432,2020.2.10,distractmap1,60.00128402328517,"['Right Face', 'Left Leg', 'Right Arm', 'Right Leg']",
2,"[0, 0.2]",None,,,,,0,0,0,0,1004.2426498001441,None,,,,,,,,,,,,,,,,,,,,None,None,"[0, 0, 0]",1009.0926795001142,None,1009.0926795001142,1010.0926993000321,1010.0760087000672,1011.076030000113,"[0, 0, 0]",1,1009.0926795001142,None,,,,,,,,,,,0.014379390282556415,5.011155390180647,,,,,3,F,1,18,L,MS,2021_Sep_03_1432,2020.2.10,distractmap1,60.00128402328517,"['Right Face', 'Left Leg', 'Right Arm', 'Right Leg']",
2,"[0, 0.2]",None,,,,,0,1,1,1,,,,,,,,,,,,,,,,,,,,,,None,None,"[0, 0, 0]",1011.092694299994,1013.0927141001448,1011.092694299994,1012.092701200163,1012.0759517000988,1013.0760482000187,"[0, 0, 0]",1,1011.092694299994,1013.0927141001448,,,,,,,,,,,,,,,,,3,F,1,18,L,MS,2021_Sep_03_1432,2020.2.10,distractmap1,60.00128402328517,"['Right Face', 'Left Leg', 'Right Arm', 'Right Leg']",
2,"[0, 0.2]",1,,,,,0,2,2,2,,,,,,,,,,,,,,,,,,,,,,None,None,"[0, 0, 0]",1013.1093804000411,1015.1093904001173,1013.1093804000411,1014.1093874999788,1014.092703100061,1015.0927439001389,"[0, 0, 0]",1,1013.1093804000411,1015.1093904001173,,,,,,,,,,,,,,,,,3,F,1,18,L,MS,2021_Sep_03_1432,2020.2.10,distractmap1,60.00128402328517,"['Right Face', 'Left Leg', 'Right Arm', 'Right Leg']",
8,"[0, -0.2]",0,,,,,0,3,3,3,,,,,,,,,,,,,,,,,,,,,,None,None,"[0, 0, 0]",1015.1260520999786,1017.126061799936,1015.1260520999786,1016.1260715001263,1016.1094108000398,1017.1094077001326,"[0, 0, 0]",0,1015.1260520999786,1017.126061799936,,,,,,,,,,,,,,,,,3,F,1,18,L,MS,2021_Sep_03_1432,2020.2.10,distractmap1,60.00128402328517,"['Right Face', 'Left Leg', 'Right Arm', 'Right Leg']",
2,"[0, 0.2]",1,,,,,0,4,4,4,,,,,,,,,,,,,,,,,,,,,,None,None,"[0, 0, 0]",1017.1760136999656,None,1017.1760136999656,1018.176084900042,1018.1594144999981,None,"[0, 0, 0]",0,1017.1760136999656,None,,,,,,,,,,,,,,,,,3,F,1,18,L,MS,2021_Sep_03_1432,2020.2.10,distractmap1,60.00128402328517,"['Right Face', 'Left Leg', 'Right Arm', 'Right Leg']",
5,"[0, 0]",0,,,,,0,5,5,5,,,,,,,,,,,,,,,,,,,,,,None,None,"[0, 0, 0]",1019.1594422000926,1021.1594422000926,1019.1594422000926,1020.1594475000165,1020.1427828001324,1021.1427713001613,"[0, 0, 0]",0,1019.1594422000926,1021.1594422000926,,,,,,,,,,,,,,,,,3,F,1,18,L,MS,2021_Sep_03_1432,2020.2.10,distractmap1,60.00128402328517,"['Right Face', 'Left Leg', 'Right Arm', 'Right Leg']",
1,"[-0.2, 0.2]",0,,,,,0,6,6,6,,,,,,,,,,,,,,,,,,,,,,None,None,"[0, 0, 0]",1021.1761086999904,1023.1761245999951,1021.1761086999904,1022.176112400135,1022.1594666000456,1023.1594712999649,"[0, 0, 0]",1,1021.1761086999904,1023.1761245999951,,,,,,,,,,,,,,,,,3,F,1,18,L,MS,2021_Sep_03_1432,2020.2.10,distractmap1,60.00128402328517,"['Right Face', 'Left Leg', 'Right Arm', 'Right Leg']",
1,"[-0.2, 0.2]",0,,,,,0,7,7,7,,,,,,,,,,,,,,,,,,,,,,None,None,"[0, 0, 0]",1023.1928008000832,1025.192796099931,1023.1928008000832,1024.1928070001304,1024.1761177999433,1025.1761275001336,"[0, 0, 0]",1,1023.1928008000832,1025.192796099931,,,,,,,,,,,,,,,,,3,F,1,18,L,MS,2021_Sep_03_1432,2020.2.10,distractmap1,60.00128402328517,"['Right Face', 'Left Leg', 'Right Arm', 'Right Leg']",
6,"[0.2, 0]",0,,,,,0,8,8,8,,,,,,,,,,,,,,,,,,,,,,None,None,"[0, 0, 0]",1025.209480999969,1027.2094978999812,1025.209480999969,1026.2094815999735,1026.1928302000742,1027.1928396001458,"[0, 0, 0]",1,1025.209480999969,1027.2094978999812,,,,,,,,,,,,,,,,,3,F,1,18,L,MS,2021_Sep_03_1432,2020.2.10,distractmap1,60.00128402328517,"['Right Face', 'Left Leg', 'Right Arm', 'Right Leg']",
1,"[-0.2, 0.2]",1,,,,,0,9,9,9,,,,,,,,,,,,,,,,,,,,,,None,None,"[0, 0, 0]",1027.2261509001255,1029.2261669000145,1027.2261509001255,1028.2261552000418,1028.209503600141,1029.209500900004,"[0, 0, 0]",0,1027.2261509001255,1029.2261669000145,,,,,,,,,,,,,,,,,3,F,1,18,L,MS,2021_Sep_03_1432,2020.2.10,distractmap1,60.00128402328517,"['Right Face', 'Left Leg', 'Right Arm', 'Right Leg']",
,,,,,,,,,,,1029.2428336001467,None,,,,,,,,,,,,,,,,,,,,,,,,,,,,,,,,,,,,,,,,,23.024691358024693,992.5317143101711,,,,,,,3,F,1,18,L,MS,2021_Sep_03_1432,2020.2.10,distractmap1,60.00128402328517,"['Right Face', 'Left Leg', 'Right Arm', 'Right Leg']",
5,"[0, 0]",None,0,0,0,0,,,,,1330.7786228000186,None,1333.4453161000274,None,1333.4453161000274,1334.445231199963,1334.4286355001386,1335.4286422999576,1,None,None,"[0, 0, 0]",,,1333.4453161000274,None,,,,,,,,,,,,,,,,,,,1085.6266479000915,1085.6266479000915,None,space,222.32297749980353,1085.6266479000915,None,"[0, 0, 0]",,,0.014621489914134145,5.011868390021846,,,,,3,F,1,18,L,MS,2021_Sep_03_1432,2020.2.10,distractmap1,60.00128402328517,"['Right Face', 'Left Leg', 'Right Arm', 'Right Leg']",
5,"[0, 0]",1,0,1,1,1,,,,,,,1335.4453141000122,None,1335.4453141000122,1336.445333900163,1336.4286527000368,1337.4286623999942,1,None,None,"[0, 0, 0]",,,1335.4453141000122,None,,,,,,,,,,,,,,,,,,,,,,,,,,"[0, 0, 0]",,,,,,,,,3,F,1,18,L,MS,2021_Sep_03_1432,2020.2.10,distractmap1,60.00128402328517,"['Right Face', 'Left Leg', 'Right Arm', 'Right Leg']",
4,"[-0.2, 0]",0,0,2,2,2,,,,,,,1337.4453176001552,1337.4453176001552,1337.4453176001552,1338.4453257001005,1338.4286885999609,1339.4286831000354,1,None,None,"[0, 0, 0]",,,1337.4453176001552,1337.4453176001552,,,,,,,,,,,,,,,,,,,,,,,,,,"[0, 0, 0]",,,,,,,,,3,F,1,18,L,MS,2021_Sep_03_1432,2020.2.10,distractmap1,60.00128402328517,"['Right Face', 'Left Leg', 'Right Arm', 'Right Leg']",
2,"[0, 0.2]",0,0,3,3,3,,,,,,,1339.4453555000946,1339.4453555000946,1339.4453555000946,1340.445365499938,1340.4286935001146,1341.428707400104,0,None,None,"[0, 0, 0]",,,1339.4453555000946,1339.4453555000946,,,,,,,,,,,,,,,,,,,,,,,,,,"[0, 0, 0]",,,,,,,,,3,F,1,18,L,MS,2021_Sep_03_1432,2020.2.10,distractmap1,60.00128402328517,"['Right Face', 'Left Leg', 'Right Arm', 'Right Leg']",
6,"[0.2, 0]",0,0,4,4,4,,,,,,,1341.4953775999602,1341.4953775999602,1341.4953775999602,1342.4953860000242,1342.4787084001582,None,1,None,None,"[0, 0, 0]",,,1341.4953775999602,1341.4953775999602,,,,,,,,,,,,,,,,,,,,,,,,,,"[0, 0, 0]",,,,,,,,,3,F,1,18,L,MS,2021_Sep_03_1432,2020.2.10,distractmap1,60.00128402328517,"['Right Face', 'Left Leg', 'Right Arm', 'Right Leg']",
8,"[0, -0.2]",0,0,5,5,5,,,,,,,1343.4620511000976,None,1343.4620511000976,1344.4620616999455,1344.4453869999852,1345.4453954000492,1,None,None,"[0, 0, 0]",,,1343.4620511000976,None,,,,,,,,,,,,,,,,,,,,,,,,,,"[0, 0, 0]",,,,,,,,,3,F,1,18,L,MS,2021_Sep_03_1432,2020.2.10,distractmap1,60.00128402328517,"['Right Face', 'Left Leg', 'Right Arm', 'Right Leg']",
1,"[-0.2, 0.2]",0,0,6,6,6,,,,,,,1345.462065000087,1345.462065000087,1345.462065000087,1346.4620682001114,1346.4454094001558,1347.4454185001086,1,None,None,"[0, 0, 0]",,,1345.462065000087,1345.462065000087,,,,,,,,,,,,,,,,,,,,,,,,,,"[0, 0, 0]",,,,,,,,,3,F,1,18,L,MS,2021_Sep_03_1432,2020.2.10,distractmap1,60.00128402328517,"['Right Face', 'Left Leg', 'Right Arm', 'Right Leg']",
4,"[-0.2, 0]",0,0,7,7,7,,,,,,,1347.4620863001328,1347.4620863001328,1347.4620863001328,1348.4620964999776,1348.445416300092,1349.4454290000722,1,None,None,"[0, 0, 0]",,,1347.4620863001328,1347.4620863001328,,,,,,,,,,,,,,,,,,,,,,,,,,"[0, 0, 0]",,,,,,,,,3,F,1,18,L,MS,2021_Sep_03_1432,2020.2.10,distractmap1,60.00128402328517,"['Right Face', 'Left Leg', 'Right Arm', 'Right Leg']",
8,"[0, -0.2]",0,0,8,8,8,,,,,,,1349.4620910999365,1349.4620910999365,1349.4620910999365,1350.4620972000994,1350.4454389000311,1351.4454401000403,1,None,None,"[0, 0, 0]",,,1349.4620910999365,1349.4620910999365,,,,,,,,,,,,,,,,,,,,,,,,,,"[0, 0, 0]",,,,,,,,,3,F,1,18,L,MS,2021_Sep_03_1432,2020.2.10,distractmap1,60.00128402328517,"['Right Face', 'Left Leg', 'Right Arm', 'Right Leg']",
8,"[0, -0.2]",1,0,9,9,9,,,,,,,1351.4621353000402,1351.4621353000402,1351.4621353000402,1352.4621250999626,1352.445446500089,1353.4454634001013,1,None,None,"[0, 0, 0]",,,1351.4621353000402,1351.4621353000402,,,,,,,,,,,,,,,,,,,,,,,,,,"[0, 0, 0]",,,,,,,,,3,F,1,18,L,MS,2021_Sep_03_1432,2020.2.10,distractmap1,60.00128402328517,"['Right Face', 'Left Leg', 'Right Arm', 'Right Leg']",
,,,,,,,,,,,1353.4621323000174,None,,,,,,,,,,,,,,,,,,,,,,,,,,,,,,,,,,,,,,,,,30.679012345679013,1317.816934010014,,,,,,,3,F,1,18,L,MS,2021_Sep_03_1432,2020.2.10,distractmap1,60.00128402328517,"['Right Face', 'Left Leg', 'Right Arm', 'Right Leg']",
3,"[0.2, 0.2]",None,,,,,0,0,0,0,1368.6455385000445,None,,,,,,,,,,,,,,,,,,,,None,None,"[0, 0, 0]",1373.512291799998,None,1373.512291799998,1374.5123016000725,1374.495624500094,1375.495628700126,"[0, 0, 0]",1,1373.512291799998,None,,,,,,,,,,,0.015370890032500029,5.01315009011887,,,,,3,F,1,18,L,MS,2021_Sep_03_1432,2020.2.10,distractmap1,60.00128402328517,"['Right Face', 'Left Leg', 'Right Arm', 'Right Leg']",
3,"[0.2, 0.2]",None,,,,,0,1,1,1,,,,,,,,,,,,,,,,,,,,,,None,None,"[0, 0, 0]",1375.5122988999356,1377.5123181000818,1375.5122988999356,1376.5123157000635,1376.495657300111,1377.495663800044,"[0, 0, 0]",1,1375.5122988999356,1377.5123181000818,,,,,,,,,,,,,,,,,3,F,1,18,L,MS,2021_Sep_03_1432,2020.2.10,distractmap1,60.00128402328517,"['Right Face', 'Left Leg', 'Right Arm', 'Right Leg']",
5,"[0, 0]",0,,,,,0,2,2,2,,,,,,,,,,,,,,,,,,,,,,None,None,"[0, 0, 0]",1377.5289833999705,1379.528985900106,1377.5289833999705,1378.528983300086,1378.5123389000073,1379.5123348000925,"[0, 0, 0]",1,1377.5289833999705,1379.528985900106,,,,,,,,,,,,,,,,,3,F,1,18,L,MS,2021_Sep_03_1432,2020.2.10,distractmap1,60.00128402328517,"['Right Face', 'Left Leg', 'Right Arm', 'Right Leg']",
1,"[-0.2, 0.2]",0,,,,,0,3,3,3,,,,,,,,,,,,,,,,,,,,,,None,None,"[0, 0, 0]",1379.5456793999765,1381.5456887001637,1379.5456793999765,1380.5456854000222,1380.5290113000665,1381.5290032001212,"[0, 0, 0]",1,1379.5456793999765,1381.5456887001637,,,,,,,,,,,,,,,,,3,F,1,18,L,MS,2021_Sep_03_1432,2020.2.10,distractmap1,60.00128402328517,"['Right Face', 'Left Leg', 'Right Arm', 'Right Leg']",
5,"[0, 0]",1,,,,,0,4,4,4,,,,,,,,,,,,,,,,,,,,,,None,None,"[0, 0, 0]",1381.5957003999501,None,1381.5957003999501,1382.595707200002,1382.5790194999427,None,"[0, 0, 0]",1,1381.5957003999501,None,,,,,,,,,,,,,,,,,3,F,1,18,L,MS,2021_Sep_03_1432,2020.2.10,distractmap1,60.00128402328517,"['Right Face', 'Left Leg', 'Right Arm', 'Right Leg']",
8,"[0, -0.2]",0,,,,,0,5,5,5,,,,,,,,,,,,,,,,,,,,,,None,None,"[0, 0, 0]",1383.5790301000234,1385.5790510999504,1383.5790301000234,1384.579095999943,1384.5624170000665,1385.5623886999674,"[0, 0, 0]",1,1383.5790301000234,1385.5790510999504,,,,,,,,,,,,,,,,,3,F,1,18,L,MS,2021_Sep_03_1432,2020.2.10,distractmap1,60.00128402328517,"['Right Face', 'Left Leg', 'Right Arm', 'Right Leg']",
5,"[0, 0]",1,,,,,0,6,6,6,,,,,,,,,,,,,,,,,,,,,,None,None,"[0, 0, 0]",1385.5957045000978,1387.595721000107,1385.5957045000978,1386.5957247000188,1386.5790619000327,1387.5790794000495,"[0, 0, 0]",0,1385.5957045000978,1387.595721000107,,,,,,,,,,,,,,,,,3,F,1,18,L,MS,2021_Sep_03_1432,2020.2.10,distractmap1,60.00128402328517,"['Right Face', 'Left Leg', 'Right Arm', 'Right Leg']",
7,"[-0.2, -0.2]",0,,,,,0,7,7,7,,,,,,,,,,,,,,,,,,,,,,None,None,"[0, 0, 0]",1387.6124068000354,1389.6124224001542,1387.6124068000354,1388.6124134000856,1388.5957266001496,1389.5957496999763,"[0, 0, 0]",1,1387.6124068000354,1389.6124224001542,,,,,,,,,,,,,,,,,3,F,1,18,L,MS,2021_Sep_03_1432,2020.2.10,distractmap1,60.00128402328517,"['Right Face', 'Left Leg', 'Right Arm', 'Right Leg']",
5,"[0, 0]",1,,,,,0,8,8,8,,,,,,,,,,,,,,,,,,,,,,None,None,"[0, 0, 0]",1389.6957618000451,None,1389.6957618000451,1390.6957706001122,1390.679094000021,None,"[0, 0, 0]",1,1389.6957618000451,None,,,,,,,,,,,,,,,,,3,F,1,18,L,MS,2021_Sep_03_1432,2020.2.10,distractmap1,60.00128402328517,"['Right Face', 'Left Leg', 'Right Arm', 'Right Leg']",
7,"[-0.2, -0.2]",1,,,,,0,9,9,9,,,,,,,,,,,,,,,,,,,,,,None,None,"[0, 0, 0]",1391.6457911001053,1393.6457956000231,1391.6457911001053,1392.6457927001175,1392.629104499938,1393.6291217999533,"[0, 0, 0]",0,1391.6457911001053,1393.6457956000231,,,,,,,,,,,,,,,,,3,F,1,18,L,MS,2021_Sep_03_1432,2020.2.10,distractmap1,60.00128402328517,"['Right Face', 'Left Leg', 'Right Arm', 'Right Leg']",
,,,,,,,,,,,1393.6624412999954,None,,,,,,,,,,,,,,,,,,,,,,,,,,,,,,,,,,,,,,,,,26.111111111111114,1356.8179679100867,,,,,,,3,F,1,18,L,MS,2021_Sep_03_1432,2020.2.10,distractmap1,60.00128402328517,"['Right Face', 'Left Leg', 'Right Arm', 'Right Leg']",
3,"[0.2, 0.2]",None,0,0,0,0,,,,,1408.879249599995,None,1413.729290300049,None,1413.729290300049,1414.729333100142,1414.6959604001604,1415.6959528001025,1,None,None,"[0, 0, 0]",,,1413.729290300049,None,,,,,,,,,,,,,,,,,,,,,,,,,,"[0, 0, 0]",,,0.014644690090790391,5.01169179007411,,,,,3,F,1,18,L,MS,2021_Sep_03_1432,2020.2.10,distractmap1,60.00128402328517,"['Right Face', 'Left Leg', 'Right Arm', 'Right Leg']",
4,"[-0.2, 0]",0,0,1,1,1,,,,,,,1415.7292792999651,None,1415.7292792999651,1416.7293170001358,1416.7126450000796,1417.712645099964,1,None,None,"[0, 0, 0]",,,1415.7292792999651,None,,,,,,,,,,,,,,,,,,,,,,,,,,"[0, 0, 0]",,,,,,,,,3,F,1,18,L,MS,2021_Sep_03_1432,2020.2.10,distractmap1,60.00128402328517,"['Right Face', 'Left Leg', 'Right Arm', 'Right Leg']",
1,"[-0.2, 0.2]",0,0,2,2,2,,,,,,,1417.7292897000443,1417.7292897000443,1417.7292897000443,1418.7293147000019,1418.712645099964,1419.7126714000478,1,None,None,"[0, 0, 0]",,,1417.7292897000443,1417.7292897000443,,,,,,,,,,,,,,,,,,,,,,,,,,"[0, 0, 0]",,,,,,,,,3,F,1,18,L,MS,2021_Sep_03_1432,2020.2.10,distractmap1,60.00128402328517,"['Right Face', 'Left Leg', 'Right Arm', 'Right Leg']",
2,"[0, 0.2]",0,0,3,3,3,,,,,,,1419.7293302000035,1419.7293302000035,1419.7293302000035,1420.729338800069,1420.7126654000022,1421.7126816001255,1,None,None,"[0, 0, 0]",,,1419.7293302000035,1419.7293302000035,,,,,,,,,,,,,,,,,,,,,,,,,,"[0, 0, 0]",,,,,,,,,3,F,1,18,L,MS,2021_Sep_03_1432,2020.2.10,distractmap1,60.00128402328517,"['Right Face', 'Left Leg', 'Right Arm', 'Right Leg']",
2,"[0, 0.2]",1,0,4,4,4,,,,,,,1421.7626875001006,1421.7626875001006,1421.7626875001006,1422.7626877999865,1422.7460128001403,None,1,None,None,"[0, 0, 0]",,,1421.7626875001006,1421.7626875001006,,,,,,,,,,,,,,,,,,,,,,,,,,"[0, 0, 0]",,,,,,,,,3,F,1,18,L,MS,2021_Sep_03_1432,2020.2.10,distractmap1,60.00128402328517,"['Right Face', 'Left Leg', 'Right Arm', 'Right Leg']",
5,"[0, 0]",0,0,5,5,5,,,,,,,1423.7460378999822,None,1423.7460378999822,1424.7460231999867,1424.7293607001193,1425.7293815000448,1,None,None,"[0, 0, 0]",,,1423.7460378999822,None,,,,,,,,,,,,,,,,,,,,,,,,,,"[0, 0, 0]",,,,,,,,,3,F,1,18,L,MS,2021_Sep_03_1432,2020.2.10,distractmap1,60.00128402328517,"['Right Face', 'Left Leg', 'Right Arm', 'Right Leg']",
1,"[-0.2, 0.2]",0,0,6,6,6,,,,,,,1425.746045900043,1425.746045900043,1425.746045900043,1426.7460348999593,1426.7293706999626,1427.7294185000937,0,None,None,"[0, 0, 0]",,,1425.746045900043,1425.746045900043,,,,,,,,,,,,,,,,,,,,,,,,,,"[0, 0, 0]",,,,,,,,,3,F,1,18,L,MS,2021_Sep_03_1432,2020.2.10,distractmap1,60.00128402328517,"['Right Face', 'Left Leg', 'Right Arm', 'Right Leg']",
1,"[-0.2, 0.2]",1,0,7,7,7,,,,,,,1427.7460309001617,1427.7460309001617,1427.7460309001617,1428.7460710001178,1428.729406000115,1429.7294137999415,1,None,None,"[0, 0, 0]",,,1427.7460309001617,1427.7460309001617,,,,,,,,,,,,,,,,,,,,,,,,,,"[0, 0, 0]",,,,,,,,,3,F,1,18,L,MS,2021_Sep_03_1432,2020.2.10,distractmap1,60.00128402328517,"['Right Face', 'Left Leg', 'Right Arm', 'Right Leg']",
8,"[0, -0.2]",0,0,8,8,8,,,,,,,1429.7460644000676,1429.7460644000676,1429.7460644000676,1430.746074100025,1430.7294008000754,1431.729430400068,1,None,None,"[0, 0, 0]",,,1429.7460644000676,1429.7460644000676,,,,,,,,,,,,,,,,,,,,,,,,,,"[0, 0, 0]",,,,,,,,,3,F,1,18,L,MS,2021_Sep_03_1432,2020.2.10,distractmap1,60.00128402328517,"['Right Face', 'Left Leg', 'Right Arm', 'Right Leg']",
7,"[-0.2, -0.2]",0,0,9,9,9,,,,,,,1431.7459828001447,1431.7459828001447,1431.7459828001447,1432.7460903001484,1432.7294352001045,1433.7294370001182,0,None,None,"[0, 0, 0]",,,1431.7459828001447,1431.7459828001447,,,,,,,,,,,,,,,,,,,,,,,,,,"[0, 0, 0]",,,,,,,,,3,F,1,18,L,MS,2021_Sep_03_1432,2020.2.10,distractmap1,60.00128402328517,"['Right Face', 'Left Leg', 'Right Arm', 'Right Leg']",
