	SID	date	sex	session	handedness	scanner	onset	duration	repetition	rating	body_site	keys	temperature	conditionrt	mouseclick	biopac_channel	condition	rt	value
0	2987	2024_Jun_21_1334	f	1	r	SS MRS	2.7741294000297785	5.010108676622622								19	Instructions		
1	2987	2024_Jun_21_1334	f	1	r	SS MRS	9.147274199989624	1.9989644107408822								6	Cue		
2	2987	2024_Jun_21_1334	f	1	r	SS MRS	11.152500699972734	3.9945230700541288								7	Pre-Jitter		
3	2987	2024_Jun_21_1334	f	1	r	SS MRS	15.199019700055942	15.001488780020736			Left Leg		48.0			15	Heat-Stimulation		
4	2987	2024_Jun_21_1334	f	1	r	SS MRS	30.283097099978477	5.00013922015205								8	Mid-Jitter		
5	2987	2024_Jun_21_1334	f	1	r	SS MRS	35.31091430003289	5.011509909993038								20	PainBinary	1.0860531000653282	1.0
6	2987	2024_Jun_21_1334	f	1	r	SS MRS	40.335926500032656	5.011693240026943								21	IntensityRating	2.5694383999798447	68.45679012345678
7	2987	2024_Jun_21_1334	f	1	r	SS MRS	45.3659997000359	5.001664239913225								22	ToleranceRating	1.7170017999596894	-1.0
8	2987	2024_Jun_21_1334	f	1	r	SS MRS	50.37174590001814	5.007024770020507								9	Post-Q-Jitter		
9	2987	2024_Jun_21_1334	f	1	r	SS MRS	56.184148799977265	1.9954918305156752								6	Cue		
10	2987	2024_Jun_21_1334	f	1	r	SS MRS	58.18542520003393	5.996563769993372								7	Pre-Jitter		
11	2987	2024_Jun_21_1334	f	1	r	SS MRS	64.22197990003042	15.006871709949337			Left Leg		47.5			15	Heat-Stimulation		
12	2987	2024_Jun_21_1334	f	1	r	SS MRS	79.31100490002427	9.012183120008558								8	Mid-Jitter		
13	2987	2024_Jun_21_1334	f	1	r	SS MRS	88.33825030003209	5.008171739988029								20	PainBinary	1.0669843999203295	1.0
14	2987	2024_Jun_21_1334	f	1	r	SS MRS	93.37035270000342	5.010773140005767								21	IntensityRating	3.0336743000661954	62.160493827160494
15	2987	2024_Jun_21_1334	f	1	r	SS MRS	98.39990690001287	5.001749939983711								22	ToleranceRating	1.550305200042203	-1.0
16	2987	2024_Jun_21_1334	f	1	r	SS MRS	103.40533640002832	9.007812470081262								9	Post-Q-Jitter		
17	2987	2024_Jun_21_1334	f	1	r	SS MRS	113.15344300004654	2.0085189503151923								6	Cue		
18	2987	2024_Jun_21_1334	f	1	r	SS MRS	115.16874600003939	3.9978784701088443								7	Pre-Jitter		
19	2987	2024_Jun_21_1334	f	1	r	SS MRS	119.20075670001097	15.000482209958136			Left Leg		47.0			15	Heat-Stimulation		
20	2987	2024_Jun_21_1334	f	1	r	SS MRS	134.28153549996205	9.005653020110913								8	Mid-Jitter		
21	2987	2024_Jun_21_1334	f	1	r	SS MRS	143.3046738000121	5.009964840020984								20	PainBinary	1.1169049999443814	1.0
22	2987	2024_Jun_21_1334	f	1	r	SS MRS	148.33683389995713	5.012432839954272								21	IntensityRating	3.9502409999258816	54.50617283950617
23	2987	2024_Jun_21_1334	f	1	r	SS MRS	153.36686840001494	5.002476439927705								22	ToleranceRating	2.050306999939494	-1.0
24	2987	2024_Jun_21_1334	f	1	r	SS MRS	158.37279439996928	9.007526169996709								9	Post-Q-Jitter		
25	2987	2024_Jun_21_1334	f	1	r	SS MRS	168.03244320000522	2.0021991004468873								6	Cue		
26	2987	2024_Jun_21_1334	f	1	r	SS MRS	170.03621920000296	5.99757517001126								7	Pre-Jitter		
27	2987	2024_Jun_21_1334	f	1	r	SS MRS	176.07417749997694	15.005064110038802			Left Leg		46.5			15	Heat-Stimulation		
28	2987	2024_Jun_21_1334	f	1	r	SS MRS	191.16302620002534	7.010768020059913								8	Mid-Jitter		
29	2987	2024_Jun_21_1334	f	1	r	SS MRS	198.18815319996793	5.010995639953762								20	PainBinary	1.2002022999804467	1.0
30	2987	2024_Jun_21_1334	f	1	r	SS MRS	203.22038429998793	4.996631540125236								21	IntensityRating	2.1511147000128403	52.345679012345684
31	2987	2024_Jun_21_1334	f	1	r	SS MRS	208.23517140001059	5.000524939969182								22	ToleranceRating	1.433621900039725	-1.0
32	2987	2024_Jun_21_1334	f	1	r	SS MRS	213.2404975000536	7.006738169933669								9	Post-Q-Jitter		
33	2987	2024_Jun_21_1334	f	1	r	SS MRS	221.06027270003688	2.0137295003514737								6	Cue		
34	2987	2024_Jun_21_1334	f	1	r	SS MRS	223.07092600001488	5.9960935700219125								7	Pre-Jitter		
35	2987	2024_Jun_21_1334	f	1	r	SS MRS	229.11600160005037	15.005968880141154			Left Leg		46.0			15	Heat-Stimulation		
36	2987	2024_Jun_21_1334	f	1	r	SS MRS	244.1965417000465	7.0116477200062945								8	Mid-Jitter		
37	2987	2024_Jun_21_1334	f	1	r	SS MRS	251.22151209996082	4.995481039979495								20	PainBinary	1.0174061000579968	1.0
38	2987	2024_Jun_21_1334	f	1	r	SS MRS	256.23831809998956	5.012009340105578								21	IntensityRating	2.4002380000893027	45.370370370370374
39	2987	2024_Jun_21_1334	f	1	r	SS MRS	261.26947519998066	4.999794940114953								22	ToleranceRating	4.533700300031342	1.0
40	2987	2024_Jun_21_1334	f	1	r	SS MRS	266.2739785000449	7.007674870081246								9	Post-Q-Jitter		
41	2987	2024_Jun_21_1334	f	1	r	SS MRS	274.04293810005765	2.0165921902516857								6	Cue		
42	2987	2024_Jun_21_1334	f	1	r	SS MRS	276.05456009996124	7.996798169915564								7	Pre-Jitter		
43	2987	2024_Jun_21_1334	f	1	r	SS MRS	284.09148319996893	15.00638130994048			Left Leg		46.0			15	Heat-Stimulation		
44	2987	2024_Jun_21_1334	f	1	r	SS MRS	299.1865820999956	6.999576120055281								8	Mid-Jitter		
45	2987	2024_Jun_21_1334	f	1	r	SS MRS	306.20639850001317	5.010396240046248								20	PainBinary	0.9335571000119671	1.0
46	2987	2024_Jun_21_1334	f	1	r	SS MRS	311.23907769995276	5.011819940060377								21	IntensityRating	2.0502299000509083	36.79012345679012
47	2987	2024_Jun_21_1334	f	1	r	SS MRS	316.2697237000102	5.000636740005575								22	ToleranceRating	1.7169667999260128	1.0
48	2987	2024_Jun_21_1334	f	1	r	SS MRS	321.2750484000426	7.006877369945869								9	Post-Q-Jitter		
49	2987	2024_Jun_21_1334	f	1	r	SS MRS	329.07244170003105	2.0087594602955505								6	Cue		
50	2987	2024_Jun_21_1334	f	1	r	SS MRS	331.08854819997214	5.996730069979094								7	Pre-Jitter		
51	2987	2024_Jun_21_1334	f	1	r	SS MRS	337.12614469998516	15.005033710040152			Left Leg		46.0			15	Heat-Stimulation		
52	2987	2024_Jun_21_1334	f	1	r	SS MRS	352.21509950002655	9.010531920008361								8	Mid-Jitter		
53	2987	2024_Jun_21_1334	f	1	r	SS MRS	361.2403499999782	5.010442340164445								20	PainBinary	1.183562200050801	1.0
54	2987	2024_Jun_21_1334	f	1	r	SS MRS	366.2722665000474	5.013432339881547								21	IntensityRating		35.123456790123456
55	2987	2024_Jun_21_1334	f	1	r	SS MRS	371.30321499996353	5.001611040090211								22	ToleranceRating	1.9672585000516847	1.0
56	2987	2024_Jun_21_1334	f	1	r	SS MRS	376.308747000061	9.007424969924614								9	Post-Q-Jitter		
57	2987	2024_Jun_21_1334	f	1	r	SS MRS	385.34729599999264	6.630482710083015								26	ComfortRating	6.585760900052264	-16.419753086419746
58	2987	2024_Jun_21_1334	f	1	r	SS MRS	391.99319019995164	4.238947839941829								24	ValenceRating	4.216922300052829	93.39506172839506
59	2987	2024_Jun_21_1334	f	1	r	SS MRS	396.256377600017	4.879329039948061								26	IntensityRating	4.8365102000534534	100.0
60	2987	2024_Jun_21_1334	f	1	r	SS MRS	401.15685320005286	5.178501939983107								27	AvoidanceRating	5.150292299920693	98.76543209876542
61	2987	2024_Jun_21_1334	f	1	r	SS MRS	406.352360400022	4.970936040044762								28	RelaxationRating	4.950363300042227	32.901234567901234
62	2987	2024_Jun_21_1334	f	1	r	SS MRS	411.33870990003925	5.84835533995647								29	AttentionRating	5.8338131000055	98.51851851851853
63	2987	2024_Jun_21_1334	f	1	r	SS MRS	417.20299909997266	4.536590839968994								30	BoredomRating	4.517070300062187	17.654320987654323
64	2987	2024_Jun_21_1334	f	1	r	SS MRS	421.7550048000412	7.36613793997094								31	AlertnessRating	7.350981600000523	100.0
65	2987	2024_Jun_21_1334	f	1	r	SS MRS	429.1388592000585	1.7484635401051491								32	PosThxRating	1.7336735000135377	0.0
66	2987	2024_Jun_21_1334	f	1	r	SS MRS	430.9048696999671	0.7997445400105789								33	NegThxRating	0.7836370000150055	0.0
67	2987	2024_Jun_21_1334	f	1	r	SS MRS	431.72166489996016	9.716296439990401								34	SelfRating	9.700458399951458	17.037037037037024
68	2987	2024_Jun_21_1334	f	1	r	SS MRS	441.45446559996344	2.550854339962825								35	OtherRating	2.5336931000929326	0.0
69	2987	2024_Jun_21_1334	f	1	r	SS MRS	444.02385989995673	2.7954024400096387								32	ImageryRating	2.766902399947867	0.0
70	2987	2024_Jun_21_1334	f	1	r	SS MRS	446.8407705000136	4.878350340062752								37	PresentRating	4.835975099937059	100.0
