	SID	date	sex	session	handedness	scanner	onset	duration	repetition	rating	body_site	keys	temperature	conditionrt	mouseclick	biopac_channel	condition	rt	value	skin_site
0	3007	2024_Aug_08_2104	f	2	r	SS MRS	2.7743414000142366	5.012190745444968			Left Leg					40	Experience Instruction			3
1	3007	2024_Aug_08_2104	f	2	r	SS MRS	8.03056350001134	9.013439639937133			Left Leg					7	Pre-Trial Jitter			3
2	3007	2024_Aug_08_2104	f	2	r	SS MRS	17.060966199962422	13.002795579843223			Left Leg		48.5			15	Heat-Stimulation			3
3	3007	2024_Aug_08_2104	f	2	r	SS MRS	30.11203690012917	7.00090676988475			Left Leg					8	Post-Trial Jitter			3
4	3007	2024_Aug_08_2104	f	2	r	SS MRS	37.139754300005734	4.995725279906765			Left Leg					20	PainBinary		1.0	3
5	3007	2024_Aug_08_2104	f	2	r	SS MRS	42.15554800000973	4.9975764798000455			Left Leg					21	IntensityRating		62.96296296296296	3
6	3007	2024_Aug_08_2104	f	2	r	SS MRS	47.157478499924764	4.993726989720017			Left Leg					9	Post-Q-Jitter			3
7	3007	2024_Aug_08_2104	f	2	r	SS MRS	52.36768730008043	7.006814860273153			Left Leg					7	Pre-Trial Jitter			3
8	3007	2024_Aug_08_2104	f	2	r	SS MRS	59.43178689992055	13.012144749984145			Left Leg		48.5			15	Heat-Stimulation			3
9	3007	2024_Aug_08_2104	f	2	r	SS MRS	72.47835300001316	7.002599569968879			Left Leg					8	Post-Trial Jitter			3
10	3007	2024_Aug_08_2104	f	2	r	SS MRS	79.50707549997605	4.995398680213839			Left Leg					20	PainBinary		1.0	3
11	3007	2024_Aug_08_2104	f	2	r	SS MRS	84.52198709989898	4.9990200800821185			Left Leg					21	IntensityRating		60.06172839506173	3
12	3007	2024_Aug_08_2104	f	2	r	SS MRS	89.52481530001387	9.01008708984591			Left Leg					9	Post-Q-Jitter			3
13	3007	2024_Aug_08_2104	f	2	r	SS MRS	98.77252219989896	6.998167950194329			Left Leg					7	Pre-Trial Jitter			3
14	3007	2024_Aug_08_2104	f	2	r	SS MRS	105.79818799998611	13.01373737002723			Left Leg		48.5			15	Heat-Stimulation			3
15	3007	2024_Aug_08_2104	f	2	r	SS MRS	118.84472940000705	9.00429626996629			Left Leg					8	Post-Trial Jitter			3
16	3007	2024_Aug_08_2104	f	2	r	SS MRS	127.87496990012005	5.01072528003715			Left Leg					20	PainBinary		1.0	3
17	3007	2024_Aug_08_2104	f	2	r	SS MRS	132.90631989995018	4.998157379915938			Left Leg					21	IntensityRating		57.160493827160494	3
18	3007	2024_Aug_08_2104	f	2	r	SS MRS	137.91007360001095	9.007334289839491			Left Leg					9	Post-Q-Jitter			3
19	3007	2024_Aug_08_2104	f	2	r	SS MRS	147.17379219993018	4.996797840110958			Left Leg					7	Pre-Trial Jitter			3
20	3007	2024_Aug_08_2104	f	2	r	SS MRS	152.2087376001291	12.993741569807753			Left Leg		48.5			15	Heat-Stimulation			3
21	3007	2024_Aug_08_2104	f	2	r	SS MRS	165.24486860004254	7.005055170273408			Left Leg					8	Post-Trial Jitter			3
22	3007	2024_Aug_08_2104	f	2	r	SS MRS	172.2750222000759	5.011672080261633			Left Leg					20	PainBinary		1.0	3
23	3007	2024_Aug_08_2104	f	2	r	SS MRS	177.3073682000395	4.997085680020973			Left Leg					21	IntensityRating		59.19753086419753	3
24	3007	2024_Aug_08_2104	f	2	r	SS MRS	182.309336300008	8.99319858988747			Left Leg					9	Post-Q-Jitter			3
25	3007	2024_Aug_08_2104	f	2	r	SS MRS	191.51229989994317	7.004179369891062			Left Leg					7	Pre-Trial Jitter			3
26	3007	2024_Aug_08_2104	f	2	r	SS MRS	198.5555942999199	13.001068670069799			Left Leg		48.5			15	Heat-Stimulation			3
27	3007	2024_Aug_08_2104	f	2	r	SS MRS	211.5956685000565	9.004536970052868			Left Leg					8	Post-Trial Jitter			3
28	3007	2024_Aug_08_2104	f	2	r	SS MRS	220.62581899994984	5.011176080210134			Left Leg					20	PainBinary		1.0	3
29	3007	2024_Aug_08_2104	f	2	r	SS MRS	225.65752819995396	4.997873180313036			Left Leg					21	IntensityRating		61.72839506172839	3
30	3007	2024_Aug_08_2104	f	2	r	SS MRS	230.66005890001543	5.009469889802858			Left Leg					9	Post-Q-Jitter			3
31	3007	2024_Aug_08_2104	f	2	r	SS MRS	235.89792939997278	5.000566960312426			Left Leg					7	Pre-Trial Jitter			3
32	3007	2024_Aug_08_2104	f	2	r	SS MRS	240.9582664000336	12.996845460031182			Left Leg		48.5			15	Heat-Stimulation			3
33	3007	2024_Aug_08_2104	f	2	r	SS MRS	254.00272949994542	7.008131160167977			Left Leg					8	Post-Trial Jitter			3
34	3007	2024_Aug_08_2104	f	2	r	SS MRS	261.024844000116	4.997383379843086			Left Leg					20	PainBinary		1.0	3
35	3007	2024_Aug_08_2104	f	2	r	SS MRS	266.0416707000695	4.997194780036807			Left Leg					21	IntensityRating		57.46913580246914	3
36	3007	2024_Aug_08_2104	f	2	r	SS MRS	271.0444545999635	5.00828908989206			Left Leg					9	Post-Q-Jitter			3
37	3007	2024_Aug_08_2104	f	2	r	SS MRS	276.2748809000477	6.997607960132882			Left Leg					7	Pre-Trial Jitter			3
38	3007	2024_Aug_08_2104	f	2	r	SS MRS	283.30631759995595	13.001618670066819			Left Leg		48.5			15	Heat-Stimulation			3
39	3007	2024_Aug_08_2104	f	2	r	SS MRS	296.34790510009043	7.002031269716099			Left Leg					8	Post-Trial Jitter			3
40	3007	2024_Aug_08_2104	f	2	r	SS MRS	303.3760089999996	4.9960527799557894			Left Leg					20	PainBinary		1.0	3
41	3007	2024_Aug_08_2104	f	2	r	SS MRS	308.39299950003624	5.012229579966515			Left Leg					21	IntensityRating		58.08641975308642	3
42	3007	2024_Aug_08_2104	f	2	r	SS MRS	313.41104899998754	6.992757390020415			Left Leg					9	Post-Q-Jitter			3
43	3007	2024_Aug_08_2104	f	2	r	SS MRS	320.62058859993704	7.007215860299766			Left Leg					7	Pre-Trial Jitter			3
44	3007	2024_Aug_08_2104	f	2	r	SS MRS	327.6728088001255	13.003012160072103			Left Leg		48.5			15	Heat-Stimulation			3
45	3007	2024_Aug_08_2104	f	2	r	SS MRS	340.71377689996734	7.004650870105252			Left Leg					8	Post-Trial Jitter			3
46	3007	2024_Aug_08_2104	f	2	r	SS MRS	347.74338779994287	5.012254280038178			Left Leg					20	PainBinary		1.0	3
47	3007	2024_Aug_08_2104	f	2	r	SS MRS	352.7761957999319	5.01341248000972			Left Leg					21	IntensityRating		60.49382716049383	3
48	3007	2024_Aug_08_2104	f	2	r	SS MRS	357.7945463000797	7.0101176898460835			Left Leg					9	Post-Q-Jitter			3
49	3007	2024_Aug_08_2104	f	2	r	SS MRS	365.1321859001182	7.001746700145304			Left Leg					7	Pre-Trial Jitter			3
50	3007	2024_Aug_08_2104	f	2	r	SS MRS	372.18617140012793	13.010646060109138			Left Leg		48.5			15	Heat-Stimulation			3
51	3007	2024_Aug_08_2104	f	2	r	SS MRS	385.23200959991664	7.0025219700764865			Left Leg					8	Post-Trial Jitter			3
52	3007	2024_Aug_08_2104	f	2	r	SS MRS	392.2601181000937	5.013216179795563			Left Leg					20	PainBinary		1.0	3
53	3007	2024_Aug_08_2104	f	2	r	SS MRS	397.2923924999777	4.9987929803319275			Left Leg					21	IntensityRating		60.24691358024691	3
54	3007	2024_Aug_08_2104	f	2	r	SS MRS	402.29527279990725	7.009718189947307			Left Leg					9	Post-Q-Jitter			3
55	3007	2024_Aug_08_2104	f	2	r	SS MRS	409.6193317999132	7.011846400098875			Left Leg					7	Pre-Trial Jitter			3
56	3007	2024_Aug_08_2104	f	2	r	SS MRS	416.65928629995324	12.99879656988196			Left Leg		48.5			15	Heat-Stimulation			3
57	3007	2024_Aug_08_2104	f	2	r	SS MRS	429.69765800004825	7.005604170029983			Left Leg					8	Post-Trial Jitter			3
58	3007	2024_Aug_08_2104	f	2	r	SS MRS	436.72827950003557	5.011270779883489			Left Leg					20	PainBinary		1.0	3
59	3007	2024_Aug_08_2104	f	2	r	SS MRS	441.7596782001201	4.9985680798999965			Left Leg					21	IntensityRating		57.654320987654316	3
60	3007	2024_Aug_08_2104	f	2	r	SS MRS	446.76249770005234	9.009653789922595			Left Leg					9	Post-Q-Jitter			3
61	3007	2024_Aug_08_2104	f	2	r	SS MRS	456.1020188999828	7.014201489975676			Left Leg					7	Pre-Trial Jitter			3
62	3007	2024_Aug_08_2104	f	2	r	SS MRS	463.16229939996265	12.993842459982261			Left Leg		48.5			15	Heat-Stimulation			3
63	3007	2024_Aug_08_2104	f	2	r	SS MRS	476.198109399993	9.005802469793707			Left Leg					8	Post-Trial Jitter			3
64	3007	2024_Aug_08_2104	f	2	r	SS MRS	485.2280256000813	4.996235979953781			Left Leg					20	PainBinary		1.0	3
65	3007	2024_Aug_08_2104	f	2	r	SS MRS	490.2435558999423	4.998637680197135			Left Leg					21	IntensityRating		60.617283950617285	3
66	3007	2024_Aug_08_2104	f	2	r	SS MRS	495.24698669998907	7.008447889704257			Left Leg					9	Post-Q-Jitter			3
67	3007	2024_Aug_08_2104	f	2	r	SS MRS	502.5532863000408	5.012726210290566			Left Leg					7	Pre-Trial Jitter			3
68	3007	2024_Aug_08_2104	f	2	r	SS MRS	507.6130458000116	12.99333586008288			Left Leg		48.5			15	Heat-Stimulation			3
69	3007	2024_Aug_08_2104	f	2	r	SS MRS	520.6491984000895	9.004618969978765			Left Leg					8	Post-Trial Jitter			3
70	3007	2024_Aug_08_2104	f	2	r	SS MRS	529.6784117999487	4.996427880367264			Left Leg					20	PainBinary		1.0	3
71	3007	2024_Aug_08_2104	f	2	r	SS MRS	534.6961819999851	5.011019779834896			Left Leg					21	IntensityRating		56.481481481481474	3
72	3007	2024_Aug_08_2104	f	2	r	SS MRS	539.7135115999263	7.009794489946216			Left Leg					9	Post-Q-Jitter			3
73	3007	2024_Aug_08_2104	f	2	r	SS MRS	547.0659096001182	5.005187790142372			Left Leg					7	Pre-Trial Jitter			3
74	3007	2024_Aug_08_2104	f	2	r	SS MRS	552.107246800093	13.00601716991514			Left Leg		48.5			15	Heat-Stimulation			3
75	3007	2024_Aug_08_2104	f	2	r	SS MRS	565.1493019000627	9.005479370011017			Left Leg					8	Post-Trial Jitter			3
76	3007	2024_Aug_08_2104	f	2	r	SS MRS	574.1784063999075	4.997544680023566			Left Leg					20	PainBinary		1.0	3
77	3007	2024_Aug_08_2104	f	2	r	SS MRS	579.194826999912	4.998148079961538			Left Leg					21	IntensityRating		62.03703703703704	3
78	3007	2024_Aug_08_2104	f	2	r	SS MRS	584.1975205999333	9.009487989824265			Left Leg					9	Post-Q-Jitter			3
79	3007	2024_Aug_08_2104	f	2	r	SS MRS	593.5644533000886	5.009157280204818			Left Leg					7	Pre-Trial Jitter			3
80	3007	2024_Aug_08_2104	f	2	r	SS MRS	598.6047833000775	13.01200237008743			Left Leg		48.5			15	Heat-Stimulation			3
81	3007	2024_Aug_08_2104	f	2	r	SS MRS	611.6511224000715	7.00280277011916			Left Leg					8	Post-Trial Jitter			3
82	3007	2024_Aug_08_2104	f	2	r	SS MRS	618.6787453999277	4.997792879818007			Left Leg					20	PainBinary		1.0	3
83	3007	2024_Aug_08_2104	f	2	r	SS MRS	623.695583499968	4.99769938015379			Left Leg					21	IntensityRating		62.40740740740741	3
84	3007	2024_Aug_08_2104	f	2	r	SS MRS	628.6982388999313	7.009140289854258			Left Leg					9	Post-Q-Jitter			3
85	3007	2024_Aug_08_2104	f	2	r	SS MRS	636.0363274000119	7.016536290058866			Left Leg					7	Pre-Trial Jitter			3
86	3007	2024_Aug_08_2104	f	2	r	SS MRS	643.0676593000535	13.003986379830167			Left Leg		48.5			15	Heat-Stimulation			3
87	3007	2024_Aug_08_2104	f	2	r	SS MRS	656.1180785000324	7.003366369986907			Left Leg					8	Post-Trial Jitter			3
88	3007	2024_Aug_08_2104	f	2	r	SS MRS	663.1465292999055	4.996706880163401			Left Leg					20	PainBinary		1.0	3
89	3007	2024_Aug_08_2104	f	2	r	SS MRS	668.1635036000516	5.012881380273029			Left Leg					21	IntensityRating		57.839506172839506	3
90	3007	2024_Aug_08_2104	f	2	r	SS MRS	673.181799300015	5.009633490117267			Left Leg					9	Post-Q-Jitter			3
91	3007	2024_Aug_08_2104	f	2	r	SS MRS	678.5490629000124	7.00864888029173			Left Leg					7	Pre-Trial Jitter			3
92	3007	2024_Aug_08_2104	f	2	r	SS MRS	685.6092564000282	13.005094659980386			Left Leg		48.5			15	Heat-Stimulation			3
93	3007	2024_Aug_08_2104	f	2	r	SS MRS	698.6511228000745	5.004935570061207			Left Leg					8	Post-Trial Jitter			3
94	3007	2024_Aug_08_2104	f	2	r	SS MRS	703.6800758000463	4.9972522801253945			Left Leg					20	PainBinary		1.0	3
95	3007	2024_Aug_08_2104	f	2	r	SS MRS	708.6973955000285	5.012736079981551			Left Leg					21	IntensityRating		61.419753086419746	3
96	3007	2024_Aug_08_2104	f	2	r	SS MRS	713.7155460000504	4.993089789990336			Left Leg					9	Post-Q-Jitter			3
97	3007	2024_Aug_08_2104	f	2	r	SS MRS	718.7388671999797	7.246711669955403			Left Leg					26	ComfortRating	7.216967599932104	-22.222222222222214	3
98	3007	2024_Aug_08_2104	f	2	r	SS MRS	726.0004898000043	3.873607279965654			Left Leg					24	ValenceRating	3.850157900014892	71.48148148148148	3
99	3007	2024_Aug_08_2104	f	2	r	SS MRS	729.8943900000304	2.035869280109182			Left Leg					26	IntensityRating	2.017079600133002	76.04938271604938	3
100	3007	2024_Aug_08_2104	f	2	r	SS MRS	731.9463353001047	2.8320239800959826			Left Leg					27	AvoidanceRating	2.8023651000112295	56.172839506172835	3
101	3007	2024_Aug_08_2104	f	2	r	SS MRS	734.7922680000775	3.206928380066529			Left Leg					28	RelaxationRating	3.184194999979809	36.91358024691358	3
102	3007	2024_Aug_08_2104	f	2	r	SS MRS	738.0149032999761	2.4783627800643444			Left Leg					29	AttentionRating	2.450196099933237	59.75308641975309	3
103	3007	2024_Aug_08_2104	f	2	r	SS MRS	740.5096545999404	1.77223378024064			Left Leg					30	BoredomRating	1.7503860001452267	58.82716049382716	3
104	3007	2024_Aug_08_2104	f	2	r	SS MRS	742.2950750999153	2.851454379968345			Left Leg					31	AlertnessRating	2.8337546999100596	14.444444444444457	3
105	3007	2024_Aug_08_2104	f	2	r	SS MRS	745.1614586000796	2.368767880368978			Left Leg					32	PosThxRating	2.350649200147018	-15.432098765432087	3
106	3007	2024_Aug_08_2104	f	2	r	SS MRS	747.5452298999298	2.051307179965079			Left Leg					33	NegThxRating	2.0337439000140876	18.395061728395063	3
107	3007	2024_Aug_08_2104	f	2	r	SS MRS	749.6111359000206	2.9528995798900723			Left Leg					34	SelfRating	2.933695000130683	35.06172839506175	3
108	3007	2024_Aug_08_2104	f	2	r	SS MRS	752.5807006999385	2.313785480102524			Left Leg					35	OtherRating	2.2835359000600874	-17.77777777777777	3
109	3007	2024_Aug_08_2104	f	2	r	SS MRS	754.9123643001076	6.200436079874635			Left Leg					32	ImageryRating	6.183606900041923	-32.09876543209876	3
110	3007	2024_Aug_08_2104	f	2	r	SS MRS	761.1306352000684	2.7973320800811052			Left Leg					37	PresentRating	2.7838375999126583	39.75308641975312	3
