	SID	date	sex	session	handedness	scanner	onset	duration	repetition	rating	body_site	keys	temperature	conditionrt	mouseclick	biopac_channel	condition	rt	value
0	2532	2023_Jan_10_1252	m	1	r	MS MH	2.774513400159776	5.001724366564304								19	Instructions		
1	2532	2023_Jan_10_1252	m	1	r	MS MH	8.430720200296491	2.0006455997936428								6	Cue		
2	2532	2023_Jan_10_1252	m	1	r	MS MH	10.435284800361842	7.9937030100263655								7	Pre-Jitter		
3	2532	2023_Jan_10_1252	m	1	r	MS MH	18.48730339994654	15.006355740129948			Left Arm		48.0			13	Heat-Stimulation		
4	2532	2023_Jan_10_1252	m	1	r	MS MH	33.58179740002379	9.000834460370243								8	Mid-Jitter		
5	2532	2023_Jan_10_1252	m	1	r	MS MH	42.602537100203335	5.0097366203553975								20	PainBinary	0.0	1.0
6	2532	2023_Jan_10_1252	m	1	r	MS MH	47.635133400093764	5.011413319967687								21	IntensityRating		40.67901234567901
7	2532	2023_Jan_10_1252	m	1	r	MS MH	52.66621350031346	4.999293019995093								22	ToleranceRating	0.0	-1.0
8	2532	2023_Jan_10_1252	m	1	r	MS MH	57.670763600151986	9.007015109993517								9	Post-Q-Jitter		
9	2532	2023_Jan_10_1252	m	1	r	MS MH	67.35675929998979	2.0163078201003373								6	Cue		
10	2532	2023_Jan_10_1252	m	1	r	MS MH	69.36809960007668	5.995928110089153								7	Pre-Jitter		
11	2532	2023_Jan_10_1252	m	1	r	MS MH	75.43455770006403	14.996340550482273			Left Arm		47.5			13	Heat-Stimulation		
12	2532	2023_Jan_10_1252	m	1	r	MS MH	90.51118700020015	5.009882459882647								8	Mid-Jitter		
13	2532	2023_Jan_10_1252	m	1	r	MS MH	95.53769530029967	5.007271719630808								20	PainBinary	0.0	1.0
14	2532	2023_Jan_10_1252	m	1	r	MS MH	100.56847060006112	5.012478420045227								21	IntensityRating	0.0	29.876543209876544
15	2532	2023_Jan_10_1252	m	1	r	MS MH	105.60134100029245	4.996764920651913								22	ToleranceRating	0.0	-1.0
16	2532	2023_Jan_10_1252	m	1	r	MS MH	110.60517380014062	5.005888210143894								9	Post-Q-Jitter		
17	2532	2023_Jan_10_1252	m	1	r	MS MH	116.24973860010505	1.998180689290166								6	Cue		
18	2532	2023_Jan_10_1252	m	1	r	MS MH	118.25110740028322	5.9975320105440915								7	Pre-Jitter		
19	2532	2023_Jan_10_1252	m	1	r	MS MH	124.31210460001603	15.008884149603546			Left Arm		47.0			13	Heat-Stimulation		
20	2532	2023_Jan_10_1252	m	1	r	MS MH	139.39629500033334	7.0073683597147465								8	Mid-Jitter		
21	2532	2023_Jan_10_1252	m	1	r	MS MH	146.42081810021773	5.008651420008391								20	PainBinary	0.0	1.0
22	2532	2023_Jan_10_1252	m	1	r	MS MH	151.45240930002183	5.012206920422614								21	IntensityRating	0.0	29.197530864197528
23	2532	2023_Jan_10_1252	m	1	r	MS MH	156.48299180017784	5.001149720046669								22	ToleranceRating	0.0	-1.0
24	2532	2023_Jan_10_1252	m	1	r	MS MH	161.48867850005627	7.0065890098921955								9	Post-Q-Jitter		
25	2532	2023_Jan_10_1252	m	1	r	MS MH	169.0817061001435	2.0021887603215873								6	Cue		
26	2532	2023_Jan_10_1252	m	1	r	MS MH	171.08557660039514	3.996333110611886								7	Pre-Jitter		
27	2532	2023_Jan_10_1252	m	1	r	MS MH	175.14369729999453	15.013391349930316			Left Arm		46.5			13	Heat-Stimulation		
28	2532	2023_Jan_10_1252	m	1	r	MS MH	190.22935370029882	7.008813759777695								8	Mid-Jitter		
29	2532	2023_Jan_10_1252	m	1	r	MS MH	197.2543542003259	5.009199720341712								20	PainBinary	0.0	1.0
30	2532	2023_Jan_10_1252	m	1	r	MS MH	202.28709610039368	5.01058292016387								21	IntensityRating	0.0	18.765432098765434
31	2532	2023_Jan_10_1252	m	1	r	MS MH	207.31737980013713	5.000116819981486								22	ToleranceRating	0.0	1.0
32	2532	2023_Jan_10_1252	m	1	r	MS MH	212.32247180026025	7.006743409670889								9	Post-Q-Jitter		
33	2532	2023_Jan_10_1252	m	1	r	MS MH	220.69387720013037	2.0096833296120167								6	Cue		
34	2532	2023_Jan_10_1252	m	1	r	MS MH	222.70225850027055	7.997389810159802								7	Pre-Jitter		
35	2532	2023_Jan_10_1252	m	1	r	MS MH	230.75826340029016	15.002105040010065			Left Arm		46.5			13	Heat-Stimulation		
36	2532	2023_Jan_10_1252	m	1	r	MS MH	245.8437408003956	7.014599760528654								8	Mid-Jitter		
37	2532	2023_Jan_10_1252	m	1	r	MS MH	252.87246090034023	5.007505320012569								20	PainBinary	0.0	-1.0
38	2532	2023_Jan_10_1252	m	1	r	MS MH	267.89385620038956	6.999735027551651								9	Post-Q-Jitter		
39	2532	2023_Jan_10_1252	m	1	r	MS MH	276.2779728001915	2.0092995394952595								6	Cue		
40	2532	2023_Jan_10_1252	m	1	r	MS MH	278.28688070038334	7.996004109736532								7	Pre-Jitter		
41	2532	2023_Jan_10_1252	m	1	r	MS MH	286.33416430000216	15.001500340178609			Left Arm		46.5			13	Heat-Stimulation		
42	2532	2023_Jan_10_1252	m	1	r	MS MH	301.4145525000058	9.007517060264945								8	Mid-Jitter		
43	2532	2023_Jan_10_1252	m	1	r	MS MH	310.4391920999624	5.008584319613874								20	PainBinary	0.0	-1.0
44	2532	2023_Jan_10_1252	m	1	r	MS MH	325.46133900014684	8.999309927225113								9	Post-Q-Jitter		
45	2532	2023_Jan_10_1252	m	1	r	MS MH	335.1432690001093	2.015415320638567								6	Cue		
46	2532	2023_Jan_10_1252	m	1	r	MS MH	337.15346920024604	5.9972773105837405								7	Pre-Jitter		
47	2532	2023_Jan_10_1252	m	1	r	MS MH	343.18017100030556	15.010657330043614			Left Arm		46.5			13	Heat-Stimulation		
48	2532	2023_Jan_10_1252	m	1	r	MS MH	358.26378430007026	7.010179560165852								8	Mid-Jitter		
49	2532	2023_Jan_10_1252	m	1	r	MS MH	365.2893056999892	5.009473220445216								20	PainBinary	0.0	-1.0
50	2532	2023_Jan_10_1252	m	1	r	MS MH	380.3120226999745	6.999027727171779								9	Post-Q-Jitter		
51	2532	2023_Jan_10_1252	m	1	r	MS MH	387.34596800012514	5.579971730243415								26	ComfortRating	0.0	74.44444444444446
52	2532	2023_Jan_10_1252	m	1	r	MS MH	392.9425222002901	2.0203378200531006								24	ValenceRating	0.0	73.51851851851853
53	2532	2023_Jan_10_1252	m	1	r	MS MH	394.98562750034034	2.5008910205215216								26	IntensityRating	0.0	80.0
54	2532	2023_Jan_10_1252	m	1	r	MS MH	397.5051267002709	3.511955919675529								27	AvoidanceRating	0.0	45.30864197530863
55	2532	2023_Jan_10_1252	m	1	r	MS MH	401.0341704003513	2.6205623201094568								28	RelaxationRating	0.0	100.0
56	2532	2023_Jan_10_1252	m	1	r	MS MH	403.6720536001958	3.311551420483738								29	AttentionRating	0.0	38.51851851851851
57	2532	2023_Jan_10_1252	m	1	r	MS MH	407.00183900026605	2.968725020531565								30	BoredomRating	0.0	78.64197530864197
58	2532	2023_Jan_10_1252	m	1	r	MS MH	409.9863545000553	2.84981362009421								31	AlertnessRating	0.0	-77.53086419753086
59	2532	2023_Jan_10_1252	m	1	r	MS MH	412.85432170005515	2.94723931979388								32	PosThxRating	0.0	42.71604938271605
60	2532	2023_Jan_10_1252	m	1	r	MS MH	415.82080959994346	2.1475519202649593								33	NegThxRating	0.0	-47.53086419753087
61	2532	2023_Jan_10_1252	m	1	r	MS MH	417.9854744002223	1.584936120081693								34	SelfRating	0.0	61.97530864197532
62	2532	2023_Jan_10_1252	m	1	r	MS MH	419.5860383003019	1.0838404200039804								35	OtherRating	0.0	45.18518518518519
63	2532	2023_Jan_10_1252	m	1	r	MS MH	420.68711100006476	4.015102720353752								32	ImageryRating	0.0	49.25925925925927
64	2532	2023_Jan_10_1252	m	1	r	MS MH	424.72282889997587	1.5603751200251281								37	PresentRating	0.0	-39.87654320987654
