square,location,corrAns,trials.thisRepN,trials.thisTrialN,trials.thisN,trials.thisIndex,trials_2.thisRepN,trials_2.thisTrialN,trials_2.thisN,trials_2.thisIndex,fixation_1.started,fixation_1.stopped,grid_lines.started,grid_lines.stopped,target_square.started,target_square.stopped,fixation_2.started,fixation_2.stopped,response.corr,response.x,response.y,response.leftButton,response.click_left,response.click_right,response.started,response.stopped,ScoreReportText.started,ScoreReportText.stopped,ScoreReportResponse.keys,ScoreReportResponse.started,ScoreReportResponse.stopped,response_2.x,response_2.y,response_2.leftButton,grid_lines_2.started,grid_lines_2.stopped,target_square_2.started,target_square_2.stopped,fixation_3.started,fixation_3.stopped,response_2.click,response_2.corr,response_2.started,response_2.stopped,BodySiteInstructionText.started,BodySiteImg.started,BodySiteImg.stopped,BodySiteInstructionRead.keys,BodySiteInstructionRead.rt,BodySiteInstructionRead.started,BodySiteInstructionRead.stopped,response.click,response.rt_left,response.rt_right,IntensityRating.response,IntensityRating.rt,IntensityRating.started,IntensityRating.stopped,subject number,gender,distractMap first- or second-half (1 or 2),session,handedness,scanner,date,psychopyVersion,expName,frameRate,body_site_order,
6,"[0.2, 0]",None,0,0,0,0,,,,,265.694208699977,None,266.72757939994335,None,266.72757939994335,267.7275977998506,267.7108883999754,None,1,-0.1037037037037037,0.12037037037037036,"[0, 0, 0]",0,0,266.72757939994335,None,,,,,,,,,,,,,,,,,,,,,,,,,,,,,,,,,1,M,,22,r,CIB,2021_Sep_03_1231,2020.2.10,distractmap,60.00157203918752,"['Abdomen', 'Right Leg', 'Right Arm', 'Chest', 'Abdomen', 'Right Leg', 'Left Arm', 'Right Face', 'Left Arm', 'Left Face', 'Right Face', 'Right Arm', 'Chest', 'Left Leg', 'Left Leg', 'Left Face']",
6,"[0.2, 0]",1,0,1,1,1,,,,,,,268.71078259986825,None,268.71078259986825,269.71091889985837,269.6942435000092,270.69424629979767,1,-0.1037037037037037,0.12037037037037036,"[0, 0, 0]",0,0,268.71078259986825,None,,,,,,,,,,,,,,,,,,,,,,,,,,,,,,,,,1,M,,22,r,CIB,2021_Sep_03_1231,2020.2.10,distractmap,60.00157203918752,"['Abdomen', 'Right Leg', 'Right Arm', 'Chest', 'Abdomen', 'Right Leg', 'Left Arm', 'Right Face', 'Left Arm', 'Left Face', 'Right Face', 'Right Arm', 'Chest', 'Left Leg', 'Left Leg', 'Left Face']",
2,"[0, 0.2]",0,0,2,2,2,,,,,,,270.71091189980507,None,270.71091189980507,271.710903899977,271.69426289992407,272.69413949991576,1,-0.1037037037037037,0.12037037037037036,"[0, 0, 0]",0,0,270.71091189980507,None,,,,,,,,,,,,,,,,,,,,,,,,,,,,,,,,,1,M,,22,r,CIB,2021_Sep_03_1231,2020.2.10,distractmap,60.00157203918752,"['Abdomen', 'Right Leg', 'Right Arm', 'Chest', 'Abdomen', 'Right Leg', 'Left Arm', 'Right Face', 'Left Arm', 'Left Face', 'Right Face', 'Right Arm', 'Chest', 'Left Leg', 'Left Leg', 'Left Face']",
9,"[0.2, -0.2]",0,0,3,3,3,,,,,,,272.7109125999268,None,272.7109125999268,273.7109443999361,273.6942694999743,274.6942863999866,0,-0.1037037037037037,0.12037037037037036,"[0, 0, 0]",0,0,272.7109125999268,None,,,,,,,,,,,,,,,,,,,,,,,,,,,,,,,,,1,M,,22,r,CIB,2021_Sep_03_1231,2020.2.10,distractmap,60.00157203918752,"['Abdomen', 'Right Leg', 'Right Arm', 'Chest', 'Abdomen', 'Right Leg', 'Left Arm', 'Right Face', 'Left Arm', 'Left Face', 'Right Face', 'Right Arm', 'Chest', 'Left Leg', 'Left Leg', 'Left Face']",
9,"[0.2, -0.2]",1,0,4,4,4,,,,,,,274.71094509982504,None,274.71094509982504,275.7109611998312,275.69429419981316,276.69428499997593,1,-0.1037037037037037,0.12037037037037036,"[0, 0, 0]",0,0,274.71094509982504,None,,,,,,,,,,,,,,,,,,,,,,,,,,,,,,,,,1,M,,22,r,CIB,2021_Sep_03_1231,2020.2.10,distractmap,60.00157203918752,"['Abdomen', 'Right Leg', 'Right Arm', 'Chest', 'Abdomen', 'Right Leg', 'Left Arm', 'Right Face', 'Left Arm', 'Left Face', 'Right Face', 'Right Arm', 'Chest', 'Left Leg', 'Left Leg', 'Left Face']",
6,"[0.2, 0]",0,0,5,5,5,,,,,,,276.7109516998753,None,276.7109516998753,277.7109777999576,277.6943077999167,278.69429809995927,1,-0.1037037037037037,0.12037037037037036,"[0, 0, 0]",0,0,276.7109516998753,None,,,,,,,,,,,,,,,,,,,,,,,,,,,,,,,,,1,M,,22,r,CIB,2021_Sep_03_1231,2020.2.10,distractmap,60.00157203918752,"['Abdomen', 'Right Leg', 'Right Arm', 'Chest', 'Abdomen', 'Right Leg', 'Left Arm', 'Right Face', 'Left Arm', 'Left Face', 'Right Face', 'Right Arm', 'Chest', 'Left Leg', 'Left Leg', 'Left Face']",
4,"[-0.2, 0]",0,0,6,6,6,,,,,,,278.71096189995296,None,278.71096189995296,279.71098129986785,279.6943106998224,280.69433439988643,1,-0.1037037037037037,0.12037037037037036,"[0, 0, 0]",0,0,278.71096189995296,None,,,,,,,,,,,,,,,,,,,,,,,,,,,,,,,,,1,M,,22,r,CIB,2021_Sep_03_1231,2020.2.10,distractmap,60.00157203918752,"['Abdomen', 'Right Leg', 'Right Arm', 'Chest', 'Abdomen', 'Right Leg', 'Left Arm', 'Right Face', 'Left Arm', 'Left Face', 'Right Face', 'Right Arm', 'Chest', 'Left Leg', 'Left Leg', 'Left Face']",
3,"[0.2, 0.2]",0,0,7,7,7,,,,,,,280.71091019990854,None,280.71091019990854,281.71101760002784,281.69431169983,282.69433539989404,1,-0.1037037037037037,0.12037037037037036,"[0, 0, 0]",0,0,280.71091019990854,None,,,,,,,,,,,,,,,,,,,,,,,,,,,,,,,,,1,M,,22,r,CIB,2021_Sep_03_1231,2020.2.10,distractmap,60.00157203918752,"['Abdomen', 'Right Leg', 'Right Arm', 'Chest', 'Abdomen', 'Right Leg', 'Left Arm', 'Right Face', 'Left Arm', 'Left Face', 'Right Face', 'Right Arm', 'Chest', 'Left Leg', 'Left Leg', 'Left Face']",
3,"[0.2, 0.2]",1,0,8,8,8,,,,,,,282.7109997998923,None,282.7109997998923,283.7110150998924,283.6943408998195,284.6943529997952,1,-0.1037037037037037,0.12037037037037036,"[0, 0, 0]",0,0,282.7109997998923,None,,,,,,,,,,,,,,,,,,,,,,,,,,,,,,,,,1,M,,22,r,CIB,2021_Sep_03_1231,2020.2.10,distractmap,60.00157203918752,"['Abdomen', 'Right Leg', 'Right Arm', 'Chest', 'Abdomen', 'Right Leg', 'Left Arm', 'Right Face', 'Left Arm', 'Left Face', 'Right Face', 'Right Arm', 'Chest', 'Left Leg', 'Left Leg', 'Left Face']",
8,"[0, -0.2]",0,0,9,9,9,,,,,,,284.71100929984823,None,284.71100929984823,285.71102939988486,285.6943840999156,286.69437779998407,1,-0.1037037037037037,0.12037037037037036,"[0, 0, 0]",0,0,284.71100929984823,None,,,,,,,,,,,,,,,,,,,,,,,,,,,,,,,,,1,M,,22,r,CIB,2021_Sep_03_1231,2020.2.10,distractmap,60.00157203918752,"['Abdomen', 'Right Leg', 'Right Arm', 'Chest', 'Abdomen', 'Right Leg', 'Left Arm', 'Right Face', 'Left Arm', 'Left Face', 'Right Face', 'Right Arm', 'Chest', 'Left Leg', 'Left Leg', 'Left Face']",
1,"[-0.2, 0.2]",0,0,10,10,10,,,,,,,286.7110352998134,None,286.7110352998134,287.7110333999153,287.69437859999016,288.69439469999634,1,-0.1037037037037037,0.12037037037037036,"[0, 0, 0]",0,0,286.7110352998134,None,,,,,,,,,,,,,,,,,,,,,,,,,,,,,,,,,1,M,,22,r,CIB,2021_Sep_03_1231,2020.2.10,distractmap,60.00157203918752,"['Abdomen', 'Right Leg', 'Right Arm', 'Chest', 'Abdomen', 'Right Leg', 'Left Arm', 'Right Face', 'Left Arm', 'Left Face', 'Right Face', 'Right Arm', 'Chest', 'Left Leg', 'Left Leg', 'Left Face']",
2,"[0, 0.2]",0,0,11,11,11,,,,,,,288.71104879979976,None,288.71104879979976,289.71106439991854,289.6944112998899,290.6943932999857,1,-0.1037037037037037,0.12037037037037036,"[0, 0, 0]",0,0,288.71104879979976,None,,,,,,,,,,,,,,,,,,,,,,,,,,,,,,,,,1,M,,22,r,CIB,2021_Sep_03_1231,2020.2.10,distractmap,60.00157203918752,"['Abdomen', 'Right Leg', 'Right Arm', 'Chest', 'Abdomen', 'Right Leg', 'Left Arm', 'Right Face', 'Left Arm', 'Left Face', 'Right Face', 'Right Arm', 'Chest', 'Left Leg', 'Left Leg', 'Left Face']",
4,"[-0.2, 0]",0,0,12,12,12,,,,,,,290.71105759986676,None,290.71105759986676,291.7110762000084,291.6944306998048,292.6944019999355,1,-0.1037037037037037,0.12037037037037036,"[0, 0, 0]",0,0,290.71105759986676,None,,,,,,,,,,,,,,,,,,,,,,,,,,,,,,,,,1,M,,22,r,CIB,2021_Sep_03_1231,2020.2.10,distractmap,60.00157203918752,"['Abdomen', 'Right Leg', 'Right Arm', 'Chest', 'Abdomen', 'Right Leg', 'Left Arm', 'Right Face', 'Left Arm', 'Left Face', 'Right Face', 'Right Arm', 'Chest', 'Left Leg', 'Left Leg', 'Left Face']",
4,"[-0.2, 0]",1,0,13,13,13,,,,,,,292.7110818999354,None,292.7110818999354,293.7110682998318,293.6944221998565,294.6944381999783,1,-0.1037037037037037,0.12037037037037036,"[0, 0, 0]",0,0,292.7110818999354,None,,,,,,,,,,,,,,,,,,,,,,,,,,,,,,,,,1,M,,22,r,CIB,2021_Sep_03_1231,2020.2.10,distractmap,60.00157203918752,"['Abdomen', 'Right Leg', 'Right Arm', 'Chest', 'Abdomen', 'Right Leg', 'Left Arm', 'Right Face', 'Left Arm', 'Left Face', 'Right Face', 'Right Arm', 'Chest', 'Left Leg', 'Left Leg', 'Left Face']",
8,"[0, -0.2]",0,0,14,14,14,,,,,,,294.71109689981677,None,294.71109689981677,295.71109099988826,295.6944335999433,296.6944407999981,1,-0.1037037037037037,0.12037037037037036,"[0, 0, 0]",0,0,294.71109689981677,None,,,,,,,,,,,,,,,,,,,,,,,,,,,,,,,,,1,M,,22,r,CIB,2021_Sep_03_1231,2020.2.10,distractmap,60.00157203918752,"['Abdomen', 'Right Leg', 'Right Arm', 'Chest', 'Abdomen', 'Right Leg', 'Left Arm', 'Right Face', 'Left Arm', 'Left Face', 'Right Face', 'Right Arm', 'Chest', 'Left Leg', 'Left Leg', 'Left Face']",
5,"[0, 0]",0,0,15,15,15,,,,,,,296.71109769982286,None,296.71109769982286,297.7111229998991,297.694483499974,298.6944549998734,1,-0.1037037037037037,0.12037037037037036,"[0, 0, 0]",0,0,296.71109769982286,None,,,,,,,,,,,,,,,,,,,,,,,,,,,,,,,,,1,M,,22,r,CIB,2021_Sep_03_1231,2020.2.10,distractmap,60.00157203918752,"['Abdomen', 'Right Leg', 'Right Arm', 'Chest', 'Abdomen', 'Right Leg', 'Left Arm', 'Right Face', 'Left Arm', 'Left Face', 'Right Face', 'Right Arm', 'Chest', 'Left Leg', 'Left Leg', 'Left Face']",
5,"[0, 0]",1,0,16,16,16,,,,,,,298.711113399826,None,298.711113399826,299.7111198999919,299.6944597000256,300.69449239992537,1,-0.1037037037037037,0.12037037037037036,"[0, 0, 0]",0,0,298.711113399826,None,,,,,,,,,,,,,,,,,,,,,,,,,,,,,,,,,1,M,,22,r,CIB,2021_Sep_03_1231,2020.2.10,distractmap,60.00157203918752,"['Abdomen', 'Right Leg', 'Right Arm', 'Chest', 'Abdomen', 'Right Leg', 'Left Arm', 'Right Face', 'Left Arm', 'Left Face', 'Right Face', 'Right Arm', 'Chest', 'Left Leg', 'Left Leg', 'Left Face']",
1,"[-0.2, 0.2]",0,0,17,17,17,,,,,,,300.711151199881,None,300.711151199881,301.7111252998002,301.6944674998522,302.69448959990405,1,-0.1037037037037037,0.12037037037037036,"[0, 0, 0]",0,0,300.711151199881,None,,,,,,,,,,,,,,,,,,,,,,,,,,,,,,,,,1,M,,22,r,CIB,2021_Sep_03_1231,2020.2.10,distractmap,60.00157203918752,"['Abdomen', 'Right Leg', 'Right Arm', 'Chest', 'Abdomen', 'Right Leg', 'Left Arm', 'Right Face', 'Left Arm', 'Left Face', 'Right Face', 'Right Arm', 'Chest', 'Left Leg', 'Left Leg', 'Left Face']",
3,"[0.2, 0.2]",0,0,18,18,18,,,,,,,302.71116209984757,None,302.71116209984757,303.7111653999891,303.69449239992537,304.6945163998753,1,-0.1037037037037037,0.12037037037037036,"[0, 0, 0]",0,0,302.71116209984757,None,,,,,,,,,,,,,,,,,,,,,,,,,,,,,,,,,1,M,,22,r,CIB,2021_Sep_03_1231,2020.2.10,distractmap,60.00157203918752,"['Abdomen', 'Right Leg', 'Right Arm', 'Chest', 'Abdomen', 'Right Leg', 'Left Arm', 'Right Face', 'Left Arm', 'Left Face', 'Right Face', 'Right Arm', 'Chest', 'Left Leg', 'Left Leg', 'Left Face']",
6,"[0.2, 0]",0,0,19,19,19,,,,,,,304.71116059995256,None,304.71116059995256,305.71117309993133,305.6945160999894,306.69454890000634,1,-0.1037037037037037,0.12037037037037036,"[0, 0, 0]",0,0,304.71116059995256,None,,,,,,,,,,,,,,,,,,,,,,,,,,,,,,,,,1,M,,22,r,CIB,2021_Sep_03_1231,2020.2.10,distractmap,60.00157203918752,"['Abdomen', 'Right Leg', 'Right Arm', 'Chest', 'Abdomen', 'Right Leg', 'Left Arm', 'Right Face', 'Left Arm', 'Left Face', 'Right Face', 'Right Arm', 'Chest', 'Left Leg', 'Left Leg', 'Left Face']",
1,"[-0.2, 0.2]",0,0,20,20,20,,,,,,,306.7111627999693,None,306.7111627999693,307.71120659983717,307.69455999997444,308.69452090002596,1,-0.1037037037037037,0.12037037037037036,"[0, 0, 0]",0,0,306.7111627999693,None,,,,,,,,,,,,,,,,,,,,,,,,,,,,,,,,,1,M,,22,r,CIB,2021_Sep_03_1231,2020.2.10,distractmap,60.00157203918752,"['Abdomen', 'Right Leg', 'Right Arm', 'Chest', 'Abdomen', 'Right Leg', 'Left Arm', 'Right Face', 'Left Arm', 'Left Face', 'Right Face', 'Right Arm', 'Chest', 'Left Leg', 'Left Leg', 'Left Face']",
1,"[-0.2, 0.2]",1,0,21,21,21,,,,,,,308.7111821998842,None,308.7111821998842,309.7112145998981,309.6945320998784,310.69456340000033,1,-0.1037037037037037,0.12037037037037036,"[0, 0, 0]",0,0,308.7111821998842,None,,,,,,,,,,,,,,,,,,,,,,,,,,,,,,,,,1,M,,22,r,CIB,2021_Sep_03_1231,2020.2.10,distractmap,60.00157203918752,"['Abdomen', 'Right Leg', 'Right Arm', 'Chest', 'Abdomen', 'Right Leg', 'Left Arm', 'Right Face', 'Left Arm', 'Left Face', 'Right Face', 'Right Arm', 'Chest', 'Left Leg', 'Left Leg', 'Left Face']",
1,"[-0.2, 0.2]",1,0,22,22,22,,,,,,,310.71120539982803,None,310.71120539982803,311.7112360999454,311.69456360000186,312.694599899929,1,-0.1037037037037037,0.12037037037037036,"[0, 0, 0]",0,0,310.71120539982803,None,,,,,,,,,,,,,,,,,,,,,,,,,,,,,,,,,1,M,,22,r,CIB,2021_Sep_03_1231,2020.2.10,distractmap,60.00157203918752,"['Abdomen', 'Right Leg', 'Right Arm', 'Chest', 'Abdomen', 'Right Leg', 'Left Arm', 'Right Face', 'Left Arm', 'Left Face', 'Right Face', 'Right Arm', 'Chest', 'Left Leg', 'Left Leg', 'Left Face']",
3,"[0.2, 0.2]",0,0,23,23,23,,,,,,,312.7110877998639,None,312.7110877998639,313.7112441000063,313.694560599979,314.6945783998817,1,-0.1037037037037037,0.12037037037037036,"[0, 0, 0]",0,0,312.7110877998639,None,,,,,,,,,,,,,,,,,,,,,,,,,,,,,,,,,1,M,,22,r,CIB,2021_Sep_03_1231,2020.2.10,distractmap,60.00157203918752,"['Abdomen', 'Right Leg', 'Right Arm', 'Chest', 'Abdomen', 'Right Leg', 'Left Arm', 'Right Face', 'Left Arm', 'Left Face', 'Right Face', 'Right Arm', 'Chest', 'Left Leg', 'Left Leg', 'Left Face']",
2,"[0, 0.2]",0,0,24,24,24,,,,,,,314.71125219995156,None,314.71125219995156,315.71127349999733,315.6945774999913,316.69458479993045,1,-0.1037037037037037,0.12037037037037036,"[0, 0, 0]",0,0,314.71125219995156,None,,,,,,,,,,,,,,,,,,,,,,,,,,,,,,,,,1,M,,22,r,CIB,2021_Sep_03_1231,2020.2.10,distractmap,60.00157203918752,"['Abdomen', 'Right Leg', 'Right Arm', 'Chest', 'Abdomen', 'Right Leg', 'Left Arm', 'Right Face', 'Left Arm', 'Left Face', 'Right Face', 'Right Arm', 'Chest', 'Left Leg', 'Left Leg', 'Left Face']",
1,"[-0.2, 0.2]",0,0,25,25,25,,,,,,,316.7112481999211,None,316.7112481999211,317.71127779991366,317.69459849991836,318.69461429980583,1,-0.1037037037037037,0.12037037037037036,"[0, 0, 0]",0,0,316.7112481999211,None,,,,,,,,,,,,,,,,,,,,,,,,,,,,,,,,,1,M,,22,r,CIB,2021_Sep_03_1231,2020.2.10,distractmap,60.00157203918752,"['Abdomen', 'Right Leg', 'Right Arm', 'Chest', 'Abdomen', 'Right Leg', 'Left Arm', 'Right Face', 'Left Arm', 'Left Face', 'Right Face', 'Right Arm', 'Chest', 'Left Leg', 'Left Leg', 'Left Face']",
7,"[-0.2, -0.2]",0,0,26,26,26,,,,,,,318.71127289999276,None,318.71127289999276,319.711277899798,319.69461999996565,320.69460109993815,1,-0.1037037037037037,0.12037037037037036,"[0, 0, 0]",0,0,318.71127289999276,None,,,,,,,,,,,,,,,,,,,,,,,,,,,,,,,,,1,M,,22,r,CIB,2021_Sep_03_1231,2020.2.10,distractmap,60.00157203918752,"['Abdomen', 'Right Leg', 'Right Arm', 'Chest', 'Abdomen', 'Right Leg', 'Left Arm', 'Right Face', 'Left Arm', 'Left Face', 'Right Face', 'Right Arm', 'Chest', 'Left Leg', 'Left Leg', 'Left Face']",
7,"[-0.2, -0.2]",1,0,27,27,27,,,,,,,320.7112378999591,None,320.7112378999591,321.71129439980723,321.69462589989416,322.69463339983486,1,-0.1037037037037037,0.12037037037037036,"[0, 0, 0]",0,0,320.7112378999591,None,,,,,,,,,,,,,,,,,,,,,,,,,,,,,,,,,1,M,,22,r,CIB,2021_Sep_03_1231,2020.2.10,distractmap,60.00157203918752,"['Abdomen', 'Right Leg', 'Right Arm', 'Chest', 'Abdomen', 'Right Leg', 'Left Arm', 'Right Face', 'Left Arm', 'Left Face', 'Right Face', 'Right Arm', 'Chest', 'Left Leg', 'Left Leg', 'Left Face']",
2,"[0, 0.2]",0,0,28,28,28,,,,,,,322.7113133999519,None,322.7113133999519,323.7113340999931,323.69467250001617,324.6946435999125,1,-0.1037037037037037,0.12037037037037036,"[0, 0, 0]",0,0,322.7113133999519,None,,,,,,,,,,,,,,,,,,,,,,,,,,,,,,,,,1,M,,22,r,CIB,2021_Sep_03_1231,2020.2.10,distractmap,60.00157203918752,"['Abdomen', 'Right Leg', 'Right Arm', 'Chest', 'Abdomen', 'Right Leg', 'Left Arm', 'Right Face', 'Left Arm', 'Left Face', 'Right Face', 'Right Arm', 'Chest', 'Left Leg', 'Left Leg', 'Left Face']",
6,"[0.2, 0]",0,0,29,29,29,,,,,,,324.71132060000673,None,324.71132060000673,325.71132229990326,325.6946640999522,326.69467330002226,1,-0.1037037037037037,0.12037037037037036,"[0, 0, 0]",0,0,324.71132060000673,None,,,,,,,,,,,,,,,,,,,,,,,,,,,,,,,,,1,M,,22,r,CIB,2021_Sep_03_1231,2020.2.10,distractmap,60.00157203918752,"['Abdomen', 'Right Leg', 'Right Arm', 'Chest', 'Abdomen', 'Right Leg', 'Left Arm', 'Right Face', 'Left Arm', 'Left Face', 'Right Face', 'Right Arm', 'Chest', 'Left Leg', 'Left Leg', 'Left Face']",
,,,,,,,,,,,,,,,,,,,,,,,,,,,326.7279991998803,None,space,326.7279991998803,None,,,,,,,,,,,,,,,,,,,,,,,,,,,,1,M,,22,r,CIB,2021_Sep_03_1231,2020.2.10,distractmap,60.00157203918752,"['Abdomen', 'Right Leg', 'Right Arm', 'Chest', 'Abdomen', 'Right Leg', 'Left Arm', 'Right Face', 'Left Arm', 'Left Face', 'Right Face', 'Right Arm', 'Chest', 'Left Leg', 'Left Leg', 'Left Face']",
6,"[0.2, 0]",None,,,,,0,0,0,0,382.77846780000255,None,,,,,,,,,,,,,,,,,,,,None,None,"[0, 0, 0]",383.7949758998584,None,383.7949758998584,384.7951051997952,384.7784357999917,385.7784553999081,"[0, 0, 0]",1,383.7949758998584,None,,,,,,,,,,,,,,,1,M,,22,r,CIB,2021_Sep_03_1231,2020.2.10,distractmap,60.00157203918752,"['Abdomen', 'Right Leg', 'Right Arm', 'Chest', 'Abdomen', 'Right Leg', 'Left Arm', 'Right Face', 'Left Arm', 'Left Face', 'Right Face', 'Right Arm', 'Chest', 'Left Leg', 'Left Leg', 'Left Face']",
7,"[-0.2, -0.2]",None,,,,,0,1,1,1,,,,,,,,,,,,,,,,,,,,,,None,None,"[0, 0, 0]",385.79510489990935,387.79513829993084,385.79510489990935,386.7951183998957,386.77845899993554,387.7784861999098,"[0, 0, 0]",1,385.79510489990935,387.79513829993084,,,,,,,,,,,,,,,1,M,,22,r,CIB,2021_Sep_03_1231,2020.2.10,distractmap,60.00157203918752,"['Abdomen', 'Right Leg', 'Right Arm', 'Chest', 'Abdomen', 'Right Leg', 'Left Arm', 'Right Face', 'Left Arm', 'Left Face', 'Right Face', 'Right Arm', 'Chest', 'Left Leg', 'Left Leg', 'Left Face']",
6,"[0.2, 0]",1,,,,,0,2,2,2,,,,,,,,,,,,,,,,,,,,,,None,None,"[0, 0, 0]",387.81179900001734,389.811796199996,387.81179900001734,388.81180389993824,388.79512189980596,389.7951417998411,"[0, 0, 0]",1,387.81179900001734,389.811796199996,,,,,,,,,,,,,,,1,M,,22,r,CIB,2021_Sep_03_1231,2020.2.10,distractmap,60.00157203918752,"['Abdomen', 'Right Leg', 'Right Arm', 'Chest', 'Abdomen', 'Right Leg', 'Left Arm', 'Right Face', 'Left Arm', 'Left Face', 'Right Face', 'Right Arm', 'Chest', 'Left Leg', 'Left Leg', 'Left Face']",
2,"[0, 0.2]",0,,,,,0,3,3,3,,,,,,,,,,,,,,,,,,,,,,None,None,"[0, 0, 0]",389.8284944999032,391.82847730000503,389.8284944999032,390.82849069987424,390.8118431000039,391.8118722999934,"[0, 0, 0]",1,389.8284944999032,391.82847730000503,,,,,,,,,,,,,,,1,M,,22,r,CIB,2021_Sep_03_1231,2020.2.10,distractmap,60.00157203918752,"['Abdomen', 'Right Leg', 'Right Arm', 'Chest', 'Abdomen', 'Right Leg', 'Left Arm', 'Right Face', 'Left Arm', 'Left Face', 'Right Face', 'Right Arm', 'Chest', 'Left Leg', 'Left Leg', 'Left Face']",
5,"[0, 0]",0,,,,,0,4,4,4,,,,,,,,,,,,,,,,,,,,,,None,None,"[0, 0, 0]",391.84515989990905,393.8451659998391,391.84515989990905,392.8451566998847,392.82822649995796,393.8285155999474,"[0, 0, 0]",1,391.84515989990905,393.8451659998391,,,,,,,,,,,,,,,1,M,,22,r,CIB,2021_Sep_03_1231,2020.2.10,distractmap,60.00157203918752,"['Abdomen', 'Right Leg', 'Right Arm', 'Chest', 'Abdomen', 'Right Leg', 'Left Arm', 'Right Face', 'Left Arm', 'Left Face', 'Right Face', 'Right Arm', 'Chest', 'Left Leg', 'Left Leg', 'Left Face']",
4,"[-0.2, 0]",0,,,,,0,5,5,5,,,,,,,,,,,,,,,,,,,,,,None,None,"[0, 0, 0]",393.8618218000047,395.8618731999304,393.8618218000047,394.8618552000262,394.84513219981454,395.8451721998863,"[0, 0, 0]",1,393.8618218000047,395.8618731999304,,,,,,,,,,,,,,,1,M,,22,r,CIB,2021_Sep_03_1231,2020.2.10,distractmap,60.00157203918752,"['Abdomen', 'Right Leg', 'Right Arm', 'Chest', 'Abdomen', 'Right Leg', 'Left Arm', 'Right Face', 'Left Arm', 'Left Face', 'Right Face', 'Right Arm', 'Chest', 'Left Leg', 'Left Leg', 'Left Face']",
4,"[-0.2, 0]",0,,,,,0,6,6,6,,,,,,,,,,,,,,,,,,,,,,None,None,"[0, 0, 0]",395.87852339982055,397.8785402998328,395.87852339982055,396.87854149984196,396.8618542999029,397.86185289989226,"[0, 0, 0]",1,395.87852339982055,397.8785402998328,,,,,,,,,,,,,,,1,M,,22,r,CIB,2021_Sep_03_1231,2020.2.10,distractmap,60.00157203918752,"['Abdomen', 'Right Leg', 'Right Arm', 'Chest', 'Abdomen', 'Right Leg', 'Left Arm', 'Right Face', 'Left Arm', 'Left Face', 'Right Face', 'Right Arm', 'Chest', 'Left Leg', 'Left Leg', 'Left Face']",
7,"[-0.2, -0.2]",0,,,,,0,7,7,7,,,,,,,,,,,,,,,,,,,,,,None,None,"[0, 0, 0]",397.89520869986154,399.8952072998509,397.89520869986154,398.8952219998464,398.878559499979,399.878522799816,"[0, 0, 0]",1,397.89520869986154,399.8952072998509,,,,,,,,,,,,,,,1,M,,22,r,CIB,2021_Sep_03_1231,2020.2.10,distractmap,60.00157203918752,"['Abdomen', 'Right Leg', 'Right Arm', 'Chest', 'Abdomen', 'Right Leg', 'Left Arm', 'Right Face', 'Left Arm', 'Left Face', 'Right Face', 'Right Arm', 'Chest', 'Left Leg', 'Left Leg', 'Left Face']",
4,"[-0.2, 0]",1,,,,,0,8,8,8,,,,,,,,,,,,,,,,,,,,,,None,None,"[0, 0, 0]",399.9118832999375,401.9119209998753,399.9118832999375,400.9118841998279,400.89521649992093,401.89524500002153,"[0, 0, 0]",1,399.9118832999375,401.9119209998753,,,,,,,,,,,,,,,1,M,,22,r,CIB,2021_Sep_03_1231,2020.2.10,distractmap,60.00157203918752,"['Abdomen', 'Right Leg', 'Right Arm', 'Chest', 'Abdomen', 'Right Leg', 'Left Arm', 'Right Face', 'Left Arm', 'Left Face', 'Right Face', 'Right Arm', 'Chest', 'Left Leg', 'Left Leg', 'Left Face']",
3,"[0.2, 0.2]",0,,,,,0,9,9,9,,,,,,,,,,,,,,,,,,,,,,None,None,"[0, 0, 0]",401.92858699988574,403.92857509991154,401.92858699988574,402.9285974998493,402.91189549979754,403.9119113998022,"[0, 0, 0]",1,401.92858699988574,403.92857509991154,,,,,,,,,,,,,,,1,M,,22,r,CIB,2021_Sep_03_1231,2020.2.10,distractmap,60.00157203918752,"['Abdomen', 'Right Leg', 'Right Arm', 'Chest', 'Abdomen', 'Right Leg', 'Left Arm', 'Right Face', 'Left Arm', 'Left Face', 'Right Face', 'Right Arm', 'Chest', 'Left Leg', 'Left Leg', 'Left Face']",
5,"[0, 0]",0,,,,,0,10,10,10,,,,,,,,,,,,,,,,,,,,,,None,None,"[0, 0, 0]",403.9452148999553,405.94526469986886,403.9452148999553,404.9452503998764,404.9285899999086,405.928566099843,"[0, 0, 0]",1,403.9452148999553,405.94526469986886,,,,,,,,,,,,,,,1,M,,22,r,CIB,2021_Sep_03_1231,2020.2.10,distractmap,60.00157203918752,"['Abdomen', 'Right Leg', 'Right Arm', 'Chest', 'Abdomen', 'Right Leg', 'Left Arm', 'Right Face', 'Left Arm', 'Left Face', 'Right Face', 'Right Arm', 'Chest', 'Left Leg', 'Left Leg', 'Left Face']",
3,"[0.2, 0.2]",1,,,,,0,11,11,11,,,,,,,,,,,,,,,,,,,,,,None,None,"[0, 0, 0]",405.96192719996907,407.961936699925,405.96192719996907,406.9619328000117,406.9452633999754,407.945270499913,"[0, 0, 0]",1,405.96192719996907,407.961936699925,,,,,,,,,,,,,,,1,M,,22,r,CIB,2021_Sep_03_1231,2020.2.10,distractmap,60.00157203918752,"['Abdomen', 'Right Leg', 'Right Arm', 'Chest', 'Abdomen', 'Right Leg', 'Left Arm', 'Right Face', 'Left Arm', 'Left Face', 'Right Face', 'Right Arm', 'Chest', 'Left Leg', 'Left Leg', 'Left Face']",
1,"[-0.2, 0.2]",0,,,,,0,12,12,12,,,,,,,,,,,,,,,,,,,,,,None,None,"[0, 0, 0]",407.97860029991716,409.97862599999644,407.97860029991716,408.9786205999553,408.96196059999056,409.96194659988396,"[0, 0, 0]",1,407.97860029991716,409.97862599999644,,,,,,,,,,,,,,,1,M,,22,r,CIB,2021_Sep_03_1231,2020.2.10,distractmap,60.00157203918752,"['Abdomen', 'Right Leg', 'Right Arm', 'Chest', 'Abdomen', 'Right Leg', 'Left Arm', 'Right Face', 'Left Arm', 'Left Face', 'Right Face', 'Right Arm', 'Chest', 'Left Leg', 'Left Leg', 'Left Face']",
9,"[0.2, -0.2]",0,,,,,0,13,13,13,,,,,,,,,,,,,,,,,,,,,,None,None,"[0, 0, 0]",409.9953063998837,411.99530289997347,409.9953063998837,410.99530810001306,410.9786304999143,411.9786317998078,"[0, 0, 0]",1,409.9953063998837,411.99530289997347,,,,,,,,,,,,,,,1,M,,22,r,CIB,2021_Sep_03_1231,2020.2.10,distractmap,60.00157203918752,"['Abdomen', 'Right Leg', 'Right Arm', 'Chest', 'Abdomen', 'Right Leg', 'Left Arm', 'Right Face', 'Left Arm', 'Left Face', 'Right Face', 'Right Arm', 'Chest', 'Left Leg', 'Left Leg', 'Left Face']",
9,"[0.2, -0.2]",0,,,,,0,14,14,14,,,,,,,,,,,,,,,,,,,,,,None,None,"[0, 0, 0]",412.01196019980125,414.01199699984863,412.01196019980125,413.01199409994297,412.99532440002076,413.99530939990655,"[0, 0, 0]",1,412.01196019980125,414.01199699984863,,,,,,,,,,,,,,,1,M,,22,r,CIB,2021_Sep_03_1231,2020.2.10,distractmap,60.00157203918752,"['Abdomen', 'Right Leg', 'Right Arm', 'Chest', 'Abdomen', 'Right Leg', 'Left Arm', 'Right Face', 'Left Arm', 'Left Face', 'Right Face', 'Right Arm', 'Chest', 'Left Leg', 'Left Leg', 'Left Face']",
8,"[0, -0.2]",0,,,,,0,15,15,15,,,,,,,,,,,,,,,,,,,,,,None,None,"[0, 0, 0]",414.0286254999228,416.0286659998819,414.0286254999228,415.0286585998256,415.0119936999399,416.01201509987004,"[0, 0, 0]",1,414.0286254999228,416.0286659998819,,,,,,,,,,,,,,,1,M,,22,r,CIB,2021_Sep_03_1231,2020.2.10,distractmap,60.00157203918752,"['Abdomen', 'Right Leg', 'Right Arm', 'Chest', 'Abdomen', 'Right Leg', 'Left Arm', 'Right Face', 'Left Arm', 'Left Face', 'Right Face', 'Right Arm', 'Chest', 'Left Leg', 'Left Leg', 'Left Face']",
6,"[0.2, 0]",0,,,,,0,16,16,16,,,,,,,,,,,,,,,,,,,,,,None,None,"[0, 0, 0]",416.04532939987257,418.04533909983,416.04532939987257,417.04535299981944,417.02869029995054,418.02868300001137,"[0, 0, 0]",1,416.04532939987257,418.04533909983,,,,,,,,,,,,,,,1,M,,22,r,CIB,2021_Sep_03_1231,2020.2.10,distractmap,60.00157203918752,"['Abdomen', 'Right Leg', 'Right Arm', 'Chest', 'Abdomen', 'Right Leg', 'Left Arm', 'Right Face', 'Left Arm', 'Left Face', 'Right Face', 'Right Arm', 'Chest', 'Left Leg', 'Left Leg', 'Left Face']",
3,"[0.2, 0.2]",0,,,,,0,17,17,17,,,,,,,,,,,,,,,,,,,,,,None,None,"[0, 0, 0]",418.0620791998226,420.0620281000156,418.0620791998226,419.0620261998847,419.04535819985904,420.045389899984,"[0, 0, 0]",1,418.0620791998226,420.0620281000156,,,,,,,,,,,,,,,1,M,,22,r,CIB,2021_Sep_03_1231,2020.2.10,distractmap,60.00157203918752,"['Abdomen', 'Right Leg', 'Right Arm', 'Chest', 'Abdomen', 'Right Leg', 'Left Arm', 'Right Face', 'Left Arm', 'Left Face', 'Right Face', 'Right Arm', 'Chest', 'Left Leg', 'Left Leg', 'Left Face']",
6,"[0.2, 0]",1,,,,,0,18,18,18,,,,,,,,,,,,,,,,,,,,,,None,None,"[0, 0, 0]",420.0785896999296,422.0787072998937,420.0785896999296,421.07870880002156,421.0620466999244,422.06204599980265,"[0, 0, 0]",1,420.0785896999296,422.0787072998937,,,,,,,,,,,,,,,1,M,,22,r,CIB,2021_Sep_03_1231,2020.2.10,distractmap,60.00157203918752,"['Abdomen', 'Right Leg', 'Right Arm', 'Chest', 'Abdomen', 'Right Leg', 'Left Arm', 'Right Face', 'Left Arm', 'Left Face', 'Right Face', 'Right Arm', 'Chest', 'Left Leg', 'Left Leg', 'Left Face']",
5,"[0, 0]",0,,,,,0,19,19,19,,,,,,,,,,,,,,,,,,,,,,None,None,"[0, 0, 0]",422.0953795998357,424.095394999953,422.0953795998357,423.09539219993167,423.0787235000171,424.0787300998345,"[0, 0, 0]",1,422.0953795998357,424.095394999953,,,,,,,,,,,,,,,1,M,,22,r,CIB,2021_Sep_03_1231,2020.2.10,distractmap,60.00157203918752,"['Abdomen', 'Right Leg', 'Right Arm', 'Chest', 'Abdomen', 'Right Leg', 'Left Arm', 'Right Face', 'Left Arm', 'Left Face', 'Right Face', 'Right Arm', 'Chest', 'Left Leg', 'Left Leg', 'Left Face']",
7,"[-0.2, -0.2]",0,,,,,0,20,20,20,,,,,,,,,,,,,,,,,,,,,,None,None,"[0, 0, 0]",424.1120620998554,426.112076099962,424.1120620998554,425.1120847999118,425.0954354000278,426.09542899997905,"[0, 0, 0]",1,424.1120620998554,426.112076099962,,,,,,,,,,,,,,,1,M,,22,r,CIB,2021_Sep_03_1231,2020.2.10,distractmap,60.00157203918752,"['Abdomen', 'Right Leg', 'Right Arm', 'Chest', 'Abdomen', 'Right Leg', 'Left Arm', 'Right Face', 'Left Arm', 'Left Face', 'Right Face', 'Right Arm', 'Chest', 'Left Leg', 'Left Leg', 'Left Face']",
5,"[0, 0]",1,,,,,0,21,21,21,,,,,,,,,,,,,,,,,,,,,,None,None,"[0, 0, 0]",426.1287592998706,428.1287595999893,426.1287592998706,427.1287491999101,427.1120758999605,428.1121037998237,"[0, 0, 0]",1,426.1287592998706,428.1287595999893,,,,,,,,,,,,,,,1,M,,22,r,CIB,2021_Sep_03_1231,2020.2.10,distractmap,60.00157203918752,"['Abdomen', 'Right Leg', 'Right Arm', 'Chest', 'Abdomen', 'Right Leg', 'Left Arm', 'Right Face', 'Left Arm', 'Left Face', 'Right Face', 'Right Arm', 'Chest', 'Left Leg', 'Left Leg', 'Left Face']",
1,"[-0.2, 0.2]",0,,,,,0,22,22,22,,,,,,,,,,,,,,,,,,,,,,None,None,"[0, 0, 0]",428.14547049999237,430.14546949998476,428.14547049999237,429.1454491999466,429.12877979991026,430.1287777000107,"[0, 0, 0]",1,428.14547049999237,430.14546949998476,,,,,,,,,,,,,,,1,M,,22,r,CIB,2021_Sep_03_1231,2020.2.10,distractmap,60.00157203918752,"['Abdomen', 'Right Leg', 'Right Arm', 'Chest', 'Abdomen', 'Right Leg', 'Left Arm', 'Right Face', 'Left Arm', 'Left Face', 'Right Face', 'Right Arm', 'Chest', 'Left Leg', 'Left Leg', 'Left Face']",
7,"[-0.2, -0.2]",0,,,,,0,23,23,23,,,,,,,,,,,,,,,,,,,,,,None,None,"[0, 0, 0]",430.1620979998261,432.16213199985214,430.1620979998261,431.1621126998216,431.14546039979905,432.1454693998676,"[0, 0, 0]",1,430.1620979998261,432.16213199985214,,,,,,,,,,,,,,,1,M,,22,r,CIB,2021_Sep_03_1231,2020.2.10,distractmap,60.00157203918752,"['Abdomen', 'Right Leg', 'Right Arm', 'Chest', 'Abdomen', 'Right Leg', 'Left Arm', 'Right Face', 'Left Arm', 'Left Face', 'Right Face', 'Right Arm', 'Chest', 'Left Leg', 'Left Leg', 'Left Face']",
9,"[0.2, -0.2]",0,,,,,0,24,24,24,,,,,,,,,,,,,,,,,,,,,,None,None,"[0, 0, 0]",432.17879549995996,434.1788108998444,432.17879549995996,433.1788136998657,433.16212320001796,434.1621341998689,"[0, 0, 0]",1,432.17879549995996,434.1788108998444,,,,,,,,,,,,,,,1,M,,22,r,CIB,2021_Sep_03_1231,2020.2.10,distractmap,60.00157203918752,"['Abdomen', 'Right Leg', 'Right Arm', 'Chest', 'Abdomen', 'Right Leg', 'Left Arm', 'Right Face', 'Left Arm', 'Left Face', 'Right Face', 'Right Arm', 'Chest', 'Left Leg', 'Left Leg', 'Left Face']",
3,"[0.2, 0.2]",0,,,,,0,25,25,25,,,,,,,,,,,,,,,,,,,,,,None,None,"[0, 0, 0]",434.1954710998107,436.1955022998154,434.1954710998107,435.1954665000085,435.1788009000011,436.17884089984,"[0, 0, 0]",1,434.1954710998107,436.1955022998154,,,,,,,,,,,,,,,1,M,,22,r,CIB,2021_Sep_03_1231,2020.2.10,distractmap,60.00157203918752,"['Abdomen', 'Right Leg', 'Right Arm', 'Chest', 'Abdomen', 'Right Leg', 'Left Arm', 'Right Face', 'Left Arm', 'Left Face', 'Right Face', 'Right Arm', 'Chest', 'Left Leg', 'Left Leg', 'Left Face']",
9,"[0.2, -0.2]",1,,,,,0,26,26,26,,,,,,,,,,,,,,,,,,,,,,None,None,"[0, 0, 0]",436.2121641000267,438.2121686998289,436.2121641000267,437.21215799986385,437.19550249981694,438.1955180999357,"[0, 0, 0]",1,436.2121641000267,438.2121686998289,,,,,,,,,,,,,,,1,M,,22,r,CIB,2021_Sep_03_1231,2020.2.10,distractmap,60.00157203918752,"['Abdomen', 'Right Leg', 'Right Arm', 'Chest', 'Abdomen', 'Right Leg', 'Left Arm', 'Right Face', 'Left Arm', 'Left Face', 'Right Face', 'Right Arm', 'Chest', 'Left Leg', 'Left Leg', 'Left Face']",
6,"[0.2, 0]",0,,,,,0,27,27,27,,,,,,,,,,,,,,,,,,,,,,None,None,"[0, 0, 0]",438.22883109981194,440.22885439987294,438.22883109981194,439.22883469983935,439.2121833998244,440.2121875998564,"[0, 0, 0]",1,438.22883109981194,440.22885439987294,,,,,,,,,,,,,,,1,M,,22,r,CIB,2021_Sep_03_1231,2020.2.10,distractmap,60.00157203918752,"['Abdomen', 'Right Leg', 'Right Arm', 'Chest', 'Abdomen', 'Right Leg', 'Left Arm', 'Right Face', 'Left Arm', 'Left Face', 'Right Face', 'Right Arm', 'Chest', 'Left Leg', 'Left Leg', 'Left Face']",
2,"[0, 0.2]",0,,,,,0,28,28,28,,,,,,,,,,,,,,,,,,,,,,None,None,"[0, 0, 0]",440.24551349994726,442.24558159988374,440.24551349994726,441.2455299999565,441.2287750998512,442.22886679996736,"[0, 0, 0]",1,440.24551349994726,442.24558159988374,,,,,,,,,,,,,,,1,M,,22,r,CIB,2021_Sep_03_1231,2020.2.10,distractmap,60.00157203918752,"['Abdomen', 'Right Leg', 'Right Arm', 'Chest', 'Abdomen', 'Right Leg', 'Left Arm', 'Right Face', 'Left Arm', 'Left Face', 'Right Face', 'Right Arm', 'Chest', 'Left Leg', 'Left Leg', 'Left Face']",
5,"[0, 0]",0,,,,,0,29,29,29,,,,,,,,,,,,,,,,,,,,,,None,None,"[0, 0, 0]",442.26218919991516,444.2622179999016,442.26218919991516,443.2622218998149,443.2455485998653,444.2455607999582,"[0, 0, 0]",1,442.26218919991516,444.2622179999016,,,,,,,,,,,,,,,1,M,,22,r,CIB,2021_Sep_03_1231,2020.2.10,distractmap,60.00157203918752,"['Abdomen', 'Right Leg', 'Right Arm', 'Chest', 'Abdomen', 'Right Leg', 'Left Arm', 'Right Face', 'Left Arm', 'Left Face', 'Right Face', 'Right Arm', 'Chest', 'Left Leg', 'Left Leg', 'Left Face']",
,,,,,,,,,,,,,,,,,,,,,,,,,,,444.2955481999088,None,space,444.2955481999088,None,,,,,,,,,,,,,,,,,,,,,,,,,,,,1,M,,22,r,CIB,2021_Sep_03_1231,2020.2.10,distractmap,60.00157203918752,"['Abdomen', 'Right Leg', 'Right Arm', 'Chest', 'Abdomen', 'Right Leg', 'Left Arm', 'Right Face', 'Left Arm', 'Left Face', 'Right Face', 'Right Arm', 'Chest', 'Left Leg', 'Left Leg', 'Left Face']",
5,"[0, 0]",None,0,0,0,0,,,,,622.5641274999361,None,624.4636058998294,None,624.4636058998294,625.4635960999876,625.4302628999576,626.4303160000127,1,None,None,"[0, 0, 0]",,,624.4636058998294,None,,,,,,,,,,,,,,,,,,,482.7294406997971,482.7294406997971,None,space,90.83862240007147,482.7294406997971,None,"[0, 0, 0]",,,,,,,1,M,,22,r,CIB,2021_Sep_03_1231,2020.2.10,distractmap,60.00157203918752,"['Abdomen', 'Right Leg', 'Right Arm', 'Chest', 'Abdomen', 'Right Leg', 'Left Arm', 'Right Face', 'Left Arm', 'Left Face', 'Right Face', 'Right Arm', 'Chest', 'Left Leg', 'Left Leg', 'Left Face']",
5,"[0, 0]",1,0,1,1,1,,,,,,,626.4469365999103,None,626.4469365999103,627.4464344999287,627.430276399944,628.4303049999289,1,None,None,"[0, 0, 0]",,,626.4469365999103,None,,,,,,,,,,,,,,,,,,,,,,,,,,"[0, 0, 0]",,,,,,,1,M,,22,r,CIB,2021_Sep_03_1231,2020.2.10,distractmap,60.00157203918752,"['Abdomen', 'Right Leg', 'Right Arm', 'Chest', 'Abdomen', 'Right Leg', 'Left Arm', 'Right Face', 'Left Arm', 'Left Face', 'Right Face', 'Right Arm', 'Chest', 'Left Leg', 'Left Leg', 'Left Face']",
4,"[-0.2, 0]",0,0,2,2,2,,,,,,,628.446832299931,628.446832299931,628.446832299931,629.4469570999499,629.4302834998816,630.4302943998482,1,None,None,"[0, 0, 0]",,,628.446832299931,628.446832299931,,,,,,,,,,,,,,,,,,,,,,,,,,"[0, 0, 0]",,,,,,,1,M,,22,r,CIB,2021_Sep_03_1231,2020.2.10,distractmap,60.00157203918752,"['Abdomen', 'Right Leg', 'Right Arm', 'Chest', 'Abdomen', 'Right Leg', 'Left Arm', 'Right Face', 'Left Arm', 'Left Face', 'Right Face', 'Right Arm', 'Chest', 'Left Leg', 'Left Leg', 'Left Face']",
2,"[0, 0.2]",0,0,3,3,3,,,,,,,630.4469031000044,630.4469031000044,630.4469031000044,631.4469816999044,631.430311899865,632.4303427999839,1,None,None,"[0, 0, 0]",,,630.4469031000044,630.4469031000044,,,,,,,,,,,,,,,,,,,,,,,,,,"[0, 0, 0]",,,,,,,1,M,,22,r,CIB,2021_Sep_03_1231,2020.2.10,distractmap,60.00157203918752,"['Abdomen', 'Right Leg', 'Right Arm', 'Chest', 'Abdomen', 'Right Leg', 'Left Arm', 'Right Face', 'Left Arm', 'Left Face', 'Right Face', 'Right Arm', 'Chest', 'Left Leg', 'Left Leg', 'Left Face']",
6,"[0.2, 0]",0,0,4,4,4,,,,,,,632.4968228000216,632.4968228000216,632.4968228000216,633.4969946998172,633.480320799863,None,1,None,None,"[0, 0, 0]",,,632.4968228000216,632.4968228000216,,,,,,,,,,,,,,,,,,,,,,,,,,"[0, 0, 0]",,,,,,,1,M,,22,r,CIB,2021_Sep_03_1231,2020.2.10,distractmap,60.00157203918752,"['Abdomen', 'Right Leg', 'Right Arm', 'Chest', 'Abdomen', 'Right Leg', 'Left Arm', 'Right Face', 'Left Arm', 'Left Face', 'Right Face', 'Right Arm', 'Chest', 'Left Leg', 'Left Leg', 'Left Face']",
8,"[0, -0.2]",0,0,5,5,5,,,,,,,634.4636703999713,None,634.4636703999713,635.4636676998343,635.447006699862,636.4470006998163,1,None,None,"[0, 0, 0]",,,634.4636703999713,None,,,,,,,,,,,,,,,,,,,,,,,,,,"[0, 0, 0]",,,,,,,1,M,,22,r,CIB,2021_Sep_03_1231,2020.2.10,distractmap,60.00157203918752,"['Abdomen', 'Right Leg', 'Right Arm', 'Chest', 'Abdomen', 'Right Leg', 'Left Arm', 'Right Face', 'Left Arm', 'Left Face', 'Right Face', 'Right Arm', 'Chest', 'Left Leg', 'Left Leg', 'Left Face']",
1,"[-0.2, 0.2]",0,0,6,6,6,,,,,,,636.4636737999972,636.4636737999972,636.4636737999972,637.4636875998694,637.4470292998012,638.4470265000127,1,None,None,"[0, 0, 0]",,,636.4636737999972,636.4636737999972,,,,,,,,,,,,,,,,,,,,,,,,,,"[0, 0, 0]",,,,,,,1,M,,22,r,CIB,2021_Sep_03_1231,2020.2.10,distractmap,60.00157203918752,"['Abdomen', 'Right Leg', 'Right Arm', 'Chest', 'Abdomen', 'Right Leg', 'Left Arm', 'Right Face', 'Left Arm', 'Left Face', 'Right Face', 'Right Arm', 'Chest', 'Left Leg', 'Left Leg', 'Left Face']",
4,"[-0.2, 0]",0,0,7,7,7,,,,,,,638.4636941999197,638.4636941999197,638.4636941999197,639.4637121998239,639.447034999961,640.4470462999307,1,None,None,"[0, 0, 0]",,,638.4636941999197,638.4636941999197,,,,,,,,,,,,,,,,,,,,,,,,,,"[0, 0, 0]",,,,,,,1,M,,22,r,CIB,2021_Sep_03_1231,2020.2.10,distractmap,60.00157203918752,"['Abdomen', 'Right Leg', 'Right Arm', 'Chest', 'Abdomen', 'Right Leg', 'Left Arm', 'Right Face', 'Left Arm', 'Left Face', 'Right Face', 'Right Arm', 'Chest', 'Left Leg', 'Left Leg', 'Left Face']",
8,"[0, -0.2]",0,0,8,8,8,,,,,,,640.4637172999792,640.4637172999792,640.4637172999792,641.4637215000112,641.4470465998165,642.447060499806,1,None,None,"[0, 0, 0]",,,640.4637172999792,640.4637172999792,,,,,,,,,,,,,,,,,,,,,,,,,,"[0, 0, 0]",,,,,,,1,M,,22,r,CIB,2021_Sep_03_1231,2020.2.10,distractmap,60.00157203918752,"['Abdomen', 'Right Leg', 'Right Arm', 'Chest', 'Abdomen', 'Right Leg', 'Left Arm', 'Right Face', 'Left Arm', 'Left Face', 'Right Face', 'Right Arm', 'Chest', 'Left Leg', 'Left Leg', 'Left Face']",
8,"[0, -0.2]",1,0,9,9,9,,,,,,,642.4637323999777,642.4637323999777,642.4637323999777,643.4637434999458,643.4470801998395,644.4470714998897,1,None,None,"[1, 0, 0]",,,642.4637323999777,642.4637323999777,,,,,,,,,,,,,,,,,,,,,,,,,,"[1, 0, 0]",1.8965670999605209,0.0,,,,,1,M,,22,r,CIB,2021_Sep_03_1231,2020.2.10,distractmap,60.00157203918752,"['Abdomen', 'Right Leg', 'Right Arm', 'Chest', 'Abdomen', 'Right Leg', 'Left Arm', 'Right Face', 'Left Arm', 'Left Face', 'Right Face', 'Right Arm', 'Chest', 'Left Leg', 'Left Leg', 'Left Face']",
,,,,,,,,,,,644.4637334998697,None,,,,,,,,,,,,,,,,,,,,,,,,,,,,,,,,,,,,,,,,,,,23.271604938271608,622.2976911601145,,,1,M,,22,r,CIB,2021_Sep_03_1231,2020.2.10,distractmap,60.00157203918752,"['Abdomen', 'Right Leg', 'Right Arm', 'Chest', 'Abdomen', 'Right Leg', 'Left Arm', 'Right Face', 'Left Arm', 'Left Face', 'Right Face', 'Right Arm', 'Chest', 'Left Leg', 'Left Leg', 'Left Face']",
3,"[0.2, 0.2]",None,0,0,0,0,,,,,660.6641071999911,None,664.5139080998488,None,664.5139080998488,665.5139037999325,665.4972312999889,666.4972534999251,1,None,None,"[0, 0, 0]",,,664.5139080998488,None,,,,,,,,,,,,,,,,,,,,,,,,,,"[0, 0, 0]",,,,,0.015176239889115095,5.012578439898789,1,M,,22,r,CIB,2021_Sep_03_1231,2020.2.10,distractmap,60.00157203918752,"['Abdomen', 'Right Leg', 'Right Arm', 'Chest', 'Abdomen', 'Right Leg', 'Left Arm', 'Right Face', 'Left Arm', 'Left Face', 'Right Face', 'Right Arm', 'Chest', 'Left Leg', 'Left Leg', 'Left Face']",
4,"[-0.2, 0]",0,0,1,1,1,,,,,,,666.5139158000238,None,666.5139158000238,667.5139103999827,667.4972407999448,668.4972651000135,1,None,None,"[0, 0, 0]",,,666.5139158000238,None,,,,,,,,,,,,,,,,,,,,,,,,,,"[0, 0, 0]",,,,,,,1,M,,22,r,CIB,2021_Sep_03_1231,2020.2.10,distractmap,60.00157203918752,"['Abdomen', 'Right Leg', 'Right Arm', 'Chest', 'Abdomen', 'Right Leg', 'Left Arm', 'Right Face', 'Left Arm', 'Left Face', 'Right Face', 'Right Arm', 'Chest', 'Left Leg', 'Left Leg', 'Left Face']",
1,"[-0.2, 0.2]",0,0,2,2,2,,,,,,,668.5139238999691,668.5139238999691,668.5139238999691,669.5139410998672,669.4971491999459,670.4972796998918,1,None,None,"[0, 0, 0]",,,668.5139238999691,668.5139238999691,,,,,,,,,,,,,,,,,,,,,,,,,,"[0, 0, 0]",,,,,,,1,M,,22,r,CIB,2021_Sep_03_1231,2020.2.10,distractmap,60.00157203918752,"['Abdomen', 'Right Leg', 'Right Arm', 'Chest', 'Abdomen', 'Right Leg', 'Left Arm', 'Right Face', 'Left Arm', 'Left Face', 'Right Face', 'Right Arm', 'Chest', 'Left Leg', 'Left Leg', 'Left Face']",
2,"[0, 0.2]",0,0,3,3,3,,,,,,,670.5138699000236,670.5138699000236,670.5138699000236,671.5139509998262,671.4972777999938,672.4972864999436,1,None,None,"[0, 0, 0]",,,670.5138699000236,670.5138699000236,,,,,,,,,,,,,,,,,,,,,,,,,,"[0, 0, 0]",,,,,,,1,M,,22,r,CIB,2021_Sep_03_1231,2020.2.10,distractmap,60.00157203918752,"['Abdomen', 'Right Leg', 'Right Arm', 'Chest', 'Abdomen', 'Right Leg', 'Left Arm', 'Right Face', 'Left Arm', 'Left Face', 'Right Face', 'Right Arm', 'Chest', 'Left Leg', 'Left Leg', 'Left Face']",
2,"[0, 0.2]",1,0,4,4,4,,,,,,,672.5476130999159,672.5476130999159,672.5476130999159,673.5473505000118,673.530624799896,None,1,None,None,"[0, 0, 0]",,,672.5476130999159,672.5476130999159,,,,,,,,,,,,,,,,,,,,,,,,,,"[0, 0, 0]",,,,,,,1,M,,22,r,CIB,2021_Sep_03_1231,2020.2.10,distractmap,60.00157203918752,"['Abdomen', 'Right Leg', 'Right Arm', 'Chest', 'Abdomen', 'Right Leg', 'Left Arm', 'Right Face', 'Left Arm', 'Left Face', 'Right Face', 'Right Arm', 'Chest', 'Left Leg', 'Left Leg', 'Left Face']",
5,"[0, 0]",0,0,5,5,5,,,,,,,674.5306299999356,None,674.5306299999356,675.5306584998034,675.5139863998629,676.5140003999695,1,None,None,"[0, 0, 0]",,,674.5306299999356,None,,,,,,,,,,,,,,,,,,,,,,,,,,"[0, 0, 0]",,,,,,,1,M,,22,r,CIB,2021_Sep_03_1231,2020.2.10,distractmap,60.00157203918752,"['Abdomen', 'Right Leg', 'Right Arm', 'Chest', 'Abdomen', 'Right Leg', 'Left Arm', 'Right Face', 'Left Arm', 'Left Face', 'Right Face', 'Right Arm', 'Chest', 'Left Leg', 'Left Leg', 'Left Face']",
1,"[-0.2, 0.2]",0,0,6,6,6,,,,,,,676.5306130999234,676.5306130999234,676.5306130999234,677.5306578997988,677.5142985000275,678.5140022998676,1,None,None,"[0, 0, 0]",,,676.5306130999234,676.5306130999234,,,,,,,,,,,,,,,,,,,,,,,,,,"[0, 0, 0]",,,,,,,1,M,,22,r,CIB,2021_Sep_03_1231,2020.2.10,distractmap,60.00157203918752,"['Abdomen', 'Right Leg', 'Right Arm', 'Chest', 'Abdomen', 'Right Leg', 'Left Arm', 'Right Face', 'Left Arm', 'Left Face', 'Right Face', 'Right Arm', 'Chest', 'Left Leg', 'Left Leg', 'Left Face']",
1,"[-0.2, 0.2]",1,0,7,7,7,,,,,,,678.5306731997989,678.5306731997989,678.5306731997989,679.5306698998902,679.5140038998798,680.5140930998605,1,None,None,"[0, 0, 0]",,,678.5306731997989,678.5306731997989,,,,,,,,,,,,,,,,,,,,,,,,,,"[0, 0, 0]",,,,,,,1,M,,22,r,CIB,2021_Sep_03_1231,2020.2.10,distractmap,60.00157203918752,"['Abdomen', 'Right Leg', 'Right Arm', 'Chest', 'Abdomen', 'Right Leg', 'Left Arm', 'Right Face', 'Left Arm', 'Left Face', 'Right Face', 'Right Arm', 'Chest', 'Left Leg', 'Left Leg', 'Left Face']",
8,"[0, -0.2]",0,0,8,8,8,,,,,,,680.5306947999634,680.5306947999634,680.5306947999634,681.5307047998067,681.5140205000062,682.5140621999744,1,None,None,"[0, 0, 0]",,,680.5306947999634,680.5306947999634,,,,,,,,,,,,,,,,,,,,,,,,,,"[0, 0, 0]",,,,,,,1,M,,22,r,CIB,2021_Sep_03_1231,2020.2.10,distractmap,60.00157203918752,"['Abdomen', 'Right Leg', 'Right Arm', 'Chest', 'Abdomen', 'Right Leg', 'Left Arm', 'Right Face', 'Left Arm', 'Left Face', 'Right Face', 'Right Arm', 'Chest', 'Left Leg', 'Left Leg', 'Left Face']",
7,"[-0.2, -0.2]",0,0,9,9,9,,,,,,,682.5307028000243,682.5307028000243,682.5307028000243,683.5307010998949,683.5140421998221,684.5140452999622,1,None,None,"[0, 0, 0]",,,682.5307028000243,682.5307028000243,,,,,,,,,,,,,,,,,,,,,,,,,,"[0, 0, 0]",,,,,,,1,M,,22,r,CIB,2021_Sep_03_1231,2020.2.10,distractmap,60.00157203918752,"['Abdomen', 'Right Leg', 'Right Arm', 'Chest', 'Abdomen', 'Right Leg', 'Left Arm', 'Right Face', 'Left Arm', 'Left Face', 'Right Face', 'Right Arm', 'Chest', 'Left Leg', 'Left Leg', 'Left Face']",
,,,,,,,,,,,684.530712199863,None,,,,,,,,,,,,,,,,,,,,,,,,,,,,,,,,,,,,,,,,,,,22.962962962962962,661.4313259602059,,,1,M,,22,r,CIB,2021_Sep_03_1231,2020.2.10,distractmap,60.00157203918752,"['Abdomen', 'Right Leg', 'Right Arm', 'Chest', 'Abdomen', 'Right Leg', 'Left Arm', 'Right Face', 'Left Arm', 'Left Face', 'Right Face', 'Right Arm', 'Chest', 'Left Leg', 'Left Leg', 'Left Face']",
3,"[0.2, 0.2]",None,,,,,0,0,0,0,700.6643562000245,None,,,,,,,,,,,,,,,,,,,,None,None,"[0, 0, 0]",704.5975455997977,None,704.5975455997977,705.597551099956,705.5808675999288,706.5808983999304,"[0, 0, 0]",1,704.5975455997977,None,,,,,,,,,,,,,0.01518733985722065,5.012763439910486,1,M,,22,r,CIB,2021_Sep_03_1231,2020.2.10,distractmap,60.00157203918752,"['Abdomen', 'Right Leg', 'Right Arm', 'Chest', 'Abdomen', 'Right Leg', 'Left Arm', 'Right Face', 'Left Arm', 'Left Face', 'Right Face', 'Right Arm', 'Chest', 'Left Leg', 'Left Leg', 'Left Face']",
3,"[0.2, 0.2]",None,,,,,0,1,1,1,,,,,,,,,,,,,,,,,,,,,,None,None,"[0, 0, 0]",706.5975426998921,708.597566299839,706.5975426998921,707.5975770999212,707.5809171998408,708.5808900999837,"[0, 0, 0]",1,706.5975426998921,708.597566299839,,,,,,,,,,,,,,,1,M,,22,r,CIB,2021_Sep_03_1231,2020.2.10,distractmap,60.00157203918752,"['Abdomen', 'Right Leg', 'Right Arm', 'Chest', 'Abdomen', 'Right Leg', 'Left Arm', 'Right Face', 'Left Arm', 'Left Face', 'Right Face', 'Right Arm', 'Chest', 'Left Leg', 'Left Leg', 'Left Face']",
5,"[0, 0]",0,,,,,0,2,2,2,,,,,,,,,,,,,,,,,,,,,,None,None,"[0, 0, 0]",708.6142413998023,710.6142409997992,708.6142413998023,709.6142323999666,709.5975688998587,710.5975829998497,"[0, 0, 0]",1,708.6142413998023,710.6142409997992,,,,,,,,,,,,,,,1,M,,22,r,CIB,2021_Sep_03_1231,2020.2.10,distractmap,60.00157203918752,"['Abdomen', 'Right Leg', 'Right Arm', 'Chest', 'Abdomen', 'Right Leg', 'Left Arm', 'Right Face', 'Left Arm', 'Left Face', 'Right Face', 'Right Arm', 'Chest', 'Left Leg', 'Left Leg', 'Left Face']",
1,"[-0.2, 0.2]",0,,,,,0,3,3,3,,,,,,,,,,,,,,,,,,,,,,None,None,"[0, 0, 0]",710.6309587999713,712.6309294998646,710.6309587999713,711.6309210998006,711.61426689988,712.6142761998344,"[0, 0, 0]",0,710.6309587999713,712.6309294998646,,,,,,,,,,,,,,,1,M,,22,r,CIB,2021_Sep_03_1231,2020.2.10,distractmap,60.00157203918752,"['Abdomen', 'Right Leg', 'Right Arm', 'Chest', 'Abdomen', 'Right Leg', 'Left Arm', 'Right Face', 'Left Arm', 'Left Face', 'Right Face', 'Right Arm', 'Chest', 'Left Leg', 'Left Leg', 'Left Face']",
5,"[0, 0]",1,,,,,0,4,4,4,,,,,,,,,,,,,,,,,,,,,,None,None,"[0, 0, 0]",712.6643234000076,None,712.6643234000076,713.6642684999388,713.6476529999636,714.6475883999374,"[0, 0, 0]",1,712.6643234000076,None,,,,,,,,,,,,,,,1,M,,22,r,CIB,2021_Sep_03_1231,2020.2.10,distractmap,60.00157203918752,"['Abdomen', 'Right Leg', 'Right Arm', 'Chest', 'Abdomen', 'Right Leg', 'Left Arm', 'Right Face', 'Left Arm', 'Left Face', 'Right Face', 'Right Arm', 'Chest', 'Left Leg', 'Left Leg', 'Left Face']",
8,"[0, -0.2]",0,,,,,0,5,5,5,,,,,,,,,,,,,,,,,,,,,,None,None,"[0, 0, 0]",714.6642922000028,716.6642981998157,714.6642922000028,715.6643038999755,715.647618399933,716.6476280000061,"[0, 0, 0]",1,714.6642922000028,716.6642981998157,,,,,,,,,,,,,,,1,M,,22,r,CIB,2021_Sep_03_1231,2020.2.10,distractmap,60.00157203918752,"['Abdomen', 'Right Leg', 'Right Arm', 'Chest', 'Abdomen', 'Right Leg', 'Left Arm', 'Right Face', 'Left Arm', 'Left Face', 'Right Face', 'Right Arm', 'Chest', 'Left Leg', 'Left Leg', 'Left Face']",
5,"[0, 0]",1,,,,,0,6,6,6,,,,,,,,,,,,,,,,,,,,,,None,None,"[0, 0, 0]",716.6809711998794,718.6809743000194,716.6809711998794,717.680974900024,717.6643035998568,718.6643101000227,"[0, 0, 0]",1,716.6809711998794,718.6809743000194,,,,,,,,,,,,,,,1,M,,22,r,CIB,2021_Sep_03_1231,2020.2.10,distractmap,60.00157203918752,"['Abdomen', 'Right Leg', 'Right Arm', 'Chest', 'Abdomen', 'Right Leg', 'Left Arm', 'Right Face', 'Left Arm', 'Left Face', 'Right Face', 'Right Arm', 'Chest', 'Left Leg', 'Left Leg', 'Left Face']",
7,"[-0.2, -0.2]",0,,,,,0,7,7,7,,,,,,,,,,,,,,,,,,,,,,None,None,"[0, 0, 0]",718.6976596999448,720.6976650999859,718.6976596999448,719.6976508998778,719.6810023998842,720.6810059999116,"[0, 0, 0]",1,718.6976596999448,720.6976650999859,,,,,,,,,,,,,,,1,M,,22,r,CIB,2021_Sep_03_1231,2020.2.10,distractmap,60.00157203918752,"['Abdomen', 'Right Leg', 'Right Arm', 'Chest', 'Abdomen', 'Right Leg', 'Left Arm', 'Right Face', 'Left Arm', 'Left Face', 'Right Face', 'Right Arm', 'Chest', 'Left Leg', 'Left Leg', 'Left Face']",
5,"[0, 0]",1,,,,,0,8,8,8,,,,,,,,,,,,,,,,,,,,,,None,None,"[0, 0, 0]",720.7143280999735,722.7143528999295,720.7143280999735,721.7143420998473,721.6971489998978,722.697662799852,"[0, 0, 0]",1,720.7143280999735,722.7143528999295,,,,,,,,,,,,,,,1,M,,22,r,CIB,2021_Sep_03_1231,2020.2.10,distractmap,60.00157203918752,"['Abdomen', 'Right Leg', 'Right Arm', 'Chest', 'Abdomen', 'Right Leg', 'Left Arm', 'Right Face', 'Left Arm', 'Left Face', 'Right Face', 'Right Arm', 'Chest', 'Left Leg', 'Left Leg', 'Left Face']",
7,"[-0.2, -0.2]",1,,,,,0,9,9,9,,,,,,,,,,,,,,,,,,,,,,None,None,"[0, 0, 0]",722.731000199914,724.7310301999096,722.731000199914,723.7310321999248,723.7143576999661,724.7143590999767,"[0, 0, 0]",0,722.731000199914,724.7310301999096,,,,,,,,,,,,,,,1,M,,22,r,CIB,2021_Sep_03_1231,2020.2.10,distractmap,60.00157203918752,"['Abdomen', 'Right Leg', 'Right Arm', 'Chest', 'Abdomen', 'Right Leg', 'Left Arm', 'Right Face', 'Left Arm', 'Left Face', 'Right Face', 'Right Arm', 'Chest', 'Left Leg', 'Left Leg', 'Left Face']",
,,,,,,,,,,,724.7476931000128,None,,,,,,,,,,,,,,,,,,,,,,,,,,,,,,,,,,,,,,,,,,,11.111111111111109,702.3650554600172,,,1,M,,22,r,CIB,2021_Sep_03_1231,2020.2.10,distractmap,60.00157203918752,"['Abdomen', 'Right Leg', 'Right Arm', 'Chest', 'Abdomen', 'Right Leg', 'Left Arm', 'Right Face', 'Left Arm', 'Left Face', 'Right Face', 'Right Arm', 'Chest', 'Left Leg', 'Left Leg', 'Left Face']",
6,"[0.2, 0]",None,,,,,0,0,0,0,740.9479749000166,None,,,,,,,,,,,,,,,,,,,,None,None,"[0, 0, 0]",744.7978610999417,None,744.7978610999417,745.797851299867,745.7811799999326,None,"[0, 0, 0]",1,744.7978610999417,None,,,,,,,,,,,,,0.015117039903998375,5.012601139955223,1,M,,22,r,CIB,2021_Sep_03_1231,2020.2.10,distractmap,60.00157203918752,"['Abdomen', 'Right Leg', 'Right Arm', 'Chest', 'Abdomen', 'Right Leg', 'Left Arm', 'Right Face', 'Left Arm', 'Left Face', 'Right Face', 'Right Arm', 'Chest', 'Left Leg', 'Left Leg', 'Left Face']",
1,"[-0.2, 0.2]",None,,,,,0,1,1,1,,,,,,,,,,,,,,,,,,,,,,None,None,"[0, 0, 0]",746.7811970999464,748.7812102998141,746.7811970999464,747.7812105999328,747.7645390999969,748.7644427998457,"[0, 0, 0]",1,746.7811970999464,748.7812102998141,,,,,,,,,,,,,,,1,M,,22,r,CIB,2021_Sep_03_1231,2020.2.10,distractmap,60.00157203918752,"['Abdomen', 'Right Leg', 'Right Arm', 'Chest', 'Abdomen', 'Right Leg', 'Left Arm', 'Right Face', 'Left Arm', 'Left Face', 'Right Face', 'Right Arm', 'Chest', 'Left Leg', 'Left Leg', 'Left Face']",
6,"[0.2, 0]",1,,,,,0,2,2,2,,,,,,,,,,,,,,,,,,,,,,None,None,"[0, 0, 0]",748.7978598999325,750.7979066998232,748.7978598999325,749.7978864999022,749.781220600009,750.7812234999146,"[0, 0, 0]",1,748.7978598999325,750.7979066998232,,,,,,,,,,,,,,,1,M,,22,r,CIB,2021_Sep_03_1231,2020.2.10,distractmap,60.00157203918752,"['Abdomen', 'Right Leg', 'Right Arm', 'Chest', 'Abdomen', 'Right Leg', 'Left Arm', 'Right Face', 'Left Arm', 'Left Face', 'Right Face', 'Right Arm', 'Chest', 'Left Leg', 'Left Leg', 'Left Face']",
4,"[-0.2, 0]",0,,,,,0,3,3,3,,,,,,,,,,,,,,,,,,,,,,None,None,"[0, 0, 0]",750.8145508999005,752.8145847998094,750.8145508999005,751.8145687999204,751.797940999968,752.7979023000225,"[0, 0, 0]",1,750.8145508999005,752.8145847998094,,,,,,,,,,,,,,,1,M,,22,r,CIB,2021_Sep_03_1231,2020.2.10,distractmap,60.00157203918752,"['Abdomen', 'Right Leg', 'Right Arm', 'Chest', 'Abdomen', 'Right Leg', 'Left Arm', 'Right Face', 'Left Arm', 'Left Face', 'Right Face', 'Right Arm', 'Chest', 'Left Leg', 'Left Leg', 'Left Face']",
1,"[-0.2, 0.2]",0,,,,,0,4,4,4,,,,,,,,,,,,,,,,,,,,,,None,None,"[0, 0, 0]",752.8982428999152,None,752.8982428999152,753.8979099998251,753.8812772999518,None,"[0, 0, 0]",1,752.8982428999152,None,,,,,,,,,,,,,,,1,M,,22,r,CIB,2021_Sep_03_1231,2020.2.10,distractmap,60.00157203918752,"['Abdomen', 'Right Leg', 'Right Arm', 'Chest', 'Abdomen', 'Right Leg', 'Left Arm', 'Right Face', 'Left Arm', 'Left Face', 'Right Face', 'Right Arm', 'Chest', 'Left Leg', 'Left Leg', 'Left Face']",
8,"[0, -0.2]",0,,,,,0,5,5,5,,,,,,,,,,,,,,,,,,,,,,None,None,"[0, 0, 0]",754.8479430999141,756.84787089983,754.8479430999141,755.8479306998197,755.8312760998961,756.8312627999112,"[0, 0, 0]",1,754.8479430999141,756.84787089983,,,,,,,,,,,,,,,1,M,,22,r,CIB,2021_Sep_03_1231,2020.2.10,distractmap,60.00157203918752,"['Abdomen', 'Right Leg', 'Right Arm', 'Chest', 'Abdomen', 'Right Leg', 'Left Arm', 'Right Face', 'Left Arm', 'Left Face', 'Right Face', 'Right Arm', 'Chest', 'Left Leg', 'Left Leg', 'Left Face']",
1,"[-0.2, 0.2]",1,,,,,0,6,6,6,,,,,,,,,,,,,,,,,,,,,,None,None,"[0, 0, 0]",756.8646125998348,758.8646207998972,756.8646125998348,757.8646133998409,757.8479430999141,758.8479547998868,"[0, 0, 0]",1,756.8646125998348,758.8646207998972,,,,,,,,,,,,,,,1,M,,22,r,CIB,2021_Sep_03_1231,2020.2.10,distractmap,60.00157203918752,"['Abdomen', 'Right Leg', 'Right Arm', 'Chest', 'Abdomen', 'Right Leg', 'Left Arm', 'Right Face', 'Left Arm', 'Left Face', 'Right Face', 'Right Arm', 'Chest', 'Left Leg', 'Left Leg', 'Left Face']",
8,"[0, -0.2]",1,,,,,0,7,7,7,,,,,,,,,,,,,,,,,,,,,,None,None,"[0, 0, 0]",758.8812841998879,760.8812978998758,758.8812841998879,759.8813147998881,759.8644989000168,760.8646207000129,"[0, 0, 0]",1,758.8812841998879,760.8812978998758,,,,,,,,,,,,,,,1,M,,22,r,CIB,2021_Sep_03_1231,2020.2.10,distractmap,60.00157203918752,"['Abdomen', 'Right Leg', 'Right Arm', 'Chest', 'Abdomen', 'Right Leg', 'Left Arm', 'Right Face', 'Left Arm', 'Left Face', 'Right Face', 'Right Arm', 'Chest', 'Left Leg', 'Left Leg', 'Left Face']",
1,"[-0.2, 0.2]",1,,,,,0,8,8,8,,,,,,,,,,,,,,,,,,,,,,None,None,"[0, 0, 0]",760.8979613999836,762.8979718999472,760.8979613999836,761.8979756999761,761.8813031997997,762.8813350999262,"[0, 0, 0]",1,760.8979613999836,762.8979718999472,,,,,,,,,,,,,,,1,M,,22,r,CIB,2021_Sep_03_1231,2020.2.10,distractmap,60.00157203918752,"['Abdomen', 'Right Leg', 'Right Arm', 'Chest', 'Abdomen', 'Right Leg', 'Left Arm', 'Right Face', 'Left Arm', 'Left Face', 'Right Face', 'Right Arm', 'Chest', 'Left Leg', 'Left Leg', 'Left Face']",
6,"[0.2, 0]",0,,,,,0,9,9,9,,,,,,,,,,,,,,,,,,,,,,None,None,"[0, 0, 0]",762.9146714999806,764.9146639998071,762.9146714999806,763.9146638999227,763.8979840998072,764.8980162998196,"[0, 0, 0]",1,762.9146714999806,764.9146639998071,,,,,,,,,,,,,,,1,M,,22,r,CIB,2021_Sep_03_1231,2020.2.10,distractmap,60.00157203918752,"['Abdomen', 'Right Leg', 'Right Arm', 'Chest', 'Abdomen', 'Right Leg', 'Left Arm', 'Right Face', 'Left Arm', 'Left Face', 'Right Face', 'Right Arm', 'Chest', 'Left Leg', 'Left Leg', 'Left Face']",
,,,,,,,,,,,764.9313207999803,None,,,,,,,,,,,,,,,,,,,,,,,,,,,,,,,,,,,,,,,,,,,14.814814814814813,741.499091560021,,,1,M,,22,r,CIB,2021_Sep_03_1231,2020.2.10,distractmap,60.00157203918752,"['Abdomen', 'Right Leg', 'Right Arm', 'Chest', 'Abdomen', 'Right Leg', 'Left Arm', 'Right Face', 'Left Arm', 'Left Face', 'Right Face', 'Right Arm', 'Chest', 'Left Leg', 'Left Leg', 'Left Face']",
6,"[0.2, 0]",None,0,0,0,0,,,,,781.1150278998539,None,784.9981658000033,None,784.9981658000033,785.9981576998252,785.9815316998865,786.9815309999976,1,None,None,"[0, 0, 0]",,,784.9981658000033,None,,,,,,,,,,,,,,,,,,,,,,,,,,"[0, 0, 0]",,,,,0.01473393989726901,5.011876540025696,1,M,,22,r,CIB,2021_Sep_03_1231,2020.2.10,distractmap,60.00157203918752,"['Abdomen', 'Right Leg', 'Right Arm', 'Chest', 'Abdomen', 'Right Leg', 'Left Arm', 'Right Face', 'Left Arm', 'Left Face', 'Right Face', 'Right Arm', 'Chest', 'Left Leg', 'Left Leg', 'Left Face']",
6,"[0.2, 0]",1,0,1,1,1,,,,,,,786.9981742999516,None,786.9981742999516,787.9981883999426,787.9815552998334,788.9815189000219,0,None,None,"[0, 0, 0]",,,786.9981742999516,None,,,,,,,,,,,,,,,,,,,,,,,,,,"[0, 0, 0]",,,,,,,1,M,,22,r,CIB,2021_Sep_03_1231,2020.2.10,distractmap,60.00157203918752,"['Abdomen', 'Right Leg', 'Right Arm', 'Chest', 'Abdomen', 'Right Leg', 'Left Arm', 'Right Face', 'Left Arm', 'Left Face', 'Right Face', 'Right Arm', 'Chest', 'Left Leg', 'Left Leg', 'Left Face']",
1,"[-0.2, 0.2]",0,0,2,2,2,,,,,,,788.9981062998995,788.9981062998995,788.9981062998995,789.9981933999807,789.9815436999779,790.9815628998913,1,None,None,"[0, 0, 0]",,,788.9981062998995,788.9981062998995,,,,,,,,,,,,,,,,,,,,,,,,,,"[0, 0, 0]",,,,,,,1,M,,22,r,CIB,2021_Sep_03_1231,2020.2.10,distractmap,60.00157203918752,"['Abdomen', 'Right Leg', 'Right Arm', 'Chest', 'Abdomen', 'Right Leg', 'Left Arm', 'Right Face', 'Left Arm', 'Left Face', 'Right Face', 'Right Arm', 'Chest', 'Left Leg', 'Left Leg', 'Left Face']",
8,"[0, -0.2]",0,0,3,3,3,,,,,,,790.9982020999305,790.9982020999305,790.9982020999305,791.9981976000126,791.9815521999262,792.9815597999841,1,None,None,"[0, 0, 0]",,,790.9982020999305,790.9982020999305,,,,,,,,,,,,,,,,,,,,,,,,,,"[0, 0, 0]",,,,,,,1,M,,22,r,CIB,2021_Sep_03_1231,2020.2.10,distractmap,60.00157203918752,"['Abdomen', 'Right Leg', 'Right Arm', 'Chest', 'Abdomen', 'Right Leg', 'Left Arm', 'Right Face', 'Left Arm', 'Left Face', 'Right Face', 'Right Arm', 'Chest', 'Left Leg', 'Left Leg', 'Left Face']",
1,"[-0.2, 0.2]",0,0,4,4,4,,,,,,,793.048700099811,793.048700099811,793.048700099811,794.0482363000046,794.0315653998405,None,0,None,None,"[0, 0, 0]",,,793.048700099811,793.048700099811,,,,,,,,,,,,,,,,,,,,,,,,,,"[0, 0, 0]",,,,,,,1,M,,22,r,CIB,2021_Sep_03_1231,2020.2.10,distractmap,60.00157203918752,"['Abdomen', 'Right Leg', 'Right Arm', 'Chest', 'Abdomen', 'Right Leg', 'Left Arm', 'Right Face', 'Left Arm', 'Left Face', 'Right Face', 'Right Arm', 'Chest', 'Left Leg', 'Left Leg', 'Left Face']",
4,"[-0.2, 0]",0,0,5,5,5,,,,,,,795.0148853999563,None,795.0148853999563,796.0149057998788,795.9982431000099,796.998133999994,1,None,None,"[0, 0, 0]",,,795.0148853999563,None,,,,,,,,,,,,,,,,,,,,,,,,,,"[0, 0, 0]",,,,,,,1,M,,22,r,CIB,2021_Sep_03_1231,2020.2.10,distractmap,60.00157203918752,"['Abdomen', 'Right Leg', 'Right Arm', 'Chest', 'Abdomen', 'Right Leg', 'Left Arm', 'Right Face', 'Left Arm', 'Left Face', 'Right Face', 'Right Arm', 'Chest', 'Left Leg', 'Left Leg', 'Left Face']",
5,"[0, 0]",0,0,6,6,6,,,,,,,797.0149199999869,797.0149199999869,797.0149199999869,798.0149349998683,797.9982529999688,798.9982542998623,1,None,None,"[0, 0, 0]",,,797.0149199999869,797.0149199999869,,,,,,,,,,,,,,,,,,,,,,,,,,"[0, 0, 0]",,,,,,,1,M,,22,r,CIB,2021_Sep_03_1231,2020.2.10,distractmap,60.00157203918752,"['Abdomen', 'Right Leg', 'Right Arm', 'Chest', 'Abdomen', 'Right Leg', 'Left Arm', 'Right Face', 'Left Arm', 'Left Face', 'Right Face', 'Right Arm', 'Chest', 'Left Leg', 'Left Leg', 'Left Face']",
7,"[-0.2, -0.2]",0,0,7,7,7,,,,,,,799.014932999853,799.014932999853,799.014932999853,800.0149453999475,799.9982655998319,800.998280499829,1,None,None,"[0, 0, 0]",,,799.014932999853,799.014932999853,,,,,,,,,,,,,,,,,,,,,,,,,,"[0, 0, 0]",,,,,,,1,M,,22,r,CIB,2021_Sep_03_1231,2020.2.10,distractmap,60.00157203918752,"['Abdomen', 'Right Leg', 'Right Arm', 'Chest', 'Abdomen', 'Right Leg', 'Left Arm', 'Right Face', 'Left Arm', 'Left Face', 'Right Face', 'Right Arm', 'Chest', 'Left Leg', 'Left Leg', 'Left Face']",
7,"[-0.2, -0.2]",1,0,8,8,8,,,,,,,801.0149412997998,801.0149412997998,801.0149412997998,802.0149530000053,801.9982853999827,802.9983028999995,1,None,None,"[0, 0, 0]",,,801.0149412997998,801.0149412997998,,,,,,,,,,,,,,,,,,,,,,,,,,"[0, 0, 0]",,,,,,,1,M,,22,r,CIB,2021_Sep_03_1231,2020.2.10,distractmap,60.00157203918752,"['Abdomen', 'Right Leg', 'Right Arm', 'Chest', 'Abdomen', 'Right Leg', 'Left Arm', 'Right Face', 'Left Arm', 'Left Face', 'Right Face', 'Right Arm', 'Chest', 'Left Leg', 'Left Leg', 'Left Face']",
7,"[-0.2, -0.2]",1,0,9,9,9,,,,,,,803.0149559997953,803.0149559997953,803.0149559997953,804.0149609998334,803.9983024999965,804.9982998999767,1,None,None,"[0, 0, 0]",,,803.0149559997953,803.0149559997953,,,,,,,,,,,,,,,,,,,,,,,,,,"[0, 0, 0]",,,,,,,1,M,,22,r,CIB,2021_Sep_03_1231,2020.2.10,distractmap,60.00157203918752,"['Abdomen', 'Right Leg', 'Right Arm', 'Chest', 'Abdomen', 'Right Leg', 'Left Arm', 'Right Face', 'Left Arm', 'Left Face', 'Right Face', 'Right Arm', 'Chest', 'Left Leg', 'Left Leg', 'Left Face']",
,,,,,,,,,,,805.0149771999568,None,,,,,,,,,,,,,,,,,,,,,,,,,,,,,,,,,,,,,,,,,,,10.925925925925924,783.4164039602038,,,1,M,,22,r,CIB,2021_Sep_03_1231,2020.2.10,distractmap,60.00157203918752,"['Abdomen', 'Right Leg', 'Right Arm', 'Chest', 'Abdomen', 'Right Leg', 'Left Arm', 'Right Face', 'Left Arm', 'Left Face', 'Right Face', 'Right Arm', 'Chest', 'Left Leg', 'Left Leg', 'Left Face']",
7,"[-0.2, -0.2]",None,,,,,0,0,0,0,821.1652758999262,None,,,,,,,,,,,,,,,,,,,,None,None,"[0, 0, 0]",825.0818036999553,None,825.0818036999553,826.0818196998443,826.0651339998003,827.0651459998917,"[0, 0, 0]",1,825.0818036999553,None,,,,,,,,,,,,,0.01436783978715539,5.011152539867908,1,M,,22,r,CIB,2021_Sep_03_1231,2020.2.10,distractmap,60.00157203918752,"['Abdomen', 'Right Leg', 'Right Arm', 'Chest', 'Abdomen', 'Right Leg', 'Left Arm', 'Right Face', 'Left Arm', 'Left Face', 'Right Face', 'Right Arm', 'Chest', 'Left Leg', 'Left Leg', 'Left Face']",
7,"[-0.2, -0.2]",None,,,,,0,1,1,1,,,,,,,,,,,,,,,,,,,,,,None,None,"[0, 0, 0]",827.0818209999707,829.0818407998886,827.0818209999707,828.0818280999083,828.065161400009,829.0651612998918,"[0, 0, 0]",1,827.0818209999707,829.0818407998886,,,,,,,,,,,,,,,1,M,,22,r,CIB,2021_Sep_03_1231,2020.2.10,distractmap,60.00157203918752,"['Abdomen', 'Right Leg', 'Right Arm', 'Chest', 'Abdomen', 'Right Leg', 'Left Arm', 'Right Face', 'Left Arm', 'Left Face', 'Right Face', 'Right Arm', 'Chest', 'Left Leg', 'Left Leg', 'Left Face']",
7,"[-0.2, -0.2]",1,,,,,0,2,2,2,,,,,,,,,,,,,,,,,,,,,,None,None,"[0, 0, 0]",829.0985069999006,831.0985332999844,829.0985069999006,830.0985022999812,830.0818529999815,831.0818566000089,"[0, 0, 0]",1,829.0985069999006,831.0985332999844,,,,,,,,,,,,,,,1,M,,22,r,CIB,2021_Sep_03_1231,2020.2.10,distractmap,60.00157203918752,"['Abdomen', 'Right Leg', 'Right Arm', 'Chest', 'Abdomen', 'Right Leg', 'Left Arm', 'Right Face', 'Left Arm', 'Left Face', 'Right Face', 'Right Arm', 'Chest', 'Left Leg', 'Left Leg', 'Left Face']",
5,"[0, 0]",0,,,,,0,3,3,3,,,,,,,,,,,,,,,,,,,,,,None,None,"[0, 0, 0]",831.1151781999506,833.1151929998305,831.1151781999506,832.1151839999948,832.0985474998597,833.0985363998916,"[0, 0, 0]",1,831.1151781999506,833.1151929998305,,,,,,,,,,,,,,,1,M,,22,r,CIB,2021_Sep_03_1231,2020.2.10,distractmap,60.00157203918752,"['Abdomen', 'Right Leg', 'Right Arm', 'Chest', 'Abdomen', 'Right Leg', 'Left Arm', 'Right Face', 'Left Arm', 'Left Face', 'Right Face', 'Right Arm', 'Chest', 'Left Leg', 'Left Leg', 'Left Face']",
1,"[-0.2, 0.2]",0,,,,,0,4,4,4,,,,,,,,,,,,,,,,,,,,,,None,None,"[0, 0, 0]",833.1655044998042,None,833.1655044998042,834.1651980997995,834.1485315999016,None,"[0, 0, 0]",1,833.1655044998042,None,,,,,,,,,,,,,,,1,M,,22,r,CIB,2021_Sep_03_1231,2020.2.10,distractmap,60.00157203918752,"['Abdomen', 'Right Leg', 'Right Arm', 'Chest', 'Abdomen', 'Right Leg', 'Left Arm', 'Right Face', 'Left Arm', 'Left Face', 'Right Face', 'Right Arm', 'Chest', 'Left Leg', 'Left Leg', 'Left Face']",
6,"[0.2, 0]",0,,,,,0,5,5,5,,,,,,,,,,,,,,,,,,,,,,None,None,"[0, 0, 0]",835.1485654998105,837.1484854998998,835.1485654998105,836.14854319999,836.1317771999165,837.1319083999842,"[0, 0, 0]",1,835.1485654998105,837.1484854998998,,,,,,,,,,,,,,,1,M,,22,r,CIB,2021_Sep_03_1231,2020.2.10,distractmap,60.00157203918752,"['Abdomen', 'Right Leg', 'Right Arm', 'Chest', 'Abdomen', 'Right Leg', 'Left Arm', 'Right Face', 'Left Arm', 'Left Face', 'Right Face', 'Right Arm', 'Chest', 'Left Leg', 'Left Leg', 'Left Face']",
1,"[-0.2, 0.2]",1,,,,,0,6,6,6,,,,,,,,,,,,,,,,,,,,,,None,None,"[0, 0, 0]",837.1652141998056,839.1652485998347,837.1652141998056,838.1655146998819,838.1485735999886,839.1485625999048,"[0, 0, 0]",1,837.1652141998056,839.1652485998347,,,,,,,,,,,,,,,1,M,,22,r,CIB,2021_Sep_03_1231,2020.2.10,distractmap,60.00157203918752,"['Abdomen', 'Right Leg', 'Right Arm', 'Chest', 'Abdomen', 'Right Leg', 'Left Arm', 'Right Face', 'Left Arm', 'Left Face', 'Right Face', 'Right Arm', 'Chest', 'Left Leg', 'Left Leg', 'Left Face']",
7,"[-0.2, -0.2]",0,,,,,0,7,7,7,,,,,,,,,,,,,,,,,,,,,,None,None,"[0, 0, 0]",839.1819111998193,841.1819346998818,839.1819111998193,840.1819139998406,840.1652412998956,841.1652543998789,"[0, 0, 0]",1,839.1819111998193,841.1819346998818,,,,,,,,,,,,,,,1,M,,22,r,CIB,2021_Sep_03_1231,2020.2.10,distractmap,60.00157203918752,"['Abdomen', 'Right Leg', 'Right Arm', 'Chest', 'Abdomen', 'Right Leg', 'Left Arm', 'Right Face', 'Left Arm', 'Left Face', 'Right Face', 'Right Arm', 'Chest', 'Left Leg', 'Left Leg', 'Left Face']",
6,"[0.2, 0]",0,,,,,0,8,8,8,,,,,,,,,,,,,,,,,,,,,,None,None,"[0, 0, 0]",841.1985812999774,843.1986022000201,841.1985812999774,842.1986022000201,842.1819390999153,843.1819330998696,"[0, 0, 0]",0,841.1985812999774,843.1986022000201,,,,,,,,,,,,,,,1,M,,22,r,CIB,2021_Sep_03_1231,2020.2.10,distractmap,60.00157203918752,"['Abdomen', 'Right Leg', 'Right Arm', 'Chest', 'Abdomen', 'Right Leg', 'Left Arm', 'Right Face', 'Left Arm', 'Left Face', 'Right Face', 'Right Arm', 'Chest', 'Left Leg', 'Left Leg', 'Left Face']",
7,"[-0.2, -0.2]",1,,,,,0,9,9,9,,,,,,,,,,,,,,,,,,,,,,None,None,"[0, 0, 0]",843.2152761998586,845.2152861999348,843.2152761998586,844.2152718999423,844.1986094999593,845.1986121998634,"[0, 0, 0]",1,843.2152761998586,845.2152861999348,,,,,,,,,,,,,,,1,M,,22,r,CIB,2021_Sep_03_1231,2020.2.10,distractmap,60.00157203918752,"['Abdomen', 'Right Leg', 'Right Arm', 'Chest', 'Abdomen', 'Right Leg', 'Left Arm', 'Right Face', 'Left Arm', 'Left Face', 'Right Face', 'Right Arm', 'Chest', 'Left Leg', 'Left Leg', 'Left Face']",
,,,,,,,,,,,845.2319473000243,None,,,,,,,,,,,,,,,,,,,,,,,,,,,,,,,,,,,,,,,,,,,14.876543209876539,821.5166797600687,,,1,M,,22,r,CIB,2021_Sep_03_1231,2020.2.10,distractmap,60.00157203918752,"['Abdomen', 'Right Leg', 'Right Arm', 'Chest', 'Abdomen', 'Right Leg', 'Left Arm', 'Right Face', 'Left Arm', 'Left Face', 'Right Face', 'Right Arm', 'Chest', 'Left Leg', 'Left Leg', 'Left Face']",
4,"[-0.2, 0]",None,,,,,0,0,0,0,861.3990119998343,None,,,,,,,,,,,,,,,,,,,,None,None,"[0, 0, 0]",865.2821219000034,None,865.2821219000034,866.2821188999806,866.2654732998926,867.2655056999065,"[0, 0, 0]",1,865.2821219000034,None,,,,,,,,,,,,,0.014390339842066169,5.010791739914566,1,M,,22,r,CIB,2021_Sep_03_1231,2020.2.10,distractmap,60.00157203918752,"['Abdomen', 'Right Leg', 'Right Arm', 'Chest', 'Abdomen', 'Right Leg', 'Left Arm', 'Right Face', 'Left Arm', 'Left Face', 'Right Face', 'Right Arm', 'Chest', 'Left Leg', 'Left Leg', 'Left Face']",
5,"[0, 0]",None,,,,,0,1,1,1,,,,,,,,,,,,,,,,,,,,,,None,None,"[0, 0, 0]",867.2821148999501,869.2821641999763,867.2821148999501,868.2821414999198,868.2655126999598,869.265505899908,"[0, 0, 0]",1,867.2821148999501,869.2821641999763,,,,,,,,,,,,,,,1,M,,22,r,CIB,2021_Sep_03_1231,2020.2.10,distractmap,60.00157203918752,"['Abdomen', 'Right Leg', 'Right Arm', 'Chest', 'Abdomen', 'Right Leg', 'Left Arm', 'Right Face', 'Left Arm', 'Left Face', 'Right Face', 'Right Arm', 'Chest', 'Left Leg', 'Left Leg', 'Left Face']",
6,"[0.2, 0]",0,,,,,0,2,2,2,,,,,,,,,,,,,,,,,,,,,,None,None,"[0, 0, 0]",869.29882799997,871.2988156999927,869.29882799997,870.2988193999045,870.2821502999868,871.2821645999793,"[0, 0, 0]",1,869.29882799997,871.2988156999927,,,,,,,,,,,,,,,1,M,,22,r,CIB,2021_Sep_03_1231,2020.2.10,distractmap,60.00157203918752,"['Abdomen', 'Right Leg', 'Right Arm', 'Chest', 'Abdomen', 'Right Leg', 'Left Arm', 'Right Face', 'Left Arm', 'Left Face', 'Right Face', 'Right Arm', 'Chest', 'Left Leg', 'Left Leg', 'Left Face']",
1,"[-0.2, 0.2]",0,,,,,0,3,3,3,,,,,,,,,,,,,,,,,,,,,,None,None,"[0, 0, 0]",871.3155211999547,873.3155147999059,871.3155211999547,872.3155089998618,872.2988306998741,873.2988485000096,"[0, 0, 0]",1,871.3155211999547,873.3155147999059,,,,,,,,,,,,,,,1,M,,22,r,CIB,2021_Sep_03_1231,2020.2.10,distractmap,60.00157203918752,"['Abdomen', 'Right Leg', 'Right Arm', 'Chest', 'Abdomen', 'Right Leg', 'Left Arm', 'Right Face', 'Left Arm', 'Left Face', 'Right Face', 'Right Arm', 'Chest', 'Left Leg', 'Left Leg', 'Left Face']",
6,"[0.2, 0]",1,,,,,0,4,4,4,,,,,,,,,,,,,,,,,,,,,,None,None,"[0, 0, 0]",873.4325155999977,None,873.4325155999977,874.4321977999061,874.4155441999901,None,"[0, 0, 0]",1,873.4325155999977,None,,,,,,,,,,,,,,,1,M,,22,r,CIB,2021_Sep_03_1231,2020.2.10,distractmap,60.00157203918752,"['Abdomen', 'Right Leg', 'Right Arm', 'Chest', 'Abdomen', 'Right Leg', 'Left Arm', 'Right Face', 'Left Arm', 'Left Face', 'Right Face', 'Right Arm', 'Chest', 'Left Leg', 'Left Leg', 'Left Face']",
1,"[-0.2, 0.2]",1,,,,,0,5,5,5,,,,,,,,,,,,,,,,,,,,,,None,None,"[0, 0, 0]",875.3488404999953,877.3488693998661,875.3488404999953,876.3488652999513,876.3321912998799,877.3322136998177,"[0, 0, 0]",1,875.3488404999953,877.3488693998661,,,,,,,,,,,,,,,1,M,,22,r,CIB,2021_Sep_03_1231,2020.2.10,distractmap,60.00157203918752,"['Abdomen', 'Right Leg', 'Right Arm', 'Chest', 'Abdomen', 'Right Leg', 'Left Arm', 'Right Face', 'Left Arm', 'Left Face', 'Right Face', 'Right Arm', 'Chest', 'Left Leg', 'Left Leg', 'Left Face']",
2,"[0, 0.2]",0,,,,,0,6,6,6,,,,,,,,,,,,,,,,,,,,,,None,None,"[0, 0, 0]",877.3655765999574,879.3655507999938,877.3655765999574,878.3655515999999,878.3488711998798,879.3488982999697,"[0, 0, 0]",1,877.3655765999574,879.3655507999938,,,,,,,,,,,,,,,1,M,,22,r,CIB,2021_Sep_03_1231,2020.2.10,distractmap,60.00157203918752,"['Abdomen', 'Right Leg', 'Right Arm', 'Chest', 'Abdomen', 'Right Leg', 'Left Arm', 'Right Face', 'Left Arm', 'Left Face', 'Right Face', 'Right Arm', 'Chest', 'Left Leg', 'Left Leg', 'Left Face']",
3,"[0.2, 0.2]",0,,,,,0,7,7,7,,,,,,,,,,,,,,,,,,,,,,None,None,"[0, 0, 0]",879.3822274999693,881.3822311998811,879.3822274999693,880.3822282999754,880.3655632999726,881.3655858000275,"[0, 0, 0]",1,879.3822274999693,881.3822311998811,,,,,,,,,,,,,,,1,M,,22,r,CIB,2021_Sep_03_1231,2020.2.10,distractmap,60.00157203918752,"['Abdomen', 'Right Leg', 'Right Arm', 'Chest', 'Abdomen', 'Right Leg', 'Left Arm', 'Right Face', 'Left Arm', 'Left Face', 'Right Face', 'Right Arm', 'Chest', 'Left Leg', 'Left Leg', 'Left Face']",
6,"[0.2, 0]",0,,,,,0,8,8,8,,,,,,,,,,,,,,,,,,,,,,None,None,"[0, 0, 0]",881.3988989999052,883.3989269998856,881.3988989999052,882.3989146999083,882.3822361999191,883.382268599933,"[0, 0, 0]",1,881.3988989999052,883.3989269998856,,,,,,,,,,,,,,,1,M,,22,r,CIB,2021_Sep_03_1231,2020.2.10,distractmap,60.00157203918752,"['Abdomen', 'Right Leg', 'Right Arm', 'Chest', 'Abdomen', 'Right Leg', 'Left Arm', 'Right Face', 'Left Arm', 'Left Face', 'Right Face', 'Right Arm', 'Chest', 'Left Leg', 'Left Leg', 'Left Face']",
3,"[0.2, 0.2]",1,,,,,0,9,9,9,,,,,,,,,,,,,,,,,,,,,,None,None,"[0, 0, 0]",883.4154687998816,885.4156046998687,883.4154687998816,884.4155873998534,884.3989172999281,885.3989376998506,"[0, 0, 0]",1,883.4154687998816,885.4156046998687,,,,,,,,,,,,,,,1,M,,22,r,CIB,2021_Sep_03_1231,2020.2.10,distractmap,60.00157203918752,"['Abdomen', 'Right Leg', 'Right Arm', 'Chest', 'Abdomen', 'Right Leg', 'Left Arm', 'Right Face', 'Left Arm', 'Left Face', 'Right Face', 'Right Arm', 'Chest', 'Left Leg', 'Left Leg', 'Left Face']",
,,,,,,,,,,,885.4322575000115,None,,,,,,,,,,,,,,,,,,,,,,,,,,,,,,,,,,,,,,,,,,,14.938271604938272,864.433494159719,,,1,M,,22,r,CIB,2021_Sep_03_1231,2020.2.10,distractmap,60.00157203918752,"['Abdomen', 'Right Leg', 'Right Arm', 'Chest', 'Abdomen', 'Right Leg', 'Left Arm', 'Right Face', 'Left Arm', 'Left Face', 'Right Face', 'Right Arm', 'Chest', 'Left Leg', 'Left Leg', 'Left Face']",
8,"[0, -0.2]",None,0,0,0,0,,,,,903.6329051000066,None,905.4990909998305,None,905.4990909998305,906.4991181998048,906.4824361999054,907.4824595998507,1,None,None,"[0, 0, 0]",,,905.4990909998305,None,,,,,,,,,,,,,,,,,,,,,,,,,,"[0, 0, 0]",,,,,0.014587340177968144,5.011568340240046,1,M,,22,r,CIB,2021_Sep_03_1231,2020.2.10,distractmap,60.00157203918752,"['Abdomen', 'Right Leg', 'Right Arm', 'Chest', 'Abdomen', 'Right Leg', 'Left Arm', 'Right Face', 'Left Arm', 'Left Face', 'Right Face', 'Right Arm', 'Chest', 'Left Leg', 'Left Leg', 'Left Face']",
6,"[0.2, 0]",0,0,1,1,1,,,,,,,907.4991066998336,None,907.4991066998336,908.4991019999143,908.4824467999861,909.4824595998507,1,None,None,"[0, 0, 0]",,,907.4991066998336,None,,,,,,,,,,,,,,,,,,,,,,,,,,"[0, 0, 0]",,,,,,,1,M,,22,r,CIB,2021_Sep_03_1231,2020.2.10,distractmap,60.00157203918752,"['Abdomen', 'Right Leg', 'Right Arm', 'Chest', 'Abdomen', 'Right Leg', 'Left Arm', 'Right Face', 'Left Arm', 'Left Face', 'Right Face', 'Right Arm', 'Chest', 'Left Leg', 'Left Leg', 'Left Face']",
6,"[0.2, 0]",1,0,2,2,2,,,,,,,909.4990863997955,909.4990863997955,909.4990863997955,910.4991421999875,910.4825124999043,911.4825198999606,1,None,None,"[0, 0, 0]",,,909.4990863997955,909.4990863997955,,,,,,,,,,,,,,,,,,,,,,,,,,"[0, 0, 0]",,,,,,,1,M,,22,r,CIB,2021_Sep_03_1231,2020.2.10,distractmap,60.00157203918752,"['Abdomen', 'Right Leg', 'Right Arm', 'Chest', 'Abdomen', 'Right Leg', 'Left Arm', 'Right Face', 'Left Arm', 'Left Face', 'Right Face', 'Right Arm', 'Chest', 'Left Leg', 'Left Leg', 'Left Face']",
2,"[0, 0.2]",0,0,3,3,3,,,,,,,911.499118699925,911.499118699925,911.499118699925,912.4991541998461,912.4825028998312,913.4825005999301,1,None,None,"[0, 0, 0]",,,911.499118699925,911.499118699925,,,,,,,,,,,,,,,,,,,,,,,,,,"[0, 0, 0]",,,,,,,1,M,,22,r,CIB,2021_Sep_03_1231,2020.2.10,distractmap,60.00157203918752,"['Abdomen', 'Right Leg', 'Right Arm', 'Chest', 'Abdomen', 'Right Leg', 'Left Arm', 'Right Face', 'Left Arm', 'Left Face', 'Right Face', 'Right Arm', 'Chest', 'Left Leg', 'Left Leg', 'Left Face']",
1,"[-0.2, 0.2]",0,0,4,4,4,,,,,,,913.6160440999083,913.6160440999083,913.6160440999083,914.6158346999437,914.599040000001,None,1,None,None,"[0, 0, 0]",,,913.6160440999083,913.6160440999083,,,,,,,,,,,,,,,,,,,,,,,,,,"[0, 0, 0]",,,,,,,1,M,,22,r,CIB,2021_Sep_03_1231,2020.2.10,distractmap,60.00157203918752,"['Abdomen', 'Right Leg', 'Right Arm', 'Chest', 'Abdomen', 'Right Leg', 'Left Arm', 'Right Face', 'Left Arm', 'Left Face', 'Right Face', 'Right Arm', 'Chest', 'Left Leg', 'Left Leg', 'Left Face']",
6,"[0.2, 0]",0,0,5,5,5,,,,,,,915.5157302999869,None,915.5157302999869,916.5158435998019,916.4991778000258,917.4991796999238,1,None,None,"[0, 0, 0]",,,915.5157302999869,None,,,,,,,,,,,,,,,,,,,,,,,,,,"[0, 0, 0]",,,,,,,1,M,,22,r,CIB,2021_Sep_03_1231,2020.2.10,distractmap,60.00157203918752,"['Abdomen', 'Right Leg', 'Right Arm', 'Chest', 'Abdomen', 'Right Leg', 'Left Arm', 'Right Face', 'Left Arm', 'Left Face', 'Right Face', 'Right Arm', 'Chest', 'Left Leg', 'Left Leg', 'Left Face']",
9,"[0.2, -0.2]",0,0,6,6,6,,,,,,,917.5158645999618,917.5158645999618,917.5158645999618,918.5158585999161,918.4991890999954,919.4991843998432,1,None,None,"[0, 0, 0]",,,917.5158645999618,917.5158645999618,,,,,,,,,,,,,,,,,,,,,,,,,,"[0, 0, 0]",,,,,,,1,M,,22,r,CIB,2021_Sep_03_1231,2020.2.10,distractmap,60.00157203918752,"['Abdomen', 'Right Leg', 'Right Arm', 'Chest', 'Abdomen', 'Right Leg', 'Left Arm', 'Right Face', 'Left Arm', 'Left Face', 'Right Face', 'Right Arm', 'Chest', 'Left Leg', 'Left Leg', 'Left Face']",
1,"[-0.2, 0.2]",0,0,7,7,7,,,,,,,919.5158651999664,919.5158651999664,919.5158651999664,920.5158829998691,920.499204199994,921.4992203000002,1,None,None,"[0, 0, 0]",,,919.5158651999664,919.5158651999664,,,,,,,,,,,,,,,,,,,,,,,,,,"[0, 0, 0]",,,,,,,1,M,,22,r,CIB,2021_Sep_03_1231,2020.2.10,distractmap,60.00157203918752,"['Abdomen', 'Right Leg', 'Right Arm', 'Chest', 'Abdomen', 'Right Leg', 'Left Arm', 'Right Face', 'Left Arm', 'Left Face', 'Right Face', 'Right Arm', 'Chest', 'Left Leg', 'Left Leg', 'Left Face']",
6,"[0.2, 0]",0,0,8,8,8,,,,,,,921.5158773998264,921.5158773998264,921.5158773998264,922.5159112999681,922.499224399915,923.4992374998983,1,None,None,"[0, 0, 0]",,,921.5158773998264,921.5158773998264,,,,,,,,,,,,,,,,,,,,,,,,,,"[0, 0, 0]",,,,,,,1,M,,22,r,CIB,2021_Sep_03_1231,2020.2.10,distractmap,60.00157203918752,"['Abdomen', 'Right Leg', 'Right Arm', 'Chest', 'Abdomen', 'Right Leg', 'Left Arm', 'Right Face', 'Left Arm', 'Left Face', 'Right Face', 'Right Arm', 'Chest', 'Left Leg', 'Left Leg', 'Left Face']",
6,"[0.2, 0]",1,0,9,9,9,,,,,,,923.5159238998313,923.5159238998313,923.5159238998313,924.5159024000168,924.4992380000185,925.4992386000231,1,None,None,"[0, 0, 0]",,,923.5159238998313,923.5159238998313,,,,,,,,,,,,,,,,,,,,,,,,,,"[0, 0, 0]",,,,,,,1,M,,22,r,CIB,2021_Sep_03_1231,2020.2.10,distractmap,60.00157203918752,"['Abdomen', 'Right Leg', 'Right Arm', 'Chest', 'Abdomen', 'Right Leg', 'Left Arm', 'Right Face', 'Left Arm', 'Left Face', 'Right Face', 'Right Arm', 'Chest', 'Left Leg', 'Left Leg', 'Left Face']",
,,,,,,,,,,,925.5159187999088,None,,,,,,,,,,,,,,,,,,,,,,,,,,,,,,,,,,,,,,,,,,,18.209876543209877,900.6664597599301,,,1,M,,22,r,CIB,2021_Sep_03_1231,2020.2.10,distractmap,60.00157203918752,"['Abdomen', 'Right Leg', 'Right Arm', 'Chest', 'Abdomen', 'Right Leg', 'Left Arm', 'Right Face', 'Left Arm', 'Left Face', 'Right Face', 'Right Arm', 'Chest', 'Left Leg', 'Left Leg', 'Left Face']",
2,"[0, 0.2]",None,,,,,0,0,0,0,939.1661932999268,None,,,,,,,,,,,,,,,,,,,,None,None,"[0, 0, 0]",945.5827585000079,None,945.5827585000079,946.5827471998055,946.566073999973,947.5661569000222,"[0, 0, 0]",1,945.5827585000079,None,,,,,,,,,,,,,0.01519364002160728,5.012769839959219,1,M,,22,r,CIB,2021_Sep_03_1231,2020.2.10,distractmap,60.00157203918752,"['Abdomen', 'Right Leg', 'Right Arm', 'Chest', 'Abdomen', 'Right Leg', 'Left Arm', 'Right Face', 'Left Arm', 'Left Face', 'Right Face', 'Right Arm', 'Chest', 'Left Leg', 'Left Leg', 'Left Face']",
5,"[0, 0]",None,,,,,0,1,1,1,,,,,,,,,,,,,,,,,,,,,,None,None,"[0, 0, 0]",947.582750099944,949.5827808999456,947.582750099944,948.5827689999714,948.5661038998514,949.5659988999832,"[0, 0, 0]",1,947.582750099944,949.5827808999456,,,,,,,,,,,,,,,1,M,,22,r,CIB,2021_Sep_03_1231,2020.2.10,distractmap,60.00157203918752,"['Abdomen', 'Right Leg', 'Right Arm', 'Chest', 'Abdomen', 'Right Leg', 'Left Arm', 'Right Face', 'Left Arm', 'Left Face', 'Right Face', 'Right Arm', 'Chest', 'Left Leg', 'Left Leg', 'Left Face']",
6,"[0.2, 0]",0,,,,,0,2,2,2,,,,,,,,,,,,,,,,,,,,,,None,None,"[0, 0, 0]",949.5994302998297,951.5994529998861,949.5994302998297,950.5994900998194,950.5827685999684,951.5827591000125,"[0, 0, 0]",1,949.5994302998297,951.5994529998861,,,,,,,,,,,,,,,1,M,,22,r,CIB,2021_Sep_03_1231,2020.2.10,distractmap,60.00157203918752,"['Abdomen', 'Right Leg', 'Right Arm', 'Chest', 'Abdomen', 'Right Leg', 'Left Arm', 'Right Face', 'Left Arm', 'Left Face', 'Right Face', 'Right Arm', 'Chest', 'Left Leg', 'Left Leg', 'Left Face']",
1,"[-0.2, 0.2]",0,,,,,0,3,3,3,,,,,,,,,,,,,,,,,,,,,,None,None,"[0, 0, 0]",951.6161272998434,953.6161340000108,951.6161272998434,952.6161287999712,952.59945530002,953.5994839998893,"[0, 0, 0]",1,951.6161272998434,953.6161340000108,,,,,,,,,,,,,,,1,M,,22,r,CIB,2021_Sep_03_1231,2020.2.10,distractmap,60.00157203918752,"['Abdomen', 'Right Leg', 'Right Arm', 'Chest', 'Abdomen', 'Right Leg', 'Left Arm', 'Right Face', 'Left Arm', 'Left Face', 'Right Face', 'Right Arm', 'Chest', 'Left Leg', 'Left Leg', 'Left Face']",
6,"[0.2, 0]",1,,,,,0,4,4,4,,,,,,,,,,,,,,,,,,,,,,None,None,"[0, 0, 0]",953.7163374999072,None,953.7163374999072,954.716141999932,954.6994994999841,None,"[0, 0, 0]",1,953.7163374999072,None,,,,,,,,,,,,,,,1,M,,22,r,CIB,2021_Sep_03_1231,2020.2.10,distractmap,60.00157203918752,"['Abdomen', 'Right Leg', 'Right Arm', 'Chest', 'Abdomen', 'Right Leg', 'Left Arm', 'Right Face', 'Left Arm', 'Left Face', 'Right Face', 'Right Arm', 'Chest', 'Left Leg', 'Left Leg', 'Left Face']",
6,"[0.2, 0]",0,,,,,0,5,5,5,,,,,,,,,,,,,,,,,,,,,,None,None,"[0, 0, 0]",955.6494839999359,957.649538999889,955.6494839999359,956.6495109000243,956.6328191999346,957.6328294000123,"[0, 0, 0]",1,955.6494839999359,957.649538999889,,,,,,,,,,,,,,,1,M,,22,r,CIB,2021_Sep_03_1231,2020.2.10,distractmap,60.00157203918752,"['Abdomen', 'Right Leg', 'Right Arm', 'Chest', 'Abdomen', 'Right Leg', 'Left Arm', 'Right Face', 'Left Arm', 'Left Face', 'Right Face', 'Right Arm', 'Chest', 'Left Leg', 'Left Leg', 'Left Face']",
9,"[0.2, -0.2]",0,,,,,0,6,6,6,,,,,,,,,,,,,,,,,,,,,,None,None,"[0, 0, 0]",957.6661604000255,959.6661791999359,957.6661604000255,958.6661643998232,958.6495032999665,959.6495327998418,"[0, 0, 0]",1,957.6661604000255,959.6661791999359,,,,,,,,,,,,,,,1,M,,22,r,CIB,2021_Sep_03_1231,2020.2.10,distractmap,60.00157203918752,"['Abdomen', 'Right Leg', 'Right Arm', 'Chest', 'Abdomen', 'Right Leg', 'Left Arm', 'Right Face', 'Left Arm', 'Left Face', 'Right Face', 'Right Arm', 'Chest', 'Left Leg', 'Left Leg', 'Left Face']",
6,"[0.2, 0]",1,,,,,0,7,7,7,,,,,,,,,,,,,,,,,,,,,,None,None,"[0, 0, 0]",959.6828552999068,961.6828609998338,959.6828552999068,960.6828664999921,960.6661862998735,961.6661852998659,"[0, 0, 0]",1,959.6828552999068,961.6828609998338,,,,,,,,,,,,,,,1,M,,22,r,CIB,2021_Sep_03_1231,2020.2.10,distractmap,60.00157203918752,"['Abdomen', 'Right Leg', 'Right Arm', 'Chest', 'Abdomen', 'Right Leg', 'Left Arm', 'Right Face', 'Left Arm', 'Left Face', 'Right Face', 'Right Arm', 'Chest', 'Left Leg', 'Left Leg', 'Left Face']",
3,"[0.2, 0.2]",0,,,,,0,8,8,8,,,,,,,,,,,,,,,,,,,,,,None,None,"[0, 0, 0]",961.6995293998625,963.6995417999569,961.6995293998625,962.6995358997956,962.6828672999982,963.6828888999298,"[0, 0, 0]",1,961.6995293998625,963.6995417999569,,,,,,,,,,,,,,,1,M,,22,r,CIB,2021_Sep_03_1231,2020.2.10,distractmap,60.00157203918752,"['Abdomen', 'Right Leg', 'Right Arm', 'Chest', 'Abdomen', 'Right Leg', 'Left Arm', 'Right Face', 'Left Arm', 'Left Face', 'Right Face', 'Right Arm', 'Chest', 'Left Leg', 'Left Leg', 'Left Face']",
9,"[0.2, -0.2]",0,,,,,0,9,9,9,,,,,,,,,,,,,,,,,,,,,,None,None,"[0, 0, 0]",963.716225199867,965.7162369999569,963.716225199867,964.7162259998731,964.6995504999068,965.6996460999362,"[0, 0, 0]",0,963.716225199867,965.7162369999569,,,,,,,,,,,,,,,1,M,,22,r,CIB,2021_Sep_03_1231,2020.2.10,distractmap,60.00157203918752,"['Abdomen', 'Right Leg', 'Right Arm', 'Chest', 'Abdomen', 'Right Leg', 'Left Arm', 'Right Face', 'Left Arm', 'Left Face', 'Right Face', 'Right Arm', 'Chest', 'Left Leg', 'Left Leg', 'Left Face']",
,,,,,,,,,,,965.7328609998804,None,,,,,,,,,,,,,,,,,,,,,,,,,,,,,,,,,,,,,,,,,,,14.444444444444446,942.0002626599744,,,1,M,,22,r,CIB,2021_Sep_03_1231,2020.2.10,distractmap,60.00157203918752,"['Abdomen', 'Right Leg', 'Right Arm', 'Chest', 'Abdomen', 'Right Leg', 'Left Arm', 'Right Face', 'Left Arm', 'Left Face', 'Right Face', 'Right Arm', 'Chest', 'Left Leg', 'Left Leg', 'Left Face']",
9,"[0.2, -0.2]",None,0,0,0,0,,,,,981.8825279998127,None,985.7997255998198,None,985.7997255998198,986.7997328999918,986.7830669998657,987.7830719999038,1,None,None,"[0, 0, 0]",,,985.7997255998198,None,,,,,,,,,,,,,,,,,,,,,,,,,,"[0, 0, 0]",,,,,0.01508694002404809,5.012574339983985,1,M,,22,r,CIB,2021_Sep_03_1231,2020.2.10,distractmap,60.00157203918752,"['Abdomen', 'Right Leg', 'Right Arm', 'Chest', 'Abdomen', 'Right Leg', 'Left Arm', 'Right Face', 'Left Arm', 'Left Face', 'Right Face', 'Right Arm', 'Chest', 'Left Leg', 'Left Leg', 'Left Face']",
9,"[0.2, -0.2]",1,0,1,1,1,,,,,,,987.7997425999492,None,987.7997425999492,988.7997351998929,988.783065199852,989.7830803999677,1,None,None,"[0, 0, 0]",,,987.7997425999492,None,,,,,,,,,,,,,,,,,,,,,,,,,,"[0, 0, 0]",,,,,,,1,M,,22,r,CIB,2021_Sep_03_1231,2020.2.10,distractmap,60.00157203918752,"['Abdomen', 'Right Leg', 'Right Arm', 'Chest', 'Abdomen', 'Right Leg', 'Left Arm', 'Right Face', 'Left Arm', 'Left Face', 'Right Face', 'Right Arm', 'Chest', 'Left Leg', 'Left Leg', 'Left Face']",
9,"[0.2, -0.2]",1,0,2,2,2,,,,,,,989.799750899896,989.799750899896,989.799750899896,990.7997653000057,990.7830914999358,991.7831019998994,0,None,None,"[0, 0, 0]",,,989.799750899896,989.799750899896,,,,,,,,,,,,,,,,,,,,,,,,,,"[0, 0, 0]",,,,,,,1,M,,22,r,CIB,2021_Sep_03_1231,2020.2.10,distractmap,60.00157203918752,"['Abdomen', 'Right Leg', 'Right Arm', 'Chest', 'Abdomen', 'Right Leg', 'Left Arm', 'Right Face', 'Left Arm', 'Left Face', 'Right Face', 'Right Arm', 'Chest', 'Left Leg', 'Left Leg', 'Left Face']",
3,"[0.2, 0.2]",0,0,3,3,3,,,,,,,991.7997641998809,991.7997641998809,991.7997641998809,992.7997766998596,992.7831265998539,993.7831105999649,1,None,None,"[0, 0, 0]",,,991.7997641998809,991.7997641998809,,,,,,,,,,,,,,,,,,,,,,,,,,"[0, 0, 0]",,,,,,,1,M,,22,r,CIB,2021_Sep_03_1231,2020.2.10,distractmap,60.00157203918752,"['Abdomen', 'Right Leg', 'Right Arm', 'Chest', 'Abdomen', 'Right Leg', 'Left Arm', 'Right Face', 'Left Arm', 'Left Face', 'Right Face', 'Right Arm', 'Chest', 'Left Leg', 'Left Leg', 'Left Face']",
5,"[0, 0]",0,0,4,4,4,,,,,,,993.8499560998753,993.8499560998753,993.8499560998753,994.8497850999702,994.8331279000267,None,1,None,None,"[0, 0, 0]",,,993.8499560998753,993.8499560998753,,,,,,,,,,,,,,,,,,,,,,,,,,"[0, 0, 0]",,,,,,,1,M,,22,r,CIB,2021_Sep_03_1231,2020.2.10,distractmap,60.00157203918752,"['Abdomen', 'Right Leg', 'Right Arm', 'Chest', 'Abdomen', 'Right Leg', 'Left Arm', 'Right Face', 'Left Arm', 'Left Face', 'Right Face', 'Right Arm', 'Chest', 'Left Leg', 'Left Leg', 'Left Face']",
4,"[-0.2, 0]",0,0,5,5,5,,,,,,,995.8165037999861,None,995.8165037999861,996.8164663999341,996.7998103999998,997.7998150999192,1,None,None,"[0, 0, 0]",,,995.8165037999861,None,,,,,,,,,,,,,,,,,,,,,,,,,,"[0, 0, 0]",,,,,,,1,M,,22,r,CIB,2021_Sep_03_1231,2020.2.10,distractmap,60.00157203918752,"['Abdomen', 'Right Leg', 'Right Arm', 'Chest', 'Abdomen', 'Right Leg', 'Left Arm', 'Right Face', 'Left Arm', 'Left Face', 'Right Face', 'Right Arm', 'Chest', 'Left Leg', 'Left Leg', 'Left Face']",
9,"[0.2, -0.2]",0,0,6,6,6,,,,,,,997.8165026998613,997.8165026998613,997.8165026998613,998.8164907000028,998.7998241998721,999.7998263998888,1,None,None,"[0, 0, 0]",,,997.8165026998613,997.8165026998613,,,,,,,,,,,,,,,,,,,,,,,,,,"[0, 0, 0]",,,,,,,1,M,,22,r,CIB,2021_Sep_03_1231,2020.2.10,distractmap,60.00157203918752,"['Abdomen', 'Right Leg', 'Right Arm', 'Chest', 'Abdomen', 'Right Leg', 'Left Arm', 'Right Face', 'Left Arm', 'Left Face', 'Right Face', 'Right Arm', 'Chest', 'Left Leg', 'Left Leg', 'Left Face']",
6,"[0.2, 0]",0,0,7,7,7,,,,,,,999.8164986998308,999.8164986998308,999.8164986998308,1000.8165359999985,1000.7998347999528,1001.7998761998024,1,None,None,"[0, 0, 0]",,,999.8164986998308,999.8164986998308,,,,,,,,,,,,,,,,,,,,,,,,,,"[0, 0, 0]",,,,,,,1,M,,22,r,CIB,2021_Sep_03_1231,2020.2.10,distractmap,60.00157203918752,"['Abdomen', 'Right Leg', 'Right Arm', 'Chest', 'Abdomen', 'Right Leg', 'Left Arm', 'Right Face', 'Left Arm', 'Left Face', 'Right Face', 'Right Arm', 'Chest', 'Left Leg', 'Left Leg', 'Left Face']",
2,"[0, 0.2]",0,0,8,8,8,,,,,,,1001.8165255999193,1001.8165255999193,1001.8165255999193,1002.8165254998021,1002.799874600023,1003.7998684998602,1,None,None,"[0, 0, 0]",,,1001.8165255999193,1001.8165255999193,,,,,,,,,,,,,,,,,,,,,,,,,,"[0, 0, 0]",,,,,,,1,M,,22,r,CIB,2021_Sep_03_1231,2020.2.10,distractmap,60.00157203918752,"['Abdomen', 'Right Leg', 'Right Arm', 'Chest', 'Abdomen', 'Right Leg', 'Left Arm', 'Right Face', 'Left Arm', 'Left Face', 'Right Face', 'Right Arm', 'Chest', 'Left Leg', 'Left Leg', 'Left Face']",
2,"[0, 0.2]",1,0,9,9,9,,,,,,,1003.8165311999619,1003.8165311999619,1003.8165311999619,1004.8165509998798,1004.7998640998267,1005.7998835998587,1,None,None,"[0, 0, 0]",,,1003.8165311999619,1003.8165311999619,,,,,,,,,,,,,,,,,,,,,,,,,,"[0, 0, 0]",,,,,,,1,M,,22,r,CIB,2021_Sep_03_1231,2020.2.10,distractmap,60.00157203918752,"['Abdomen', 'Right Leg', 'Right Arm', 'Chest', 'Abdomen', 'Right Leg', 'Left Arm', 'Right Face', 'Left Arm', 'Left Face', 'Right Face', 'Right Arm', 'Chest', 'Left Leg', 'Left Leg', 'Left Face']",
,,,,,,,,,,,1005.8165459998418,None,,,,,,,,,,,,,,,,,,,,,,,,,,,,,,,,,,,,,,,,,,,20.370370370370374,980.1842286600731,,,1,M,,22,r,CIB,2021_Sep_03_1231,2020.2.10,distractmap,60.00157203918752,"['Abdomen', 'Right Leg', 'Right Arm', 'Chest', 'Abdomen', 'Right Leg', 'Left Arm', 'Right Face', 'Left Arm', 'Left Face', 'Right Face', 'Right Arm', 'Chest', 'Left Leg', 'Left Leg', 'Left Face']",
3,"[0.2, 0.2]",None,,,,,0,0,0,0,1020.0002065999433,None,,,,,,,,,,,,,,,,,,,,None,None,"[0, 0, 0]",1025.8667170000263,None,1025.8667170000263,1026.8667132998817,1026.8500341000035,1027.8500438998453,"[0, 0, 0]",1,1025.8667170000263,None,,,,,,,,,,,,,0.014737039804458618,5.0118883398827165,1,M,,22,r,CIB,2021_Sep_03_1231,2020.2.10,distractmap,60.00157203918752,"['Abdomen', 'Right Leg', 'Right Arm', 'Chest', 'Abdomen', 'Right Leg', 'Left Arm', 'Right Face', 'Left Arm', 'Left Face', 'Right Face', 'Right Arm', 'Chest', 'Left Leg', 'Left Leg', 'Left Face']",
9,"[0.2, -0.2]",None,,,,,0,1,1,1,,,,,,,,,,,,,,,,,,,,,,None,None,"[0, 0, 0]",1027.8667098998558,1029.8667421999853,1027.8667098998558,1028.8667152000125,1028.8500598999672,1029.8500855998136,"[0, 0, 0]",1,1027.8667098998558,1029.8667421999853,,,,,,,,,,,,,,,1,M,,22,r,CIB,2021_Sep_03_1231,2020.2.10,distractmap,60.00157203918752,"['Abdomen', 'Right Leg', 'Right Arm', 'Chest', 'Abdomen', 'Right Leg', 'Left Arm', 'Right Face', 'Left Arm', 'Left Face', 'Right Face', 'Right Arm', 'Chest', 'Left Leg', 'Left Leg', 'Left Face']",
3,"[0.2, 0.2]",1,,,,,0,2,2,2,,,,,,,,,,,,,,,,,,,,,,None,None,"[0, 0, 0]",1029.8834167998284,1031.8834443998057,1029.8834167998284,1030.8834118000232,1030.8667432998773,1031.8667493998073,"[0, 0, 0]",1,1029.8834167998284,1031.8834443998057,,,,,,,,,,,,,,,1,M,,22,r,CIB,2021_Sep_03_1231,2020.2.10,distractmap,60.00157203918752,"['Abdomen', 'Right Leg', 'Right Arm', 'Chest', 'Abdomen', 'Right Leg', 'Left Arm', 'Right Face', 'Left Arm', 'Left Face', 'Right Face', 'Right Arm', 'Chest', 'Left Leg', 'Left Leg', 'Left Face']",
7,"[-0.2, -0.2]",0,,,,,0,3,3,3,,,,,,,,,,,,,,,,,,,,,,None,None,"[0, 0, 0]",1031.9000676998403,1033.9000979999546,1031.9000676998403,1032.8995699998923,1032.8834511998575,1033.8834381999914,"[0, 0, 0]",1,1031.9000676998403,1033.9000979999546,,,,,,,,,,,,,,,1,M,,22,r,CIB,2021_Sep_03_1231,2020.2.10,distractmap,60.00157203918752,"['Abdomen', 'Right Leg', 'Right Arm', 'Chest', 'Abdomen', 'Right Leg', 'Left Arm', 'Right Face', 'Left Arm', 'Left Face', 'Right Face', 'Right Arm', 'Chest', 'Left Leg', 'Left Leg', 'Left Face']",
8,"[0, -0.2]",0,,,,,0,4,4,4,,,,,,,,,,,,,,,,,,,,,,None,None,"[0, 0, 0]",1033.967096899869,None,1033.967096899869,1034.966657700017,1034.9501051998232,None,"[0, 0, 0]",1,1033.967096899869,None,,,,,,,,,,,,,,,1,M,,22,r,CIB,2021_Sep_03_1231,2020.2.10,distractmap,60.00157203918752,"['Abdomen', 'Right Leg', 'Right Arm', 'Chest', 'Abdomen', 'Right Leg', 'Left Arm', 'Right Face', 'Left Arm', 'Left Face', 'Right Face', 'Right Arm', 'Chest', 'Left Leg', 'Left Leg', 'Left Face']",
4,"[-0.2, 0]",0,,,,,0,5,5,5,,,,,,,,,,,,,,,,,,,,,,None,None,"[0, 0, 0]",1035.933455799939,1037.933478299994,1035.933455799939,1036.9334870998282,1036.916832699906,1037.9167950998526,"[0, 0, 0]",1,1035.933455799939,1037.933478299994,,,,,,,,,,,,,,,1,M,,22,r,CIB,2021_Sep_03_1231,2020.2.10,distractmap,60.00157203918752,"['Abdomen', 'Right Leg', 'Right Arm', 'Chest', 'Abdomen', 'Right Leg', 'Left Arm', 'Right Face', 'Left Arm', 'Left Face', 'Right Face', 'Right Arm', 'Chest', 'Left Leg', 'Left Leg', 'Left Face']",
4,"[-0.2, 0]",0,,,,,0,6,6,6,,,,,,,,,,,,,,,,,,,,,,None,None,"[0, 0, 0]",1037.950148299802,1039.9501504998188,1037.950148299802,1038.9501370999496,1038.9334679997992,1039.9335111998953,"[0, 0, 0]",1,1037.950148299802,1039.9501504998188,,,,,,,,,,,,,,,1,M,,22,r,CIB,2021_Sep_03_1231,2020.2.10,distractmap,60.00157203918752,"['Abdomen', 'Right Leg', 'Right Arm', 'Chest', 'Abdomen', 'Right Leg', 'Left Arm', 'Right Face', 'Left Arm', 'Left Face', 'Right Face', 'Right Arm', 'Chest', 'Left Leg', 'Left Leg', 'Left Face']",
1,"[-0.2, 0.2]",0,,,,,0,7,7,7,,,,,,,,,,,,,,,,,,,,,,None,None,"[0, 0, 0]",1039.9668073998764,1041.9668287998065,1039.9668073998764,1040.9668137999251,1040.950154399965,1041.9501629997976,"[0, 0, 0]",1,1039.9668073998764,1041.9668287998065,,,,,,,,,,,,,,,1,M,,22,r,CIB,2021_Sep_03_1231,2020.2.10,distractmap,60.00157203918752,"['Abdomen', 'Right Leg', 'Right Arm', 'Chest', 'Abdomen', 'Right Leg', 'Left Arm', 'Right Face', 'Left Arm', 'Left Face', 'Right Face', 'Right Arm', 'Chest', 'Left Leg', 'Left Leg', 'Left Face']",
4,"[-0.2, 0]",1,,,,,0,8,8,8,,,,,,,,,,,,,,,,,,,,,,None,None,"[0, 0, 0]",1041.983526899945,1043.9835282999557,1041.983526899945,1042.9835177999921,1042.9668346999679,1043.9668533999939,"[0, 0, 0]",1,1041.983526899945,1043.9835282999557,,,,,,,,,,,,,,,1,M,,22,r,CIB,2021_Sep_03_1231,2020.2.10,distractmap,60.00157203918752,"['Abdomen', 'Right Leg', 'Right Arm', 'Chest', 'Abdomen', 'Right Leg', 'Left Arm', 'Right Face', 'Left Arm', 'Left Face', 'Right Face', 'Right Arm', 'Chest', 'Left Leg', 'Left Leg', 'Left Face']",
8,"[0, -0.2]",0,,,,,0,9,9,9,,,,,,,,,,,,,,,,,,,,,,None,None,"[0, 0, 0]",1044.0001724998,1046.0002031999175,1044.0001724998,1045.000189699931,1044.9835296999663,1045.9835307998583,"[0, 0, 0]",1,1044.0001724998,1046.0002031999175,,,,,,,,,,,,,,,1,M,,22,r,CIB,2021_Sep_03_1231,2020.2.10,distractmap,60.00157203918752,"['Abdomen', 'Right Leg', 'Right Arm', 'Chest', 'Abdomen', 'Right Leg', 'Left Arm', 'Right Face', 'Left Arm', 'Left Face', 'Right Face', 'Right Arm', 'Chest', 'Left Leg', 'Left Leg', 'Left Face']",
,,,,,,,,,,,1046.016860399861,None,,,,,,,,,,,,,,,,,,,,,,,,,,,,,,,,,,,,,,,,,,,15.123456790123457,1026.4342983600218,,,1,M,,22,r,CIB,2021_Sep_03_1231,2020.2.10,distractmap,60.00157203918752,"['Abdomen', 'Right Leg', 'Right Arm', 'Chest', 'Abdomen', 'Right Leg', 'Left Arm', 'Right Face', 'Left Arm', 'Left Face', 'Right Face', 'Right Arm', 'Chest', 'Left Leg', 'Left Leg', 'Left Face']",
2,"[0, 0.2]",None,,,,,0,0,0,0,1064.2672005998902,None,,,,,,,,,,,,,,,,,,,,None,None,"[0, 0, 0]",1066.0670310999267,None,1066.0670310999267,1067.0669886998367,1067.0503618000075,1068.050362299895,"[0, 0, 0]",1,1066.0670310999267,None,,,,,,,,,,,,,0.01507933996617794,5.012816939968616,1,M,,22,r,CIB,2021_Sep_03_1231,2020.2.10,distractmap,60.00157203918752,"['Abdomen', 'Right Leg', 'Right Arm', 'Chest', 'Abdomen', 'Right Leg', 'Left Arm', 'Right Face', 'Left Arm', 'Left Face', 'Right Face', 'Right Arm', 'Chest', 'Left Leg', 'Left Leg', 'Left Face']",
5,"[0, 0]",None,,,,,0,1,1,1,,,,,,,,,,,,,,,,,,,,,,None,None,"[0, 0, 0]",1068.066912499955,1070.0670439000241,1068.066912499955,1069.06705339998,1069.0503779000137,1070.0503781998996,"[0, 0, 0]",1,1068.066912499955,1070.0670439000241,,,,,,,,,,,,,,,1,M,,22,r,CIB,2021_Sep_03_1231,2020.2.10,distractmap,60.00157203918752,"['Abdomen', 'Right Leg', 'Right Arm', 'Chest', 'Abdomen', 'Right Leg', 'Left Arm', 'Right Face', 'Left Arm', 'Left Face', 'Right Face', 'Right Arm', 'Chest', 'Left Leg', 'Left Leg', 'Left Face']",
3,"[0.2, 0.2]",0,,,,,0,2,2,2,,,,,,,,,,,,,,,,,,,,,,None,None,"[0, 0, 0]",1070.083723400021,1072.0837216000073,1070.083723400021,1071.0837258999236,1071.0670501999557,1072.0670543999877,"[0, 0, 0]",1,1070.083723400021,1072.0837216000073,,,,,,,,,,,,,,,1,M,,22,r,CIB,2021_Sep_03_1231,2020.2.10,distractmap,60.00157203918752,"['Abdomen', 'Right Leg', 'Right Arm', 'Chest', 'Abdomen', 'Right Leg', 'Left Arm', 'Right Face', 'Left Arm', 'Left Face', 'Right Face', 'Right Arm', 'Chest', 'Left Leg', 'Left Leg', 'Left Face']",
5,"[0, 0]",1,,,,,0,3,3,3,,,,,,,,,,,,,,,,,,,,,,None,None,"[0, 0, 0]",1072.1004025000148,1074.10042279982,1072.1004025000148,1073.1004090998322,1073.0837530998979,1074.0837075000163,"[0, 0, 0]",0,1072.1004025000148,1074.10042279982,,,,,,,,,,,,,,,1,M,,22,r,CIB,2021_Sep_03_1231,2020.2.10,distractmap,60.00157203918752,"['Abdomen', 'Right Leg', 'Right Arm', 'Chest', 'Abdomen', 'Right Leg', 'Left Arm', 'Right Face', 'Left Arm', 'Left Face', 'Right Face', 'Right Arm', 'Chest', 'Left Leg', 'Left Leg', 'Left Face']",
2,"[0, 0.2]",0,,,,,0,4,4,4,,,,,,,,,,,,,,,,,,,,,,None,None,"[0, 0, 0]",1074.1503483999986,None,1074.1503483999986,1075.1504512999672,1075.133754499955,None,"[0, 0, 0]",1,1074.1503483999986,None,,,,,,,,,,,,,,,1,M,,22,r,CIB,2021_Sep_03_1231,2020.2.10,distractmap,60.00157203918752,"['Abdomen', 'Right Leg', 'Right Arm', 'Chest', 'Abdomen', 'Right Leg', 'Left Arm', 'Right Face', 'Left Arm', 'Left Face', 'Right Face', 'Right Arm', 'Chest', 'Left Leg', 'Left Leg', 'Left Face']",
8,"[0, -0.2]",0,,,,,0,5,5,5,,,,,,,,,,,,,,,,,,,,,,None,None,"[0, 0, 0]",1076.1336544000078,1078.1337885998655,1076.1336544000078,1077.133764399914,1077.117018799996,1078.1171092998702,"[0, 0, 0]",1,1076.1336544000078,1078.1337885998655,,,,,,,,,,,,,,,1,M,,22,r,CIB,2021_Sep_03_1231,2020.2.10,distractmap,60.00157203918752,"['Abdomen', 'Right Leg', 'Right Arm', 'Chest', 'Abdomen', 'Right Leg', 'Left Arm', 'Right Face', 'Left Arm', 'Left Face', 'Right Face', 'Right Arm', 'Chest', 'Left Leg', 'Left Leg', 'Left Face']",
4,"[-0.2, 0]",0,,,,,0,6,6,6,,,,,,,,,,,,,,,,,,,,,,None,None,"[0, 0, 0]",1078.1504388998728,1080.1504612998106,1078.1504388998728,1079.1503365999088,1079.1337801998015,1080.1337980998214,"[0, 0, 0]",1,1078.1504388998728,1080.1504612998106,,,,,,,,,,,,,,,1,M,,22,r,CIB,2021_Sep_03_1231,2020.2.10,distractmap,60.00157203918752,"['Abdomen', 'Right Leg', 'Right Arm', 'Chest', 'Abdomen', 'Right Leg', 'Left Arm', 'Right Face', 'Left Arm', 'Left Face', 'Right Face', 'Right Arm', 'Chest', 'Left Leg', 'Left Leg', 'Left Face']",
8,"[0, -0.2]",1,,,,,0,7,7,7,,,,,,,,,,,,,,,,,,,,,,None,None,"[0, 0, 0]",1080.1671199998818,1082.1671418999322,1080.1671199998818,1081.1671336998697,1081.1504906998016,1082.1504859998822,"[0, 0, 0]",1,1080.1671199998818,1082.1671418999322,,,,,,,,,,,,,,,1,M,,22,r,CIB,2021_Sep_03_1231,2020.2.10,distractmap,60.00157203918752,"['Abdomen', 'Right Leg', 'Right Arm', 'Chest', 'Abdomen', 'Right Leg', 'Left Arm', 'Right Face', 'Left Arm', 'Left Face', 'Right Face', 'Right Arm', 'Chest', 'Left Leg', 'Left Leg', 'Left Face']",
7,"[-0.2, -0.2]",0,,,,,0,8,8,8,,,,,,,,,,,,,,,,,,,,,,None,None,"[0, 0, 0]",1082.183699999936,1084.1838214998133,1082.183699999936,1083.1838151998818,1083.1671468999702,1084.1671535999049,"[0, 0, 0]",1,1082.183699999936,1084.1838214998133,,,,,,,,,,,,,,,1,M,,22,r,CIB,2021_Sep_03_1231,2020.2.10,distractmap,60.00157203918752,"['Abdomen', 'Right Leg', 'Right Arm', 'Chest', 'Abdomen', 'Right Leg', 'Left Arm', 'Right Face', 'Left Arm', 'Left Face', 'Right Face', 'Right Arm', 'Chest', 'Left Leg', 'Left Leg', 'Left Face']",
8,"[0, -0.2]",1,,,,,0,9,9,9,,,,,,,,,,,,,,,,,,,,,,None,None,"[0, 0, 0]",1084.2004851999227,1086.2005252998788,1084.2004851999227,1085.2005301997997,1085.1838753998745,1086.1838424999733,"[0, 0, 0]",1,1084.2004851999227,1086.2005252998788,,,,,,,,,,,,,,,1,M,,22,r,CIB,2021_Sep_03_1231,2020.2.10,distractmap,60.00157203918752,"['Abdomen', 'Right Leg', 'Right Arm', 'Chest', 'Abdomen', 'Right Leg', 'Left Arm', 'Right Face', 'Left Arm', 'Left Face', 'Right Face', 'Right Arm', 'Chest', 'Left Leg', 'Left Leg', 'Left Face']",
,,,,,,,,,,,1086.217178999912,None,,,,,,,,,,,,,,,,,,,,,,,,,,,,,,,,,,,,,,,,,,,14.629629629629628,1061.868685059948,,,1,M,,22,r,CIB,2021_Sep_03_1231,2020.2.10,distractmap,60.00157203918752,"['Abdomen', 'Right Leg', 'Right Arm', 'Chest', 'Abdomen', 'Right Leg', 'Left Arm', 'Right Face', 'Left Arm', 'Left Face', 'Right Face', 'Right Arm', 'Chest', 'Left Leg', 'Left Leg', 'Left Face']",
2,"[0, 0.2]",None,0,0,0,0,,,,,1100.4507869998924,None,1106.2839996998664,None,1106.2839996998664,1107.2840238998178,1107.267347499961,1108.2673440999351,1,None,None,"[0, 0, 0]",,,1106.2839996998664,None,,,,,,,,,,,,,,,,,,,,,,,,,,"[0, 0, 0]",,,,,0.014281939947977662,5.010975539917126,1,M,,22,r,CIB,2021_Sep_03_1231,2020.2.10,distractmap,60.00157203918752,"['Abdomen', 'Right Leg', 'Right Arm', 'Chest', 'Abdomen', 'Right Leg', 'Left Arm', 'Right Face', 'Left Arm', 'Left Face', 'Right Face', 'Right Arm', 'Chest', 'Left Leg', 'Left Leg', 'Left Face']",
