	SID	biopac_channel	body_site	condition	correct	date	duration	handedness	mouseclick	onset	rt	scanner	score	session	sex	skin_site	temperature	value
0	2568	42	Left Leg	0-back Instruction		2024_Feb_18_1256	5.008897561696358	R		2.7785724999848753		MS SS SK		2	F	2		
1	2568	7	Left Leg	Pre-Trial Jitter		2024_Feb_18_1256	5.006293079990428	R		7.798015299951658		MS SS SK		2	F	2		
2	2568	44.0	Left Leg	pretrialfixation		2024_Feb_18_1256	1.0056871800334193	R		13.065006499993615		MS SS SK		2	F	2		
3	2568		Left Leg	0-back	1.0	2024_Feb_18_1256	1.9913017799844965	R	0.0	14.080621399974916	1.5130922999815084	MS SS SK	12.5	2	F	2	32.0	
4	2568		Left Leg	0-back	1.0	2024_Feb_18_1256	1.987566880066879	R	0.0	16.09085799998138	1.4971747000236064	MS SS SK	25.0	2	F	2	32.0	
5	2568		Left Leg	0-back	1.0	2024_Feb_18_1256	1.9890784799936228	R	0.0	18.09010639996268	1.3172120999661274	MS SS SK	37.5	2	F	2	32.0	
6	2568		Left Leg	0-back	1.0	2024_Feb_18_1256	1.9886041799909435	R	0.0	20.090355499996804	1.3301445999532007	MS SS SK	50.0	2	F	2	32.0	
7	2568		Left Leg	0-back	1.0	2024_Feb_18_1256	1.9888432800071314	R	0.0	22.090217199991457	1.2338610999868251	MS SS SK	62.5	2	F	2	32.0	
8	2568		Left Leg	0-back	1.0	2024_Feb_18_1256	1.9889164799824357	R	0.0	24.090244899969548	1.1638200000161305	MS SS SK	75.0	2	F	2	32.0	
9	2568		Left Leg	0-back	1.0	2024_Feb_18_1256	1.9884289799956605	R	0.0	26.090510399953928	1.180223700008355	MS SS SK	87.5	2	F	2	32.0	
10	2568		Left Leg	0-back	1.0	2024_Feb_18_1256	1.9883540799492039	R	0.0	28.09056449995842	0.9638142999610864	MS SS SK	100.0	2	F	2	32.0	
11	2568	48.0	Left Leg	ScoreReport		2024_Feb_18_1256	5.004586279974319	R		30.099171499954537		MS SS SK		2	F	2		
12	2568	8	Left Leg	Post-Trial Jitter		2024_Feb_18_1256	6.99604471999919	R		35.16182639996987		MS SS SK		2	F	2		
13	2568	42	Left Leg	0-back Instruction		2024_Feb_18_1256	4.996047859953251	R		42.17854479997186		MS SS SK		2	F	2		
14	2568	7	Left Leg	Pre-Trial Jitter		2024_Feb_18_1256	7.005381380033214	R		47.182295999955386		MS SS SK		2	F	2		
15	2568	44.0	Left Leg	pretrialfixation		2024_Feb_18_1256	1.0062273800140247	R		54.448570199951064		MS SS SK		2	F	2		
16	2568		Left Leg	0-back	1.0	2024_Feb_18_1256	1.9917568800156005	R	0.0	55.464169099985156	1.4799168999888934	MS SS SK	12.5	2	F	2	32.0	
17	2568		Left Leg	0-back	1.0	2024_Feb_18_1256	1.9881706799496897	R	0.0	57.47430909995455	1.2637623000191525	MS SS SK	25.0	2	F	2	32.0	
18	2568		Left Leg	0-back	1.0	2024_Feb_18_1256	1.9893483799532987	R	0.0	59.47374459996354	1.263802699977532	MS SS SK	37.5	2	F	2	32.0	
19	2568		Left Leg	0-back	1.0	2024_Feb_18_1256	1.9894076799391769	R	0.0	61.47374270000728	1.2804679999826476	MS SS SK	50.0	2	F	2	32.0	
20	2568		Left Leg	0-back	1.0	2024_Feb_18_1256	1.9894951799651608	R	0.0	63.47371150000254	1.2637058999971487	MS SS SK	62.5	2	F	2	32.0	
21	2568		Left Leg	0-back	1.0	2024_Feb_18_1256	1.989427379972767	R	0.0	65.47376809996786	1.2304134999867529	MS SS SK	75.0	2	F	2	32.0	
22	2568		Left Leg	0-back	1.0	2024_Feb_18_1256	1.989348080009222	R	0.0	67.47384569997666	1.2302765999920666	MS SS SK	87.5	2	F	2	32.0	
23	2568		Left Leg	0-back	1.0	2024_Feb_18_1256	1.9894756799913011	R	0.0	69.47379009996075	1.1840989999473095	MS SS SK	100.0	2	F	2	32.0	
24	2568	48.0	Left Leg	ScoreReport		2024_Feb_18_1256	5.005701979971491	R		71.48236309998902		MS SS SK		2	F	2		
25	2568	8	Left Leg	Post-Trial Jitter		2024_Feb_18_1256	7.00399852002738	R		76.5416394000058		MS SS SK		2	F	2		
26	2568	51	Left Leg	Expectancy		2024_Feb_18_1256	5.010188340093009	R		84.41358940000646	4.7670825000386685	MS SS SK		2	F	2		1.1728395061728403
27	2568	45	Left Leg	2-back Instruction		2024_Feb_18_1256	5.012194920098409	R		89.81266959995264		MS SS SK		2	F	2		
28	2568	7	Left Leg	Pre-trial Jitter		2024_Feb_18_1256	7.004685280029662	R		94.8331641999539		MS SS SK		2	F	2		
29	2568	44.0	Left Leg	pretrialfixation		2024_Feb_18_1256	1.0070957600255497	R		102.11524409998674		MS SS SK		2	F	2		
30	2568		Left Leg	2-back	1.0	2024_Feb_18_1256	1.9905072799883783	R		103.13191039999947		MS SS SK	12.5	2	F	2	47.5	
31	2568		Left Leg	2-back	0.0	2024_Feb_18_1256	1.987306980008725	R	0	105.14191969996318	0.06387519999407232	MS SS SK	12.5	2	F	2	47.5	
32	2568		Left Leg	2-back	1.0	2024_Feb_18_1256	1.9873286800575443	R	0	107.14191419997951	1.3303419000003487	MS SS SK	25.0	2	F	2	47.5	
33	2568		Left Leg	2-back	1.0	2024_Feb_18_1256	1.98651667998638	R	2	109.14236229995731	1.6344313999870792	MS SS SK	37.5	2	F	2	47.5	
34	2568		Left Leg	2-back	1.0	2024_Feb_18_1256	1.9877258799388073	R	2	111.14177339995513	1.497139299986884	MS SS SK	50.0	2	F	2	47.5	
35	2568		Left Leg	2-back	1.0	2024_Feb_18_1256	1.987231979961507	R	2	113.14203899999848	1.3136585999745876	MS SS SK	62.5	2	F	2	47.5	
36	2568		Left Leg	2-back	1.0	2024_Feb_18_1256	1.9872776799602434	R	0	115.14205799996853	1.3138609000016004	MS SS SK	75.0	2	F	2	47.5	
37	2568		Left Leg	2-back	1.0	2024_Feb_18_1256	1.98730317997979	R	2	117.14205999998376	1.2136604000115767	MS SS SK	87.5	2	F	2	47.5	
38	2568	48.0	Left Leg	ScoreReport		2024_Feb_18_1256	5.01154445996508	R		119.15496889996575		MS SS SK		2	F	2		
39	2568	8	Left Leg	Post-trial Jitter		2024_Feb_18_1256	9.002287220035214	R		124.20964549999917		MS SS SK		2	F	2		
40	2568	20	Left Leg	PainBinary		2024_Feb_18_1256	5.002873860066757	R		133.22610420000274	1.5003184999804944	MS SS SK		2	F	2		1.0
41	2568	21	Left Leg	IntensityRating		2024_Feb_18_1256	5.013009760063142	R		138.2461234999937	1.783380999986548	MS SS SK		2	F	2		50.0
42	2568	23	Left Leg	DistractBinary		2024_Feb_18_1256	5.005603160068858	R		143.2748830000055	1.633434000017587	MS SS SK		2	F	2		1.0
43	2568	9	Left Leg	Post-Q-Jitter		2024_Feb_18_1256	8.99398198002018	R		148.2807348999777		MS SS SK		2	F	2		
44	2568	51	Left Leg	Expectancy		2024_Feb_18_1256	5.014787800027989	R		157.50373659998877	2.8169641999993473	MS SS SK		2	F	2		57.53086419753086
45	2568	45	Left Leg	2-back Instruction		2024_Feb_18_1256	5.005547400098294	R		162.90840289997868		MS SS SK		2	F	2		
46	2568	7	Left Leg	Pre-trial Jitter		2024_Feb_18_1256	5.002332579984795	R		167.91841729998123		MS SS SK		2	F	2		
47	2568	44.0	Left Leg	pretrialfixation		2024_Feb_18_1256	1.003876620088704	R		173.2343415999785		MS SS SK		2	F	2		
48	2568		Left Leg	2-back	0.0	2024_Feb_18_1256	1.9906334799597971	R	2.0	174.24927539995406	1.3132267000037245	MS SS SK	0.0	2	F	2	47.5	
49	2568		Left Leg	2-back	0.0	2024_Feb_18_1256	1.9880567799555138	R	2.0	176.25898359995335	1.2636718999710865	MS SS SK	0.0	2	F	2	47.5	
50	2568		Left Leg	2-back	1.0	2024_Feb_18_1256	1.9887740799458697	R	2.0	178.25863329996355	1.2468563999864273	MS SS SK	12.5	2	F	2	47.5	
51	2568		Left Leg	2-back	1.0	2024_Feb_18_1256	1.9890489799436182	R	2.0	180.25844879995566	1.2470536999753676	MS SS SK	25.0	2	F	2	47.5	
52	2568		Left Leg	2-back	1.0	2024_Feb_18_1256	1.9891193799558096	R	0.0	182.25850239995634	1.1133897000108846	MS SS SK	37.5	2	F	2	47.5	
53	2568		Left Leg	2-back	1.0	2024_Feb_18_1256	1.9888679800205864	R	0.0	184.2586381000001	1.2637655999860726	MS SS SK	50.0	2	F	2	47.5	
54	2568		Left Leg	2-back	1.0	2024_Feb_18_1256	1.9887988799600862	R	2.0	186.258714399999	1.063750599976629	MS SS SK	62.5	2	F	2	47.5	
55	2568		Left Leg	2-back	1.0	2024_Feb_18_1256	1.9892698799958453	R	2.0	188.25848560000304	1.2509341000113636	MS SS SK	75.0	2	F	2	47.5	
56	2568	48.0	Left Leg	ScoreReport		2024_Feb_18_1256	5.012503060046583	R		190.27191449998645		MS SS SK		2	F	2		
57	2568	8	Left Leg	Post-trial Jitter		2024_Feb_18_1256	7.003884720092174	R		195.3262807999854		MS SS SK		2	F	2		
58	2568	20	Left Leg	PainBinary		2024_Feb_18_1256	5.002709860040341	R		202.34359469998162	2.7169867999618873	MS SS SK		2	F	2		1.0
59	2568	21	Left Leg	IntensityRating		2024_Feb_18_1256	5.011495660000946	R		207.36425339995185	2.9667135000345297	MS SS SK		2	F	2		37.03703703703704
60	2568	23	Left Leg	DistractBinary		2024_Feb_18_1256	5.005321560020093	R		212.39240509999217	1.9503674000152387	MS SS SK		2	F	2		-1.0
61	2568	9	Left Leg	Post-Q-Jitter		2024_Feb_18_1256	6.993311179976445	R		217.39847869996447		MS SS SK		2	F	2		
62	2568	51	Left Leg	Expectancy		2024_Feb_18_1256	5.005694960069377	R		225.25065139995422	2.4667020000051707	MS SS SK		2	F	2		54.1358024691358
63	2568	44	Left Leg	0-back Instruction		2024_Feb_18_1256	5.005271520058159	R		230.65094769996358		MS SS SK		2	F	2		
64	2568	7	Left Leg	Pre-Trial Jitter		2024_Feb_18_1256	7.0036361800157465	R		235.66849349997938		MS SS SK		2	F	2		
65	2568	44.0	Left Leg	pretrialfixation		2024_Feb_18_1256	1.0117802200838923	R		242.97273909999058		MS SS SK		2	F	2		
66	2568		Left Leg	0-back	1.0	2024_Feb_18_1256	1.9903755799750797	R	0.0	243.98349569999846	1.5135191000299528	MS SS SK	12.5	2	F	2	47.5	
67	2568		Left Leg	0-back	1.0	2024_Feb_18_1256	1.9881470800028183	R	0.0	245.99299739999697	1.2969968999968842	MS SS SK	25.0	2	F	2	47.5	
68	2568		Left Leg	0-back	1.0	2024_Feb_18_1256	1.9882474800106138	R	0.0	247.992516600003	1.2461261000134982	MS SS SK	37.5	2	F	2	47.5	
69	2568		Left Leg	0-back	1.0	2024_Feb_18_1256	1.9901047800085507	R	0.0	249.99152709997725	0.8342978999717161	MS SS SK	50.0	2	F	2	47.5	
70	2568		Left Leg	0-back	1.0	2024_Feb_18_1256	1.9892678799806163	R	0.0	251.9924001999898	0.6638229000382125	MS SS SK	62.5	2	F	2	47.5	
71	2568		Left Leg	0-back	1.0	2024_Feb_18_1256	1.989247279940173	R	0.0	253.99252549995435	0.9137989999726415	MS SS SK	75.0	2	F	2	47.5	
72	2568		Left Leg	0-back	1.0	2024_Feb_18_1256	1.9890205799601972	R	0.0	255.99269439995987	0.9305064000072889	MS SS SK	87.5	2	F	2	47.5	
73	2568		Left Leg	0-back	1.0	2024_Feb_18_1256	1.9893404800095595	R	0.0	257.99253589997534	1.4339686000021175	MS SS SK	100.0	2	F	2	47.5	
74	2568	48.0	Left Leg	ScoreReport		2024_Feb_18_1256	5.005043479963206	R		260.001383099996		MS SS SK		2	F	2		
75	2568	8	Left Leg	Post-Trial Jitter		2024_Feb_18_1256	4.998688319989014	R		265.0629457999603		MS SS SK		2	F	2		
76	2568	20	Left Leg	PainBinary		2024_Feb_18_1256	5.005028860003222	R		270.0765115999966	4.086509999993723	MS SS SK		2	F	2		1.0
77	2568	21	Left Leg	IntensityRating		2024_Feb_18_1256	5.013889060064685	R		275.09712960000616	2.9001864000456408	MS SS SK		2	F	2		39.81481481481482
78	2568	23	Left Leg	DistractBinary		2024_Feb_18_1256	5.0039839599630795	R		280.12714369996684	2.7003200000035577	MS SS SK		2	F	2		1.0
79	2568	9	Left Leg	Post-Q-Jitter		2024_Feb_18_1256	4.995125379995443	R		285.1316339999903		MS SS SK		2	F	2		
80	2568	51	Left Leg	Expectancy		2024_Feb_18_1256	5.011931340035517	R		291.0815665999544	3.1500555999809876	MS SS SK		2	F	2		45.925925925925924
81	2568	44	Left Leg	0-back Instruction		2024_Feb_18_1256	5.016075199993793	R		296.48790389997885		MS SS SK		2	F	2		
82	2568	7	Left Leg	Pre-Trial Jitter		2024_Feb_18_1256	9.001593980006874	R		301.5035828999826		MS SS SK		2	F	2		
83	2568	44.0	Left Leg	pretrialfixation		2024_Feb_18_1256	1.0014139401027933	R		310.8037135999766		MS SS SK		2	F	2		
84	2568		Left Leg	0-back	1.0	2024_Feb_18_1256	1.9900048800045624	R	0.0	311.8177830000059	1.5302051000180654	MS SS SK	12.5	2	F	2	47.5	
85	2568		Left Leg	0-back	1.0	2024_Feb_18_1256	1.9881762799341232	R	0.0	313.8270716999541	1.3138389000087045	MS SS SK	25.0	2	F	2	47.5	
86	2568		Left Leg	0-back	1.0	2024_Feb_18_1256	1.9890045800129883	R	0.0	315.82662740000524	1.200968399993144	MS SS SK	37.5	2	F	2	47.5	
87	2568		Left Leg	0-back	1.0	2024_Feb_18_1256	1.9892025800072588	R	0.0	317.8266008999781	0.8801253999699838	MS SS SK	50.0	2	F	2	47.5	
88	2568		Left Leg	0-back	1.0	2024_Feb_18_1256	1.9893633799511008	R	0.0	319.826531699975	0.6509631999651901	MS SS SK	62.5	2	F	2	47.5	
89	2568		Left Leg	0-back	1.0	2024_Feb_18_1256	1.9894242800073698	R	0.0	321.82651009998517	0.5971909000072628	MS SS SK	75.0	2	F	2	47.5	
90	2568		Left Leg	0-back	1.0	2024_Feb_18_1256	1.988959580019582	R	0.0	323.82678030000534	0.4803346000262536	MS SS SK	87.5	2	F	2	47.5	
91	2568		Left Leg	0-back	1.0	2024_Feb_18_1256	1.9894969800370745	R	0.0	325.82652279996546	0.28036319999955595	MS SS SK	100.0	2	F	2	47.5	
92	2568	48.0	Left Leg	ScoreReport		2024_Feb_18_1256	5.004819280002266	R		327.83554539998295		MS SS SK		2	F	2		
93	2568	8	Left Leg	Post-Trial Jitter		2024_Feb_18_1256	5.000257320003584	R		332.89622449997114		MS SS SK		2	F	2		
94	2568	20	Left Leg	PainBinary		2024_Feb_18_1256	5.000616759934928	R		337.9127827999764	3.550350899982732	MS SS SK		2	F	2		-1.0
95	2568	21	Left Leg	IntensityRating		2024_Feb_18_1256	5.012823159981053	R		342.9317350999918	2.2690404999884777	MS SS SK		2	F	2		31.234567901234566
96	2568	9	Left Leg	Post-Q-Jitter		2024_Feb_18_1256	4.994787379982881	R		347.94915239996044		MS SS SK		2	F	2		
97	2568	43	Left Leg	2-back Instruction		2024_Feb_18_1256	5.005402959999628	R		352.96887969999807		MS SS SK		2	F	2		
98	2568	7	Left Leg	Pre-trial Jitter		2024_Feb_18_1256	9.00270447996445	R		357.98696209996706		MS SS SK		2	F	2		
99	2568	44.0	Left Leg	pretrialfixation		2024_Feb_18_1256	0.9977251800592057	R		367.2478261999786		MS SS SK		2	F	2		
100	2568		Left Leg	2-back	1.0	2024_Feb_18_1256	1.991104679997079	R		368.2511742999777		MS SS SK	12.5	2	F	2	32.0	
101	2568		Left Leg	2-back	1.0	2024_Feb_18_1256	1.9868336800136603	R		370.26167179999175		MS SS SK	25.0	2	F	2	32.0	
102	2568		Left Leg	2-back	1.0	2024_Feb_18_1256	1.9879160799901001	R	2	372.26114580000285	0.9173255999921821	MS SS SK	37.5	2	F	2	32.0	
103	2568		Left Leg	2-back	1.0	2024_Feb_18_1256	1.9874758800142445	R	0	374.2613799999817	1.2972068000235595	MS SS SK	50.0	2	F	2	32.0	
104	2568		Left Leg	2-back	0.0	2024_Feb_18_1256	1.9875432799453847	R	0	376.26137560000643	1.330511000007391	MS SS SK	50.0	2	F	2	32.0	
105	2568		Left Leg	2-back	1.0	2024_Feb_18_1256	1.9865808800095692	R	2	378.2618705999921	1.3970633000135422	MS SS SK	62.5	2	F	2	32.0	
106	2568		Left Leg	2-back	1.0	2024_Feb_18_1256	1.987538079963997	R	2	380.2614077999606	1.2805217999848537	MS SS SK	75.0	2	F	2	32.0	
107	2568		Left Leg	2-back	1.0	2024_Feb_18_1256	1.9871519799926318	R	0	382.2616274000029	1.280487300013192	MS SS SK	87.5	2	F	2	32.0	
108	2568	48.0	Left Leg	ScoreReport		2024_Feb_18_1256	5.01150935998885	R		384.27450070000486		MS SS SK		2	F	2		
109	2568	8	Left Leg	Post-trial Jitter		2024_Feb_18_1256	9.00169172004098	R		389.32947850000346		MS SS SK		2	F	2		
110	2568	43	Left Leg	2-back Instruction		2024_Feb_18_1256	4.9961042599752545	R		398.3490043999627		MS SS SK		2	F	2		
111	2568	7	Left Leg	Pre-trial Jitter		2024_Feb_18_1256	5.00246987992432	R		403.3542185999686		MS SS SK		2	F	2		
112	2568	44.0	Left Leg	pretrialfixation		2024_Feb_18_1256	0.993516480026301	R		408.6170349000022		MS SS SK		2	F	2		
113	2568		Left Leg	2-back	1.0	2024_Feb_18_1256	1.9902151800342835	R		409.6187292999821		MS SS SK	12.5	2	F	2	32.0	
114	2568		Left Leg	2-back	1.0	2024_Feb_18_1256	1.9858791799633764	R		411.6292593999533		MS SS SK	25.0	2	F	2	32.0	
115	2568		Left Leg	2-back	1.0	2024_Feb_18_1256	1.9876561799901538	R	0	413.62839229998644	1.213550899992697	MS SS SK	37.5	2	F	2	32.0	
116	2568		Left Leg	2-back	1.0	2024_Feb_18_1256	1.9879773799912073	R	2	415.62825359997805	1.297124500037171	MS SS SK	50.0	2	F	2	32.0	
117	2568		Left Leg	2-back	0.0	2024_Feb_18_1256	1.987257279921323	R	0	417.6286244999501	1.3674554000026546	MS SS SK	50.0	2	F	2	32.0	
118	2568		Left Leg	2-back	1.0	2024_Feb_18_1256	1.9879756799782626	R	2	419.62829889997374	1.280512799974531	MS SS SK	62.5	2	F	2	32.0	
119	2568		Left Leg	2-back	0.0	2024_Feb_18_1256	1.9878189800074324	R	2	421.62839909998	1.367082200013101	MS SS SK	62.5	2	F	2	32.0	
120	2568		Left Leg	2-back	1.0	2024_Feb_18_1256	1.9878519799676724	R	0	423.62840159999905	1.3139122999855317	MS SS SK	75.0	2	F	2	32.0	
121	2568	48.0	Left Leg	ScoreReport		2024_Feb_18_1256	5.012175259995274	R		425.6412794999778		MS SS SK		2	F	2		
122	2568	8	Left Leg	Post-trial Jitter		2024_Feb_18_1256	7.002469820086844	R		430.69620499998564		MS SS SK		2	F	2		
123	2568	51	Left Leg	Expectancy		2024_Feb_18_1256	5.0130326600628905	R		438.6325979999965	2.8500523999682628	MS SS SK		2	F	2		57.46913580246914
124	2568	44	Left Leg	0-back Instruction		2024_Feb_18_1256	5.008389320049901	R		444.0350478999899		MS SS SK		2	F	2		
125	2568	7	Left Leg	Pre-Trial Jitter		2024_Feb_18_1256	7.001718079962302	R		449.05512309999904		MS SS SK		2	F	2		
126	2568	44.0	Left Leg	pretrialfixation		2024_Feb_18_1256	1.007730720040854	R		456.36877279996406		MS SS SK		2	F	2		
127	2568		Left Leg	0-back	1.0	2024_Feb_18_1256	1.9906286800396629	R	0.0	457.38569229998393	1.3967183000058867	MS SS SK	12.5	2	F	2	47.5	
128	2568		Left Leg	0-back	1.0	2024_Feb_18_1256	1.987871780002024	R	0.0	459.3954370999709	1.2136567000416107	MS SS SK	25.0	2	F	2	47.5	
129	2568		Left Leg	0-back	1.0	2024_Feb_18_1256	1.9886277799960226	R	0.0	461.39511089998996	1.3638818999752402	MS SS SK	37.5	2	F	2	47.5	
130	2568		Left Leg	0-back	1.0	2024_Feb_18_1256	1.9888596800155938	R	0.0	463.3950100999791	1.263725999975577	MS SS SK	50.0	2	F	2	47.5	
131	2568		Left Leg	0-back	1.0	2024_Feb_18_1256	1.9882647799677216	R	0.0	465.39531499997247	1.3469264999730512	MS SS SK	62.5	2	F	2	47.5	
132	2568		Left Leg	0-back	1.0	2024_Feb_18_1256	1.9889805799466558	R	0.0	467.39498879999155	1.1137943000067025	MS SS SK	75.0	2	F	2	47.5	
133	2568		Left Leg	0-back	1.0	2024_Feb_18_1256	1.9883237799513154	R	0.0	469.39532819995657	1.1298497999669053	MS SS SK	87.5	2	F	2	47.5	
134	2568		Left Leg	0-back	1.0	2024_Feb_18_1256	1.9889232799760066	R	0.0	471.39502870000433	1.3133018999942578	MS SS SK	100.0	2	F	2	47.5	
135	2568	48.0	Left Leg	ScoreReport		2024_Feb_18_1256	5.004858879954554	R		473.40378140000394		MS SS SK		2	F	2		
136	2568	8	Left Leg	Post-Trial Jitter		2024_Feb_18_1256	7.002353220013902	R		478.4634439999936		MS SS SK		2	F	2		
137	2568	20	Left Leg	PainBinary		2024_Feb_18_1256	5.004594860016368	R		485.479053499992	2.183409900055267	MS SS SK		2	F	2		1.0
138	2568	21	Left Leg	IntensityRating		2024_Feb_18_1256	5.013279560022056	R		490.4997464999906	2.650056599988602	MS SS SK		2	F	2		36.66666666666667
139	2568	23	Left Leg	DistractBinary		2024_Feb_18_1256	5.002385060011875	R		495.5302461999818	1.8503321000025608	MS SS SK		2	F	2		1.0
140	2568	9	Left Leg	Post-Q-Jitter		2024_Feb_18_1256	6.994769279961474	R		500.53411219996633		MS SS SK		2	F	2		
141	2568	51	Left Leg	Expectancy		2024_Feb_18_1256	5.008721480087843	R		508.44382489996497	3.5669811999541707	MS SS SK		2	F	2		50.0
142	2568	44	Left Leg	0-back Instruction		2024_Feb_18_1256	5.0007944000535645	R		513.8478933000006		MS SS SK		2	F	2		
143	2568	7	Left Leg	Pre-Trial Jitter		2024_Feb_18_1256	7.002458879956976	R		518.8554754999932		MS SS SK		2	F	2		
144	2568	44.0	Left Leg	pretrialfixation		2024_Feb_18_1256	1.0083803400048055	R		526.152536599955		MS SS SK		2	F	2		
145	2568		Left Leg	0-back	1.0	2024_Feb_18_1256	1.989819879992865	R	0.0	527.1702018000069	1.6466172999935225	MS SS SK	12.5	2	F	2	47.5	
146	2568		Left Leg	0-back	1.0	2024_Feb_18_1256	1.9884031799738295	R	0.0	529.1792753000045	1.4804116999730468	MS SS SK	25.0	2	F	2	47.5	
147	2568		Left Leg	0-back	1.0	2024_Feb_18_1256	1.988561479956843	R	0.0	531.1792242999654	1.380360200011637	MS SS SK	37.5	2	F	2	47.5	
148	2568		Left Leg	0-back	1.0	2024_Feb_18_1256	1.98941187991295	R	0.0	533.1788029999589	1.3004950999747962	MS SS SK	50.0	2	F	2	47.5	
149	2568		Left Leg	0-back	1.0	2024_Feb_18_1256	1.9893332800129429	R	0.0	535.178881699976	1.2640229999669828	MS SS SK	62.5	2	F	2	47.5	
150	2568		Left Leg	0-back	1.0	2024_Feb_18_1256	1.9893266800208949	R	0.0	537.1788956999662	1.280075200018473	MS SS SK	75.0	2	F	2	47.5	
151	2568		Left Leg	0-back	1.0	2024_Feb_18_1256	1.9889531799708493	R	0.0	539.1790961999795	1.3003844000049867	MS SS SK	87.5	2	F	2	47.5	
152	2568		Left Leg	0-back	1.0	2024_Feb_18_1256	1.989377580001019	R	0.0	541.1789114999701	1.3304125999566168	MS SS SK	100.0	2	F	2	47.5	
153	2568	48.0	Left Leg	ScoreReport		2024_Feb_18_1256	5.005070779996458	R		543.1877532999497		MS SS SK		2	F	2		
154	2568	8	Left Leg	Post-Trial Jitter		2024_Feb_18_1256	9.0019814199768	R		548.2477009999566		MS SS SK		2	F	2		
155	2568	20	Left Leg	PainBinary		2024_Feb_18_1256	5.001675459963735	R		557.2646116999676	1.6837192999664694	MS SS SK		2	F	2		1.0
156	2568	21	Left Leg	IntensityRating		2024_Feb_18_1256	4.996765260002576	R		562.283784099971	1.3004508999874815	MS SS SK		2	F	2		50.0
157	2568	23	Left Leg	DistractBinary		2024_Feb_18_1256	5.005139160028193	R		567.2963179000071	1.8503295999835245	MS SS SK		2	F	2		1.0
158	2568	9	Left Leg	Post-Q-Jitter		2024_Feb_18_1256	8.994116679998115	R		572.3019089999725		MS SS SK		2	F	2		
159	2568	51	Left Leg	Expectancy		2024_Feb_18_1256	5.0163726600585505	R		582.2241534999921	2.933503100008238	MS SS SK		2	F	2		57.96296296296296
160	2568	45	Left Leg	2-back Instruction		2024_Feb_18_1256	5.004906500049401	R		587.6299709999585		MS SS SK		2	F	2		
161	2568	7	Left Leg	Pre-trial Jitter		2024_Feb_18_1256	5.00147607998224	R		592.6401021999773		MS SS SK		2	F	2		
162	2568	44.0	Left Leg	pretrialfixation		2024_Feb_18_1256	1.0004268000484444	R		597.9655773999984		MS SS SK		2	F	2		
163	2568		Left Leg	2-back	1.0	2024_Feb_18_1256	1.990004580002278	R		598.9708207999938		MS SS SK	12.5	2	F	2	47.5	
164	2568		Left Leg	2-back	1.0	2024_Feb_18_1256	1.9872010799590498	R		600.9806083999574		MS SS SK	25.0	2	F	2	47.5	
165	2568		Left Leg	2-back	1.0	2024_Feb_18_1256	1.9868825799785554	R	2	602.9808168999734	1.3017615000135265	MS SS SK	37.5	2	F	2	47.5	
166	2568		Left Leg	2-back	1.0	2024_Feb_18_1256	1.9877891800133511	R	2	604.9803744999808	1.31344870000612	MS SS SK	50.0	2	F	2	47.5	
167	2568		Left Leg	2-back	1.0	2024_Feb_18_1256	1.9865685799741186	R	0	606.9810078999726	1.3012650000164285	MS SS SK	62.5	2	F	2	47.5	
168	2568		Left Leg	2-back	1.0	2024_Feb_18_1256	1.9870554799563251	R	2	608.9807883999893	1.3135993999894708	MS SS SK	75.0	2	F	2	47.5	
169	2568		Left Leg	2-back	1.0	2024_Feb_18_1256	1.987800479924772	R	0	610.9804399999557	1.301649900036864	MS SS SK	87.5	2	F	2	47.5	
170	2568		Left Leg	2-back	1.0	2024_Feb_18_1256	1.9875752800144255	R	2	612.9805749999941	1.3016613000072539	MS SS SK	100.0	2	F	2	47.5	
171	2568	48.0	Left Leg	ScoreReport		2024_Feb_18_1256	5.00244378001662	R		614.9898517999682		MS SS SK		2	F	2		
172	2568	8	Left Leg	Post-trial Jitter		2024_Feb_18_1256	8.998341519967653	R		620.0503110999707		MS SS SK		2	F	2		
173	2568	20	Left Leg	PainBinary		2024_Feb_18_1256	5.000566260016058	R		629.0659441999742	1.5503322000149637	MS SS SK		2	F	2		1.0
174	2568	21	Left Leg	IntensityRating		2024_Feb_18_1256	5.011594059993513	R		634.0855139999767	3.1334236999973655	MS SS SK		2	F	2		36.60493827160494
175	2568	23	Left Leg	DistractBinary		2024_Feb_18_1256	5.003967260068748	R		639.1143719999818	3.7170171999605373	MS SS SK		2	F	2		1.0
176	2568	9	Left Leg	Post-Q-Jitter		2024_Feb_18_1256	8.993650579999667	R		644.1195780999842		MS SS SK		2	F	2		
177	2568	51	Left Leg	Expectancy		2024_Feb_18_1256	5.007062220131047	R		654.1629074999946	4.085831100004725	MS SS SK		2	F	2		61.04938271604938
178	2568	45	Left Leg	2-back Instruction		2024_Feb_18_1256	5.009677620022558	R		659.5533488999936		MS SS SK		2	F	2		
179	2568	7	Left Leg	Pre-trial Jitter		2024_Feb_18_1256	5.002837779989932	R		664.5735090999515		MS SS SK		2	F	2		
180	2568	44.0	Left Leg	pretrialfixation		2024_Feb_18_1256	1.003890140040312	R		669.87301749998		MS SS SK		2	F	2		
181	2568		Left Leg	2-back	1.0	2024_Feb_18_1256	1.9897270799265243	R		670.8884663999779		MS SS SK	12.5	2	F	2	47.5	
182	2568		Left Leg	2-back	1.0	2024_Feb_18_1256	1.9872197799850255	R		672.8980784000014		MS SS SK	25.0	2	F	2	47.5	
183	2568		Left Leg	2-back	1.0	2024_Feb_18_1256	1.9882603799924254	R	0	674.8975722999894	1.2637749999994412	MS SS SK	37.5	2	F	2	47.5	
184	2568		Left Leg	2-back	1.0	2024_Feb_18_1256	1.987967979919631	R	2	676.8977436999558	1.2972030999953859	MS SS SK	50.0	2	F	2	47.5	
185	2568		Left Leg	2-back	1.0	2024_Feb_18_1256	1.9881024799542502	R	2	678.8976981999585	1.263340099947527	MS SS SK	62.5	2	F	2	47.5	
186	2568		Left Leg	2-back	1.0	2024_Feb_18_1256	1.9881153799942695	R	2	680.8977242999827	1.247124400048051	MS SS SK	75.0	2	F	2	47.5	
187	2568		Left Leg	2-back	1.0	2024_Feb_18_1256	1.988186179951299	R	0	682.8976900999551	1.2637830000021495	MS SS SK	87.5	2	F	2	47.5	
188	2568		Left Leg	2-back	1.0	2024_Feb_18_1256	1.9880646800156683	R	2	684.8977756999666	1.0138226000126451	MS SS SK	100.0	2	F	2	47.5	
189	2568	48.0	Left Leg	ScoreReport		2024_Feb_18_1256	5.002726379956584	R		686.9071525000036		MS SS SK		2	F	2		
190	2568	8	Left Leg	Post-trial Jitter		2024_Feb_18_1256	9.00025102001382	R		691.9667892999714		MS SS SK		2	F	2		
191	2568	20	Left Leg	PainBinary		2024_Feb_18_1256	5.001231860020198	R		700.9830421999795	4.769579500018153	MS SS SK		2	F	2		-1.0
192	2568	21	Left Leg	IntensityRating		2024_Feb_18_1256	5.013278360012919	R		706.0020736999577	2.20008850004524	MS SS SK		2	F	2		34.81481481481482
193	2568	9	Left Leg	Post-Q-Jitter		2024_Feb_18_1256	8.993901879992336	R		711.0201691999682		MS SS SK		2	F	2		
194	2568	26	Left Leg	ComfortRating		2024_Feb_18_1256	3.576666060020216	R		720.0372534999624	3.5500314999953844	MS SS SK		2	F	2		13.209876543209887
195	2568	24	Left Leg	ValenceRating		2024_Feb_18_1256	2.85928466002224	R		723.6376447000075	2.833438500005286	MS SS SK		2	F	2		58.45679012345679
196	2568	26	Left Leg	IntensityRating		2024_Feb_18_1256	1.9981341600650921	R		726.5182324000052	1.9836854999884963	MS SS SK		2	F	2		59.07407407407407
197	2568	27	Left Leg	AvoidanceRating		2024_Feb_18_1256	2.677137259976007	R		728.5370856999652	2.6500593000091612	MS SS SK		2	F	2		30.0
198	2568	28	Left Leg	RelaxationRating		2024_Feb_18_1256	2.933812159986701	R		731.2337887999602	2.9023130999994464	MS SS SK		2	F	2		68.27160493827161
199	2568	29	Left Leg	AttentionRating		2024_Feb_18_1256	3.9748427599552087	R		734.1883146999753	3.9501255999784917	MS SS SK		2	F	2		48.76543209876543
200	2568	30	Left Leg	BoredomRating		2024_Feb_18_1256	3.9334132600342855	R		738.184082199994	3.9170503999921493	MS SS SK		2	F	2		58.45679012345679
201	2568	31	Left Leg	AlertnessRating		2024_Feb_18_1256	2.632684460026212	R		742.1344809999573	2.6170962000032887	MS SS SK		2	F	2		-33.08641975308642
202	2568	32	Left Leg	PosThxRating		2024_Feb_18_1256	5.896583460038528	R		744.7859033999848	5.866769000014756	MS SS SK		2	F	2		-11.851851851851862
203	2568	33	Left Leg	NegThxRating		2024_Feb_18_1256	4.678302660002373	R		750.703426699969	4.6501562999910675	MS SS SK		2	F	2		10.246913580246925
204	2568	34	Left Leg	SelfRating		2024_Feb_18_1256	3.9476181600475684	R		755.4021820999915	3.9198790000518784	MS SS SK		2	F	2		-12.71604938271605
205	2568	35	Left Leg	OtherRating		2024_Feb_18_1256	4.379734260030091	R		759.3694871999905	4.350073200010229	MS SS SK		2	F	2		16.913580246913583
206	2568	32	Left Leg	ImageryRating		2024_Feb_18_1256	6.226626459974796	R		763.7711028999765	6.2001593000022694	MS SS SK		2	F	2		9.012345679012341
207	2568	37	Left Leg	PresentRating		2024_Feb_18_1256	4.225077159993816	R		770.0219262999599	4.200011499982793	MS SS SK		2	F	2		-8.024691358024697
