runSeq,trial_type,runLoop.thisRepN,runLoop.thisTrialN,runLoop.thisN,runLoop.thisIndex,trials.thisRepN,trials.thisTrialN,trials.thisN,trials.thisIndex,Begin.started,Begin.stopped,BeginTask.keys,BeginTask.rt,BeginTask.started,BeginTask.stopped,BodySiteInstructionText.started,BodySiteImg.started,BodySiteImg.stopped,BodySiteInstructionRead.keys,BodySiteInstructionRead.rt,BodySiteInstructionRead.started,BodySiteInstructionRead.stopped,ImagineInstructionText.started,ImaginationInstructionRead.keys,ImaginationInstructionRead.rt,ImaginationInstructionRead.started,ImaginationInstructionRead.stopped,BodySiteCue.started,BodySiteCue.stopped,NonStimTrialText.started,NonStimTrialText.stopped,fix_cross.started,fix_cross.stopped,ValenceRating.response,ValenceRating.rt,ValenceRating.started,ValenceRating.stopped,IntensityRating.response,IntensityRating.rt,IntensityRating.started,IntensityRating.stopped,ComfortRating.response,ComfortRating.rt,ComfortRating.started,ComfortRating.stopped,EndingText.started,EndingText.stopped,ConfirmEnd.keys,ConfirmEnd.rt,ConfirmEnd.started,ConfirmEnd.stopped,subject number,gender,bodymap first- or second-half (1 or 2),session,handedness,scanner,date,psychopyVersion,expName,frameRate,body_site_order,
,,,,,,,,,,28.193772600003285,None,space,3.531243200006429,28.193772600003285,None,,,,,,,,,,,,,,,,,,,,,,,,,,,,,,,,,,,,,5,m,2,19,r,CIB,2021_Dec_17_1210,2020.2.5,bodymapST2,59.98936988302612,"['Chest', 'Left Leg', 'Right Face', 'Left Face']",
stimuli/orders/stimOrder9.xlsx,3,0,0,0,0,0,0,0,0,,,,,,,31.82291200000327,31.82291200000327,None,space,1014.4149043999787,31.82291200000327,None,1046.2647087000078,space,80.61292839999078,1046.2647087000078,None,1157.3989509000094,1159.399083700002,1157.3989509000094,1159.399083700002,1159.3822891000018,None,,,,,,,,,,,,,,,,,,,5,m,2,19,r,CIB,2021_Dec_17_1210,2020.2.5,bodymapST2,59.98936988302612,"['Chest', 'Left Leg', 'Right Face', 'Left Face']",
stimuli/orders/stimOrder9.xlsx,3,0,0,0,0,0,5,5,5,,,,,,,,,,,,,,,,,,,1222.3830382000015,1224.383142000006,1222.3830382000015,1224.383142000006,1224.366158799996,1222.3830382000015,,,,,,,,,,,,,,,,,,,5,m,2,19,r,CIB,2021_Dec_17_1210,2020.2.5,bodymapST2,59.98936988302612,"['Chest', 'Left Leg', 'Right Face', 'Left Face']",
stimuli/orders/stimOrder9.xlsx,3,0,0,0,0,0,10,10,10,,,,,,,,,,,,,,,,,,,1287.3669571999926,1289.3669766999956,1287.3669571999926,1289.3669766999956,1289.3500542999827,1287.3669571999926,,,,,,,,,,,,,,,,,,,5,m,2,19,r,CIB,2021_Dec_17_1210,2020.2.5,bodymapST2,59.98936988302612,"['Chest', 'Left Leg', 'Right Face', 'Left Face']",
stimuli/orders/stimOrder9.xlsx,3,0,0,0,0,0,14,14,14,,,,,,,,,,,,,,,,,,,1339.3507290999987,1341.3507436999935,1339.3507290999987,1341.3507436999935,1341.3338134000078,1339.3507290999987,,,,,,,,,,,,,,,,,,,5,m,2,19,r,CIB,2021_Dec_17_1210,2020.2.5,bodymapST2,59.98936988302612,"['Chest', 'Left Leg', 'Right Face', 'Left Face']",
stimuli/orders/stimOrder9.xlsx,3,0,0,0,0,0,16,16,16,,,,,,,,,,,,,,,,,,,1365.3341035000049,1367.3343008999946,1365.3341035000049,1367.3343008999946,1367.3173797999916,1365.3341035000049,,,,,,,,,,,,,,,,,,,5,m,2,19,r,CIB,2021_Dec_17_1210,2020.2.5,bodymapST2,59.98936988302612,"['Chest', 'Left Leg', 'Right Face', 'Left Face']",
stimuli/orders/stimOrder9.xlsx,3,0,0,0,0,0,18,18,18,,,,,,,,,,,,,,,,,,,1391.3178359000012,1393.3178431999986,1391.3178359000012,1393.3178431999986,1393.3009170999867,1391.3178359000012,,,,,,,,,,,,,,,,,,,5,m,2,19,r,CIB,2021_Dec_17_1210,2020.2.5,bodymapST2,59.98936988302612,"['Chest', 'Left Leg', 'Right Face', 'Left Face']",
stimuli/orders/stimOrder9.xlsx,3,0,0,0,0,0,19,19,19,,,,,,,,,,,,,,,,,,,1404.3012773999944,1406.3012960999913,1404.3012773999944,1406.3012960999913,1406.2843515999848,1404.3012773999944,,,,,,,,,,,,,,,,,,,5,m,2,19,r,CIB,2021_Dec_17_1210,2020.2.5,bodymapST2,59.98936988302612,"['Chest', 'Left Leg', 'Right Face', 'Left Face']",
stimuli/orders/stimOrder9.xlsx,3,0,0,0,0,0,21,21,21,,,,,,,,,,,,,,,,,,,1430.2848217999854,1432.2848415999906,1430.2848217999854,1432.2848415999906,1432.2679265000043,1430.2848217999854,,,,,,,,,,,,,,,,,,,5,m,2,19,r,CIB,2021_Dec_17_1210,2020.2.5,bodymapST2,59.98936988302612,"['Chest', 'Left Leg', 'Right Face', 'Left Face']",
stimuli/orders/stimOrder9.xlsx,3,0,0,0,0,0,22,22,22,,,,,,,,,,,,,,,,,,,1443.26826360001,1445.2682898000057,1443.26826360001,1445.2682898000057,1445.2513564999972,1443.26826360001,,,,,,,,,,,,,,,,,,,5,m,2,19,r,CIB,2021_Dec_17_1210,2020.2.5,bodymapST2,59.98936988302612,"['Chest', 'Left Leg', 'Right Face', 'Left Face']",
stimuli/orders/stimOrder9.xlsx,3,0,0,0,0,0,24,24,24,,,,,,,,,,,,,,,,,,,1469.2518187999958,1471.251838199998,1469.2518187999958,1471.251838199998,1471.2349235999864,1469.2518187999958,,,,,,,,,,,,,,,,,,,5,m,2,19,r,CIB,2021_Dec_17_1210,2020.2.5,bodymapST2,59.98936988302612,"['Chest', 'Left Leg', 'Right Face', 'Left Face']",
stimuli/orders/stimOrder9.xlsx,3,0,0,0,0,0,26,26,26,,,,,,,,,,,,,,,,,,,1495.2353715999925,1497.2354074000032,1495.2353715999925,1497.2354074000032,1497.2184523000033,1495.2353715999925,,,,,,,,,,,,,,,,,,,5,m,2,19,r,CIB,2021_Dec_17_1210,2020.2.5,bodymapST2,59.98936988302612,"['Chest', 'Left Leg', 'Right Face', 'Left Face']",
stimuli/orders/stimOrder9.xlsx,3,0,0,0,0,0,35,35,35,,,,,,,,,,,,,,,,,,,1612.2196676000021,1614.2197194999899,1612.2196676000021,1614.2197194999899,1614.2027888000011,1612.2196676000021,,,,,,,,,,,,,,,,,,,5,m,2,19,r,CIB,2021_Dec_17_1210,2020.2.5,bodymapST2,59.98936988302612,"['Chest', 'Left Leg', 'Right Face', 'Left Face']",
stimuli/orders/stimOrder9.xlsx,,0,0,0,0,,,,,,,,,,,,,,,,,,,,,,,,,,,1664.2031912000093,1664.2031912000093,0.24691358024691112,1680.6813531900116,,,,,,,,,,,,,,,,,5,m,2,19,r,CIB,2021_Dec_17_1210,2020.2.5,bodymapST2,59.98936988302612,"['Chest', 'Left Leg', 'Right Face', 'Left Face']",
stimuli/orders/stimOrder9.xlsx,,0,0,0,0,,,,,,,,,,,,,,,,,,,,,,,,,,,,,,,0.013844809989677742,None,20.74074074074074,1685.663997489988,,,,,,,,,,,,,5,m,2,19,r,CIB,2021_Dec_17_1210,2020.2.5,bodymapST2,59.98936988302612,"['Chest', 'Left Leg', 'Right Face', 'Left Face']",
stimuli/orders/stimOrder9.xlsx,,0,0,0,0,,,,,,,,,,,,,,,,,,,,,,,,,,,,,,,,,,,0.014564710028935224,None,62.96296296296296,1689.7314026899985,,,,,,,,,5,m,2,19,r,CIB,2021_Dec_17_1210,2020.2.5,bodymapST2,59.98936988302612,"['Chest', 'Left Leg', 'Right Face', 'Left Face']",
stimuli/orders/stimOrder13.xlsx,3,0,1,1,2,0,0,0,0,,,,,,,1694.886994200002,1694.886994200002,None,space,211.46365819999482,1694.886994200002,None,,,,,,1964.872380099987,1966.8726651000034,1964.872380099987,1966.8726651000034,1966.8557379999838,None,,,,,,,,,,,0.013867910020053387,None,,,,,,,5,m,2,19,r,CIB,2021_Dec_17_1210,2020.2.5,bodymapST2,59.98936988302612,"['Chest', 'Left Leg', 'Right Face', 'Left Face']",
stimuli/orders/stimOrder13.xlsx,3,0,1,1,2,0,3,3,3,,,,,,,,,,,,,,,,,,,2003.856341000006,2005.8563153999858,2003.856341000006,2005.8563153999858,2005.8394015000085,2003.856341000006,,,,,,,,,,,,,,,,,,,5,m,2,19,r,CIB,2021_Dec_17_1210,2020.2.5,bodymapST2,59.98936988302612,"['Chest', 'Left Leg', 'Right Face', 'Left Face']",
stimuli/orders/stimOrder13.xlsx,3,0,1,1,2,0,14,14,14,,,,,,,,,,,,,,,,,,,2146.840827999986,2148.8408364999923,2146.840827999986,2148.8408364999923,2148.823929699982,2146.840827999986,,,,,,,,,,,,,,,,,,,5,m,2,19,r,CIB,2021_Dec_17_1210,2020.2.5,bodymapST2,59.98936988302612,"['Chest', 'Left Leg', 'Right Face', 'Left Face']",
stimuli/orders/stimOrder13.xlsx,3,0,1,1,2,0,15,15,15,,,,,,,,,,,,,,,,,,,2159.82427360001,2161.824275799998,2159.82427360001,2161.824275799998,2161.807362899999,2159.82427360001,,,,,,,,,,,,,,,,,,,5,m,2,19,r,CIB,2021_Dec_17_1210,2020.2.5,bodymapST2,59.98936988302612,"['Chest', 'Left Leg', 'Right Face', 'Left Face']",
stimuli/orders/stimOrder13.xlsx,3,0,1,1,2,0,19,19,19,,,,,,,,,,,,,,,,,,,2211.8080399000028,2213.808049399988,2211.8080399000028,2213.808049399988,2213.7911273000063,2211.8080399000028,,,,,,,,,,,,,,,,,,,5,m,2,19,r,CIB,2021_Dec_17_1210,2020.2.5,bodymapST2,59.98936988302612,"['Chest', 'Left Leg', 'Right Face', 'Left Face']",
stimuli/orders/stimOrder13.xlsx,3,0,1,1,2,0,21,21,21,,,,,,,,,,,,,,,,,,,2237.791587099986,2239.7915925999987,2237.791587099986,2239.7915925999987,2239.774667299993,2237.791587099986,,,,,,,,,,,,,,,,,,,5,m,2,19,r,CIB,2021_Dec_17_1210,2020.2.5,bodymapST2,59.98936988302612,"['Chest', 'Left Leg', 'Right Face', 'Left Face']",
stimuli/orders/stimOrder13.xlsx,3,0,1,1,2,0,28,28,28,,,,,,,,,,,,,,,,,,,2328.7756711999828,2330.7756945999863,2328.7756711999828,2330.7756945999863,2330.7587693000096,2328.7756711999828,,,,,,,,,,,,,,,,,,,5,m,2,19,r,CIB,2021_Dec_17_1210,2020.2.5,bodymapST2,59.98936988302612,"['Chest', 'Left Leg', 'Right Face', 'Left Face']",
stimuli/orders/stimOrder13.xlsx,3,0,1,1,2,0,29,29,29,,,,,,,,,,,,,,,,,,,2341.759125599987,2343.7591432000045,2341.759125599987,2343.7591432000045,2343.742209899996,2341.759125599987,,,,,,,,,,,,,,,,,,,5,m,2,19,r,CIB,2021_Dec_17_1210,2020.2.5,bodymapST2,59.98936988302612,"['Chest', 'Left Leg', 'Right Face', 'Left Face']",
stimuli/orders/stimOrder13.xlsx,3,0,1,1,2,0,34,34,34,,,,,,,,,,,,,,,,,,,2406.7430097000033,2408.7430143000092,2406.7430097000033,2408.7430143000092,2408.726106099988,2406.7430097000033,,,,,,,,,,,,,,,,,,,5,m,2,19,r,CIB,2021_Dec_17_1210,2020.2.5,bodymapST2,59.98936988302612,"['Chest', 'Left Leg', 'Right Face', 'Left Face']",
stimuli/orders/stimOrder13.xlsx,3,0,1,1,2,0,36,36,36,,,,,,,,,,,,,,,,,,,2432.726540500007,2434.7265573999903,2432.726540500007,2434.7265573999903,2434.7096378999995,2432.726540500007,,,,,,,,,,,,,,,,,,,5,m,2,19,r,CIB,2021_Dec_17_1210,2020.2.5,bodymapST2,59.98936988302612,"['Chest', 'Left Leg', 'Right Face', 'Left Face']",
stimuli/orders/stimOrder13.xlsx,3,0,1,1,2,0,37,37,37,,,,,,,,,,,,,,,,,,,2445.7098425999866,2447.7100023000094,2445.7098425999866,2447.7100023000094,2447.693064299994,2445.7098425999866,,,,,,,,,,,,,,,,,,,5,m,2,19,r,CIB,2021_Dec_17_1210,2020.2.5,bodymapST2,59.98936988302612,"['Chest', 'Left Leg', 'Right Face', 'Left Face']",
stimuli/orders/stimOrder13.xlsx,3,0,1,1,2,0,39,39,39,,,,,,,,,,,,,,,,,,,2471.693543500005,2473.693551300006,2471.693543500005,2473.693551300006,2473.6766143999994,2471.693543500005,,,,,,,,,,,,,,,,,,,5,m,2,19,r,CIB,2021_Dec_17_1210,2020.2.5,bodymapST2,59.98936988302612,"['Chest', 'Left Leg', 'Right Face', 'Left Face']",
stimuli/orders/stimOrder13.xlsx,,0,1,1,2,,,,,,,,,,,,,,,,,,,,,,,,,,,,,-9.506172839506178,2488.021911789954,,,,,,,,,,,,,,,,,5,m,2,19,r,CIB,2021_Dec_17_1210,2020.2.5,bodymapST2,59.98936988302612,"['Chest', 'Left Leg', 'Right Face', 'Left Face']",
stimuli/orders/stimOrder13.xlsx,,0,1,1,2,,,,,,,,,,,,,,,,,,,,,,,,,,,,,,,0.013366210041567683,None,15.061728395061738,2490.8043574900075,,,,,,,,,,,,,5,m,2,19,r,CIB,2021_Dec_17_1210,2020.2.5,bodymapST2,59.98936988302612,"['Chest', 'Left Leg', 'Right Face', 'Left Face']",
stimuli/orders/stimOrder13.xlsx,,0,1,1,2,,,,,,,,,,,,,,,,,,,,,,,,,,,,,,,,,,,0.014218310010619462,None,45.0,2495.237447590014,,,,,,,,,5,m,2,19,r,CIB,2021_Dec_17_1210,2020.2.5,bodymapST2,59.98936988302612,"['Chest', 'Left Leg', 'Right Face', 'Left Face']",
stimuli/orders/stimOrder11.xlsx,3,0,2,2,1,0,2,2,2,,,,,,,2500.160399699991,2500.160399699991,None,space,183.84718969999813,2500.160399699991,None,,,,,,2747.4955710000067,2749.495606599987,2747.4955710000067,2749.495606599987,2749.495606599987,2747.4955710000067,,,,,,,,,,,0.014575809997040778,None,,,,,,,5,m,2,19,r,CIB,2021_Dec_17_1210,2020.2.5,bodymapST2,59.98936988302612,"['Chest', 'Left Leg', 'Right Face', 'Left Face']",
stimuli/orders/stimOrder11.xlsx,3,0,2,2,1,0,3,3,3,,,,,,,,,,,,,,,,,,,2760.495957200008,2762.495964700007,2760.495957200008,2762.495964700007,2762.4790289000084,2760.495957200008,,,,,,,,,,,,,,,,,,,5,m,2,19,r,CIB,2021_Dec_17_1210,2020.2.5,bodymapST2,59.98936988302612,"['Chest', 'Left Leg', 'Right Face', 'Left Face']",
stimuli/orders/stimOrder11.xlsx,3,0,2,2,1,0,5,5,5,,,,,,,,,,,,,,,,,,,2786.4795046999934,2788.4795128999976,2786.4795046999934,2788.4795128999976,2788.462604900007,2786.4795046999934,,,,,,,,,,,,,,,,,,,5,m,2,19,r,CIB,2021_Dec_17_1210,2020.2.5,bodymapST2,59.98936988302612,"['Chest', 'Left Leg', 'Right Face', 'Left Face']",
stimuli/orders/stimOrder11.xlsx,3,0,2,2,1,0,6,6,6,,,,,,,,,,,,,,,,,,,2799.462930000009,2801.462971400004,2799.462930000009,2801.462971400004,2801.446020000003,2799.462930000009,,,,,,,,,,,,,,,,,,,5,m,2,19,r,CIB,2021_Dec_17_1210,2020.2.5,bodymapST2,59.98936988302612,"['Chest', 'Left Leg', 'Right Face', 'Left Face']",
stimuli/orders/stimOrder11.xlsx,3,0,2,2,1,0,11,11,11,,,,,,,,,,,,,,,,,,,2864.446831999987,2866.4468374999997,2864.446831999987,2866.4468374999997,2866.429907199985,2864.446831999987,,,,,,,,,,,,,,,,,,,5,m,2,19,r,CIB,2021_Dec_17_1210,2020.2.5,bodymapST2,59.98936988302612,"['Chest', 'Left Leg', 'Right Face', 'Left Face']",
stimuli/orders/stimOrder11.xlsx,3,0,2,2,1,0,13,13,13,,,,,,,,,,,,,,,,,,,2890.4303715999995,2892.4303870000003,2890.4303715999995,2892.4303870000003,2892.4134704000026,2890.4303715999995,,,,,,,,,,,,,,,,,,,5,m,2,19,r,CIB,2021_Dec_17_1210,2020.2.5,bodymapST2,59.98936988302612,"['Chest', 'Left Leg', 'Right Face', 'Left Face']",
stimuli/orders/stimOrder11.xlsx,3,0,2,2,1,0,15,15,15,,,,,,,,,,,,,,,,,,,2916.413918300008,2918.413943099993,2916.413918300008,2918.413943099993,2918.3970206000085,2916.413918300008,,,,,,,,,,,,,,,,,,,5,m,2,19,r,CIB,2021_Dec_17_1210,2020.2.5,bodymapST2,59.98936988302612,"['Chest', 'Left Leg', 'Right Face', 'Left Face']",
stimuli/orders/stimOrder11.xlsx,3,0,2,2,1,0,16,16,16,,,,,,,,,,,,,,,,,,,2929.397362299991,2931.3973848999885,2929.397362299991,2931.3973848999885,2931.380435400002,2929.397362299991,,,,,,,,,,,,,,,,,,,5,m,2,19,r,CIB,2021_Dec_17_1210,2020.2.5,bodymapST2,59.98936988302612,"['Chest', 'Left Leg', 'Right Face', 'Left Face']",
stimuli/orders/stimOrder11.xlsx,3,0,2,2,1,0,19,19,19,,,,,,,,,,,,,,,,,,,2968.381025199982,2970.3810401000082,2968.381025199982,2970.3810401000082,2970.3641043999814,2968.381025199982,,,,,,,,,,,,,,,,,,,5,m,2,19,r,CIB,2021_Dec_17_1210,2020.2.5,bodymapST2,59.98936988302612,"['Chest', 'Left Leg', 'Right Face', 'Left Face']",
stimuli/orders/stimOrder11.xlsx,3,0,2,2,1,0,26,26,26,,,,,,,,,,,,,,,,,,,3059.365116700006,3061.365132100007,3059.365116700006,3061.365132100007,3061.348211100005,3059.365116700006,,,,,,,,,,,,,,,,,,,5,m,2,19,r,CIB,2021_Dec_17_1210,2020.2.5,bodymapST2,59.98936988302612,"['Chest', 'Left Leg', 'Right Face', 'Left Face']",
stimuli/orders/stimOrder11.xlsx,3,0,2,2,1,0,30,30,30,,,,,,,,,,,,,,,,,,,3111.3488347000093,3113.348895400006,3111.3488347000093,3113.348895400006,3113.3319569999876,3111.3488347000093,,,,,,,,,,,,,,,,,,,5,m,2,19,r,CIB,2021_Dec_17_1210,2020.2.5,bodymapST2,59.98936988302612,"['Chest', 'Left Leg', 'Right Face', 'Left Face']",
stimuli/orders/stimOrder11.xlsx,3,0,2,2,1,0,39,39,39,,,,,,,,,,,,,,,,,,,3228.33325299999,3230.333210699988,3228.33325299999,3230.333210699988,3230.3162882000033,3228.33325299999,,,,,,,,,,,,,,,,,,,5,m,2,19,r,CIB,2021_Dec_17_1210,2020.2.5,bodymapST2,59.98936988302612,"['Chest', 'Left Leg', 'Right Face', 'Left Face']",
stimuli/orders/stimOrder11.xlsx,,0,2,2,1,,,,,,,,,,,,,,,,,,,,,,,,,,,,,0.8641975308642031,3241.7452291899826,,,,,,,,,,,,,,,,,5,m,2,19,r,CIB,2021_Dec_17_1210,2020.2.5,bodymapST2,59.98936988302612,"['Chest', 'Left Leg', 'Right Face', 'Left Face']",
stimuli/orders/stimOrder11.xlsx,,0,2,2,1,,,,,,,,,,,,,,,,,,,,,,,,,,,,,,,0.013037210010224953,None,15.123456790123457,3244.5273396900157,,,,,,,,,,,,,5,m,2,19,r,CIB,2021_Dec_17_1210,2020.2.5,bodymapST2,59.98936988302612,"['Chest', 'Left Leg', 'Right Face', 'Left Face']",
stimuli/orders/stimOrder11.xlsx,,0,2,2,1,,,,,,,,,,,,,,,,,,,,,,,,,,,,,,,,,,,0.01422881000326015,None,50.0,3246.811252090003,,,,,,,,,5,m,2,19,r,CIB,2021_Dec_17_1210,2020.2.5,bodymapST2,59.98936988302612,"['Chest', 'Left Leg', 'Right Face', 'Left Face']",
stimuli/orders/stimOrder15.xlsx,3,0,3,3,3,0,2,2,2,,,,,,,3253.9498167999845,3253.9498167999845,None,space,157.48260210000444,3253.9498167999845,None,,,,,,3465.501593599998,3467.501603199984,3465.501593599998,3467.501603199984,3467.501603199984,3465.501593599998,,,,,,,,,,,0.013725310011068359,None,,,,,,,5,m,2,19,r,CIB,2021_Dec_17_1210,2020.2.5,bodymapST2,59.98936988302612,"['Chest', 'Left Leg', 'Right Face', 'Left Face']",
stimuli/orders/stimOrder15.xlsx,3,0,3,3,3,0,3,3,3,,,,,,,,,,,,,,,,,,,3478.5019467000093,3480.5019672999915,3478.5019467000093,3480.5019672999915,3480.4850409000064,3478.5019467000093,,,,,,,,,,,,,,,,,,,5,m,2,19,r,CIB,2021_Dec_17_1210,2020.2.5,bodymapST2,59.98936988302612,"['Chest', 'Left Leg', 'Right Face', 'Left Face']",
stimuli/orders/stimOrder15.xlsx,3,0,3,3,3,0,7,7,7,,,,,,,,,,,,,,,,,,,3530.4857396000007,3532.485729899985,3530.4857396000007,3532.485729899985,3532.4688052999845,3530.4857396000007,,,,,,,,,,,,,,,,,,,5,m,2,19,r,CIB,2021_Dec_17_1210,2020.2.5,bodymapST2,59.98936988302612,"['Chest', 'Left Leg', 'Right Face', 'Left Face']",
stimuli/orders/stimOrder15.xlsx,3,0,3,3,3,0,9,9,9,,,,,,,,,,,,,,,,,,,3556.4692685999908,3558.4692922999966,3556.4692685999908,3558.4692922999966,3558.4524376000045,3556.4692685999908,,,,,,,,,,,,,,,,,,,5,m,2,19,r,CIB,2021_Dec_17_1210,2020.2.5,bodymapST2,59.98936988302612,"['Chest', 'Left Leg', 'Right Face', 'Left Face']",
stimuli/orders/stimOrder15.xlsx,3,0,3,3,3,0,10,10,10,,,,,,,,,,,,,,,,,,,3569.4527094000077,3571.452731199999,3569.4527094000077,3571.452731199999,3571.43579399999,3569.4527094000077,,,,,,,,,,,,,,,,,,,5,m,2,19,r,CIB,2021_Dec_17_1210,2020.2.5,bodymapST2,59.98936988302612,"['Chest', 'Left Leg', 'Right Face', 'Left Face']",
stimuli/orders/stimOrder15.xlsx,3,0,3,3,3,0,12,12,12,,,,,,,,,,,,,,,,,,,3595.4362621000037,3597.436272799998,3595.4362621000037,3597.436272799998,3597.4193593999953,3595.4362621000037,,,,,,,,,,,,,,,,,,,5,m,2,19,r,CIB,2021_Dec_17_1210,2020.2.5,bodymapST2,59.98936988302612,"['Chest', 'Left Leg', 'Right Face', 'Left Face']",
stimuli/orders/stimOrder15.xlsx,3,0,3,3,3,0,15,15,15,,,,,,,,,,,,,,,,,,,3634.4199230000086,3636.419932699995,3634.4199230000086,3636.419932699995,3636.403001700004,3634.4199230000086,,,,,,,,,,,,,,,,,,,5,m,2,19,r,CIB,2021_Dec_17_1210,2020.2.5,bodymapST2,59.98936988302612,"['Chest', 'Left Leg', 'Right Face', 'Left Face']",
stimuli/orders/stimOrder15.xlsx,3,0,3,3,3,0,30,30,30,,,,,,,,,,,,,,,,,,,3829.4048811999965,3831.4048985999834,3829.4048811999965,3831.4048985999834,3831.387977699982,3829.4048811999965,,,,,,,,,,,,,,,,,,,5,m,2,19,r,CIB,2021_Dec_17_1210,2020.2.5,bodymapST2,59.98936988302612,"['Chest', 'Left Leg', 'Right Face', 'Left Face']",
stimuli/orders/stimOrder15.xlsx,3,0,3,3,3,0,33,33,33,,,,,,,,,,,,,,,,,,,3868.3885432000097,3870.388549700001,3868.3885432000097,3870.388549700001,3870.371638199984,3868.3885432000097,,,,,,,,,,,,,,,,,,,5,m,2,19,r,CIB,2021_Dec_17_1210,2020.2.5,bodymapST2,59.98936988302612,"['Chest', 'Left Leg', 'Right Face', 'Left Face']",
stimuli/orders/stimOrder15.xlsx,3,0,3,3,3,0,35,35,35,,,,,,,,,,,,,,,,,,,3894.3720893999853,3896.3721090999898,3894.3720893999853,3896.3721090999898,3896.355190400005,3894.3720893999853,,,,,,,,,,,,,,,,,,,5,m,2,19,r,CIB,2021_Dec_17_1210,2020.2.5,bodymapST2,59.98936988302612,"['Chest', 'Left Leg', 'Right Face', 'Left Face']",
stimuli/orders/stimOrder15.xlsx,3,0,3,3,3,0,37,37,37,,,,,,,,,,,,,,,,,,,3920.355495900003,3922.3556610000087,3920.355495900003,3922.3556610000087,3922.3387406999827,3920.355495900003,,,,,,,,,,,,,,,,,,,5,m,2,19,r,CIB,2021_Dec_17_1210,2020.2.5,bodymapST2,59.98936988302612,"['Chest', 'Left Leg', 'Right Face', 'Left Face']",
stimuli/orders/stimOrder15.xlsx,3,0,3,3,3,0,39,39,39,,,,,,,,,,,,,,,,,,,3946.339202300005,3948.339048499998,3946.339202300005,3948.339048499998,3948.3222714999865,3946.339202300005,,,,,,,,,,,,,,,,,,,5,m,2,19,r,CIB,2021_Dec_17_1210,2020.2.5,bodymapST2,59.98936988302612,"['Chest', 'Left Leg', 'Right Face', 'Left Face']",
stimuli/orders/stimOrder15.xlsx,,0,3,3,3,,,,,,,,,,,,,,,,,,,,,,,,,,,,,0.12345679012344135,3960.1674962899997,,,,,,,,,,,,,,,,,5,m,2,19,r,CIB,2021_Dec_17_1210,2020.2.5,bodymapST2,59.98936988302612,"['Chest', 'Left Leg', 'Right Face', 'Left Face']",
stimuli/orders/stimOrder15.xlsx,,0,3,3,3,,,,,,,,,,,,,,,,,,,,,,,,,,,,,,,0.013422010000795126,None,13.33333333333333,3963.033326689998,,,,,,,,,,,,,5,m,2,19,r,CIB,2021_Dec_17_1210,2020.2.5,bodymapST2,59.98936988302612,"['Chest', 'Left Leg', 'Right Face', 'Left Face']",
stimuli/orders/stimOrder15.xlsx,,0,3,3,3,,,,,,,,,,,,,,,,,,,,,,,,,,,,,,,,,,,0.014233810012228787,None,47.901234567901234,3966.049517889973,,,,,,,,,5,m,2,19,r,CIB,2021_Dec_17_1210,2020.2.5,bodymapST2,59.98936988302612,"['Chest', 'Left Leg', 'Right Face', 'Left Face']",
,,,,,,,,,,,,,,,,,,,,,,,,,,,,,,,,,,,,,,,,,,,,0.014793610025662929,None,3988.455946000002,None,space,477.9456829999981,3988.455946000002,None,5,m,2,19,r,CIB,2021_Dec_17_1210,2020.2.5,bodymapST2,59.98936988302612,"['Chest', 'Left Leg', 'Right Face', 'Left Face']",
