RestT1,TaskT1,square,location,corrAns,counterbalancer.thisRepN,counterbalancer.thisTrialN,counterbalancer.thisN,counterbalancer.thisIndex,RestT1Loop.thisRepN,RestT1Loop.thisTrialN,RestT1Loop.thisN,RestT1Loop.thisIndex,TaskT1Loop.thisRepN,TaskT1Loop.thisTrialN,TaskT1Loop.thisN,TaskT1Loop.thisIndex,trials_2.thisRepN,trials_2.thisTrialN,trials_2.thisN,trials_2.thisIndex,fixation_1.started,fixation_1.stopped,NbackInstructions.started,NbackInstructions.stopped,NbackStart.keys,NbackStart.rt,NbackStart.started,NbackStart.stopped,fixation_2.started,fixation_2.stopped,response_2.x,response_2.y,response_2.leftButton,grid_lines_2.started,grid_lines_2.stopped,target_square_2.started,target_square_2.stopped,fixation_3.started,fixation_3.stopped,response_2.click,response_2.corr,response_2.started,response_2.stopped,subject number,gender,session,handedness,scanner,date,expName,psychopyVersion,frameRate,
1,0,,,,0,0,0,0,0,0,0,0,,,,,,,,,29.993549900013022,None,,,,,,,,,,,,,,,,,,,,,,3,f,10,l,KB,2021_Jun_15_1202,WASABI Nback,2020.2.10,60.0083771773547,
0,1,,,,0,1,1,1,,,,,0,0,0,0,,,,,,,321.02909180003917,None,space,51.90379240002949,321.02909180003917,None,,,,,,,,,,,,,,,,3,f,10,l,KB,2021_Jun_15_1202,WASABI Nback,2020.2.10,60.0083771773547,
0,1,5,"[0, 0]",None,0,1,1,1,,,,,0,0,0,0,0,0,0,0,,,,,,,,,None,None,None,None,0,374.04620090004755,None,374.04620090004755,375.04618740000296,375.02951020002365,None,0,1,374.04620090004755,None,3,f,10,l,KB,2021_Jun_15_1202,WASABI Nback,2020.2.10,60.0083771773547,
0,1,2,"[0, 0.2]",None,0,1,1,1,,,,,0,0,0,0,0,1,1,1,,,,,,,,,,,None,None,0,375.9795224000118,None,375.9795224000118,376.97954160004156,376.96289260004414,377.96290400001453,0,1,375.9795224000118,None,3,f,10,l,KB,2021_Jun_15_1202,WASABI Nback,2020.2.10,60.0083771773547,
0,1,6,"[0.2, 0]",None,0,1,1,1,,,,,0,0,0,0,0,2,2,2,,,,,,,,,,,None,None,0,377.9795504999929,None,377.9795504999929,378.9795726000448,378.9628909000312,379.9629211000283,0,1,377.9795504999929,None,3,f,10,l,KB,2021_Jun_15_1202,WASABI Nback,2020.2.10,60.0083771773547,
0,1,9,"[0.2, -0.2]",None,0,1,1,1,,,,,0,0,0,0,0,3,3,3,,,,,,,,,,,None,None,0,379.9794465000159,None,379.9794465000159,380.9795609000139,380.96292260003975,381.9629222000367,0,1,379.9794465000159,None,3,f,10,l,KB,2021_Jun_15_1202,WASABI Nback,2020.2.10,60.0083771773547,
0,1,3,"[0.2, 0.2]",None,0,1,1,1,,,,,0,0,0,0,0,4,4,4,,,,,,,,,,,None,None,0,381.97959210001864,None,381.97959210001864,382.97958640003344,382.96293959999457,383.96292700001504,0,1,381.97959210001864,None,3,f,10,l,KB,2021_Jun_15_1202,WASABI Nback,2020.2.10,60.0083771773547,
0,1,9,"[0.2, -0.2]",1,0,1,1,1,,,,,0,0,0,0,0,5,5,5,,,,,,,,,,,None,None,0,383.97959030000493,None,383.97959030000493,384.9796023000381,384.9629372000345,385.96296140004415,0,0,383.97959030000493,None,3,f,10,l,KB,2021_Jun_15_1202,WASABI Nback,2020.2.10,60.0083771773547,
0,1,7,"[-0.2, -0.2]",None,0,1,1,1,,,,,0,0,0,0,0,6,6,6,,,,,,,,,,,None,None,0,385.97961169999326,None,385.97961169999326,386.97961270000087,386.9629624999943,387.9629695999902,0,1,385.97961169999326,None,3,f,10,l,KB,2021_Jun_15_1202,WASABI Nback,2020.2.10,60.0083771773547,
0,1,1,"[-0.2, 0.2]",None,0,1,1,1,,,,,0,0,0,0,0,7,7,7,,,,,,,,,,,None,None,0,387.97962210001424,None,387.97962210001424,388.9796390000265,388.962983000034,389.9629890000215,0,1,387.97962210001424,None,3,f,10,l,KB,2021_Jun_15_1202,WASABI Nback,2020.2.10,60.0083771773547,
0,1,5,"[0, 0]",None,0,1,1,1,,,,,0,0,0,0,0,8,8,8,,,,,,,,,,,None,None,0,389.9796362000052,None,389.9796362000052,390.9796498999931,390.9629814000218,391.9628692000406,0,1,389.9796362000052,None,3,f,10,l,KB,2021_Jun_15_1202,WASABI Nback,2020.2.10,60.0083771773547,
0,1,7,"[-0.2, -0.2]",None,0,1,1,1,,,,,0,0,0,0,0,9,9,9,,,,,,,,,,,None,None,0,391.97965650004335,None,391.97965650004335,392.97966400004225,392.962993299996,393.9629993000417,0,1,391.97965650004335,None,3,f,10,l,KB,2021_Jun_15_1202,WASABI Nback,2020.2.10,60.0083771773547,
0,1,5,"[0, 0]",1,0,1,1,1,,,,,0,0,0,0,0,10,10,10,,,,,,,,,,,None,None,0,393.9796691000229,None,393.9796691000229,394.97968340001535,394.9630240999977,395.9630316999974,0,0,393.9796691000229,None,3,f,10,l,KB,2021_Jun_15_1202,WASABI Nback,2020.2.10,60.0083771773547,
0,1,6,"[0.2, 0]",None,0,1,1,1,,,,,0,0,0,0,0,11,11,11,,,,,,,,,,,None,None,0,395.9796840000199,None,395.9796840000199,396.97970409999834,396.9629737000214,397.96303460001945,0,1,395.9796840000199,None,3,f,10,l,KB,2021_Jun_15_1202,WASABI Nback,2020.2.10,60.0083771773547,
0,1,3,"[0.2, 0.2]",None,0,1,1,1,,,,,0,0,0,0,0,12,12,12,,,,,,,,,,,None,None,0,397.97971500002313,None,397.97971500002313,398.9796934000333,398.96301669999957,399.9630415000138,0,1,397.97971500002313,None,3,f,10,l,KB,2021_Jun_15_1202,WASABI Nback,2020.2.10,60.0083771773547,
0,1,6,"[0.2, 0]",1,0,1,1,1,,,,,0,0,0,0,0,13,13,13,,,,,,,,,,,None,None,0,399.9797263999935,None,399.9797263999935,400.9797278000042,400.9630604000413,401.9630754000391,0,1,399.9797263999935,None,3,f,10,l,KB,2021_Jun_15_1202,WASABI Nback,2020.2.10,60.0083771773547,
0,1,8,"[0, -0.2]",None,0,1,1,1,,,,,0,0,0,0,0,14,14,14,,,,,,,,,,,None,None,0,401.9797306000255,None,401.9797306000255,402.97973700001603,402.96308630000567,403.9630999999936,0,1,401.9797306000255,None,3,f,10,l,KB,2021_Jun_15_1202,WASABI Nback,2020.2.10,60.0083771773547,
0,1,9,"[0.2, -0.2]",None,0,1,1,1,,,,,0,0,0,0,0,15,15,15,,,,,,,,,,,None,None,0,403.97976130002644,None,403.97976130002644,404.97975870000664,404.9629691000446,405.96310210000956,0,1,403.97976130002644,None,3,f,10,l,KB,2021_Jun_15_1202,WASABI Nback,2020.2.10,60.0083771773547,
0,1,9,"[0.2, -0.2]",None,0,1,1,1,,,,,0,0,0,0,0,16,16,16,,,,,,,,,,,None,None,0,405.97978460002923,None,405.97978460002923,406.9800801000092,406.9631189000211,407.96312960004434,0,1,405.97978460002923,None,3,f,10,l,KB,2021_Jun_15_1202,WASABI Nback,2020.2.10,60.0083771773547,
0,1,1,"[-0.2, 0.2]",None,0,1,1,1,,,,,0,0,0,0,0,17,17,17,,,,,,,,,,,None,None,0,407.9797740000067,None,407.9797740000067,408.9798090000404,408.9631294000428,409.96310420002555,0,1,407.9797740000067,None,3,f,10,l,KB,2021_Jun_15_1202,WASABI Nback,2020.2.10,60.0083771773547,
0,1,3,"[0.2, 0.2]",None,0,1,1,1,,,,,0,0,0,0,0,18,18,18,,,,,,,,,,,None,None,0,409.9798246000428,None,409.9798246000428,410.9797961000004,410.9631470000022,411.9631220000447,0,1,409.9798246000428,None,3,f,10,l,KB,2021_Jun_15_1202,WASABI Nback,2020.2.10,60.0083771773547,
0,1,5,"[0, 0]",None,0,1,1,1,,,,,0,0,0,0,0,19,19,19,,,,,,,,,,,None,None,0,411.97982520004734,None,411.97982520004734,412.9798246000428,412.9631494000205,413.96317380003165,0,1,411.97982520004734,None,3,f,10,l,KB,2021_Jun_15_1202,WASABI Nback,2020.2.10,60.0083771773547,
0,1,3,"[0.2, 0.2]",1,0,1,1,1,,,,,0,0,0,0,0,20,20,20,,,,,,,,,,,None,None,0,413.9798320000409,None,413.9798320000409,414.97985100001097,414.96318050002446,415.96316680003656,0,1,413.9798320000409,None,3,f,10,l,KB,2021_Jun_15_1202,WASABI Nback,2020.2.10,60.0083771773547,
0,1,4,"[-0.2, 0]",None,0,1,1,1,,,,,0,0,0,0,0,21,21,21,,,,,,,,,,,None,None,0,415.9798506000079,None,415.9798506000079,416.9798581000068,416.96319239999866,417.9632003000006,0,1,415.9798506000079,None,3,f,10,l,KB,2021_Jun_15_1202,WASABI Nback,2020.2.10,60.0083771773547,
0,1,7,"[-0.2, -0.2]",None,0,1,1,1,,,,,0,0,0,0,0,22,22,22,,,,,,,,,,,None,None,0,417.9798708000453,None,417.9798708000453,418.9798740000115,418.96320739999646,419.9632172000129,0,1,417.9798708000453,None,3,f,10,l,KB,2021_Jun_15_1202,WASABI Nback,2020.2.10,60.0083771773547,
0,1,4,"[-0.2, 0]",1,0,1,1,1,,,,,0,0,0,0,0,23,23,23,,,,,,,,,,,None,None,0,419.9798698000377,None,419.9798698000377,420.97989499999676,420.96322530001635,421.963318300026,0,0,419.9798698000377,None,3,f,10,l,KB,2021_Jun_15_1202,WASABI Nback,2020.2.10,60.0083771773547,
0,1,4,"[-0.2, 0]",None,0,1,1,1,,,,,0,0,0,0,0,24,24,24,,,,,,,,,,,None,None,0,421.9798934000428,None,421.9798934000428,422.97989630000666,422.96324569999706,423.9632382999989,0,1,421.9798934000428,None,3,f,10,l,KB,2021_Jun_15_1202,WASABI Nback,2020.2.10,60.0083771773547,
0,1,5,"[0, 0]",None,0,1,1,1,,,,,0,0,0,0,0,25,25,25,,,,,,,,,,,None,None,0,423.97993640002096,None,423.97993640002096,424.97982910001883,424.96326440002304,425.9632564000203,0,1,423.97993640002096,None,3,f,10,l,KB,2021_Jun_15_1202,WASABI Nback,2020.2.10,60.0083771773547,
0,1,2,"[0, 0.2]",None,0,1,1,1,,,,,0,0,0,0,0,26,26,26,,,,,,,,,,,None,None,0,425.9799406999955,None,425.9799406999955,426.9799746000208,426.96327569999266,427.96328870003344,0,1,425.9799406999955,None,3,f,10,l,KB,2021_Jun_15_1202,WASABI Nback,2020.2.10,60.0083771773547,
0,1,6,"[0.2, 0]",None,0,1,1,1,,,,,0,0,0,0,0,27,27,27,,,,,,,,,,,None,None,0,427.97993570001563,None,427.97993570001563,428.97994390001986,428.96327340003336,429.9632808000315,0,1,427.97993570001563,None,3,f,10,l,KB,2021_Jun_15_1202,WASABI Nback,2020.2.10,60.0083771773547,
0,1,7,"[-0.2, -0.2]",None,0,1,1,1,,,,,0,0,0,0,0,28,28,28,,,,,,,,,,,None,None,0,429.97996880003484,None,429.97996880003484,430.97998870001175,430.96330080000916,431.96329390001483,0,1,429.97996880003484,None,3,f,10,l,KB,2021_Jun_15_1202,WASABI Nback,2020.2.10,60.0083771773547,
0,1,6,"[0.2, 0]",1,0,1,1,1,,,,,0,0,0,0,0,29,29,29,,,,,,,,,,,None,None,0,431.97996130003594,None,431.97996130003594,432.979986499995,432.96332030004123,433.9633172000176,0,1,431.97996130003594,None,3,f,10,l,KB,2021_Jun_15_1202,WASABI Nback,2020.2.10,60.0083771773547,
0,1,6,"[0.2, 0]",None,0,1,1,1,,,,,0,0,0,0,0,30,30,30,,,,,,,,,,,None,None,0,433.97998530004406,None,433.97998530004406,434.97998709999956,434.963343200041,435.9633439000463,0,1,433.97998530004406,None,3,f,10,l,KB,2021_Jun_15_1202,WASABI Nback,2020.2.10,60.0083771773547,
0,1,7,"[-0.2, -0.2]",None,0,1,1,1,,,,,0,0,0,0,0,31,31,31,,,,,,,,,,,None,None,0,435.980009299994,None,435.980009299994,436.97992690000683,436.9633082000073,437.96335650002584,0,1,435.980009299994,None,3,f,10,l,KB,2021_Jun_15_1202,WASABI Nback,2020.2.10,60.0083771773547,
0,1,6,"[0.2, 0]",1,0,1,1,1,,,,,0,0,0,0,0,32,32,32,,,,,,,,,,,None,None,0,437.98000239999965,None,437.98000239999965,438.98002720001386,438.9633943000226,439.96336530003464,0,0,437.98000239999965,None,3,f,10,l,KB,2021_Jun_15_1202,WASABI Nback,2020.2.10,60.0083771773547,
0,1,2,"[0, 0.2]",None,0,1,1,1,,,,,0,0,0,0,0,33,33,33,,,,,,,,,,,None,None,0,439.9800365000265,None,439.9800365000265,440.9800935999956,440.96342240000376,441.96339220000664,0,1,439.9800365000265,None,3,f,10,l,KB,2021_Jun_15_1202,WASABI Nback,2020.2.10,60.0083771773547,
0,1,5,"[0, 0]",None,0,1,1,1,,,,,0,0,0,0,0,34,34,34,,,,,,,,,,,None,None,0,441.98005519999424,None,441.98005519999424,442.9800402999972,442.9634075000067,443.96340250002686,0,1,441.98005519999424,None,3,f,10,l,KB,2021_Jun_15_1202,WASABI Nback,2020.2.10,60.0083771773547,
0,1,4,"[-0.2, 0]",None,0,1,1,1,,,,,0,0,0,0,0,35,35,35,,,,,,,,,,,None,None,0,443.98005000001285,None,443.98005000001285,444.98008990002563,444.9634040000383,445.96341339999344,0,1,443.98005000001285,None,3,f,10,l,KB,2021_Jun_15_1202,WASABI Nback,2020.2.10,60.0083771773547,
0,1,4,"[-0.2, 0]",None,0,1,1,1,,,,,0,0,0,0,0,36,36,36,,,,,,,,,,,None,None,0,445.9800758000347,None,445.9800758000347,446.98008700000355,446.96342889999505,447.9634127000463,0,1,445.9800758000347,None,3,f,10,l,KB,2021_Jun_15_1202,WASABI Nback,2020.2.10,60.0083771773547,
0,1,7,"[-0.2, -0.2]",None,0,1,1,1,,,,,0,0,0,0,0,37,37,37,,,,,,,,,,,None,None,0,447.9801154000452,None,447.9801154000452,448.98009660001844,448.963430600008,449.96345480001764,0,1,447.9801154000452,None,3,f,10,l,KB,2021_Jun_15_1202,WASABI Nback,2020.2.10,60.0083771773547,
0,1,4,"[-0.2, 0]",1,0,1,1,1,,,,,0,0,0,0,0,38,38,38,,,,,,,,,,,None,None,0,449.9801066000364,None,449.9801066000364,450.9801168999984,450.96346180001274,451.96346100000665,0,1,449.9801066000364,None,3,f,10,l,KB,2021_Jun_15_1202,WASABI Nback,2020.2.10,60.0083771773547,
0,1,3,"[0.2, 0.2]",None,0,1,1,1,,,,,0,0,0,0,0,39,39,39,,,,,,,,,,,None,None,0,451.9801231000456,None,451.9801231000456,452.9801245999988,452.9634819999919,453.9634909000015,0,1,451.9801231000456,None,3,f,10,l,KB,2021_Jun_15_1202,WASABI Nback,2020.2.10,60.0083771773547,
0,1,5,"[0, 0]",None,0,1,1,1,,,,,0,0,0,0,0,40,40,40,,,,,,,,,,,None,None,0,453.98013440001523,None,453.98013440001523,454.9801470999955,454.96350190002704,455.9635052999947,0,1,453.98013440001523,None,3,f,10,l,KB,2021_Jun_15_1202,WASABI Nback,2020.2.10,60.0083771773547,
0,1,3,"[0.2, 0.2]",1,0,1,1,1,,,,,0,0,0,0,0,41,41,41,,,,,,,,,,,None,None,0,455.9801606000401,None,455.9801606000401,456.9801588000264,456.9635052999947,457.96352019999176,0,0,455.9801606000401,None,3,f,10,l,KB,2021_Jun_15_1202,WASABI Nback,2020.2.10,60.0083771773547,
0,1,1,"[-0.2, 0.2]",None,0,1,1,1,,,,,0,0,0,0,0,42,42,42,,,,,,,,,,,None,None,0,457.9801614000462,None,457.9801614000462,458.9801793000079,458.9634977999958,459.9635349000455,0,1,457.9801614000462,None,3,f,10,l,KB,2021_Jun_15_1202,WASABI Nback,2020.2.10,60.0083771773547,
0,1,9,"[0.2, -0.2]",None,0,1,1,1,,,,,0,0,0,0,0,43,43,43,,,,,,,,,,,None,None,0,459.9802078999928,None,459.9802078999928,460.98019670002395,460.96353710000403,461.9635506999912,0,1,459.9802078999928,None,3,f,10,l,KB,2021_Jun_15_1202,WASABI Nback,2020.2.10,60.0083771773547,
0,1,9,"[0.2, -0.2]",None,0,1,1,1,,,,,0,0,0,0,0,44,44,44,,,,,,,,,,,None,None,0,461.9802048000274,None,461.9802048000274,462.9802097000065,462.9635550000239,463.9635486000334,0,1,461.9802048000274,None,3,f,10,l,KB,2021_Jun_15_1202,WASABI Nback,2020.2.10,60.0083771773547,
0,1,8,"[0, -0.2]",None,0,1,1,1,,,,,0,0,0,0,0,45,45,45,,,,,,,,,,,None,None,0,463.98021690000314,None,463.98021690000314,464.9802236999967,464.963574399997,465.9635732000461,0,1,463.98021690000314,None,3,f,10,l,KB,2021_Jun_15_1202,WASABI Nback,2020.2.10,60.0083771773547,
0,1,6,"[0.2, 0]",None,0,1,1,1,,,,,0,0,0,0,0,46,46,46,,,,,,,,,,,None,None,0,465.9802346000215,None,465.9802346000215,466.9802445000387,466.9635339000379,467.96360150002874,0,1,465.9802346000215,None,3,f,10,l,KB,2021_Jun_15_1202,WASABI Nback,2020.2.10,60.0083771773547,
0,1,3,"[0.2, 0.2]",None,0,1,1,1,,,,,0,0,0,0,0,47,47,47,,,,,,,,,,,None,None,0,467.98024770000484,None,467.98024770000484,468.9802667000331,468.9635893999948,469.9636192000471,0,1,467.98024770000484,None,3,f,10,l,KB,2021_Jun_15_1202,WASABI Nback,2020.2.10,60.0083771773547,
0,1,6,"[0.2, 0]",1,0,1,1,1,,,,,0,0,0,0,0,48,48,48,,,,,,,,,,,None,None,0,469.98026889999164,None,469.98026889999164,470.98027380002895,470.9635030000354,471.96360380004626,0,1,469.98026889999164,None,3,f,10,l,KB,2021_Jun_15_1202,WASABI Nback,2020.2.10,60.0083771773547,
0,1,5,"[0, 0]",None,0,1,1,1,,,,,0,0,0,0,0,49,49,49,,,,,,,,,,,None,None,0,471.9802913000458,None,471.9802913000458,472.9802882000222,472.96363310003653,473.96364420000464,0,1,471.9802913000458,None,3,f,10,l,KB,2021_Jun_15_1202,WASABI Nback,2020.2.10,60.0083771773547,
0,1,7,"[-0.2, -0.2]",None,0,1,1,1,,,,,0,0,0,0,0,50,50,50,,,,,,,,,,,None,None,0,473.98030100000324,None,473.98030100000324,474.98030180000933,474.96362690004753,475.9636397000286,0,1,473.98030100000324,None,3,f,10,l,KB,2021_Jun_15_1202,WASABI Nback,2020.2.10,60.0083771773547,
0,1,5,"[0, 0]",1,0,1,1,1,,,,,0,0,0,0,0,51,51,51,,,,,,,,,,,None,None,0,475.9801981000346,None,475.9801981000346,476.98032060003607,476.9636546000256,477.96365580003476,0,0,475.9801981000346,None,3,f,10,l,KB,2021_Jun_15_1202,WASABI Nback,2020.2.10,60.0083771773547,
0,1,1,"[-0.2, 0.2]",None,0,1,1,1,,,,,0,0,0,0,0,52,52,52,,,,,,,,,,,None,None,0,477.9803275000304,None,477.9803275000304,478.9803342000232,478.96368320001056,479.96367339999415,0,1,477.9803275000304,None,3,f,10,l,KB,2021_Jun_15_1202,WASABI Nback,2020.2.10,60.0083771773547,
0,1,7,"[-0.2, -0.2]",None,0,1,1,1,,,,,0,0,0,0,0,53,53,53,,,,,,,,,,,None,None,0,479.98034420004115,None,479.98034420004115,480.98035220004385,480.9636914000148,481.9637110000476,0,1,479.98034420004115,None,3,f,10,l,KB,2021_Jun_15_1202,WASABI Nback,2020.2.10,60.0083771773547,
0,1,9,"[0.2, -0.2]",None,0,1,1,1,,,,,0,0,0,0,0,54,54,54,,,,,,,,,,,None,None,0,481.9803793000174,None,481.9803793000174,482.9803647000226,482.9636991000152,483.9637189999921,0,1,481.9803793000174,None,3,f,10,l,KB,2021_Jun_15_1202,WASABI Nback,2020.2.10,60.0083771773547,
0,1,3,"[0.2, 0.2]",None,0,1,1,1,,,,,0,0,0,0,0,55,55,55,,,,,,,,,,,None,None,0,483.9803735000314,None,483.9803735000314,484.98038349999115,484.9637524000136,485.9637393000303,0,1,483.9803735000314,None,3,f,10,l,KB,2021_Jun_15_1202,WASABI Nback,2020.2.10,60.0083771773547,
0,1,9,"[0.2, -0.2]",1,0,1,1,1,,,,,0,0,0,0,0,56,56,56,,,,,,,,,,,None,None,0,485.98038950003684,None,485.98038950003684,486.98039229999995,486.9637362000067,487.96376600000076,0,0,485.98038950003684,None,3,f,10,l,KB,2021_Jun_15_1202,WASABI Nback,2020.2.10,60.0083771773547,
0,1,6,"[0.2, 0]",None,0,1,1,1,,,,,0,0,0,0,0,57,57,57,,,,,,,,,,,None,None,0,487.9804103000206,None,487.9804103000206,488.9804137000465,488.9637537000235,489.9637706000358,0,1,487.9804103000206,None,3,f,10,l,KB,2021_Jun_15_1202,WASABI Nback,2020.2.10,60.0083771773547,
0,1,2,"[0, 0.2]",None,0,1,1,1,,,,,0,0,0,0,0,58,58,58,,,,,,,,,,,None,None,0,489.98042900004657,None,489.98042900004657,490.9803135000402,490.9637615000247,491.9637878999929,0,1,489.98042900004657,None,3,f,10,l,KB,2021_Jun_15_1202,WASABI Nback,2020.2.10,60.0083771773547,
0,1,5,"[0, 0]",None,0,1,1,1,,,,,0,0,0,0,0,59,59,59,,,,,,,,,,,None,None,0,491.98043029999826,None,491.98043029999826,492.9804644000251,492.9637794000446,493.9638179000467,0,1,491.98043029999826,None,3,f,10,l,KB,2021_Jun_15_1202,WASABI Nback,2020.2.10,60.0083771773547,
0,1,5,"[0, 0]",None,0,1,1,1,,,,,0,0,0,0,0,60,60,60,,,,,,,,,,,None,None,0,493.9804576000315,None,493.9804576000315,494.9804582000361,494.96380530000897,495.9638128000079,0,1,493.9804576000315,None,3,f,10,l,KB,2021_Jun_15_1202,WASABI Nback,2020.2.10,60.0083771773547,
0,1,2,"[0, 0.2]",None,0,1,1,1,,,,,0,0,0,0,0,61,61,61,,,,,,,,,,,None,None,0,495.9804693000042,None,495.9804693000042,496.9804839999997,496.9638300000224,497.96383590000914,0,0,495.9804693000042,None,3,f,10,l,KB,2021_Jun_15_1202,WASABI Nback,2020.2.10,60.0083771773547,
0,1,6,"[0.2, 0]",None,0,1,1,1,,,,,0,0,0,0,0,62,62,62,,,,,,,,,,,None,None,0,497.9804784000153,None,497.9804784000153,498.9805056999903,498.9638445000164,499.96385350002674,0,1,497.9804784000153,None,3,f,10,l,KB,2021_Jun_15_1202,WASABI Nback,2020.2.10,60.0083771773547,
0,1,9,"[0.2, -0.2]",None,0,1,1,1,,,,,0,0,0,0,0,63,63,63,,,,,,,,,,,None,None,0,499.9805073000025,None,499.9805073000025,500.98050300002797,500.9638637000462,501.9638692000299,0,1,499.9805073000025,None,3,f,10,l,KB,2021_Jun_15_1202,WASABI Nback,2020.2.10,60.0083771773547,
0,1,3,"[0.2, 0.2]",None,0,1,1,1,,,,,0,0,0,0,0,64,64,64,,,,,,,,,,,None,None,0,501.98050460004015,None,501.98050460004015,502.9805306000053,502.96387550001964,503.9638782000402,0,1,501.98050460004015,None,3,f,10,l,KB,2021_Jun_15_1202,WASABI Nback,2020.2.10,60.0083771773547,
0,1,9,"[0.2, -0.2]",1,0,1,1,1,,,,,0,0,0,0,0,65,65,65,,,,,,,,,,,None,None,0,503.9805348000373,None,503.9805348000373,504.98053490003804,504.9638639000477,505.9638981000171,0,1,503.9805348000373,None,3,f,10,l,KB,2021_Jun_15_1202,WASABI Nback,2020.2.10,60.0083771773547,
0,1,7,"[-0.2, -0.2]",None,0,1,1,1,,,,,0,0,0,0,0,66,66,66,,,,,,,,,,,None,None,0,505.9805533000035,None,505.9805533000035,506.9805602999986,506.9639141000225,507.9638971000095,0,1,505.9805533000035,None,3,f,10,l,KB,2021_Jun_15_1202,WASABI Nback,2020.2.10,60.0083771773547,
0,1,1,"[-0.2, 0.2]",None,0,1,1,1,,,,,0,0,0,0,0,67,67,67,,,,,,,,,,,None,None,0,507.98044720001053,None,507.98044720001053,508.98058040003525,508.96390440000687,509.96391200000653,0,1,507.98044720001053,None,3,f,10,l,KB,2021_Jun_15_1202,WASABI Nback,2020.2.10,60.0083771773547,
0,1,5,"[0, 0]",None,0,1,1,1,,,,,0,0,0,0,0,68,68,68,,,,,,,,,,,None,None,0,509.98057860002154,None,509.98057860002154,510.9805822999915,510.96393090003403,511.96395230002236,0,1,509.98057860002154,None,3,f,10,l,KB,2021_Jun_15_1202,WASABI Nback,2020.2.10,60.0083771773547,
0,1,7,"[-0.2, -0.2]",None,0,1,1,1,,,,,0,0,0,0,0,69,69,69,,,,,,,,,,,None,None,0,511.9806018000236,None,511.9806018000236,512.9806009000167,512.9639511000132,513.9639618000365,0,1,511.9806018000236,None,3,f,10,l,KB,2021_Jun_15_1202,WASABI Nback,2020.2.10,60.0083771773547,
0,1,5,"[0, 0]",1,0,1,1,1,,,,,0,0,0,0,0,70,70,70,,,,,,,,,,,None,None,0,513.9806097000255,None,513.9806097000255,514.9806168000214,514.9639710999909,515.9639717999962,0,1,513.9806097000255,None,3,f,10,l,KB,2021_Jun_15_1202,WASABI Nback,2020.2.10,60.0083771773547,
0,1,6,"[0.2, 0]",None,0,1,1,1,,,,,0,0,0,0,0,71,71,71,,,,,,,,,,,None,None,0,515.9806282999925,None,515.9806282999925,516.9806307000108,516.9639830000233,517.9639681000262,0,1,515.9806282999925,None,3,f,10,l,KB,2021_Jun_15_1202,WASABI Nback,2020.2.10,60.0083771773547,
0,1,3,"[0.2, 0.2]",None,0,1,1,1,,,,,0,0,0,0,0,72,72,72,,,,,,,,,,,None,None,0,517.9806203999906,None,517.9806203999906,518.9805742000462,518.9639954000013,519.9639923000359,0,1,517.9806203999906,None,3,f,10,l,KB,2021_Jun_15_1202,WASABI Nback,2020.2.10,60.0083771773547,
0,1,6,"[0.2, 0]",1,0,1,1,1,,,,,0,0,0,0,0,73,73,73,,,,,,,,,,,None,None,0,519.9806582000456,None,519.9806582000456,520.9806651000399,520.9640191000071,521.9640237000422,0,1,519.9806582000456,None,3,f,10,l,KB,2021_Jun_15_1202,WASABI Nback,2020.2.10,60.0083771773547,
0,1,8,"[0, -0.2]",None,0,1,1,1,,,,,0,0,0,0,0,74,74,74,,,,,,,,,,,None,None,0,521.9807086000219,None,521.9807086000219,522.980680800043,522.9640258,523.9640440000221,0,1,521.9807086000219,None,3,f,10,l,KB,2021_Jun_15_1202,WASABI Nback,2020.2.10,60.0083771773547,
0,1,9,"[0.2, -0.2]",None,0,1,1,1,,,,,0,0,0,0,0,75,75,75,,,,,,,,,,,None,None,0,523.9807030000375,None,523.9807030000375,524.9807085000211,524.9640424000099,525.9640397999901,0,1,523.9807030000375,None,3,f,10,l,KB,2021_Jun_15_1202,WASABI Nback,2020.2.10,60.0083771773547,
0,1,9,"[0.2, -0.2]",None,0,1,1,1,,,,,0,0,0,0,0,76,76,76,,,,,,,,,,,None,None,0,525.9807072000112,None,525.9807072000112,526.9807198999915,526.9640537000378,527.9640690000379,0,1,525.9807072000112,None,3,f,10,l,KB,2021_Jun_15_1202,WASABI Nback,2020.2.10,60.0083771773547,
0,1,1,"[-0.2, 0.2]",None,0,1,1,1,,,,,0,0,0,0,0,77,77,77,,,,,,,,,,,None,None,0,527.9807220000075,None,527.9807220000075,528.9807233000174,528.9640407999977,529.964086299995,0,1,527.9807220000075,None,3,f,10,l,KB,2021_Jun_15_1202,WASABI Nback,2020.2.10,60.0083771773547,
0,1,3,"[0.2, 0.2]",None,0,1,1,1,,,,,0,0,0,0,0,78,78,78,,,,,,,,,,,None,None,0,529.9807407000335,None,529.9807407000335,530.9807400000282,530.9640763000352,531.9640709999949,0,1,529.9807407000335,None,3,f,10,l,KB,2021_Jun_15_1202,WASABI Nback,2020.2.10,60.0083771773547,
0,1,5,"[0, 0]",None,0,1,1,1,,,,,0,0,0,0,0,79,79,79,,,,,,,,,,,None,None,0,531.9807560000336,None,531.9807560000336,532.9807685000123,532.9639797999989,533.9640997000388,0,1,531.9807560000336,None,3,f,10,l,KB,2021_Jun_15_1202,WASABI Nback,2020.2.10,60.0083771773547,
0,1,3,"[0.2, 0.2]",1,0,1,1,1,,,,,0,0,0,0,0,80,80,80,,,,,,,,,,,None,None,0,533.9807685000123,None,533.9807685000123,534.980781899998,534.9641211000271,535.9641357000219,0,0,533.9807685000123,None,3,f,10,l,KB,2021_Jun_15_1202,WASABI Nback,2020.2.10,60.0083771773547,
0,1,4,"[-0.2, 0]",None,0,1,1,1,,,,,0,0,0,0,0,81,81,81,,,,,,,,,,,None,None,0,535.9807901000022,None,535.9807901000022,536.9807853000239,536.9641253000009,537.9641223000363,0,1,535.9807901000022,None,3,f,10,l,KB,2021_Jun_15_1202,WASABI Nback,2020.2.10,60.0083771773547,
0,1,7,"[-0.2, -0.2]",None,0,1,1,1,,,,,0,0,0,0,0,82,82,82,,,,,,,,,,,None,None,0,537.9808017000323,None,537.9808017000323,538.9808147000149,538.9641363000264,539.9641430000192,0,1,537.9808017000323,None,3,f,10,l,KB,2021_Jun_15_1202,WASABI Nback,2020.2.10,60.0083771773547,
0,1,4,"[-0.2, 0]",1,0,1,1,1,,,,,0,0,0,0,0,83,83,83,,,,,,,,,,,None,None,0,539.9808152000187,None,539.9808152000187,540.9808330000378,540.9641598000308,541.9641685000388,0,0,539.9808152000187,None,3,f,10,l,KB,2021_Jun_15_1202,WASABI Nback,2020.2.10,60.0083771773547,
0,1,4,"[-0.2, 0]",None,0,1,1,1,,,,,0,0,0,0,0,84,84,84,,,,,,,,,,,None,None,0,541.9808514000033,None,541.9808514000033,542.9808364000055,542.9641731000156,543.9641792000039,0,1,541.9808514000033,None,3,f,10,l,KB,2021_Jun_15_1202,WASABI Nback,2020.2.10,60.0083771773547,
0,1,5,"[0, 0]",None,0,1,1,1,,,,,0,0,0,0,0,85,85,85,,,,,,,,,,,None,None,0,543.9808668000042,None,543.9808668000042,544.9808606000151,544.9642015999998,545.9642160999938,0,1,543.9808668000042,None,3,f,10,l,KB,2021_Jun_15_1202,WASABI Nback,2020.2.10,60.0083771773547,
0,1,2,"[0, 0.2]",None,0,1,1,1,,,,,0,0,0,0,0,86,86,86,,,,,,,,,,,None,None,0,545.9808556000353,None,545.9808556000353,546.9808753000107,546.9642114000162,547.9642307000468,0,1,545.9808556000353,None,3,f,10,l,KB,2021_Jun_15_1202,WASABI Nback,2020.2.10,60.0083771773547,
0,1,6,"[0.2, 0]",None,0,1,1,1,,,,,0,0,0,0,0,87,87,87,,,,,,,,,,,None,None,0,547.9808819000027,None,547.9808819000027,548.9808866000385,548.9641186000081,549.9643217000412,0,1,547.9808819000027,None,3,f,10,l,KB,2021_Jun_15_1202,WASABI Nback,2020.2.10,60.0083771773547,
0,1,7,"[-0.2, -0.2]",None,0,1,1,1,,,,,0,0,0,0,0,88,88,88,,,,,,,,,,,None,None,0,549.9809273999999,None,549.9809273999999,550.9809033999918,550.9642473999993,551.9642602000386,0,1,549.9809273999999,None,3,f,10,l,KB,2021_Jun_15_1202,WASABI Nback,2020.2.10,60.0083771773547,
0,1,6,"[0.2, 0]",1,0,1,1,1,,,,,0,0,0,0,0,89,89,89,,,,,,,,,,,None,None,0,551.9809155000257,None,551.9809155000257,552.9809518000111,552.9642512000282,553.9642808000208,0,0,551.9809155000257,None,3,f,10,l,KB,2021_Jun_15_1202,WASABI Nback,2020.2.10,60.0083771773547,
0,1,6,"[0.2, 0]",None,0,1,1,1,,,,,0,0,0,0,0,90,90,90,,,,,,,,,,,None,None,0,553.9809484000434,None,553.9809484000434,554.980936500011,554.9642819000292,555.9642893000273,0,1,553.9809484000434,None,3,f,10,l,KB,2021_Jun_15_1202,WASABI Nback,2020.2.10,60.0083771773547,
0,1,7,"[-0.2, -0.2]",None,0,1,1,1,,,,,0,0,0,0,0,91,91,91,,,,,,,,,,,None,None,0,555.9809548000339,None,555.9809548000339,556.9809500999982,556.9642931999988,557.9642873000121,0,0,555.9809548000339,None,3,f,10,l,KB,2021_Jun_15_1202,WASABI Nback,2020.2.10,60.0083771773547,
0,1,6,"[0.2, 0]",1,0,1,1,1,,,,,0,0,0,0,0,92,92,92,,,,,,,,,,,None,None,0,557.9809574999963,None,557.9809574999963,558.9809811000014,558.9643141000415,559.9643195000244,0,0,557.9809574999963,None,3,f,10,l,KB,2021_Jun_15_1202,WASABI Nback,2020.2.10,60.0083771773547,
0,1,2,"[0, 0.2]",None,0,1,1,1,,,,,0,0,0,0,0,93,93,93,,,,,,,,,,,None,None,0,559.9809733000002,None,559.9809733000002,560.9809926000307,560.9643092000042,561.9643236999982,0,1,559.9809733000002,None,3,f,10,l,KB,2021_Jun_15_1202,WASABI Nback,2020.2.10,60.0083771773547,
0,1,5,"[0, 0]",None,0,1,1,1,,,,,0,0,0,0,0,94,94,94,,,,,,,,,,,None,None,0,561.9810005000327,None,561.9810005000327,562.9809960999992,562.9643258000142,563.9643388999975,0,1,561.9810005000327,None,3,f,10,l,KB,2021_Jun_15_1202,WASABI Nback,2020.2.10,60.0083771773547,
0,1,4,"[-0.2, 0]",None,0,1,1,1,,,,,0,0,0,0,0,95,95,95,,,,,,,,,,,None,None,0,563.9810047000065,None,563.9810047000065,564.9810753000202,564.9643998999964,565.9643494000193,0,1,563.9810047000065,None,3,f,10,l,KB,2021_Jun_15_1202,WASABI Nback,2020.2.10,60.0083771773547,
0,1,4,"[-0.2, 0]",None,0,1,1,1,,,,,0,0,0,0,0,96,96,96,,,,,,,,,,,None,None,0,565.981023600034,None,565.981023600034,566.9810881000012,566.9643811000278,567.9643841999932,0,1,565.981023600034,None,3,f,10,l,KB,2021_Jun_15_1202,WASABI Nback,2020.2.10,60.0083771773547,
0,1,7,"[-0.2, -0.2]",None,0,1,1,1,,,,,0,0,0,0,0,97,97,97,,,,,,,,,,,None,None,0,567.9810376000241,None,567.9810376000241,568.9810524000204,568.9643942000112,569.9644023000146,0,1,567.9810376000241,None,3,f,10,l,KB,2021_Jun_15_1202,WASABI Nback,2020.2.10,60.0083771773547,
0,1,4,"[-0.2, 0]",1,0,1,1,1,,,,,0,0,0,0,0,98,98,98,,,,,,,,,,,None,None,0,569.9810595000163,None,569.9810595000163,570.9810600000201,570.9644040000276,571.964400900004,0,0,569.9810595000163,None,3,f,10,l,KB,2021_Jun_15_1202,WASABI Nback,2020.2.10,60.0083771773547,
0,1,3,"[0.2, 0.2]",None,0,1,1,1,,,,,0,0,0,0,0,99,99,99,,,,,,,,,,,None,None,0,571.9810714999912,None,571.9810714999912,572.9810764000285,572.9644239000045,573.9644189000246,0,1,571.9810714999912,None,3,f,10,l,KB,2021_Jun_15_1202,WASABI Nback,2020.2.10,60.0083771773547,
0,1,5,"[0, 0]",None,0,1,1,1,,,,,0,0,0,0,0,100,100,100,,,,,,,,,,,None,None,0,573.9810822000145,None,573.9810822000145,574.9810851000366,574.9644427000312,575.9644444000442,0,1,573.9810822000145,None,3,f,10,l,KB,2021_Jun_15_1202,WASABI Nback,2020.2.10,60.0083771773547,
0,1,3,"[0.2, 0.2]",1,0,1,1,1,,,,,0,0,0,0,0,101,101,101,,,,,,,,,,,None,None,0,575.9810991000268,None,575.9810991000268,576.981124300044,576.9644509000354,577.9644495000248,0,0,575.9810991000268,None,3,f,10,l,KB,2021_Jun_15_1202,WASABI Nback,2020.2.10,60.0083771773547,
0,1,1,"[-0.2, 0.2]",None,0,1,1,1,,,,,0,0,0,0,0,102,102,102,,,,,,,,,,,None,None,0,577.9811179999961,None,577.9811179999961,578.9811273000087,578.9644545000046,579.9644763999968,0,1,577.9811179999961,None,3,f,10,l,KB,2021_Jun_15_1202,WASABI Nback,2020.2.10,60.0083771773547,
0,1,9,"[0.2, -0.2]",None,0,1,1,1,,,,,0,0,0,0,0,103,103,103,,,,,,,,,,,None,None,0,579.9811340000015,None,579.9811340000015,580.981132200046,580.9645032000262,581.9644771000021,0,1,579.9811340000015,None,3,f,10,l,KB,2021_Jun_15_1202,WASABI Nback,2020.2.10,60.0083771773547,
0,1,9,"[0.2, -0.2]",None,0,1,1,1,,,,,0,0,0,0,0,104,104,104,,,,,,,,,,,None,None,0,581.9811545000412,None,581.9811545000412,582.9811563999974,582.9645004000049,583.9645135000465,0,1,581.9811545000412,None,3,f,10,l,KB,2021_Jun_15_1202,WASABI Nback,2020.2.10,60.0083771773547,
0,1,8,"[0, -0.2]",None,0,1,1,1,,,,,0,0,0,0,0,105,105,105,,,,,,,,,,,None,None,0,583.9811645000009,None,583.9811645000009,584.9811733000097,584.9644991999958,585.964526100026,0,1,583.9811645000009,None,3,f,10,l,KB,2021_Jun_15_1202,WASABI Nback,2020.2.10,60.0083771773547,
0,1,6,"[0.2, 0]",None,0,1,1,1,,,,,0,0,0,0,0,106,106,106,,,,,,,,,,,None,None,0,585.9811780000455,None,585.9811780000455,586.9811950000003,586.9645424000337,587.9645259000245,0,1,585.9811780000455,None,3,f,10,l,KB,2021_Jun_15_1202,WASABI Nback,2020.2.10,60.0083771773547,
0,1,3,"[0.2, 0.2]",None,0,1,1,1,,,,,0,0,0,0,0,107,107,107,,,,,,,,,,,None,None,0,587.9811953000026,None,587.9811953000026,588.9812029000022,588.9645353000378,589.9645629000152,0,1,587.9811953000026,None,3,f,10,l,KB,2021_Jun_15_1202,WASABI Nback,2020.2.10,60.0083771773547,
0,1,6,"[0.2, 0]",1,0,1,1,1,,,,,0,0,0,0,0,108,108,108,,,,,,,,,,,None,None,0,589.9812161000445,None,589.9812161000445,590.9811948999995,590.9645657000365,591.9645627000136,0,0,589.9812161000445,None,3,f,10,l,KB,2021_Jun_15_1202,WASABI Nback,2020.2.10,60.0083771773547,
0,1,5,"[0, 0]",None,0,1,1,1,,,,,0,0,0,0,0,109,109,109,,,,,,,,,,,None,None,0,591.981220000016,None,591.981220000016,592.9813027000055,592.9645827999921,593.9645947000245,0,1,591.981220000016,None,3,f,10,l,KB,2021_Jun_15_1202,WASABI Nback,2020.2.10,60.0083771773547,
0,1,7,"[-0.2, -0.2]",None,0,1,1,1,,,,,0,0,0,0,0,110,110,110,,,,,,,,,,,None,None,0,593.9812377000344,None,593.9812377000344,594.981265600014,594.9645972000435,595.9646114000352,0,1,593.9812377000344,None,3,f,10,l,KB,2021_Jun_15_1202,WASABI Nback,2020.2.10,60.0083771773547,
0,1,5,"[0, 0]",1,0,1,1,1,,,,,0,0,0,0,0,111,111,111,,,,,,,,,,,None,None,0,595.9812662000186,None,595.9812662000186,596.9812396999914,596.9646131999907,597.9645963000366,0,0,595.9812662000186,None,3,f,10,l,KB,2021_Jun_15_1202,WASABI Nback,2020.2.10,60.0083771773547,
0,1,1,"[-0.2, 0.2]",None,0,1,1,1,,,,,0,0,0,0,0,112,112,112,,,,,,,,,,,None,None,0,597.9812935999944,None,597.9812935999944,598.9812827000278,598.9646292999969,599.9646190000349,0,1,597.9812935999944,None,3,f,10,l,KB,2021_Jun_15_1202,WASABI Nback,2020.2.10,60.0083771773547,
0,1,7,"[-0.2, -0.2]",None,0,1,1,1,,,,,0,0,0,0,0,113,113,113,,,,,,,,,,,None,None,0,599.9812918000389,None,599.9812918000389,600.9812931999913,600.9646425000392,601.9646358000464,0,1,599.9812918000389,None,3,f,10,l,KB,2021_Jun_15_1202,WASABI Nback,2020.2.10,60.0083771773547,
0,1,9,"[0.2, -0.2]",None,0,1,1,1,,,,,0,0,0,0,0,114,114,114,,,,,,,,,,,None,None,0,601.9813455000403,None,601.9813455000403,602.9813179000048,602.964664100029,603.9646536000073,0,1,601.9813455000403,None,3,f,10,l,KB,2021_Jun_15_1202,WASABI Nback,2020.2.10,60.0083771773547,
0,1,3,"[0.2, 0.2]",None,0,1,1,1,,,,,0,0,0,0,0,115,115,115,,,,,,,,,,,None,None,0,603.9813375000376,None,603.9813375000376,604.9813349000178,604.9646681000013,605.9646710000234,0,1,603.9813375000376,None,3,f,10,l,KB,2021_Jun_15_1202,WASABI Nback,2020.2.10,60.0083771773547,
0,1,9,"[0.2, -0.2]",1,0,1,1,1,,,,,0,0,0,0,0,116,116,116,,,,,,,,,,,None,None,0,605.981351400027,None,605.981351400027,606.9813491000095,606.9646973999916,607.9646990000037,0,1,605.981351400027,None,3,f,10,l,KB,2021_Jun_15_1202,WASABI Nback,2020.2.10,60.0083771773547,
0,1,6,"[0.2, 0]",None,0,1,1,1,,,,,0,0,0,0,0,117,117,117,,,,,,,,,,,None,None,0,607.9813588000252,None,607.9813588000252,608.9813722000108,608.9646967000444,609.9646917000064,0,1,607.9813588000252,None,3,f,10,l,KB,2021_Jun_15_1202,WASABI Nback,2020.2.10,60.0083771773547,
0,1,2,"[0, 0.2]",None,0,1,1,1,,,,,0,0,0,0,0,118,118,118,,,,,,,,,,,None,None,0,609.9813679000363,None,609.9813679000363,610.9813819000265,610.964713399997,611.964734600042,0,1,609.9813679000363,None,3,f,10,l,KB,2021_Jun_15_1202,WASABI Nback,2020.2.10,60.0083771773547,
0,1,5,"[0, 0]",None,0,1,1,1,,,,,0,0,0,0,0,119,119,119,,,,,,,,,,,None,None,0,611.9813837000402,None,611.9813837000402,612.9813925999915,612.9647320000222,613.9647349000443,0,1,611.9813837000402,None,3,f,10,l,KB,2021_Jun_15_1202,WASABI Nback,2020.2.10,60.0083771773547,
