	SID	date	sex	session	handedness	scanner	onset	duration	repetition	rating	body_site	keys	temperature	conditionrt	mouseclick	biopac_channel	condition	rt	value
0	3211	2025_Oct_02_1326	f	1	r	ts ss	2.7749118998181075	5.017614995595068								19	Instructions		
1	3211	2025_Oct_02_1326	f	1	r	ts ss	8.372755899792537	2.0132484997157007								6	Cue		
2	3211	2025_Oct_02_1326	f	1	r	ts ss	10.3918383999262	8.000759600196034								7	Pre-Jitter		
3	3211	2025_Oct_02_1326	f	1	r	ts ss	18.42225810000673	15.026075799949467			Chest		48.0			17	Heat-Stimulation		
4	3211	2025_Oct_02_1326	f	1	r	ts ss	33.52446369989775	7.0070398999378085								8	Mid-Jitter		
5	3211	2025_Oct_02_1326	f	1	r	ts ss	40.549011199967936	5.0014924998395145								20	PainBinary	1.5677279001101851	1.0
6	3211	2025_Oct_02_1326	f	1	r	ts ss	45.569119499996305	5.019746399950236								21	IntensityRating	4.287187100155279	59.38888888888889
7	3211	2025_Oct_02_1326	f	1	r	ts ss	50.603832699824125	5.008851500228047								22	ToleranceRating	1.3347483000252396	-1.0
8	3211	2025_Oct_02_1326	f	1	r	ts ss	55.61403839988634	7.015279000159353								9	Post-Q-Jitter		
9	3211	2025_Oct_02_1326	f	1	r	ts ss	63.20849629980512	2.0177401998080313								6	Cue		
10	3211	2025_Oct_02_1326	f	1	r	ts ss	65.22011959995143	4.000103199854493								7	Pre-Jitter		
11	3211	2025_Oct_02_1326	f	1	r	ts ss	69.27252999995835	15.01137309987098			Chest		47.5			17	Heat-Stimulation		
12	3211	2025_Oct_02_1326	f	1	r	ts ss	84.36576259997673	9.011946100043133								8	Mid-Jitter		
13	3211	2025_Oct_02_1326	f	1	r	ts ss	93.39467799989507	5.016041399911046								20	PainBinary	1.217988400021568	1.0
14	3211	2025_Oct_02_1326	f	1	r	ts ss	98.43138369987719	5.0178149996791035								21	IntensityRating	2.07118900003843	57.88888888888889
15	3211	2025_Oct_02_1326	f	1	r	ts ss	103.4661031998694	5.0069106998853385								22	ToleranceRating	1.4181947999168187	-1.0
16	3211	2025_Oct_02_1326	f	1	r	ts ss	108.47629699995741	9.015012900112197								9	Post-Q-Jitter		
17	3211	2025_Oct_02_1326	f	1	r	ts ss	118.20208749989979	2.0065866000950336								6	Cue		
18	3211	2025_Oct_02_1326	f	1	r	ts ss	120.21562719997019	8.005310400156304								7	Pre-Jitter		
19	3211	2025_Oct_02_1326	f	1	r	ts ss	128.25342449988239	15.015838999766856			Chest		47.0			17	Heat-Stimulation		
20	3211	2025_Oct_02_1326	f	1	r	ts ss	143.34752869978547	9.014708500122651								8	Mid-Jitter		
21	3211	2025_Oct_02_1326	f	1	r	ts ss	152.3778601998929	5.016017599962652								20	PainBinary	2.802606499986723	-1.0
22	3211	2025_Oct_02_1326	f	1	r	ts ss	167.40485919988714	9.01412259764038								9	Post-Q-Jitter		
23	3211	2025_Oct_02_1326	f	1	r	ts ss	177.77573529980145	2.009270099690184								6	Cue		
24	3211	2025_Oct_02_1326	f	1	r	ts ss	179.783219399862	8.004127700114623								7	Pre-Jitter		
25	3211	2025_Oct_02_1326	f	1	r	ts ss	187.84644289989956	15.013802400091663			Chest		47.0			17	Heat-Stimulation		
26	3211	2025_Oct_02_1326	f	1	r	ts ss	202.94380509993061	7.021101400023326								8	Mid-Jitter		
27	3211	2025_Oct_02_1326	f	1	r	ts ss	209.9765885998495	5.015762200113386								20	PainBinary	1.7850728000048548	-1.0
28	3211	2025_Oct_02_1326	f	1	r	ts ss	225.00363449985161	7.012123697437346								9	Post-Q-Jitter		
29	3211	2025_Oct_02_1326	f	1	r	ts ss	232.734744399786	2.018012299668044								6	Cue		
30	3211	2025_Oct_02_1326	f	1	r	ts ss	234.74601499992423	4.001290200045332								7	Pre-Jitter		
31	3211	2025_Oct_02_1326	f	1	r	ts ss	238.7800626999233	15.015953599940985			Chest		47.0			17	Heat-Stimulation		
32	3211	2025_Oct_02_1326	f	1	r	ts ss	253.86944319983013	5.020846699830145								8	Mid-Jitter		
33	3211	2025_Oct_02_1326	f	1	r	ts ss	258.9000146999024	5.0015573997516185								20	PainBinary	1.55195780005306	1.0
34	3211	2025_Oct_02_1326	f	1	r	ts ss	263.9197316998616	5.003924499731511								21	IntensityRating	4.537507399916649	38.72222222222222
35	3211	2025_Oct_02_1326	f	1	r	ts ss	268.93977089994587	5.005663600051776								22	ToleranceRating	1.3514225000981241	1.0
36	3211	2025_Oct_02_1326	f	1	r	ts ss	273.9491925998591	5.011974300025031								9	Post-Q-Jitter		
37	3211	2025_Oct_02_1326	f	1	r	ts ss	279.6617481999565	2.009952199878171								6	Cue		
38	3211	2025_Oct_02_1326	f	1	r	ts ss	281.669324999908	8.003956499742344								7	Pre-Jitter		
39	3211	2025_Oct_02_1326	f	1	r	ts ss	289.7113583998289	15.022625300101936			Chest		47.0			17	Heat-Stimulation		
40	3211	2025_Oct_02_1326	f	1	r	ts ss	304.821048699785	7.005274700000882								8	Mid-Jitter		
41	3211	2025_Oct_02_1326	f	1	r	ts ss	311.8456462000031	5.016396299935877								20	PainBinary	2.252171800006181	1.0
42	3211	2025_Oct_02_1326	f	1	r	ts ss	316.88096169987693	5.004256200045347								21	IntensityRating	2.235526000149548	48.0
43	3211	2025_Oct_02_1326	f	1	r	ts ss	321.8999691999052	5.007999900029972								22	ToleranceRating	1.5351242998149246	1.0
44	3211	2025_Oct_02_1326	f	1	r	ts ss	326.91041119978763	7.013974200002849								9	Post-Q-Jitter		
45	3211	2025_Oct_02_1326	f	1	r	ts ss	334.60133469989523	2.0069552999921143								6	Cue		
46	3211	2025_Oct_02_1326	f	1	r	ts ss	336.61489319987595	6.003929200116545								7	Pre-Jitter		
47	3211	2025_Oct_02_1326	f	1	r	ts ss	342.66983529995196	15.011812900193036			Chest		47.0			17	Heat-Stimulation		
48	3211	2025_Oct_02_1326	f	1	r	ts ss	357.75931649981067	9.01992049999535								8	Mid-Jitter		
49	3211	2025_Oct_02_1326	f	1	r	ts ss	366.7912488998845	5.0013388998340815								20	PainBinary	2.9226892001461238	1.0
50	3211	2025_Oct_02_1326	f	1	r	ts ss	371.8108802998904	5.003850700100884								21	IntensityRating	3.4866544001270086	45.22222222222222
51	3211	2025_Oct_02_1326	f	1	r	ts ss	376.8303129998967	5.00679609994404								22	ToleranceRating	1.5682456998620182	1.0
52	3211	2025_Oct_02_1326	f	1	r	ts ss	381.84046639990993	9.015034900046885								9	Post-Q-Jitter		
53	3211	2025_Oct_02_1326	f	1	r	ts ss	390.8868644000031	7.8532729998696595								26	ComfortRating	7.823594099842012	20.555555555555543
54	3211	2025_Oct_02_1326	f	1	r	ts ss	398.7549988999963	3.6767833998892456								24	ValenceRating	3.653344599995762	55.94444444444444
55	3211	2025_Oct_02_1326	f	1	r	ts ss	402.4513156998437	3.907232200028375								26	IntensityRating	3.8868909999728203	45.83333333333333
56	3211	2025_Oct_02_1326	f	1	r	ts ss	406.3742878998164	4.801963700214401								27	AvoidanceRating	4.770939900074154	-16.333333333333343
57	3211	2025_Oct_02_1326	f	1	r	ts ss	411.19064929988235	2.3920208998024464								28	RelaxationRating	2.3689720002003014	55.666666666666664
58	3211	2025_Oct_02_1326	f	1	r	ts ss	413.5966204998549	6.170698499772698								29	AttentionRating	6.138808200135827	57.05555555555556
59	3211	2025_Oct_02_1326	f	1	r	ts ss	419.7822915997822	4.058028799947351								30	BoredomRating	4.037052600178868	56.111111111111114
60	3211	2025_Oct_02_1326	f	1	r	ts ss	423.85393069987185	2.6370727999601513								31	AlertnessRating	2.6191602998878807	-11.111111111111114
61	3211	2025_Oct_02_1326	f	1	r	ts ss	426.50605009985156	4.922570199938491								32	PosThxRating	4.904525100020692	0.0
62	3211	2025_Oct_02_1326	f	1	r	ts ss	431.4453779999167	3.0673718999605626								33	NegThxRating	3.036131599918008	17.22222222222223
63	3211	2025_Oct_02_1326	f	1	r	ts ss	434.5279578999616	3.3243017997592688								34	SelfRating	3.3031206999439746	39.888888888888914
64	3211	2025_Oct_02_1326	f	1	r	ts ss	437.86439329991117	3.2736267000436783								35	OtherRating	3.2530231000855565	-45.55555555555556
65	3211	2025_Oct_02_1326	f	1	r	ts ss	441.15101949987	3.756348399911076								32	ImageryRating	3.7368373000063	22.777777777777786
66	3211	2025_Oct_02_1326	f	1	r	ts ss	444.92299849982373	4.335941799916327								37	PresentRating	4.303877199999988	76.66666666666666
