RestT1,TaskT1,square,location,corrAns,counterbalancer.thisRepN,counterbalancer.thisTrialN,counterbalancer.thisN,counterbalancer.thisIndex,RestT1Loop.thisRepN,RestT1Loop.thisTrialN,RestT1Loop.thisN,RestT1Loop.thisIndex,TaskT1Loop.thisRepN,TaskT1Loop.thisTrialN,TaskT1Loop.thisN,TaskT1Loop.thisIndex,trials_2.thisRepN,trials_2.thisTrialN,trials_2.thisN,trials_2.thisIndex,fixation_1.started,fixation_1.stopped,NbackInstructions.started,NbackInstructions.stopped,NbackStart.keys,NbackStart.rt,NbackStart.started,NbackStart.stopped,fixation_2.started,fixation_2.stopped,grid_lines_2.started,grid_lines_2.stopped,target_square_2.started,target_square_2.stopped,fixation_3.started,fixation_3.stopped,response_2.keys,response_2.corr,response_2.rt,response_2.started,response_2.stopped,subject number,gender,session,handedness,scanner,date,expName,psychopyVersion,frameRate,
1,0,,,,0,0,0,0,0,0,0,0,,,,,,,,,27.14156180000282,None,,,,,,,,,,,,,,,,,,,,1,m,1,r,MS,2021_Apr_15_2002,WASABI Nback,2020.2.10,59.82900869359901,
0,1,,,,0,1,1,1,,,,,0,0,0,0,,,,,,,343.5971065000049,None,space,12.355507999978727,343.5971065000049,None,,,,,,,,,,,,,,1,m,1,r,MS,2021_Apr_15_2002,WASABI Nback,2020.2.10,59.82900869359901,
0,1,5,"[0, 0]",None,0,1,1,1,,,,,0,0,0,0,0,0,0,0,,,,,,,,,356.0177212000126,None,357.26724939999986,None,357.26724939999986,358.3490496999875,358.1225661000062,None,space,0,0.14429930000915192,357.26724939999986,None,1,m,1,r,MS,2021_Apr_15_2002,WASABI Nback,2020.2.10,59.82900869359901,
0,1,2,"[0, 0.2]",None,0,1,1,1,,,,,0,0,0,0,0,1,1,1,,,,,,,,,,,359.0483562000154,None,359.0483562000154,360.07396919999155,360.04528399999253,None,None,1,,359.0483562000154,None,1,m,1,r,MS,2021_Apr_15_2002,WASABI Nback,2020.2.10,59.82900869359901,
0,1,6,"[0.2, 0]",None,0,1,1,1,,,,,0,0,0,0,0,2,2,2,,,,,,,,,,,361.0451342999877,None,361.0451342999877,362.08046140000806,362.0491519999923,None,None,1,,361.0451342999877,None,1,m,1,r,MS,2021_Apr_15_2002,WASABI Nback,2020.2.10,59.82900869359901,
0,1,9,"[0.2, -0.2]",None,0,1,1,1,,,,,0,0,0,0,0,3,3,3,,,,,,,,,,,363.0206169000012,None,363.0206169000012,364.0489523000142,363.99426989999483,None,None,1,,363.0206169000012,None,1,m,1,r,MS,2021_Apr_15_2002,WASABI Nback,2020.2.10,59.82900869359901,
0,1,3,"[0.2, 0.2]",None,0,1,1,1,,,,,0,0,0,0,0,4,4,4,,,,,,,,,,,365.02245940000284,None,365.02245940000284,366.03094019999844,365.9965928000165,366.9978495000105,None,1,,365.02245940000284,None,1,m,1,r,MS,2021_Apr_15_2002,WASABI Nback,2020.2.10,59.82900869359901,
0,1,9,"[0.2, -0.2]",space,0,1,1,1,,,,,0,0,0,0,0,5,5,5,,,,,,,,,,,367.0160780000151,None,367.0160780000151,368.01699070000905,367.9985992000147,369.00052040000446,None,0,,367.0160780000151,None,1,m,1,r,MS,2021_Apr_15_2002,WASABI Nback,2020.2.10,59.82900869359901,
0,1,7,"[-0.2, -0.2]",None,0,1,1,1,,,,,0,0,0,0,0,6,6,6,,,,,,,,,,,369.0181428999931,None,369.0181428999931,370.01700520000304,370.000661099999,371.0022220000101,None,1,,369.0181428999931,None,1,m,1,r,MS,2021_Apr_15_2002,WASABI Nback,2020.2.10,59.82900869359901,
0,1,1,"[-0.2, 0.2]",None,0,1,1,1,,,,,0,0,0,0,0,7,7,7,,,,,,,,,,,371.0193858999992,None,371.0193858999992,372.0186743999948,372.0045938999974,None,None,1,,371.0193858999992,None,1,m,1,r,MS,2021_Apr_15_2002,WASABI Nback,2020.2.10,59.82900869359901,
0,1,5,"[0, 0]",None,0,1,1,1,,,,,0,0,0,0,0,8,8,8,,,,,,,,,,,373.0055468000064,None,373.0055468000064,374.0064573000127,373.98832609999226,374.9887943000067,None,1,,373.0055468000064,None,1,m,1,r,MS,2021_Apr_15_2002,WASABI Nback,2020.2.10,59.82900869359901,
0,1,7,"[-0.2, -0.2]",None,0,1,1,1,,,,,0,0,0,0,0,9,9,9,,,,,,,,,,,375.0085487999895,None,375.0085487999895,376.02332969999406,375.98987250000937,376.9914018000127,None,1,,375.0085487999895,None,1,m,1,r,MS,2021_Apr_15_2002,WASABI Nback,2020.2.10,59.82900869359901,
0,1,5,"[0, 0]",space,0,1,1,1,,,,,0,0,0,0,0,10,10,10,,,,,,,,,,,377.0096225999878,None,377.0096225999878,378.01043429999845,377.99235089999274,378.9930441000033,None,0,,377.0096225999878,None,1,m,1,r,MS,2021_Apr_15_2002,WASABI Nback,2020.2.10,59.82900869359901,
0,1,6,"[0.2, 0]",None,0,1,1,1,,,,,0,0,0,0,0,11,11,11,,,,,,,,,,,379.02500860000146,None,379.02500860000146,380.0281771000009,379.994812799996,None,None,1,,379.02500860000146,None,1,m,1,r,MS,2021_Apr_15_2002,WASABI Nback,2020.2.10,59.82900869359901,
0,1,3,"[0.2, 0.2]",None,0,1,1,1,,,,,0,0,0,0,0,12,12,12,,,,,,,,,,,381.01275900000473,None,381.01275900000473,382.0143867000006,381.97856049999245,382.98015610000584,None,1,,381.01275900000473,None,1,m,1,r,MS,2021_Apr_15_2002,WASABI Nback,2020.2.10,59.82900869359901,
0,1,6,"[0.2, 0]",space,0,1,1,1,,,,,0,0,0,0,0,13,13,13,,,,,,,,,,,383.01529420001316,None,383.01529420001316,384.03365729999496,383.9806460000109,384.9819900000002,None,0,,383.01529420001316,None,1,m,1,r,MS,2021_Apr_15_2002,WASABI Nback,2020.2.10,59.82900869359901,
0,1,8,"[0, -0.2]",None,0,1,1,1,,,,,0,0,0,0,0,14,14,14,,,,,,,,,,,385.0168333000038,None,385.0168333000038,386.0178245000134,385.98262049999903,387.0020501000108,None,1,,385.0168333000038,None,1,m,1,r,MS,2021_Apr_15_2002,WASABI Nback,2020.2.10,59.82900869359901,
0,1,9,"[0.2, -0.2]",None,0,1,1,1,,,,,0,0,0,0,0,15,15,15,,,,,,,,,,,387.0192365999974,None,387.0192365999974,388.01998440001626,388.00181560000055,389.00276880001184,None,1,,387.0192365999974,None,1,m,1,r,MS,2021_Apr_15_2002,WASABI Nback,2020.2.10,59.82900869359901,
0,1,9,"[0.2, -0.2]",None,0,1,1,1,,,,,0,0,0,0,0,16,16,16,,,,,,,,,,,389.020835000003,None,389.020835000003,390.02217450001626,390.0044256999972,None,None,1,,389.020835000003,None,1,m,1,r,MS,2021_Apr_15_2002,WASABI Nback,2020.2.10,59.82900869359901,
0,1,1,"[-0.2, 0.2]",None,0,1,1,1,,,,,0,0,0,0,0,17,17,17,,,,,,,,,,,391.0047360000026,None,391.0047360000026,392.00775799999246,391.98975100001553,392.99015170001076,None,1,,391.0047360000026,None,1,m,1,r,MS,2021_Apr_15_2002,WASABI Nback,2020.2.10,59.82900869359901,
0,1,3,"[0.2, 0.2]",None,0,1,1,1,,,,,0,0,0,0,0,18,18,18,,,,,,,,,,,393.0095105000073,None,393.0095105000073,394.02550779999,393.99126060001436,394.99196690000826,None,1,,393.0095105000073,None,1,m,1,r,MS,2021_Apr_15_2002,WASABI Nback,2020.2.10,59.82900869359901,
0,1,5,"[0, 0]",None,0,1,1,1,,,,,0,0,0,0,0,19,19,19,,,,,,,,,,,395.0110161000048,None,395.0110161000048,396.011912499991,395.99356740000076,396.99359719999484,None,1,,395.0110161000048,None,1,m,1,r,MS,2021_Apr_15_2002,WASABI Nback,2020.2.10,59.82900869359901,
0,1,3,"[0.2, 0.2]",space,0,1,1,1,,,,,0,0,0,0,0,20,20,20,,,,,,,,,,,397.0128390000027,None,397.0128390000027,398.0140148999926,397.99513349999324,398.9960940000019,None,0,,397.0128390000027,None,1,m,1,r,MS,2021_Apr_15_2002,WASABI Nback,2020.2.10,59.82900869359901,
0,1,4,"[-0.2, 0]",None,0,1,1,1,,,,,0,0,0,0,0,21,21,21,,,,,,,,,,,399.01516720000654,None,399.01516720000654,400.01595910001197,399.99823950001155,400.99785740001244,None,1,,399.01516720000654,None,1,m,1,r,MS,2021_Apr_15_2002,WASABI Nback,2020.2.10,59.82900869359901,
0,1,7,"[-0.2, -0.2]",None,0,1,1,1,,,,,0,0,0,0,0,22,22,22,,,,,,,,,,,401.01646809998783,None,401.01646809998783,402.0158785000094,401.9829490999982,403.01329060000717,None,1,,401.01646809998783,None,1,m,1,r,MS,2021_Apr_15_2002,WASABI Nback,2020.2.10,59.82900869359901,
0,1,4,"[-0.2, 0]",space,0,1,1,1,,,,,0,0,0,0,0,23,23,23,,,,,,,,,,,403.04183619999094,None,403.04183619999094,404.0707868000027,404.024900599994,None,None,0,,403.04183619999094,None,1,m,1,r,MS,2021_Apr_15_2002,WASABI Nback,2020.2.10,59.82900869359901,
0,1,4,"[-0.2, 0]",None,0,1,1,1,,,,,0,0,0,0,0,24,24,24,,,,,,,,,,,405.02049880000413,None,405.02049880000413,406.0192694000143,405.9865703000105,406.98883970000315,None,1,,405.02049880000413,None,1,m,1,r,MS,2021_Apr_15_2002,WASABI Nback,2020.2.10,59.82900869359901,
0,1,5,"[0, 0]",None,0,1,1,1,,,,,0,0,0,0,0,25,25,25,,,,,,,,,,,407.0072919999948,None,407.0072919999948,408.0211961999885,407.9881882999907,408.98955900000874,None,1,,407.0072919999948,None,1,m,1,r,MS,2021_Apr_15_2002,WASABI Nback,2020.2.10,59.82900869359901,
0,1,2,"[0, 0.2]",None,0,1,1,1,,,,,0,0,0,0,0,26,26,26,,,,,,,,,,,409.0092701000103,None,409.0092701000103,410.0234417000029,409.9905334000068,410.9915078000049,None,1,,409.0092701000103,None,1,m,1,r,MS,2021_Apr_15_2002,WASABI Nback,2020.2.10,59.82900869359901,
0,1,6,"[0.2, 0]",None,0,1,1,1,,,,,0,0,0,0,0,27,27,27,,,,,,,,,,,411.0100625999912,None,411.0100625999912,412.00954820000334,411.9753478000057,412.99704990000464,None,1,,411.0100625999912,None,1,m,1,r,MS,2021_Apr_15_2002,WASABI Nback,2020.2.10,59.82900869359901,
0,1,7,"[-0.2, -0.2]",None,0,1,1,1,,,,,0,0,0,0,0,28,28,28,,,,,,,,,,,413.015209300007,None,413.015209300007,414.09521090000635,414.0819197999954,None,None,1,,413.015209300007,None,1,m,1,r,MS,2021_Apr_15_2002,WASABI Nback,2020.2.10,59.82900869359901,
0,1,6,"[0.2, 0]",space,0,1,1,1,,,,,0,0,0,0,0,29,29,29,,,,,,,,,,,415.0140388,None,415.0140388,416.01461690000724,415.9970208000159,None,None,0,,415.0140388,None,1,m,1,r,MS,2021_Apr_15_2002,WASABI Nback,2020.2.10,59.82900869359901,
0,1,6,"[0.2, 0]",None,0,1,1,1,,,,,0,0,0,0,0,30,30,30,,,,,,,,,,,417.0491282000148,None,417.0491282000148,418.0503018000163,418.03167910000775,None,None,1,,417.0491282000148,None,1,m,1,r,MS,2021_Apr_15_2002,WASABI Nback,2020.2.10,59.82900869359901,
0,1,7,"[-0.2, -0.2]",None,0,1,1,1,,,,,0,0,0,0,0,31,31,31,,,,,,,,,,,419.0878739999898,None,419.0878739999898,420.102638100012,420.018859600008,None,None,1,,419.0878739999898,None,1,m,1,r,MS,2021_Apr_15_2002,WASABI Nback,2020.2.10,59.82900869359901,
0,1,6,"[0.2, 0]",space,0,1,1,1,,,,,0,0,0,0,0,32,32,32,,,,,,,,,,,421.10259960000985,None,421.10259960000985,422.1031590999919,422.088462100015,None,None,0,,421.10259960000985,None,1,m,1,r,MS,2021_Apr_15_2002,WASABI Nback,2020.2.10,59.82900869359901,
0,1,2,"[0, 0.2]",None,0,1,1,1,,,,,0,0,0,0,0,33,33,33,,,,,,,,,,,423.07909330000984,None,423.07909330000984,424.09020639999653,424.0222597999964,None,None,1,,423.07909330000984,None,1,m,1,r,MS,2021_Apr_15_2002,WASABI Nback,2020.2.10,59.82900869359901,
0,1,5,"[0, 0]",None,0,1,1,1,,,,,0,0,0,0,0,34,34,34,,,,,,,,,,,425.1385583000083,None,425.1385583000083,426.1392698000127,426.1392698000127,None,None,1,,425.1385583000083,None,1,m,1,r,MS,2021_Apr_15_2002,WASABI Nback,2020.2.10,59.82900869359901,
0,1,4,"[-0.2, 0]",None,0,1,1,1,,,,,0,0,0,0,0,35,35,35,,,,,,,,,,,427.0106776999892,None,427.0106776999892,428.05860350001603,428.01134729999467,None,None,1,,427.0106776999892,None,1,m,1,r,MS,2021_Apr_15_2002,WASABI Nback,2020.2.10,59.82900869359901,
0,1,4,"[-0.2, 0]",None,0,1,1,1,,,,,0,0,0,0,0,36,36,36,,,,,,,,,,,429.0122946999909,None,429.0122946999909,430.02835700000287,429.9943665000028,430.9967952000152,None,1,,429.0122946999909,None,1,m,1,r,MS,2021_Apr_15_2002,WASABI Nback,2020.2.10,59.82900869359901,
0,1,7,"[-0.2, -0.2]",None,0,1,1,1,,,,,0,0,0,0,0,37,37,37,,,,,,,,,,,431.01459169999,None,431.01459169999,432.0291135000007,432.000420700002,None,None,1,,431.01459169999,None,1,m,1,r,MS,2021_Apr_15_2002,WASABI Nback,2020.2.10,59.82900869359901,
0,1,4,"[-0.2, 0]",space,0,1,1,1,,,,,0,0,0,0,0,38,38,38,,,,,,,,,,,433.01477519999025,None,433.01477519999025,434.0164242000028,433.9982183999964,434.99956699999166,None,0,,433.01477519999025,None,1,m,1,r,MS,2021_Apr_15_2002,WASABI Nback,2020.2.10,59.82900869359901,
0,1,3,"[0.2, 0.2]",None,0,1,1,1,,,,,0,0,0,0,0,39,39,39,,,,,,,,,,,435.0170971000043,None,435.0170971000043,436.0179991000041,436.00038099999074,437.00068709999323,None,1,,435.0170971000043,None,1,m,1,r,MS,2021_Apr_15_2002,WASABI Nback,2020.2.10,59.82900869359901,
0,1,5,"[0, 0]",None,0,1,1,1,,,,,0,0,0,0,0,40,40,40,,,,,,,,,,,437.01929799999925,None,437.01929799999925,438.0199341000116,437.98457410000265,438.9862156000163,None,1,,437.01929799999925,None,1,m,1,r,MS,2021_Apr_15_2002,WASABI Nback,2020.2.10,59.82900869359901,
0,1,3,"[0.2, 0.2]",space,0,1,1,1,,,,,0,0,0,0,0,41,41,41,,,,,,,,,,,439.00356410001405,None,439.00356410001405,440.0056320000149,440.0056320000149,None,None,0,,439.00356410001405,None,1,m,1,r,MS,2021_Apr_15_2002,WASABI Nback,2020.2.10,59.82900869359901,
0,1,1,"[-0.2, 0.2]",None,0,1,1,1,,,,,0,0,0,0,0,42,42,42,,,,,,,,,,,441.0048994999961,None,441.0048994999961,442.00879580000765,441.98946169999545,442.9907394000038,None,1,,441.0048994999961,None,1,m,1,r,MS,2021_Apr_15_2002,WASABI Nback,2020.2.10,59.82900869359901,
0,1,9,"[0.2, -0.2]",None,0,1,1,1,,,,,0,0,0,0,0,43,43,43,,,,,,,,,,,443.0087969999877,None,443.0087969999877,444.01000280000153,443.99182900000596,444.9929988000076,None,1,,443.0087969999877,None,1,m,1,r,MS,2021_Apr_15_2002,WASABI Nback,2020.2.10,59.82900869359901,
0,1,9,"[0.2, -0.2]",None,0,1,1,1,,,,,0,0,0,0,0,44,44,44,,,,,,,,,,,445.01071989999036,None,445.01071989999036,446.01166759998887,445.99309840000933,446.99383600000874,None,1,,445.01071989999036,None,1,m,1,r,MS,2021_Apr_15_2002,WASABI Nback,2020.2.10,59.82900869359901,
0,1,8,"[0, -0.2]",None,0,1,1,1,,,,,0,0,0,0,0,45,45,45,,,,,,,,,,,447.0133417999896,None,447.0133417999896,448.04685179999797,447.99539009999717,448.99703490000684,None,1,,447.0133417999896,None,1,m,1,r,MS,2021_Apr_15_2002,WASABI Nback,2020.2.10,59.82900869359901,
0,1,6,"[0.2, 0]",None,0,1,1,1,,,,,0,0,0,0,0,46,46,46,,,,,,,,,,,449.01439019999816,None,449.01439019999816,450.0158234999981,449.99780589999864,450.9991294000065,None,1,,449.01439019999816,None,1,m,1,r,MS,2021_Apr_15_2002,WASABI Nback,2020.2.10,59.82900869359901,
0,1,3,"[0.2, 0.2]",None,0,1,1,1,,,,,0,0,0,0,0,47,47,47,,,,,,,,,,,451.0172770000063,None,451.0172770000063,452.0152847999998,452.0012677999912,453.0114859000023,None,1,,451.0172770000063,None,1,m,1,r,MS,2021_Apr_15_2002,WASABI Nback,2020.2.10,59.82900869359901,
0,1,6,"[0.2, 0]",space,0,1,1,1,,,,,0,0,0,0,0,48,48,48,,,,,,,,,,,453.033331899991,None,453.033331899991,454.0345806000114,454.0040103000065,None,None,0,,453.033331899991,None,1,m,1,r,MS,2021_Apr_15_2002,WASABI Nback,2020.2.10,59.82900869359901,
0,1,5,"[0, 0]",None,0,1,1,1,,,,,0,0,0,0,0,49,49,49,,,,,,,,,,,455.0185039000062,None,455.0185039000062,456.01933219999773,456.0048653999984,None,None,1,,455.0185039000062,None,1,m,1,r,MS,2021_Apr_15_2002,WASABI Nback,2020.2.10,59.82900869359901,
0,1,7,"[-0.2, -0.2]",None,0,1,1,1,,,,,0,0,0,0,0,50,50,50,,,,,,,,,,,457.00677390000783,None,457.00677390000783,458.0209384000045,457.98869920001016,None,None,1,,457.00677390000783,None,1,m,1,r,MS,2021_Apr_15_2002,WASABI Nback,2020.2.10,59.82900869359901,
0,1,5,"[0, 0]",space,0,1,1,1,,,,,0,0,0,0,0,51,51,51,,,,,,,,,,,459.0192034000065,None,459.0192034000065,460.0231189999904,460.0089694999915,None,None,0,,459.0192034000065,None,1,m,1,r,MS,2021_Apr_15_2002,WASABI Nback,2020.2.10,59.82900869359901,
0,1,1,"[-0.2, 0.2]",None,0,1,1,1,,,,,0,0,0,0,0,52,52,52,,,,,,,,,,,461.01002839999273,None,461.01002839999273,462.01054610000574,461.99296070000855,462.99408929998754,None,1,,461.01002839999273,None,1,m,1,r,MS,2021_Apr_15_2002,WASABI Nback,2020.2.10,59.82900869359901,
0,1,7,"[-0.2, -0.2]",None,0,1,1,1,,,,,0,0,0,0,0,53,53,53,,,,,,,,,,,463.01147639998817,None,463.01147639998817,464.01231859999825,463.99450040000374,None,None,1,,463.01147639998817,None,1,m,1,r,MS,2021_Apr_15_2002,WASABI Nback,2020.2.10,59.82900869359901,
0,1,9,"[0.2, -0.2]",None,0,1,1,1,,,,,0,0,0,0,0,54,54,54,,,,,,,,,,,465.01346350001404,None,465.01346350001404,466.0147188999981,465.9793490000011,466.9806615000125,None,1,,465.01346350001404,None,1,m,1,r,MS,2021_Apr_15_2002,WASABI Nback,2020.2.10,59.82900869359901,
0,1,3,"[0.2, 0.2]",None,0,1,1,1,,,,,0,0,0,0,0,55,55,55,,,,,,,,,,,467.01651849999325,None,467.01651849999325,468.03241980000166,467.99854709999636,468.999272999994,None,1,,467.01651849999325,None,1,m,1,r,MS,2021_Apr_15_2002,WASABI Nback,2020.2.10,59.82900869359901,
0,1,9,"[0.2, -0.2]",space,0,1,1,1,,,,,0,0,0,0,0,56,56,56,,,,,,,,,,,469.018489900016,None,469.018489900016,470.0186065000016,469.98387970001204,470.9842179999978,None,0,,469.018489900016,None,1,m,1,r,MS,2021_Apr_15_2002,WASABI Nback,2020.2.10,59.82900869359901,
0,1,6,"[0.2, 0]",None,0,1,1,1,,,,,0,0,0,0,0,57,57,57,,,,,,,,,,,471.0198536000098,None,471.0198536000098,472.0368110999989,472.016214400006,None,None,1,,471.0198536000098,None,1,m,1,r,MS,2021_Apr_15_2002,WASABI Nback,2020.2.10,59.82900869359901,
0,1,2,"[0, 0.2]",None,0,1,1,1,,,,,0,0,0,0,0,58,58,58,,,,,,,,,,,473.0050870999985,None,473.0050870999985,474.007313900016,473.98837120001554,474.9898589999939,None,1,,473.0050870999985,None,1,m,1,r,MS,2021_Apr_15_2002,WASABI Nback,2020.2.10,59.82900869359901,
0,1,5,"[0, 0]",None,0,1,1,1,,,,,0,0,0,0,0,59,59,59,,,,,,,,,,,475.00709910001024,None,475.00709910001024,476.00860540001304,475.9898677000019,476.9920742000104,None,1,,475.00709910001024,None,1,m,1,r,MS,2021_Apr_15_2002,WASABI Nback,2020.2.10,59.82900869359901,
0,1,5,"[0, 0]",None,0,1,1,1,,,,,0,0,0,0,0,60,60,60,,,,,,,,,,,477.01047229999676,None,477.01047229999676,478.01123350000125,477.99271180000505,478.99343550001504,None,1,,477.01047229999676,None,1,m,1,r,MS,2021_Apr_15_2002,WASABI Nback,2020.2.10,59.82900869359901,
0,1,2,"[0, 0.2]",None,0,1,1,1,,,,,0,0,0,0,0,61,61,61,,,,,,,,,,,479.0125049999915,None,479.0125049999915,480.02649630000815,479.9942133000004,480.99571069999365,None,1,,479.0125049999915,None,1,m,1,r,MS,2021_Apr_15_2002,WASABI Nback,2020.2.10,59.82900869359901,
0,1,6,"[0.2, 0]",None,0,1,1,1,,,,,0,0,0,0,0,62,62,62,,,,,,,,,,,481.014548200008,None,481.014548200008,482.0298391999968,481.9956489999895,None,None,1,,481.014548200008,None,1,m,1,r,MS,2021_Apr_15_2002,WASABI Nback,2020.2.10,59.82900869359901,
0,1,9,"[0.2, -0.2]",None,0,1,1,1,,,,,0,0,0,0,0,63,63,63,,,,,,,,,,,483.0149093999935,None,483.0149093999935,484.03539599999203,484.00367020000704,None,None,1,,483.0149093999935,None,1,m,1,r,MS,2021_Apr_15_2002,WASABI Nback,2020.2.10,59.82900869359901,
0,1,3,"[0.2, 0.2]",None,0,1,1,1,,,,,0,0,0,0,0,64,64,64,,,,,,,,,,,485.02392350000446,None,485.02392350000446,486.03375589998905,485.99966790000326,487.00115840000217,None,1,,485.02392350000446,None,1,m,1,r,MS,2021_Apr_15_2002,WASABI Nback,2020.2.10,59.82900869359901,
0,1,9,"[0.2, -0.2]",space,0,1,1,1,,,,,0,0,0,0,0,65,65,65,,,,,,,,,,,487.01938489999156,None,487.01938489999156,488.0197140999953,488.0017058000085,None,None,0,,487.01938489999156,None,1,m,1,r,MS,2021_Apr_15_2002,WASABI Nback,2020.2.10,59.82900869359901,
0,1,7,"[-0.2, -0.2]",None,0,1,1,1,,,,,0,0,0,0,0,66,66,66,,,,,,,,,,,489.0035457999911,None,489.0035457999911,490.00394699999015,489.98685169999953,490.98831809998956,None,1,,489.0035457999911,None,1,m,1,r,MS,2021_Apr_15_2002,WASABI Nback,2020.2.10,59.82900869359901,
0,1,1,"[-0.2, 0.2]",None,0,1,1,1,,,,,0,0,0,0,0,67,67,67,,,,,,,,,,,491.0061726999993,None,491.0061726999993,492.0225814000005,492.00754640001105,None,None,1,,491.0061726999993,None,1,m,1,r,MS,2021_Apr_15_2002,WASABI Nback,2020.2.10,59.82900869359901,
0,1,5,"[0, 0]",None,0,1,1,1,,,,,0,0,0,0,0,68,68,68,,,,,,,,,,,493.00898909999523,None,493.00898909999523,494.02444589999504,494.00977870001225,None,None,1,,493.00898909999523,None,1,m,1,r,MS,2021_Apr_15_2002,WASABI Nback,2020.2.10,59.82900869359901,
0,1,7,"[-0.2, -0.2]",None,0,1,1,1,,,,,0,0,0,0,0,69,69,69,,,,,,,,,,,495.01032490000944,None,495.01032490000944,496.0466235000058,496.01336390001234,None,None,1,,495.01032490000944,None,1,m,1,r,MS,2021_Apr_15_2002,WASABI Nback,2020.2.10,59.82900869359901,
0,1,5,"[0, 0]",space,0,1,1,1,,,,,0,0,0,0,0,70,70,70,,,,,,,,,,,497.0598118999915,None,497.0598118999915,498.0644573000027,498.0644573000027,None,None,0,,497.0598118999915,None,1,m,1,r,MS,2021_Apr_15_2002,WASABI Nback,2020.2.10,59.82900869359901,
0,1,6,"[0.2, 0]",None,0,1,1,1,,,,,0,0,0,0,0,71,71,71,,,,,,,,,,,499.01394470001105,None,499.01394470001105,500.0715218000114,500.0715218000114,None,None,1,,499.01394470001105,None,1,m,1,r,MS,2021_Apr_15_2002,WASABI Nback,2020.2.10,59.82900869359901,
0,1,3,"[0.2, 0.2]",None,0,1,1,1,,,,,0,0,0,0,0,72,72,72,,,,,,,,,,,501.0328639000072,None,501.0328639000072,502.1337136999937,502.10708700001123,None,None,1,,501.0328639000072,None,1,m,1,r,MS,2021_Apr_15_2002,WASABI Nback,2020.2.10,59.82900869359901,
0,1,6,"[0.2, 0]",space,0,1,1,1,,,,,0,0,0,0,0,73,73,73,,,,,,,,,,,503.01600910001434,None,503.01600910001434,504.05177359998925,504.0037885000056,None,None,0,,503.01600910001434,None,1,m,1,r,MS,2021_Apr_15_2002,WASABI Nback,2020.2.10,59.82900869359901,
0,1,8,"[0, -0.2]",None,0,1,1,1,,,,,0,0,0,0,0,74,74,74,,,,,,,,,,,505.07362219999777,None,505.07362219999777,506.12684099999024,506.00581969998893,None,None,1,,505.07362219999777,None,1,m,1,r,MS,2021_Apr_15_2002,WASABI Nback,2020.2.10,59.82900869359901,
0,1,9,"[0.2, -0.2]",None,0,1,1,1,,,,,0,0,0,0,0,75,75,75,,,,,,,,,,,507.0068096999894,None,507.0068096999894,508.0384956999915,507.9884774000093,508.98991699999897,None,1,,507.0068096999894,None,1,m,1,r,MS,2021_Apr_15_2002,WASABI Nback,2020.2.10,59.82900869359901,
0,1,9,"[0.2, -0.2]",None,0,1,1,1,,,,,0,0,0,0,0,76,76,76,,,,,,,,,,,509.0087719000003,None,509.0087719000003,510.0230278999952,509.9902827999904,510.99178839998785,None,1,,509.0087719000003,None,1,m,1,r,MS,2021_Apr_15_2002,WASABI Nback,2020.2.10,59.82900869359901,
0,1,1,"[-0.2, 0.2]",None,0,1,1,1,,,,,0,0,0,0,0,77,77,77,,,,,,,,,,,511.01009279998834,None,511.01009279998834,512.0113152000122,511.9941755000036,None,None,1,,511.01009279998834,None,1,m,1,r,MS,2021_Apr_15_2002,WASABI Nback,2020.2.10,59.82900869359901,
0,1,3,"[0.2, 0.2]",None,0,1,1,1,,,,,0,0,0,0,0,78,78,78,,,,,,,,,,,513.0116210000124,None,513.0116210000124,514.0124962000118,513.976934300008,514.9782876000099,None,1,,513.0116210000124,None,1,m,1,r,MS,2021_Apr_15_2002,WASABI Nback,2020.2.10,59.82900869359901,
0,1,5,"[0, 0]",None,0,1,1,1,,,,,0,0,0,0,0,79,79,79,,,,,,,,,,,515.0130624000158,None,515.0130624000158,516.0146535999957,515.9794655000151,516.9800581000163,None,1,,515.0130624000158,None,1,m,1,r,MS,2021_Apr_15_2002,WASABI Nback,2020.2.10,59.82900869359901,
0,1,3,"[0.2, 0.2]",space,0,1,1,1,,,,,0,0,0,0,0,80,80,80,,,,,,,,,,,517.0151223000139,None,517.0151223000139,518.0164525000146,517.9988483999914,518.999527500011,None,0,,517.0151223000139,None,1,m,1,r,MS,2021_Apr_15_2002,WASABI Nback,2020.2.10,59.82900869359901,
0,1,4,"[-0.2, 0]",None,0,1,1,1,,,,,0,0,0,0,0,81,81,81,,,,,,,,,,,519.017649699992,None,519.017649699992,520.0186002000119,520.0006282000104,521.0019552999875,None,1,,519.017649699992,None,1,m,1,r,MS,2021_Apr_15_2002,WASABI Nback,2020.2.10,59.82900869359901,
0,1,7,"[-0.2, -0.2]",None,0,1,1,1,,,,,0,0,0,0,0,82,82,82,,,,,,,,,,,521.0191183999996,None,521.0191183999996,522.0184213999892,522.0039615000132,None,None,1,,521.0191183999996,None,1,m,1,r,MS,2021_Apr_15_2002,WASABI Nback,2020.2.10,59.82900869359901,
0,1,4,"[-0.2, 0]",space,0,1,1,1,,,,,0,0,0,0,0,83,83,83,,,,,,,,,,,523.0051070000045,None,523.0051070000045,524.0206804999907,523.9872856000147,524.9887587999983,None,0,,523.0051070000045,None,1,m,1,r,MS,2021_Apr_15_2002,WASABI Nback,2020.2.10,59.82900869359901,
0,1,4,"[-0.2, 0]",None,0,1,1,1,,,,,0,0,0,0,0,84,84,84,,,,,,,,,,,525.0072800999915,None,525.0072800999915,526.0233768000035,525.989330100012,526.9908064999909,None,1,,525.0072800999915,None,1,m,1,r,MS,2021_Apr_15_2002,WASABI Nback,2020.2.10,59.82900869359901,
0,1,5,"[0, 0]",None,0,1,1,1,,,,,0,0,0,0,0,85,85,85,,,,,,,,,,,527.01007389999,None,527.01007389999,528.0260837000096,528.0116661000066,None,None,1,,527.01007389999,None,1,m,1,r,MS,2021_Apr_15_2002,WASABI Nback,2020.2.10,59.82900869359901,
0,1,2,"[0, 0.2]",None,0,1,1,1,,,,,0,0,0,0,0,86,86,86,,,,,,,,,,,529.021267300006,None,529.021267300006,530.0266349000158,529.9941489000048,530.9944676000159,None,1,,529.021267300006,None,1,m,1,r,MS,2021_Apr_15_2002,WASABI Nback,2020.2.10,59.82900869359901,
0,1,6,"[0.2, 0]",None,0,1,1,1,,,,,0,0,0,0,0,87,87,87,,,,,,,,,,,531.0131919000123,None,531.0131919000123,532.0135225999984,531.9782065000036,532.9796293000109,None,1,,531.0131919000123,None,1,m,1,r,MS,2021_Apr_15_2002,WASABI Nback,2020.2.10,59.82900869359901,
0,1,7,"[-0.2, -0.2]",None,0,1,1,1,,,,,0,0,0,0,0,88,88,88,,,,,,,,,,,533.0142612000054,None,533.0142612000054,534.0175964999944,533.9980111999903,534.9990239999897,None,1,,533.0142612000054,None,1,m,1,r,MS,2021_Apr_15_2002,WASABI Nback,2020.2.10,59.82900869359901,
0,1,6,"[0.2, 0]",space,0,1,1,1,,,,,0,0,0,0,0,89,89,89,,,,,,,,,,,535.0167038000072,None,535.0167038000072,536.0176929000008,535.9827329000109,536.9828857000102,None,0,,535.0167038000072,None,1,m,1,r,MS,2021_Apr_15_2002,WASABI Nback,2020.2.10,59.82900869359901,
0,1,6,"[0.2, 0]",None,0,1,1,1,,,,,0,0,0,0,0,90,90,90,,,,,,,,,,,537.0181158999912,None,537.0181158999912,538.0200417999877,538.0018256999901,None,None,1,,537.0181158999912,None,1,m,1,r,MS,2021_Apr_15_2002,WASABI Nback,2020.2.10,59.82900869359901,
0,1,7,"[-0.2, -0.2]",None,0,1,1,1,,,,,0,0,0,0,0,91,91,91,,,,,,,,,,,539.0043583000079,None,539.0043583000079,540.0208788000164,540.0066447000136,None,None,1,,539.0043583000079,None,1,m,1,r,MS,2021_Apr_15_2002,WASABI Nback,2020.2.10,59.82900869359901,
0,1,6,"[0.2, 0]",space,0,1,1,1,,,,,0,0,0,0,0,92,92,92,,,,,,,,,,,541.0031508000102,None,541.0031508000102,542.0058242999949,541.9889713000157,542.9901304999948,None,0,,541.0031508000102,None,1,m,1,r,MS,2021_Apr_15_2002,WASABI Nback,2020.2.10,59.82900869359901,
0,1,2,"[0, 0.2]",None,0,1,1,1,,,,,0,0,0,0,0,93,93,93,,,,,,,,,,,543.0084704000037,None,543.0084704000037,544.0099768000073,543.9915084000095,544.9923676000035,None,1,,543.0084704000037,None,1,m,1,r,MS,2021_Apr_15_2002,WASABI Nback,2020.2.10,59.82900869359901,
0,1,5,"[0, 0]",None,0,1,1,1,,,,,0,0,0,0,0,94,94,94,,,,,,,,,,,545.0101894999971,None,545.0101894999971,546.1090098000132,546.1090098000132,None,None,1,,545.0101894999971,None,1,m,1,r,MS,2021_Apr_15_2002,WASABI Nback,2020.2.10,59.82900869359901,
0,1,4,"[-0.2, 0]",None,0,1,1,1,,,,,0,0,0,0,0,95,95,95,,,,,,,,,,,547.0130114000058,None,547.0130114000058,548.0133968000009,547.9955275999964,548.9958649000037,None,1,,547.0130114000058,None,1,m,1,r,MS,2021_Apr_15_2002,WASABI Nback,2020.2.10,59.82900869359901,
0,1,4,"[-0.2, 0]",None,0,1,1,1,,,,,0,0,0,0,0,96,96,96,,,,,,,,,,,549.0145328000071,None,549.0145328000071,550.0305239000008,549.9965993000078,550.9982175999903,None,1,,549.0145328000071,None,1,m,1,r,MS,2021_Apr_15_2002,WASABI Nback,2020.2.10,59.82900869359901,
0,1,7,"[-0.2, -0.2]",None,0,1,1,1,,,,,0,0,0,0,0,97,97,97,,,,,,,,,,,551.0166145999974,None,551.0166145999974,552.015160400013,552.0010108000133,552.9998043999949,None,1,,551.0166145999974,None,1,m,1,r,MS,2021_Apr_15_2002,WASABI Nback,2020.2.10,59.82900869359901,
0,1,4,"[-0.2, 0]",space,0,1,1,1,,,,,0,0,0,0,0,98,98,98,,,,,,,,,,,553.0171981999883,None,553.0171981999883,554.0172782000154,554.0031952999998,None,None,0,,553.0171981999883,None,1,m,1,r,MS,2021_Apr_15_2002,WASABI Nback,2020.2.10,59.82900869359901,
0,1,3,"[0.2, 0.2]",None,0,1,1,1,,,,,0,0,0,0,0,99,99,99,,,,,,,,,,,555.01826479999,None,555.01826479999,556.0363689000078,556.0185880000063,None,None,1,,555.01826479999,None,1,m,1,r,MS,2021_Apr_15_2002,WASABI Nback,2020.2.10,59.82900869359901,
0,1,5,"[0, 0]",None,0,1,1,1,,,,,0,0,0,0,0,100,100,100,,,,,,,,,,,557.0383399999992,None,557.0383399999992,558.0407274999889,558.0072603000153,None,None,1,,557.0383399999992,None,1,m,1,r,MS,2021_Apr_15_2002,WASABI Nback,2020.2.10,59.82900869359901,
0,1,3,"[0.2, 0.2]",space,0,1,1,1,,,,,0,0,0,0,0,101,101,101,,,,,,,,,,,559.0080321000132,None,559.0080321000132,560.0093054999888,559.9907818000065,560.9913706000079,None,0,,559.0080321000132,None,1,m,1,r,MS,2021_Apr_15_2002,WASABI Nback,2020.2.10,59.82900869359901,
0,1,1,"[-0.2, 0.2]",None,0,1,1,1,,,,,0,0,0,0,0,102,102,102,,,,,,,,,,,561.0097678999882,None,561.0097678999882,562.0097840999952,561.992900799989,562.9939273000055,None,1,,561.0097678999882,None,1,m,1,r,MS,2021_Apr_15_2002,WASABI Nback,2020.2.10,59.82900869359901,
0,1,9,"[0.2, -0.2]",None,0,1,1,1,,,,,0,0,0,0,0,103,103,103,,,,,,,,,,,563.011082699988,None,563.011082699988,564.0118450000009,563.9942893999978,564.9969491999946,None,1,,563.011082699988,None,1,m,1,r,MS,2021_Apr_15_2002,WASABI Nback,2020.2.10,59.82900869359901,
0,1,9,"[0.2, -0.2]",None,0,1,1,1,,,,,0,0,0,0,0,104,104,104,,,,,,,,,,,565.0138702999975,None,565.0138702999975,566.0145813999989,565.9973308999906,566.9972485000035,None,1,,565.0138702999975,None,1,m,1,r,MS,2021_Apr_15_2002,WASABI Nback,2020.2.10,59.82900869359901,
0,1,8,"[0, -0.2]",None,0,1,1,1,,,,,0,0,0,0,0,105,105,105,,,,,,,,,,,567.0154326999909,None,567.0154326999909,568.0167496000067,567.9812060999975,568.9825117000146,None,1,,567.0154326999909,None,1,m,1,r,MS,2021_Apr_15_2002,WASABI Nback,2020.2.10,59.82900869359901,
0,1,6,"[0.2, 0]",None,0,1,1,1,,,,,0,0,0,0,0,106,106,106,,,,,,,,,,,569.0174713000015,None,569.0174713000015,570.0188450000132,570.0005478000094,None,None,1,,569.0174713000015,None,1,m,1,r,MS,2021_Apr_15_2002,WASABI Nback,2020.2.10,59.82900869359901,
0,1,3,"[0.2, 0.2]",None,0,1,1,1,,,,,0,0,0,0,0,107,107,107,,,,,,,,,,,571.0021546999924,None,571.0021546999924,572.0191649000044,572.0044721000013,None,None,1,,571.0021546999924,None,1,m,1,r,MS,2021_Apr_15_2002,WASABI Nback,2020.2.10,59.82900869359901,
0,1,6,"[0.2, 0]",space,0,1,1,1,,,,,0,0,0,0,0,108,108,108,,,,,,,,,,,573.0056781999883,None,573.0056781999883,574.0198818999925,574.0057682000042,None,None,0,,573.0056781999883,None,1,m,1,r,MS,2021_Apr_15_2002,WASABI Nback,2020.2.10,59.82900869359901,
0,1,5,"[0, 0]",None,0,1,1,1,,,,,0,0,0,0,0,109,109,109,,,,,,,,,,,575.0220683999942,None,575.0220683999942,576.0243324000039,575.9906934000028,None,None,1,,575.0220683999942,None,1,m,1,r,MS,2021_Apr_15_2002,WASABI Nback,2020.2.10,59.82900869359901,
0,1,7,"[-0.2, -0.2]",None,0,1,1,1,,,,,0,0,0,0,0,110,110,110,,,,,,,,,,,577.0089567000105,None,577.0089567000105,578.0416942000156,578.0416942000156,None,None,1,,577.0089567000105,None,1,m,1,r,MS,2021_Apr_15_2002,WASABI Nback,2020.2.10,59.82900869359901,
0,1,5,"[0, 0]",space,0,1,1,1,,,,,0,0,0,0,0,111,111,111,,,,,,,,,,,579.0127967000008,None,579.0127967000008,580.027348100004,579.994160000002,580.9951893000107,None,0,,579.0127967000008,None,1,m,1,r,MS,2021_Apr_15_2002,WASABI Nback,2020.2.10,59.82900869359901,
0,1,1,"[-0.2, 0.2]",None,0,1,1,1,,,,,0,0,0,0,0,112,112,112,,,,,,,,,,,581.0146643999906,None,581.0146643999906,582.0481382000144,581.9967578999931,583.0045449000027,None,1,,581.0146643999906,None,1,m,1,r,MS,2021_Apr_15_2002,WASABI Nback,2020.2.10,59.82900869359901,
0,1,7,"[-0.2, -0.2]",None,0,1,1,1,,,,,0,0,0,0,0,113,113,113,,,,,,,,,,,583.0312753999897,None,583.0312753999897,584.0347704000014,584.0152095000085,None,None,1,,583.0312753999897,None,1,m,1,r,MS,2021_Apr_15_2002,WASABI Nback,2020.2.10,59.82900869359901,
0,1,9,"[0.2, -0.2]",None,0,1,1,1,,,,,0,0,0,0,0,114,114,114,,,,,,,,,,,585.0162443000008,None,585.0162443000008,586.0176149999897,585.9819641000067,None,None,1,,585.0162443000008,None,1,m,1,r,MS,2021_Apr_15_2002,WASABI Nback,2020.2.10,59.82900869359901,
0,1,3,"[0.2, 0.2]",None,0,1,1,1,,,,,0,0,0,0,0,115,115,115,,,,,,,,,,,587.1023432000075,None,587.1023432000075,588.1011316000076,587.9841857000138,589.0024473000085,None,1,,587.1023432000075,None,1,m,1,r,MS,2021_Apr_15_2002,WASABI Nback,2020.2.10,59.82900869359901,
0,1,9,"[0.2, -0.2]",space,0,1,1,1,,,,,0,0,0,0,0,116,116,116,,,,,,,,,,,589.0206071000139,None,589.0206071000139,590.0213693999976,590.0039717000036,None,None,0,,589.0206071000139,None,1,m,1,r,MS,2021_Apr_15_2002,WASABI Nback,2020.2.10,59.82900869359901,
0,1,6,"[0.2, 0]",None,0,1,1,1,,,,,0,0,0,0,0,117,117,117,,,,,,,,,,,591.0045675000001,None,591.0045675000001,592.007322999998,591.9892689000117,592.9905631000001,None,1,,591.0045675000001,None,1,m,1,r,MS,2021_Apr_15_2002,WASABI Nback,2020.2.10,59.82900869359901,
0,1,2,"[0, 0.2]",None,0,1,1,1,,,,,0,0,0,0,0,118,118,118,,,,,,,,,,,593.0087342000043,None,593.0087342000043,594.0560190000106,594.0560190000106,None,None,1,,593.0087342000043,None,1,m,1,r,MS,2021_Apr_15_2002,WASABI Nback,2020.2.10,59.82900869359901,
0,1,5,"[0, 0]",None,0,1,1,1,,,,,0,0,0,0,0,119,119,119,,,,,,,,,,,595.0583166000142,None,595.0583166000142,596.0760127000103,596.0588062999886,None,None,1,,595.0583166000142,None,1,m,1,r,MS,2021_Apr_15_2002,WASABI Nback,2020.2.10,59.82900869359901,
