RestT1,TaskT1,square,location,corrAns,counterbalancer.thisRepN,counterbalancer.thisTrialN,counterbalancer.thisN,counterbalancer.thisIndex,RestT1Loop.thisRepN,RestT1Loop.thisTrialN,RestT1Loop.thisN,RestT1Loop.thisIndex,TaskT1Loop.thisRepN,TaskT1Loop.thisTrialN,TaskT1Loop.thisN,TaskT1Loop.thisIndex,trials_2.thisRepN,trials_2.thisTrialN,trials_2.thisN,trials_2.thisIndex,fixation_1.started,fixation_1.stopped,NbackInstructions.started,NbackInstructions.stopped,NbackStart.keys,NbackStart.rt,NbackStart.started,NbackStart.stopped,fixation_2.started,fixation_2.stopped,grid_lines_2.started,grid_lines_2.stopped,target_square_2.started,target_square_2.stopped,fixation_3.started,fixation_3.stopped,response_2.keys,response_2.corr,response_2.started,response_2.stopped,subject number,gender,session,handedness,scanner,date,expName,psychopyVersion,frameRate,
1,0,,,,0,0,0,0,0,0,0,0,,,,,,,,,80.94296509999549,None,,,,,,,,,,,,,,,,,,,1,m,1,r,MS,2021_Apr_15_2016,WASABI Nback,2020.2.10,None,
0,1,,,,0,1,1,1,,,,,0,0,0,0,,,,,,,304.1988141000038,None,space,119.42783099997905,304.1988141000038,None,,,,,,,,,,,,,1,m,1,r,MS,2021_Apr_15_2016,WASABI Nback,2020.2.10,None,
0,1,5,"[0, 0]",None,0,1,1,1,,,,,0,0,0,0,0,0,0,0,,,,,,,,,423.6531136999838,None,424.82638990000123,None,424.82638990000123,425.8366990000068,425.78663369998685,None,None,1,424.82638990000123,None,1,m,1,r,MS,2021_Apr_15_2016,WASABI Nback,2020.2.10,None,
0,1,2,"[0, 0.2]",None,0,1,1,1,,,,,0,0,0,0,0,1,1,1,,,,,,,,,,,426.67119520000415,None,426.67119520000415,427.6723522999964,427.65508840000257,None,None,1,426.67119520000415,None,1,m,1,r,MS,2021_Apr_15_2016,WASABI Nback,2020.2.10,None,
0,1,6,"[0.2, 0]",None,0,1,1,1,,,,,0,0,0,0,0,2,2,2,,,,,,,,,,,428.6559913000092,None,428.6559913000092,429.68378379999194,429.6491651000106,430.66493820000323,None,1,428.6559913000092,None,1,m,1,r,MS,2021_Apr_15_2016,WASABI Nback,2020.2.10,None,
0,1,9,"[0.2, -0.2]",None,0,1,1,1,,,,,0,0,0,0,0,3,3,3,,,,,,,,,,,430.6996138000104,None,430.6996138000104,431.7164710999932,431.6834334000014,None,None,1,430.6996138000104,None,1,m,1,r,MS,2021_Apr_15_2016,WASABI Nback,2020.2.10,None,
0,1,3,"[0.2, 0.2]",None,0,1,1,1,,,,,0,0,0,0,0,4,4,4,,,,,,,,,,,432.6636818999832,None,432.6636818999832,433.70190909999656,433.6679390000063,None,None,1,432.6636818999832,None,1,m,1,r,MS,2021_Apr_15_2016,WASABI Nback,2020.2.10,None,
0,1,9,"[0.2, -0.2]",space,0,1,1,1,,,,,0,0,0,0,0,5,5,5,,,,,,,,,,,434.6872228999855,None,434.6872228999855,435.7209479000012,435.68811509999796,None,None,0,434.6872228999855,None,1,m,1,r,MS,2021_Apr_15_2016,WASABI Nback,2020.2.10,None,
0,1,7,"[-0.2, -0.2]",None,0,1,1,1,,,,,0,0,0,0,0,6,6,6,,,,,,,,,,,436.6715231999988,None,436.6715231999988,437.6871831000026,437.63117330000387,438.6326310999866,None,1,436.6715231999988,None,1,m,1,r,MS,2021_Apr_15_2016,WASABI Nback,2020.2.10,None,
0,1,1,"[-0.2, 0.2]",None,0,1,1,1,,,,,0,0,0,0,0,7,7,7,,,,,,,,,,,438.67485199999646,None,438.67485199999646,439.6849749000103,439.65014599999995,440.65088470000774,None,1,438.67485199999646,None,1,m,1,r,MS,2021_Apr_15_2016,WASABI Nback,2020.2.10,None,
0,1,5,"[0, 0]",None,0,1,1,1,,,,,0,0,0,0,0,8,8,8,,,,,,,,,,,440.667732300004,None,440.667732300004,441.7226032000035,441.7226032000035,None,None,1,440.667732300004,None,1,m,1,r,MS,2021_Apr_15_2016,WASABI Nback,2020.2.10,None,
0,1,7,"[-0.2, -0.2]",None,0,1,1,1,,,,,0,0,0,0,0,9,9,9,,,,,,,,,,,442.6696557000105,None,442.6696557000105,443.671534299996,443.65438419999555,None,None,1,442.6696557000105,None,1,m,1,r,MS,2021_Apr_15_2016,WASABI Nback,2020.2.10,None,
0,1,5,"[0, 0]",space,0,1,1,1,,,,,0,0,0,0,0,10,10,10,,,,,,,,,,,444.654898400011,None,444.654898400011,445.68352789999335,445.6452422000002,None,None,0,444.654898400011,None,1,m,1,r,MS,2021_Apr_15_2016,WASABI Nback,2020.2.10,None,
0,1,6,"[0.2, 0]",None,0,1,1,1,,,,,0,0,0,0,0,11,11,11,,,,,,,,,,,446.6582582999836,None,446.6582582999836,447.6579189999902,447.64127659998485,448.6592407999851,None,1,446.6582582999836,None,1,m,1,r,MS,2021_Apr_15_2016,WASABI Nback,2020.2.10,None,
0,1,3,"[0.2, 0.2]",None,0,1,1,1,,,,,0,0,0,0,0,12,12,12,,,,,,,,,,,448.67528049999964,None,448.67528049999964,449.6772493000026,449.6600039000041,None,None,1,448.67528049999964,None,1,m,1,r,MS,2021_Apr_15_2016,WASABI Nback,2020.2.10,None,
0,1,6,"[0.2, 0]",space,0,1,1,1,,,,,0,0,0,0,0,13,13,13,,,,,,,,,,,450.6618089999829,None,450.6618089999829,451.6636182999937,451.64574139998876,452.65125590001117,None,0,450.6618089999829,None,1,m,1,r,MS,2021_Apr_15_2016,WASABI Nback,2020.2.10,None,
0,1,8,"[0, -0.2]",None,0,1,1,1,,,,,0,0,0,0,0,14,14,14,,,,,,,,,,,452.68708949998836,None,452.68708949998836,453.7022500000021,453.6471787999908,None,None,1,452.68708949998836,None,1,m,1,r,MS,2021_Apr_15_2016,WASABI Nback,2020.2.10,None,
0,1,9,"[0.2, -0.2]",None,0,1,1,1,,,,,0,0,0,0,0,15,15,15,,,,,,,,,,,454.6840374000021,None,454.6840374000021,455.7085148000042,455.67599349998636,None,None,1,454.6840374000021,None,1,m,1,r,MS,2021_Apr_15_2016,WASABI Nback,2020.2.10,None,
0,1,9,"[0.2, -0.2]",None,0,1,1,1,,,,,0,0,0,0,0,16,16,16,,,,,,,,,,,456.70296759999474,None,456.70296759999474,457.74594299998716,457.67503569999826,None,None,1,456.70296759999474,None,1,m,1,r,MS,2021_Apr_15_2016,WASABI Nback,2020.2.10,None,
0,1,1,"[-0.2, 0.2]",None,0,1,1,1,,,,,0,0,0,0,0,17,17,17,,,,,,,,,,,458.6969375000044,None,458.6969375000044,459.75195460001123,459.7083507000061,None,None,1,458.6969375000044,None,1,m,1,r,MS,2021_Apr_15_2016,WASABI Nback,2020.2.10,None,
0,1,3,"[0.2, 0.2]",None,0,1,1,1,,,,,0,0,0,0,0,18,18,18,,,,,,,,,,,460.6792310999881,None,460.6792310999881,461.7011286999914,461.6647752999852,None,None,1,460.6792310999881,None,1,m,1,r,MS,2021_Apr_15_2016,WASABI Nback,2020.2.10,None,
0,1,5,"[0, 0]",None,0,1,1,1,,,,,0,0,0,0,0,19,19,19,,,,,,,,,,,462.6812571999908,None,462.6812571999908,463.70224260000396,463.66627419998986,None,None,1,462.6812571999908,None,1,m,1,r,MS,2021_Apr_15_2016,WASABI Nback,2020.2.10,None,
0,1,3,"[0.2, 0.2]",space,0,1,1,1,,,,,0,0,0,0,0,20,20,20,,,,,,,,,,,464.6747871999978,None,464.6747871999978,465.702561699989,465.676947400003,None,None,0,464.6747871999978,None,1,m,1,r,MS,2021_Apr_15_2016,WASABI Nback,2020.2.10,None,
0,1,4,"[-0.2, 0]",None,0,1,1,1,,,,,0,0,0,0,0,21,21,21,,,,,,,,,,,466.67946359998314,None,466.67946359998314,467.7041928000108,467.679068700003,None,None,1,466.67946359998314,None,1,m,1,r,MS,2021_Apr_15_2016,WASABI Nback,2020.2.10,None,
0,1,7,"[-0.2, -0.2]",None,0,1,1,1,,,,,0,0,0,0,0,22,22,22,,,,,,,,,,,468.681536899996,None,468.681536899996,469.72043489999487,469.6881094999844,None,None,1,468.681536899996,None,1,m,1,r,MS,2021_Apr_15_2016,WASABI Nback,2020.2.10,None,
0,1,4,"[-0.2, 0]",space,0,1,1,1,,,,,0,0,0,0,0,23,23,23,,,,,,,,,,,470.69014329998754,None,470.69014329998754,471.7357272999943,471.7357272999943,None,None,0,470.69014329998754,None,1,m,1,r,MS,2021_Apr_15_2016,WASABI Nback,2020.2.10,None,
0,1,4,"[-0.2, 0]",None,0,1,1,1,,,,,0,0,0,0,0,24,24,24,,,,,,,,,,,472.6727580000006,None,472.6727580000006,473.71153739999863,473.67318009998417,None,None,1,472.6727580000006,None,1,m,1,r,MS,2021_Apr_15_2016,WASABI Nback,2020.2.10,None,
0,1,5,"[0, 0]",None,0,1,1,1,,,,,0,0,0,0,0,25,25,25,,,,,,,,,,,474.69391519998317,None,474.69391519998317,475.7120761999977,475.68362719999277,None,None,1,474.69391519998317,None,1,m,1,r,MS,2021_Apr_15_2016,WASABI Nback,2020.2.10,None,
0,1,2,"[0, 0.2]",None,0,1,1,1,,,,,0,0,0,0,0,26,26,26,,,,,,,,,,,476.6895038000075,None,476.6895038000075,477.72783250000793,477.664090700011,None,None,1,476.6895038000075,None,1,m,1,r,MS,2021_Apr_15_2016,WASABI Nback,2020.2.10,None,
0,1,6,"[0.2, 0]",None,0,1,1,1,,,,,0,0,0,0,0,27,27,27,,,,,,,,,,,478.6914737999905,None,478.6914737999905,479.7166287,479.69187439998495,None,None,1,478.6914737999905,None,1,m,1,r,MS,2021_Apr_15_2016,WASABI Nback,2020.2.10,None,
0,1,7,"[-0.2, -0.2]",None,0,1,1,1,,,,,0,0,0,0,0,28,28,28,,,,,,,,,,,480.692132199998,None,480.692132199998,481.7427253999922,481.6942660000059,None,None,1,480.692132199998,None,1,m,1,r,MS,2021_Apr_15_2016,WASABI Nback,2020.2.10,None,
0,1,6,"[0.2, 0]",space,0,1,1,1,,,,,0,0,0,0,0,29,29,29,,,,,,,,,,,482.7030586999899,None,482.7030586999899,483.7605760000006,483.6804737999919,None,None,0,482.7030586999899,None,1,m,1,r,MS,2021_Apr_15_2016,WASABI Nback,2020.2.10,None,
0,1,6,"[0.2, 0]",None,0,1,1,1,,,,,0,0,0,0,0,30,30,30,,,,,,,,,,,484.74022750000586,None,484.74022750000586,485.77001030000974,485.7478409000032,None,None,1,484.74022750000586,None,1,m,1,r,MS,2021_Apr_15_2016,WASABI Nback,2020.2.10,None,
0,1,7,"[-0.2, -0.2]",None,0,1,1,1,,,,,0,0,0,0,0,31,31,31,,,,,,,,,,,486.70489920000546,None,486.70489920000546,487.72415600001113,487.6901462000096,None,None,1,486.70489920000546,None,1,m,1,r,MS,2021_Apr_15_2016,WASABI Nback,2020.2.10,None,
0,1,6,"[0.2, 0]",space,0,1,1,1,,,,,0,0,0,0,0,32,32,32,,,,,,,,,,,488.7370763999934,None,488.7370763999934,489.86037039998337,489.69336730000214,None,None,0,488.7370763999934,None,1,m,1,r,MS,2021_Apr_15_2016,WASABI Nback,2020.2.10,None,
0,1,2,"[0, 0.2]",None,0,1,1,1,,,,,0,0,0,0,0,33,33,33,,,,,,,,,,,490.68977850000374,None,490.68977850000374,491.76272920001065,491.69404430000577,None,None,1,490.68977850000374,None,1,m,1,r,MS,2021_Apr_15_2016,WASABI Nback,2020.2.10,None,
0,1,5,"[0, 0]",None,0,1,1,1,,,,,0,0,0,0,0,34,34,34,,,,,,,,,,,492.6757907999854,None,492.6757907999854,493.694064100011,493.6606894999859,None,None,1,492.6757907999854,None,1,m,1,r,MS,2021_Apr_15_2016,WASABI Nback,2020.2.10,None,
0,1,4,"[-0.2, 0]",None,0,1,1,1,,,,,0,0,0,0,0,35,35,35,,,,,,,,,,,494.68051559999003,None,494.68051559999003,495.6987216999987,495.6644119999837,None,None,1,494.68051559999003,None,1,m,1,r,MS,2021_Apr_15_2016,WASABI Nback,2020.2.10,None,
0,1,4,"[-0.2, 0]",None,0,1,1,1,,,,,0,0,0,0,0,36,36,36,,,,,,,,,,,496.6931496000034,None,496.6931496000034,497.718584599992,497.718584599992,None,None,1,496.6931496000034,None,1,m,1,r,MS,2021_Apr_15_2016,WASABI Nback,2020.2.10,None,
0,1,7,"[-0.2, -0.2]",None,0,1,1,1,,,,,0,0,0,0,0,37,37,37,,,,,,,,,,,498.68266069999663,None,498.68266069999663,499.71897729998454,499.6826289999881,None,None,1,498.68266069999663,None,1,m,1,r,MS,2021_Apr_15_2016,WASABI Nback,2020.2.10,None,
0,1,4,"[-0.2, 0]",space,0,1,1,1,,,,,0,0,0,0,0,38,38,38,,,,,,,,,,,500.7161977000069,None,500.7161977000069,501.77177870000014,501.6861413999868,None,None,0,500.7161977000069,None,1,m,1,r,MS,2021_Apr_15_2016,WASABI Nback,2020.2.10,None,
0,1,3,"[0.2, 0.2]",None,0,1,1,1,,,,,0,0,0,0,0,39,39,39,,,,,,,,,,,502.70656150000286,None,502.70656150000286,503.7393449000083,503.7070679999888,None,None,1,502.70656150000286,None,1,m,1,r,MS,2021_Apr_15_2016,WASABI Nback,2020.2.10,None,
0,1,5,"[0, 0]",None,0,1,1,1,,,,,0,0,0,0,0,40,40,40,,,,,,,,,,,504.69214189998456,None,504.69214189998456,505.7005538000085,505.6827262000006,None,None,1,504.69214189998456,None,1,m,1,r,MS,2021_Apr_15_2016,WASABI Nback,2020.2.10,None,
0,1,3,"[0.2, 0.2]",space,0,1,1,1,,,,,0,0,0,0,0,41,41,41,,,,,,,,,,,506.68505279999226,None,506.68505279999226,507.70257970000966,507.67157989999396,None,None,0,506.68505279999226,None,1,m,1,r,MS,2021_Apr_15_2016,WASABI Nback,2020.2.10,None,
0,1,1,"[-0.2, 0.2]",None,0,1,1,1,,,,,0,0,0,0,0,42,42,42,,,,,,,,,,,508.6885146999848,None,508.6885146999848,509.7042780999909,509.657788099983,None,None,1,508.6885146999848,None,1,m,1,r,MS,2021_Apr_15_2016,WASABI Nback,2020.2.10,None,
0,1,9,"[0.2, -0.2]",None,0,1,1,1,,,,,0,0,0,0,0,43,43,43,,,,,,,,,,,510.67059960000915,None,510.67059960000915,511.68933759999345,511.65944489999674,None,None,1,510.67059960000915,None,1,m,1,r,MS,2021_Apr_15_2016,WASABI Nback,2020.2.10,None,
0,1,9,"[0.2, -0.2]",None,0,1,1,1,,,,,0,0,0,0,0,44,44,44,,,,,,,,,,,512.6602459999849,None,512.6602459999849,513.6909161999938,513.6403946999926,None,None,1,512.6602459999849,None,1,m,1,r,MS,2021_Apr_15_2016,WASABI Nback,2020.2.10,None,
0,1,8,"[0, -0.2]",None,0,1,1,1,,,,,0,0,0,0,0,45,45,45,,,,,,,,,,,514.6626608000079,None,514.6626608000079,515.6962490000005,515.6432334999845,516.6480496999866,None,1,514.6626608000079,None,1,m,1,r,MS,2021_Apr_15_2016,WASABI Nback,2020.2.10,None,
0,1,6,"[0.2, 0]",None,0,1,1,1,,,,,0,0,0,0,0,46,46,46,,,,,,,,,,,516.6765667999862,None,516.6765667999862,517.6787275999959,517.648535699991,None,None,1,516.6765667999862,None,1,m,1,r,MS,2021_Apr_15_2016,WASABI Nback,2020.2.10,None,
0,1,3,"[0.2, 0.2]",None,0,1,1,1,,,,,0,0,0,0,0,47,47,47,,,,,,,,,,,518.7129341000109,None,518.7129341000109,519.7141184000066,519.6975803000096,None,None,1,518.7129341000109,None,1,m,1,r,MS,2021_Apr_15_2016,WASABI Nback,2020.2.10,None,
0,1,6,"[0.2, 0]",space,0,1,1,1,,,,,0,0,0,0,0,48,48,48,,,,,,,,,,,520.6815851999854,None,520.6815851999854,521.6986935999885,521.6526513999852,None,None,0,520.6815851999854,None,1,m,1,r,MS,2021_Apr_15_2016,WASABI Nback,2020.2.10,None,
0,1,5,"[0, 0]",None,0,1,1,1,,,,,0,0,0,0,0,49,49,49,,,,,,,,,,,522.6836020000046,None,522.6836020000046,523.7017891999858,523.6585825000075,None,None,1,522.6836020000046,None,1,m,1,r,MS,2021_Apr_15_2016,WASABI Nback,2020.2.10,None,
0,1,7,"[-0.2, -0.2]",None,0,1,1,1,,,,,0,0,0,0,0,50,50,50,,,,,,,,,,,524.6852761000046,None,524.6852761000046,525.7033123000001,525.6574131000089,None,None,1,524.6852761000046,None,1,m,1,r,MS,2021_Apr_15_2016,WASABI Nback,2020.2.10,None,
0,1,5,"[0, 0]",space,0,1,1,1,,,,,0,0,0,0,0,51,51,51,,,,,,,,,,,526.687031599984,None,526.687031599984,527.704760099994,527.658643600007,None,None,0,526.687031599984,None,1,m,1,r,MS,2021_Apr_15_2016,WASABI Nback,2020.2.10,None,
0,1,1,"[-0.2, 0.2]",None,0,1,1,1,,,,,0,0,0,0,0,52,52,52,,,,,,,,,,,528.6730962999864,None,528.6730962999864,529.6903085999948,529.6404576000059,530.6418199999898,None,1,528.6730962999864,None,1,m,1,r,MS,2021_Apr_15_2016,WASABI Nback,2020.2.10,None,
0,1,7,"[-0.2, -0.2]",None,0,1,1,1,,,,,0,0,0,0,0,53,53,53,,,,,,,,,,,530.6632079000119,None,530.6632079000119,531.675680299988,531.6424816999934,532.6477384000027,None,1,530.6632079000119,None,1,m,1,r,MS,2021_Apr_15_2016,WASABI Nback,2020.2.10,None,
0,1,9,"[0.2, -0.2]",None,0,1,1,1,,,,,0,0,0,0,0,54,54,54,,,,,,,,,,,532.6761397999944,None,532.6761397999944,533.6948632999847,533.6521236999833,None,None,1,532.6761397999944,None,1,m,1,r,MS,2021_Apr_15_2016,WASABI Nback,2020.2.10,None,
0,1,3,"[0.2, 0.2]",None,0,1,1,1,,,,,0,0,0,0,0,55,55,55,,,,,,,,,,,534.6787372000108,None,534.6787372000108,535.6965416999883,535.6506790999847,None,None,1,534.6787372000108,None,1,m,1,r,MS,2021_Apr_15_2016,WASABI Nback,2020.2.10,None,
0,1,9,"[0.2, -0.2]",space,0,1,1,1,,,,,0,0,0,0,0,56,56,56,,,,,,,,,,,536.6637207999884,None,536.6637207999884,537.6816905000014,537.6520357999834,None,None,0,536.6637207999884,None,1,m,1,r,MS,2021_Apr_15_2016,WASABI Nback,2020.2.10,None,
0,1,6,"[0.2, 0]",None,0,1,1,1,,,,,0,0,0,0,0,57,57,57,,,,,,,,,,,538.6821872,None,538.6821872,539.7005733000115,539.6541426999902,None,None,1,538.6821872,None,1,m,1,r,MS,2021_Apr_15_2016,WASABI Nback,2020.2.10,None,
0,1,2,"[0, 0.2]",None,0,1,1,1,,,,,0,0,0,0,0,58,58,58,,,,,,,,,,,540.6851476999873,None,540.6851476999873,541.702518200007,541.6562809000025,None,None,1,540.6851476999873,None,1,m,1,r,MS,2021_Apr_15_2016,WASABI Nback,2020.2.10,None,
0,1,5,"[0, 0]",None,0,1,1,1,,,,,0,0,0,0,0,59,59,59,,,,,,,,,,,542.6697063999891,None,542.6697063999891,543.6701989999856,543.6580730999995,None,None,1,542.6697063999891,None,1,m,1,r,MS,2021_Apr_15_2016,WASABI Nback,2020.2.10,None,
0,1,5,"[0, 0]",None,0,1,1,1,,,,,0,0,0,0,0,60,60,60,,,,,,,,,,,544.6879316999984,None,544.6879316999984,545.7060634999943,545.660100100009,None,None,1,544.6879316999984,None,1,m,1,r,MS,2021_Apr_15_2016,WASABI Nback,2020.2.10,None,
0,1,2,"[0, 0.2]",None,0,1,1,1,,,,,0,0,0,0,0,61,61,61,,,,,,,,,,,546.6607679000008,None,546.6607679000008,547.6752359000093,547.641288999992,548.6426665000035,None,1,546.6607679000008,None,1,m,1,r,MS,2021_Apr_15_2016,WASABI Nback,2020.2.10,None,
0,1,6,"[0.2, 0]",None,0,1,1,1,,,,,0,0,0,0,0,62,62,62,,,,,,,,,,,548.6632929999905,None,548.6632929999905,549.6772166999872,549.6478413000004,None,None,1,548.6632929999905,None,1,m,1,r,MS,2021_Apr_15_2016,WASABI Nback,2020.2.10,None,
0,1,9,"[0.2, -0.2]",None,0,1,1,1,,,,,0,0,0,0,0,63,63,63,,,,,,,,,,,550.678259999986,None,550.678259999986,551.6959105999849,551.6489430000074,None,None,1,550.678259999986,None,1,m,1,r,MS,2021_Apr_15_2016,WASABI Nback,2020.2.10,None,
0,1,3,"[0.2, 0.2]",None,0,1,1,1,,,,,0,0,0,0,0,64,64,64,,,,,,,,,,,552.6637106999988,None,552.6637106999988,553.6818206000025,553.6517986000108,None,None,1,552.6637106999988,None,1,m,1,r,MS,2021_Apr_15_2016,WASABI Nback,2020.2.10,None,
0,1,9,"[0.2, -0.2]",space,0,1,1,1,,,,,0,0,0,0,0,65,65,65,,,,,,,,,,,554.6836827000079,None,554.6836827000079,555.6990898000076,555.6539439999906,None,None,0,554.6836827000079,None,1,m,1,r,MS,2021_Apr_15_2016,WASABI Nback,2020.2.10,None,
0,1,7,"[-0.2, -0.2]",None,0,1,1,1,,,,,0,0,0,0,0,66,66,66,,,,,,,,,,,556.66761579999,None,556.66761579999,557.6683817000012,557.6553557000007,None,None,1,556.66761579999,None,1,m,1,r,MS,2021_Apr_15_2016,WASABI Nback,2020.2.10,None,
0,1,1,"[-0.2, 0.2]",None,0,1,1,1,,,,,0,0,0,0,0,67,67,67,,,,,,,,,,,558.6869025999913,None,558.6869025999913,559.7290551000042,559.695807000011,None,None,1,558.6869025999913,None,1,m,1,r,MS,2021_Apr_15_2016,WASABI Nback,2020.2.10,None,
0,1,5,"[0, 0]",None,0,1,1,1,,,,,0,0,0,0,0,68,68,68,,,,,,,,,,,560.6981959000113,None,560.6981959000113,561.7297826999857,561.6970554,None,None,1,560.6981959000113,None,1,m,1,r,MS,2021_Apr_15_2016,WASABI Nback,2020.2.10,None,
0,1,7,"[-0.2, -0.2]",None,0,1,1,1,,,,,0,0,0,0,0,69,69,69,,,,,,,,,,,562.6601251999964,None,562.6601251999964,563.6735073000018,563.6402486999868,564.6412699999928,None,1,562.6601251999964,None,1,m,1,r,MS,2021_Apr_15_2016,WASABI Nback,2020.2.10,None,
0,1,5,"[0, 0]",space,0,1,1,1,,,,,0,0,0,0,0,70,70,70,,,,,,,,,,,564.6623418999952,None,564.6623418999952,565.6760795000009,565.6426348999958,566.6477624000108,None,0,564.6623418999952,None,1,m,1,r,MS,2021_Apr_15_2016,WASABI Nback,2020.2.10,None,
0,1,6,"[0.2, 0]",None,0,1,1,1,,,,,0,0,0,0,0,71,71,71,,,,,,,,,,,566.6771268000011,None,566.6771268000011,567.678127799998,567.6486804999877,None,None,1,566.6771268000011,None,1,m,1,r,MS,2021_Apr_15_2016,WASABI Nback,2020.2.10,None,
0,1,3,"[0.2, 0.2]",None,0,1,1,1,,,,,0,0,0,0,0,72,72,72,,,,,,,,,,,568.661838,None,568.661838,569.6800262999895,569.6504847999895,None,None,1,568.661838,None,1,m,1,r,MS,2021_Apr_15_2016,WASABI Nback,2020.2.10,None,
0,1,6,"[0.2, 0]",space,0,1,1,1,,,,,0,0,0,0,0,73,73,73,,,,,,,,,,,570.6641073999926,None,570.6641073999926,571.6831400000083,571.6534231999831,None,None,0,570.6641073999926,None,1,m,1,r,MS,2021_Apr_15_2016,WASABI Nback,2020.2.10,None,
0,1,8,"[0, -0.2]",None,0,1,1,1,,,,,0,0,0,0,0,74,74,74,,,,,,,,,,,572.6658184999833,None,572.6658184999833,573.6669914000086,573.6544341999979,None,None,1,572.6658184999833,None,1,m,1,r,MS,2021_Apr_15_2016,WASABI Nback,2020.2.10,None,
0,1,9,"[0.2, -0.2]",None,0,1,1,1,,,,,0,0,0,0,0,75,75,75,,,,,,,,,,,574.6681718000036,None,574.6681718000036,575.6867204000009,575.6567662000016,None,None,1,574.6681718000036,None,1,m,1,r,MS,2021_Apr_15_2016,WASABI Nback,2020.2.10,None,
0,1,9,"[0.2, -0.2]",None,0,1,1,1,,,,,0,0,0,0,0,76,76,76,,,,,,,,,,,576.6704118000052,None,576.6704118000052,577.6888364999904,577.6590375000087,None,None,1,576.6704118000052,None,1,m,1,r,MS,2021_Apr_15_2016,WASABI Nback,2020.2.10,None,
0,1,1,"[-0.2, 0.2]",None,0,1,1,1,,,,,0,0,0,0,0,77,77,77,,,,,,,,,,,578.6893010000058,None,578.6893010000058,579.6908277999901,579.6609005999926,None,None,1,578.6893010000058,None,1,m,1,r,MS,2021_Apr_15_2016,WASABI Nback,2020.2.10,None,
0,1,3,"[0.2, 0.2]",None,0,1,1,1,,,,,0,0,0,0,0,78,78,78,,,,,,,,,,,580.6616529999883,None,580.6616529999883,581.6755486000038,581.641964200011,582.6470601999899,None,1,580.6616529999883,None,1,m,1,r,MS,2021_Apr_15_2016,WASABI Nback,2020.2.10,None,
0,1,5,"[0, 0]",None,0,1,1,1,,,,,0,0,0,0,0,79,79,79,,,,,,,,,,,582.6594457000028,None,582.6594457000028,583.6601249999949,583.6477999000053,None,None,1,582.6594457000028,None,1,m,1,r,MS,2021_Apr_15_2016,WASABI Nback,2020.2.10,None,
0,1,3,"[0.2, 0.2]",space,0,1,1,1,,,,,0,0,0,0,0,80,80,80,,,,,,,,,,,584.678307299997,None,584.678307299997,585.680337800004,585.6498845999886,None,None,0,584.678307299997,None,1,m,1,r,MS,2021_Apr_15_2016,WASABI Nback,2020.2.10,None,
0,1,4,"[-0.2, 0]",None,0,1,1,1,,,,,0,0,0,0,0,81,81,81,,,,,,,,,,,586.6811209000007,None,586.6811209000007,587.6981516999949,587.6528869000031,None,None,1,586.6811209000007,None,1,m,1,r,MS,2021_Apr_15_2016,WASABI Nback,2020.2.10,None,
0,1,7,"[-0.2, -0.2]",None,0,1,1,1,,,,,0,0,0,0,0,82,82,82,,,,,,,,,,,588.6829190999852,None,588.6829190999852,589.6997095999832,589.6542990999878,None,None,1,588.6829190999852,None,1,m,1,r,MS,2021_Apr_15_2016,WASABI Nback,2020.2.10,None,
0,1,4,"[-0.2, 0]",space,0,1,1,1,,,,,0,0,0,0,0,83,83,83,,,,,,,,,,,590.6672445999866,None,590.6672445999866,591.6686164999846,591.6563861999894,None,None,0,590.6672445999866,None,1,m,1,r,MS,2021_Apr_15_2016,WASABI Nback,2020.2.10,None,
0,1,4,"[-0.2, 0]",None,0,1,1,1,,,,,0,0,0,0,0,84,84,84,,,,,,,,,,,592.6693774999876,None,592.6693774999876,593.6878510999959,593.6579722999886,None,None,1,592.6693774999876,None,1,m,1,r,MS,2021_Apr_15_2016,WASABI Nback,2020.2.10,None,
0,1,5,"[0, 0]",None,0,1,1,1,,,,,0,0,0,0,0,85,85,85,,,,,,,,,,,594.6890486000048,None,594.6890486000048,595.6900671999902,595.6597471999994,None,None,1,594.6890486000048,None,1,m,1,r,MS,2021_Apr_15_2016,WASABI Nback,2020.2.10,None,
0,1,2,"[0, 0.2]",None,0,1,1,1,,,,,0,0,0,0,0,86,86,86,,,,,,,,,,,596.6607875000045,None,596.6607875000045,597.6743901000009,597.6407899000042,598.6428254999919,None,1,596.6607875000045,None,1,m,1,r,MS,2021_Apr_15_2016,WASABI Nback,2020.2.10,None,
0,1,6,"[0.2, 0]",None,0,1,1,1,,,,,0,0,0,0,0,87,87,87,,,,,,,,,,,598.6632868000015,None,598.6632868000015,599.6596488000068,599.6472405999957,None,None,1,598.6632868000015,None,1,m,1,r,MS,2021_Apr_15_2016,WASABI Nback,2020.2.10,None,
0,1,7,"[-0.2, -0.2]",None,0,1,1,1,,,,,0,0,0,0,0,88,88,88,,,,,,,,,,,600.6605512000096,None,600.6605512000096,601.6620010999904,601.6490993000043,None,None,1,600.6605512000096,None,1,m,1,r,MS,2021_Apr_15_2016,WASABI Nback,2020.2.10,None,
0,1,6,"[0.2, 0]",space,0,1,1,1,,,,,0,0,0,0,0,89,89,89,,,,,,,,,,,602.6789401999849,None,602.6789401999849,603.6979860999854,603.6511106000107,604.6601400999934,None,0,602.6789401999849,None,1,m,1,r,MS,2021_Apr_15_2016,WASABI Nback,2020.2.10,None,
0,1,6,"[0.2, 0]",None,0,1,1,1,,,,,0,0,0,0,0,90,90,90,,,,,,,,,,,604.686555399996,None,604.686555399996,605.7222114999895,605.687703500007,None,None,1,604.686555399996,None,1,m,1,r,MS,2021_Apr_15_2016,WASABI Nback,2020.2.10,None,
0,1,7,"[-0.2, -0.2]",None,0,1,1,1,,,,,0,0,0,0,0,91,91,91,,,,,,,,,,,606.6885552000022,None,606.6885552000022,607.7015501999995,607.6556309000007,None,None,1,606.6885552000022,None,1,m,1,r,MS,2021_Apr_15_2016,WASABI Nback,2020.2.10,None,
0,1,6,"[0.2, 0]",space,0,1,1,1,,,,,0,0,0,0,0,92,92,92,,,,,,,,,,,608.6686925000104,None,608.6686925000104,609.6700308999862,609.6571437999955,None,None,0,608.6686925000104,None,1,m,1,r,MS,2021_Apr_15_2016,WASABI Nback,2020.2.10,None,
0,1,2,"[0, 0.2]",None,0,1,1,1,,,,,0,0,0,0,0,93,93,93,,,,,,,,,,,610.670701199997,None,610.670701199997,611.6718969999929,611.6591929999995,None,None,1,610.670701199997,None,1,m,1,r,MS,2021_Apr_15_2016,WASABI Nback,2020.2.10,None,
0,1,5,"[0, 0]",None,0,1,1,1,,,,,0,0,0,0,0,94,94,94,,,,,,,,,,,612.6599840999988,None,612.6599840999988,613.6735236000095,613.6401741000009,None,None,1,612.6599840999988,None,1,m,1,r,MS,2021_Apr_15_2016,WASABI Nback,2020.2.10,None,
0,1,4,"[-0.2, 0]",None,0,1,1,1,,,,,0,0,0,0,0,95,95,95,,,,,,,,,,,614.6696069999889,None,614.6696069999889,615.7134012999886,615.6503404999967,None,None,1,614.6696069999889,None,1,m,1,r,MS,2021_Apr_15_2016,WASABI Nback,2020.2.10,None,
0,1,4,"[-0.2, 0]",None,0,1,1,1,,,,,0,0,0,0,0,96,96,96,,,,,,,,,,,616.685967700003,None,616.685967700003,617.695505199983,617.6774418999848,None,None,1,616.685967700003,None,1,m,1,r,MS,2021_Apr_15_2016,WASABI Nback,2020.2.10,None,
0,1,7,"[-0.2, -0.2]",None,0,1,1,1,,,,,0,0,0,0,0,97,97,97,,,,,,,,,,,618.6794034999912,None,618.6794034999912,619.684608999989,619.6640709000058,None,None,1,618.6794034999912,None,1,m,1,r,MS,2021_Apr_15_2016,WASABI Nback,2020.2.10,None,
0,1,4,"[-0.2, 0]",space,0,1,1,1,,,,,0,0,0,0,0,98,98,98,,,,,,,,,,,620.6817245999991,None,620.6817245999991,621.6825906999875,621.6525382999971,None,None,0,620.6817245999991,None,1,m,1,r,MS,2021_Apr_15_2016,WASABI Nback,2020.2.10,None,
0,1,3,"[0.2, 0.2]",None,0,1,1,1,,,,,0,0,0,0,0,99,99,99,,,,,,,,,,,622.6659668000066,None,622.6659668000066,623.6672213999846,623.6546008999867,None,None,1,622.6659668000066,None,1,m,1,r,MS,2021_Apr_15_2016,WASABI Nback,2020.2.10,None,
0,1,5,"[0, 0]",None,0,1,1,1,,,,,0,0,0,0,0,100,100,100,,,,,,,,,,,624.6747459000035,None,624.6747459000035,625.6949923000066,625.6642320000101,None,None,1,624.6747459000035,None,1,m,1,r,MS,2021_Apr_15_2016,WASABI Nback,2020.2.10,None,
0,1,3,"[0.2, 0.2]",space,0,1,1,1,,,,,0,0,0,0,0,101,101,101,,,,,,,,,,,626.6776919999975,None,626.6776919999975,627.7050502999919,627.6377319000021,628.6390327999834,None,0,626.6776919999975,None,1,m,1,r,MS,2021_Apr_15_2016,WASABI Nback,2020.2.10,None,
0,1,1,"[-0.2, 0.2]",None,0,1,1,1,,,,,0,0,0,0,0,102,102,102,,,,,,,,,,,628.659857599996,None,628.659857599996,629.6900969999842,629.6401234999939,630.6405952000059,None,1,628.659857599996,None,1,m,1,r,MS,2021_Apr_15_2016,WASABI Nback,2020.2.10,None,
0,1,9,"[0.2, -0.2]",None,0,1,1,1,,,,,0,0,0,0,0,103,103,103,,,,,,,,,,,630.6616556000081,None,630.6616556000081,631.7316726999998,631.7316726999998,None,None,1,630.6616556000081,None,1,m,1,r,MS,2021_Apr_15_2016,WASABI Nback,2020.2.10,None,
0,1,9,"[0.2, -0.2]",None,0,1,1,1,,,,,0,0,0,0,0,104,104,104,,,,,,,,,,,632.7093074999866,None,632.7093074999866,633.710497299995,633.6944058999943,None,None,1,632.7093074999866,None,1,m,1,r,MS,2021_Apr_15_2016,WASABI Nback,2020.2.10,None,
0,1,8,"[0, -0.2]",None,0,1,1,1,,,,,0,0,0,0,0,105,105,105,,,,,,,,,,,634.7172760000103,None,634.7172760000103,635.7391769000096,635.7391769000096,None,None,1,634.7172760000103,None,1,m,1,r,MS,2021_Apr_15_2016,WASABI Nback,2020.2.10,None,
0,1,6,"[0.2, 0]",None,0,1,1,1,,,,,0,0,0,0,0,106,106,106,,,,,,,,,,,636.6683773999976,None,636.6683773999976,637.6812251000083,637.6517552000005,None,None,1,636.6683773999976,None,1,m,1,r,MS,2021_Apr_15_2016,WASABI Nback,2020.2.10,None,
0,1,3,"[0.2, 0.2]",None,0,1,1,1,,,,,0,0,0,0,0,107,107,107,,,,,,,,,,,638.6823134000006,None,638.6823134000006,639.7164130999881,639.6544157000026,None,None,1,638.6823134000006,None,1,m,1,r,MS,2021_Apr_15_2016,WASABI Nback,2020.2.10,None,
0,1,6,"[0.2, 0]",space,0,1,1,1,,,,,0,0,0,0,0,108,108,108,,,,,,,,,,,640.6675409000018,None,640.6675409000018,641.6884005999891,641.658577299997,None,None,0,640.6675409000018,None,1,m,1,r,MS,2021_Apr_15_2016,WASABI Nback,2020.2.10,None,
0,1,5,"[0, 0]",None,0,1,1,1,,,,,0,0,0,0,0,109,109,109,,,,,,,,,,,642.6739082999993,None,642.6739082999993,643.6904337999877,643.6393017999944,None,None,1,642.6739082999993,None,1,m,1,r,MS,2021_Apr_15_2016,WASABI Nback,2020.2.10,None,
0,1,7,"[-0.2, -0.2]",None,0,1,1,1,,,,,0,0,0,0,0,110,110,110,,,,,,,,,,,644.6638616999844,None,644.6638616999844,645.6897995999898,645.6390045000007,646.6398463000078,None,1,644.6638616999844,None,1,m,1,r,MS,2021_Apr_15_2016,WASABI Nback,2020.2.10,None,
0,1,5,"[0, 0]",space,0,1,1,1,,,,,0,0,0,0,0,111,111,111,,,,,,,,,,,646.6609298000112,None,646.6609298000112,647.6744378999865,647.6407881999912,648.6419814999972,None,0,646.6609298000112,None,1,m,1,r,MS,2021_Apr_15_2016,WASABI Nback,2020.2.10,None,
0,1,1,"[-0.2, 0.2]",None,0,1,1,1,,,,,0,0,0,0,0,112,112,112,,,,,,,,,,,648.6631578000088,None,648.6631578000088,649.676741000003,649.6481538999942,None,None,1,648.6631578000088,None,1,m,1,r,MS,2021_Apr_15_2016,WASABI Nback,2020.2.10,None,
0,1,7,"[-0.2, -0.2]",None,0,1,1,1,,,,,0,0,0,0,0,113,113,113,,,,,,,,,,,650.6611039999989,None,650.6611039999989,651.6996386999963,651.6661748999904,None,None,1,650.6611039999989,None,1,m,1,r,MS,2021_Apr_15_2016,WASABI Nback,2020.2.10,None,
0,1,9,"[0.2, -0.2]",None,0,1,1,1,,,,,0,0,0,0,0,114,114,114,,,,,,,,,,,652.7315333999868,None,652.7315333999868,653.7312912000052,653.7138859000115,None,None,1,652.7315333999868,None,1,m,1,r,MS,2021_Apr_15_2016,WASABI Nback,2020.2.10,None,
0,1,3,"[0.2, 0.2]",None,0,1,1,1,,,,,0,0,0,0,0,115,115,115,,,,,,,,,,,654.6812295999844,None,654.6812295999844,655.6999679,655.6540729999833,None,None,1,654.6812295999844,None,1,m,1,r,MS,2021_Apr_15_2016,WASABI Nback,2020.2.10,None,
0,1,9,"[0.2, -0.2]",space,0,1,1,1,,,,,0,0,0,0,0,116,116,116,,,,,,,,,,,656.6667854000116,None,656.6667854000116,657.6875605999958,657.6584868000064,None,None,0,656.6667854000116,None,1,m,1,r,MS,2021_Apr_15_2016,WASABI Nback,2020.2.10,None,
0,1,6,"[0.2, 0]",None,0,1,1,1,,,,,0,0,0,0,0,117,117,117,,,,,,,,,,,658.6860026000068,None,658.6860026000068,659.7038828000077,659.6580099999846,None,None,1,658.6860026000068,None,1,m,1,r,MS,2021_Apr_15_2016,WASABI Nback,2020.2.10,None,
0,1,2,"[0, 0.2]",None,0,1,1,1,,,,,0,0,0,0,0,118,118,118,,,,,,,,,,,660.7218836999964,None,660.7218836999964,661.7221704999974,661.7050867000071,None,None,1,660.7218836999964,None,1,m,1,r,MS,2021_Apr_15_2016,WASABI Nback,2020.2.10,None,
0,1,5,"[0, 0]",None,0,1,1,1,,,,,0,0,0,0,0,119,119,119,,,,,,,,,,,662.6606428000086,None,662.6606428000086,663.6734594999871,663.6402800999931,664.6418825000001,None,1,662.6606428000086,None,1,m,1,r,MS,2021_Apr_15_2016,WASABI Nback,2020.2.10,None,
