	SID	date	sex	session	handedness	scanner	onset	duration	repetition	rating	body_site	keys	temperature	conditionrt	mouseclick	biopac_channel	condition	rt	value
0	2640	2023_Mar_29_1601	F	01	R	MH	2.7748661999357864	5.00967593351379								19	Instructions		
1	2640	2023_Mar_29_1601	F	01	R	MH	8.376884100027382	2.0044429099652916								6	Cue		
2	2640	2023_Mar_29_1601	F	01	R	MH	10.381977399927564	5.99427752988413								7	Pre-Jitter		
3	2640	2023_Mar_29_1601	F	01	R	MH	16.419949600007385	15.00189618987497			Right Face		48.0			12	Heat-Stimulation		
4	2640	2023_Mar_29_1601	F	01	R	MH	31.508932400029153	7.007495080004446								8	Mid-Jitter		
5	2640	2023_Mar_29_1601	F	01	R	MH	38.533271500025876	5.008906460017897								20	PainBinary	1.3000612000469118	1.0
6	2640	2023_Mar_29_1601	F	01	R	MH	43.565794899943285	5.010615560109727								21	IntensityRating	2.1834080000407994	70.0
7	2640	2023_Mar_29_1601	F	01	R	MH	48.596312499954365	4.999703460023738								22	ToleranceRating	1.0335746000055224	-1.0
8	2640	2023_Mar_29_1601	F	01	R	MH	53.60061979992315	7.0078456298215315								9	Post-Q-Jitter		
9	2640	2023_Mar_29_1601	F	01	R	MH	61.65769589995034	2.0105503202648833								6	Cue		
10	2640	2023_Mar_29_1601	F	01	R	MH	63.66464500001166	7.996749029960483								7	Pre-Jitter		
11	2640	2023_Mar_29_1601	F	01	R	MH	71.7175851999782	15.007700420101173			Right Face		47.5			12	Heat-Stimulation		
12	2640	2023_Mar_29_1601	F	01	R	MH	86.80761539994273	9.011201580055058								8	Mid-Jitter		
13	2640	2023_Mar_29_1601	F	01	R	MH	95.83371229993645	5.009119660011493								20	PainBinary	1.0834080999484286	1.0
14	2640	2023_Mar_29_1601	F	01	R	MH	100.86512039997615	5.013081060023978								21	IntensityRating	2.0358368998859078	55.98765432098766
15	2640	2023_Mar_29_1601	F	01	R	MH	105.89666169998236	5.000106860068627								22	ToleranceRating	0.6503269000677392	-1.0
16	2640	2023_Mar_29_1601	F	01	R	MH	110.9012601999566	9.007556529948488								9	Post-Q-Jitter		
17	2640	2023_Mar_29_1601	F	01	R	MH	120.46782879997045	2.007932920125313								6	Cue		
18	2640	2023_Mar_29_1601	F	01	R	MH	122.48176120000426	3.9969057301059365								7	Pre-Jitter		
19	2640	2023_Mar_29_1601	F	01	R	MH	126.53738360002171	15.002507420023903			Right Face		47.0			12	Heat-Stimulation		
20	2640	2023_Mar_29_1601	F	01	R	MH	141.6226161000086	9.0156028799247								8	Mid-Jitter		
21	2640	2023_Mar_29_1601	F	01	R	MH	150.65076160000172	5.0094382599927485								20	PainBinary	1.6500005999114364	1.0
22	2640	2023_Mar_29_1601	F	01	R	MH	155.6831481999252	5.011442460003309								21	IntensityRating	3.366710999980569	48.51851851851852
23	2640	2023_Mar_29_1601	F	01	R	MH	160.71358260000125	5.0006924599874765								22	ToleranceRating	1.0169653999619186	1.0
24	2640	2023_Mar_29_1601	F	01	R	MH	165.71908900002018	9.006471329950728								9	Post-Q-Jitter		
25	2640	2023_Mar_29_1601	F	01	R	MH	175.80976879992522	2.008667480200529								6	Cue		
26	2640	2023_Mar_29_1601	F	01	R	MH	177.816269599949	5.995475129922852								7	Pre-Jitter		
27	2640	2023_Mar_29_1601	F	01	R	MH	183.85931329999585	15.009596019866876			Right Face		47.0			12	Heat-Stimulation		
28	2640	2023_Mar_29_1601	F	01	R	MH	198.9425414999714	5.010181780089624								8	Mid-Jitter		
29	2640	2023_Mar_29_1601	F	01	R	MH	203.96909189992584	5.007284360006452								20	PainBinary		-1.0
30	2640	2023_Mar_29_1601	F	01	R	MH	218.99026559991762	5.01585226203315								9	Post-Q-Jitter		
31	2640	2023_Mar_29_1601	F	01	R	MH	224.52345630002674	2.0154817899456248								6	Cue		
32	2640	2023_Mar_29_1601	F	01	R	MH	226.5335078999633	3.9954170300625265								7	Pre-Jitter		
33	2640	2023_Mar_29_1601	F	01	R	MH	230.5645891999593	15.000115689937957			Right Face		47.0			12	Heat-Stimulation		
34	2640	2023_Mar_29_1601	F	01	R	MH	245.64040289993864	7.015369780012406								8	Mid-Jitter		
35	2640	2023_Mar_29_1601	F	01	R	MH	252.66826649999712	5.009762860019691								20	PainBinary	1.1833681999705732	1.0
36	2640	2023_Mar_29_1601	F	01	R	MH	257.7003932999214	5.012265059980564								21	IntensityRating	2.9333695999812335	36.04938271604938
37	2640	2023_Mar_29_1601	F	01	R	MH	262.731402699952	5.000342260114849								22	ToleranceRating	1.1003449000418186	1.0
38	2640	2023_Mar_29_1601	F	01	R	MH	267.7368023999734	7.006333630066365								9	Post-Q-Jitter		
39	2640	2023_Mar_29_1601	F	01	R	MH	275.84312729991507	2.010520610027015								6	Cue		
40	2640	2023_Mar_29_1601	F	01	R	MH	277.85051189991646	5.995701729902066								7	Pre-Jitter		
41	2640	2023_Mar_29_1601	F	01	R	MH	283.8917604999151	15.013394320034422			Right Face		47.0			12	Heat-Stimulation		
42	2640	2023_Mar_29_1601	F	01	R	MH	298.98103499994613	5.001763180131093								8	Mid-Jitter		
43	2640	2023_Mar_29_1601	F	01	R	MH	304.0020254999399	5.0098675600020215								20	PainBinary	1.1833644999423996	1.0
44	2640	2023_Mar_29_1601	F	01	R	MH	309.03424409998115	5.012290860060602								21	IntensityRating		42.71604938271605
45	2640	2023_Mar_29_1601	F	01	R	MH	314.06517099996563	5.000433459994383								22	ToleranceRating	1.4336495000170544	1.0
46	2640	2023_Mar_29_1601	F	01	R	MH	319.07052119995933	5.006509430124424								9	Post-Q-Jitter		
47	2640	2023_Mar_29_1601	F	01	R	MH	324.59220970002934	2.013243759982288								6	Cue		
48	2640	2023_Mar_29_1601	F	01	R	MH	326.60025189991575	7.997187629924156								7	Pre-Jitter		
49	2640	2023_Mar_29_1601	F	01	R	MH	334.6376990999561	15.005808890098706			Right Face		47.0			12	Heat-Stimulation		
50	2640	2023_Mar_29_1601	F	01	R	MH	349.72629279992543	5.012148279929534								8	Mid-Jitter		
51	2640	2023_Mar_29_1601	F	01	R	MH	354.7532976999646	5.0083079600008205								20	PainBinary	3.7167305999901146	1.0
52	2640	2023_Mar_29_1601	F	01	R	MH	359.78415019996464	4.996786460047588								21	IntensityRating		36.91358024691358
53	2640	2023_Mar_29_1601	F	01	R	MH	364.7996037999401	4.999237359967083								22	ToleranceRating	0.21694669988937676	0.0
54	2640	2023_Mar_29_1601	F	01	R	MH	369.80446120002307	5.006267130142078								9	Post-Q-Jitter		
55	2640	2023_Mar_29_1601	F	01	R	MH	374.84255559998564	3.796884289942682								26	ComfortRating	3.7669763000449166	-16.172839506172835
56	2640	2023_Mar_29_1601	F	01	R	MH	378.655847899965	2.437013959977776								24	ValenceRating	2.416673899977468	66.11111111111111
57	2640	2023_Mar_29_1601	F	01	R	MH	381.11624639993533	1.7496259600156918								26	IntensityRating	1.7196424000430852	80.80246913580247
58	2640	2023_Mar_29_1601	F	01	R	MH	382.88526200002525	2.0783102600835264								27	AvoidanceRating	2.0500215999782085	34.074074074074076
59	2640	2023_Mar_29_1601	F	01	R	MH	384.98129339993466	3.35298005992081								28	RelaxationRating	3.333646300015971	66.48148148148148
60	2640	2023_Mar_29_1601	F	01	R	MH	388.3512403999921	3.2798265600576997								29	AttentionRating	3.2678049000678584	30.432098765432098
61	2640	2023_Mar_29_1601	F	01	R	MH	391.64791840000544	2.886523659923114								30	BoredomRating	2.8669964000582695	37.407407407407405
62	2640	2023_Mar_29_1601	F	01	R	MH	394.5494005000219	3.3169703599996865								31	AlertnessRating	3.300308300065808	-40.74074074074075
63	2640	2023_Mar_29_1601	F	01	R	MH	397.88367859995924	2.9484552601352334								32	PosThxRating	2.9338413999648765	0.0
64	2640	2023_Mar_29_1601	F	01	R	MH	400.8502762999851	2.298659360036254								33	NegThxRating	2.283627700060606	0.0
65	2640	2023_Mar_29_1601	F	01	R	MH	403.1663985999767	2.1664212599862367								34	SelfRating	2.1503564999438822	31.851851851851876
66	2640	2023_Mar_29_1601	F	01	R	MH	405.3496753999498	4.7333074600901455								35	OtherRating	4.717045900062658	-19.01234567901234
67	2640	2023_Mar_29_1601	F	01	R	MH	410.10105579998344	6.897318860050291								32	ImageryRating	6.852753399987705	-15.06172839506172
68	2640	2023_Mar_29_1601	F	01	R	MH	417.0187513999408	2.528681859956123								37	PresentRating	2.5000341000268236	-25.925925925925924
