RestT1,TaskT1,square,location,corrAns,counterbalancer.thisRepN,counterbalancer.thisTrialN,counterbalancer.thisN,counterbalancer.thisIndex,RestT1Loop.thisRepN,RestT1Loop.thisTrialN,RestT1Loop.thisN,RestT1Loop.thisIndex,TaskT1Loop.thisRepN,TaskT1Loop.thisTrialN,TaskT1Loop.thisN,TaskT1Loop.thisIndex,trials_2.thisRepN,trials_2.thisTrialN,trials_2.thisN,trials_2.thisIndex,NbackInstructions.started,NbackInstructions.stopped,NbackStart.keys,NbackStart.rt,NbackStart.started,NbackStart.stopped,fixation_2.started,fixation_2.stopped,response_2.x,response_2.y,response_2.leftButton,grid_lines_2.started,grid_lines_2.stopped,target_square_2.started,target_square_2.stopped,fixation_3.started,fixation_3.stopped,response_2.click,response_2.corr,response_2.started,response_2.stopped,fixation_1.started,fixation_1.stopped,subject number,gender,session,handedness,scanner,date,expName,psychopyVersion,frameRate,
0,1,,,,0,0,0,0,,,,,0,0,0,0,,,,,31.37584550003521,None,space,46.521597699960694,31.37584550003521,None,,,,,,,,,,,,,,,,,,4,m,10,l,CIB,2021_Aug_06_1344,WASABI Nback,2020.2.10,59.99649620587999,
0,1,5,"[0, 0]",None,0,0,0,0,,,,,0,0,0,0,0,0,0,0,,,,,,,None,None,None,None,[],None,None,None,None,None,None,[],[],None,None,,,4,m,10,l,CIB,2021_Aug_06_1344,WASABI Nback,2020.2.10,59.99649620587999,
0,1,2,"[0, 0.2]",None,0,0,0,0,,,,,0,0,0,0,0,1,1,1,,,,,,,,,None,None,[],None,None,None,None,None,None,[],[],None,None,,,4,m,10,l,CIB,2021_Aug_06_1344,WASABI Nback,2020.2.10,59.99649620587999,
0,1,6,"[0.2, 0]",None,0,0,0,0,,,,,0,0,0,0,0,2,2,2,,,,,,,,,None,None,[],None,None,None,None,None,None,[],[],None,None,,,4,m,10,l,CIB,2021_Aug_06_1344,WASABI Nback,2020.2.10,59.99649620587999,
0,1,9,"[0.2, -0.2]",None,0,0,0,0,,,,,0,0,0,0,0,3,3,3,,,,,,,,,None,None,[],None,None,None,None,None,None,[],[],None,None,,,4,m,10,l,CIB,2021_Aug_06_1344,WASABI Nback,2020.2.10,59.99649620587999,
0,1,3,"[0.2, 0.2]",None,0,0,0,0,,,,,0,0,0,0,0,4,4,4,,,,,,,,,None,None,[],None,None,None,None,None,None,[],[],None,None,,,4,m,10,l,CIB,2021_Aug_06_1344,WASABI Nback,2020.2.10,59.99649620587999,
0,1,9,"[0.2, -0.2]",1,0,0,0,0,,,,,0,0,0,0,0,5,5,5,,,,,,,,,None,None,[],None,None,None,None,None,None,[],[],None,None,,,4,m,10,l,CIB,2021_Aug_06_1344,WASABI Nback,2020.2.10,59.99649620587999,
0,1,7,"[-0.2, -0.2]",None,0,0,0,0,,,,,0,0,0,0,0,6,6,6,,,,,,,,,None,None,[],None,None,None,None,None,None,[],[],None,None,,,4,m,10,l,CIB,2021_Aug_06_1344,WASABI Nback,2020.2.10,59.99649620587999,
0,1,1,"[-0.2, 0.2]",None,0,0,0,0,,,,,0,0,0,0,0,7,7,7,,,,,,,,,None,None,[],None,None,None,None,None,None,[],[],None,None,,,4,m,10,l,CIB,2021_Aug_06_1344,WASABI Nback,2020.2.10,59.99649620587999,
0,1,5,"[0, 0]",None,0,0,0,0,,,,,0,0,0,0,0,8,8,8,,,,,,,,,None,None,0,96.5885610000696,None,96.5885610000696,None,None,None,0,1,96.5885610000696,None,,,4,m,10,l,CIB,2021_Aug_06_1344,WASABI Nback,2020.2.10,59.99649620587999,
0,1,7,"[-0.2, -0.2]",None,0,0,0,0,,,,,0,0,0,0,0,9,9,9,,,,,,,,,None,None,0,96.93854909995571,None,96.93854909995571,97.93855550000444,97.92185140005313,98.92190019995905,0,1,96.93854909995571,None,,,4,m,10,l,CIB,2021_Aug_06_1344,WASABI Nback,2020.2.10,59.99649620587999,
0,1,5,"[0, 0]",1,0,0,0,0,,,,,0,0,0,0,0,10,10,10,,,,,,,,,None,None,0,98.93856170005165,None,98.93856170005165,99.93856599996798,99.92193630011752,100.92190070007928,0,0,98.93856170005165,None,,,4,m,10,l,CIB,2021_Aug_06_1344,WASABI Nback,2020.2.10,59.99649620587999,
0,1,6,"[0.2, 0]",None,0,0,0,0,,,,,0,0,0,0,0,11,11,11,,,,,,,,,None,None,0,100.9385828000959,None,100.9385828000959,101.93858640012331,101.92194289993495,102.92194629996084,0,1,100.9385828000959,None,,,4,m,10,l,CIB,2021_Aug_06_1344,WASABI Nback,2020.2.10,59.99649620587999,
0,1,3,"[0.2, 0.2]",None,0,0,0,0,,,,,0,0,0,0,0,12,12,12,,,,,,,,,None,None,0,102.93858990003355,None,102.93858990003355,103.93860929994844,103.92193110007793,104.92195930005983,0,1,102.93858990003355,None,,,4,m,10,l,CIB,2021_Aug_06_1344,WASABI Nback,2020.2.10,59.99649620587999,
0,1,6,"[0.2, 0]",1,0,0,0,0,,,,,0,0,0,0,0,13,13,13,,,,,,,,,None,None,0,104.93861169996671,None,104.93861169996671,105.93862830009311,105.92196210008115,106.92196890013292,0,0,104.93861169996671,None,,,4,m,10,l,CIB,2021_Aug_06_1344,WASABI Nback,2020.2.10,59.99649620587999,
0,1,8,"[0, -0.2]",None,0,0,0,0,,,,,0,0,0,0,0,14,14,14,,,,,,,,,None,None,0,106.9386362999212,None,106.9386362999212,107.93861269997433,107.92196770012379,108.92198770004325,0,1,106.9386362999212,None,,,4,m,10,l,CIB,2021_Aug_06_1344,WASABI Nback,2020.2.10,59.99649620587999,
0,1,9,"[0.2, -0.2]",None,0,0,0,0,,,,,0,0,0,0,0,15,15,15,,,,,,,,,None,None,0,108.93864049995318,None,108.93864049995318,109.93865370005369,109.92198810004629,110.92200709995814,0,1,108.93864049995318,None,,,4,m,10,l,CIB,2021_Aug_06_1344,WASABI Nback,2020.2.10,59.99649620587999,
0,1,9,"[0.2, -0.2]",None,0,0,0,0,,,,,0,0,0,0,0,16,16,16,,,,,,,,,None,None,0,110.93864469998516,None,110.93864469998516,111.93854200001806,111.92199740000069,112.92200980009511,0,1,110.93864469998516,None,,,4,m,10,l,CIB,2021_Aug_06_1344,WASABI Nback,2020.2.10,59.99649620587999,
0,1,1,"[-0.2, 0.2]",None,0,0,0,0,,,,,0,0,0,0,0,17,17,17,,,,,,,,,None,None,0,112.93871559994295,None,112.93871559994295,113.93867720011622,113.92200209992006,114.92201870004646,0,1,112.93871559994295,None,,,4,m,10,l,CIB,2021_Aug_06_1344,WASABI Nback,2020.2.10,59.99649620587999,
0,1,3,"[0.2, 0.2]",None,0,0,0,0,,,,,0,0,0,0,0,18,18,18,,,,,,,,,None,None,0,114.93863050010987,None,114.93863050010987,115.93868919997476,115.92203020001762,116.92203080002218,0,1,114.93863050010987,None,,,4,m,10,l,CIB,2021_Aug_06_1344,WASABI Nback,2020.2.10,59.99649620587999,
0,1,5,"[0, 0]",None,0,0,0,0,,,,,0,0,0,0,0,19,19,19,,,,,,,,,None,None,0,116.93869530013762,None,116.93869530013762,117.9387022999581,117.92203889996745,118.92206100001931,0,1,116.93869530013762,None,,,4,m,10,l,CIB,2021_Aug_06_1344,WASABI Nback,2020.2.10,59.99649620587999,
0,1,3,"[0.2, 0.2]",1,0,0,0,0,,,,,0,0,0,0,0,20,20,20,,,,,,,,,None,None,0,118.93872530013323,None,118.93872530013323,119.93871570006013,119.92217559996061,120.92209180002101,0,0,118.93872530013323,None,,,4,m,10,l,CIB,2021_Aug_06_1344,WASABI Nback,2020.2.10,59.99649620587999,
0,1,4,"[-0.2, 0]",None,0,0,0,0,,,,,0,0,0,0,0,21,21,21,,,,,,,,,None,None,0,120.93873540009372,None,120.93873540009372,121.93874750006944,121.92207670002244,122.92207610001788,0,1,120.93873540009372,None,,,4,m,10,l,CIB,2021_Aug_06_1344,WASABI Nback,2020.2.10,59.99649620587999,
0,1,7,"[-0.2, -0.2]",None,0,0,0,0,,,,,0,0,0,0,0,22,22,22,,,,,,,,,None,None,0,122.9387419000268,None,122.9387419000268,123.9387441999279,123.92210240010172,124.9220781000331,0,1,122.9387419000268,None,,,4,m,10,l,CIB,2021_Aug_06_1344,WASABI Nback,2020.2.10,59.99649620587999,
0,1,4,"[-0.2, 0]",1,0,0,0,0,,,,,0,0,0,0,0,23,23,23,,,,,,,,,None,None,0,124.93876629997976,None,124.93876629997976,125.93875920004211,125.92209180002101,126.9221278000623,0,0,124.93876629997976,None,,,4,m,10,l,CIB,2021_Aug_06_1344,WASABI Nback,2020.2.10,59.99649620587999,
0,1,4,"[-0.2, 0]",None,0,0,0,0,,,,,0,0,0,0,0,24,24,24,,,,,,,,,None,None,0,126.93878960004076,None,126.93878960004076,127.93879040004686,127.92208970012143,128.9221356001217,0,1,126.93878960004076,None,,,4,m,10,l,CIB,2021_Aug_06_1344,WASABI Nback,2020.2.10,59.99649620587999,
0,1,5,"[0, 0]",None,0,0,0,0,,,,,0,0,0,0,0,25,25,25,,,,,,,,,None,None,0,128.9387978001032,None,128.9387978001032,129.9388067999389,129.92214530007914,130.92212649993598,0,1,128.9387978001032,None,,,4,m,10,l,CIB,2021_Aug_06_1344,WASABI Nback,2020.2.10,59.99649620587999,
0,1,2,"[0, 0.2]",None,0,0,0,0,,,,,0,0,0,0,0,26,26,26,,,,,,,,,None,None,0,130.93881179997697,None,130.93881179997697,131.93881430011243,131.92214350006543,132.9221433000639,0,1,130.93881179997697,None,,,4,m,10,l,CIB,2021_Aug_06_1344,WASABI Nback,2020.2.10,59.99649620587999,
0,1,6,"[0.2, 0]",None,0,0,0,0,,,,,0,0,0,0,0,27,27,27,,,,,,,,,None,None,0,132.9388345000334,None,132.9388345000334,133.9388322001323,133.9221618999727,134.92217039992101,0,1,132.9388345000334,None,,,4,m,10,l,CIB,2021_Aug_06_1344,WASABI Nback,2020.2.10,59.99649620587999,
0,1,7,"[-0.2, -0.2]",None,0,0,0,0,,,,,0,0,0,0,0,28,28,28,,,,,,,,,None,None,0,134.93884030007757,None,134.93884030007757,135.93886879994534,135.9221618999727,136.92208230006509,0,1,134.93884030007757,None,,,4,m,10,l,CIB,2021_Aug_06_1344,WASABI Nback,2020.2.10,59.99649620587999,
0,1,6,"[0.2, 0]",1,0,0,0,0,,,,,0,0,0,0,0,29,29,29,,,,,,,,,None,None,0,136.93886260013096,None,136.93886260013096,137.93888640007935,137.92221869993955,138.9222137001343,0,0,136.93886260013096,None,,,4,m,10,l,CIB,2021_Aug_06_1344,WASABI Nback,2020.2.10,59.99649620587999,
0,1,6,"[0.2, 0]",None,0,0,0,0,,,,,0,0,0,0,0,30,30,30,,,,,,,,,None,None,0,138.93888440006413,None,138.93888440006413,139.93888140004128,139.92217950010672,140.92222629999742,0,1,138.93888440006413,None,,,4,m,10,l,CIB,2021_Aug_06_1344,WASABI Nback,2020.2.10,59.99649620587999,
0,1,7,"[-0.2, -0.2]",None,0,0,0,0,,,,,0,0,0,0,0,31,31,31,,,,,,,,,None,None,0,140.9389206999913,None,140.9389206999913,141.9388965999242,141.92222000006586,142.92223559995182,0,1,140.9389206999913,None,,,4,m,10,l,CIB,2021_Aug_06_1344,WASABI Nback,2020.2.10,59.99649620587999,
0,1,6,"[0.2, 0]",1,0,0,0,0,,,,,0,0,0,0,0,32,32,32,,,,,,,,,None,None,0,142.93890119995922,None,142.93890119995922,143.93892420013435,143.92213100008667,144.9222560999915,0,0,142.93890119995922,None,,,4,m,10,l,CIB,2021_Aug_06_1344,WASABI Nback,2020.2.10,59.99649620587999,
0,1,2,"[0, 0.2]",None,0,0,0,0,,,,,0,0,0,0,0,33,33,33,,,,,,,,,None,None,0,144.93893659999594,None,144.93893659999594,145.93894620006904,145.92225890001282,146.92227410012856,0,1,144.93893659999594,None,,,4,m,10,l,CIB,2021_Aug_06_1344,WASABI Nback,2020.2.10,59.99649620587999,
0,1,5,"[0, 0]",None,0,0,0,0,,,,,0,0,0,0,0,34,34,34,,,,,,,,,None,None,0,146.9389516999945,None,146.9389516999945,147.93893960001878,147.92227849992923,148.92227210011333,0,1,146.9389516999945,None,,,4,m,10,l,CIB,2021_Aug_06_1344,WASABI Nback,2020.2.10,59.99649620587999,
0,1,4,"[-0.2, 0]",None,0,0,0,0,,,,,0,0,0,0,0,35,35,35,,,,,,,,,None,None,0,148.93894880008884,None,148.93894880008884,149.93895619991235,149.92232090001926,150.92230050009675,0,1,148.93894880008884,None,,,4,m,10,l,CIB,2021_Aug_06_1344,WASABI Nback,2020.2.10,59.99649620587999,
0,1,4,"[-0.2, 0]",None,0,0,0,0,,,,,0,0,0,0,0,36,36,36,,,,,,,,,None,None,0,150.93896090006456,None,150.93896090006456,151.93895450001583,151.9222961999476,152.92231409996748,0,1,150.93896090006456,None,,,4,m,10,l,CIB,2021_Aug_06_1344,WASABI Nback,2020.2.10,59.99649620587999,
0,1,7,"[-0.2, -0.2]",None,0,0,0,0,,,,,0,0,0,0,0,37,37,37,,,,,,,,,None,None,0,152.93903600005433,None,152.93903600005433,153.93897030013613,153.92238859995268,154.92231620009989,0,1,152.93903600005433,None,,,4,m,10,l,CIB,2021_Aug_06_1344,WASABI Nback,2020.2.10,59.99649620587999,
0,1,4,"[-0.2, 0]",1,0,0,0,0,,,,,0,0,0,0,0,38,38,38,,,,,,,,,None,None,0,154.93896630010568,None,154.93896630010568,155.9389885000419,155.92234240006655,156.92235430004075,0,0,154.93896630010568,None,,,4,m,10,l,CIB,2021_Aug_06_1344,WASABI Nback,2020.2.10,59.99649620587999,
0,1,3,"[0.2, 0.2]",None,0,0,0,0,,,,,0,0,0,0,0,39,39,39,,,,,,,,,None,None,0,156.93901049997658,None,156.93901049997658,157.93897160002962,157.92234049993567,158.92236929992214,0,1,156.93901049997658,None,,,4,m,10,l,CIB,2021_Aug_06_1344,WASABI Nback,2020.2.10,59.99649620587999,
0,1,5,"[0, 0]",None,0,0,0,0,,,,,0,0,0,0,0,40,40,40,,,,,,,,,None,None,0,158.9390144001227,None,158.9390144001227,159.93900969997048,159.92237580008805,160.9223617000971,0,1,158.9390144001227,None,,,4,m,10,l,CIB,2021_Aug_06_1344,WASABI Nback,2020.2.10,59.99649620587999,
0,1,3,"[0.2, 0.2]",1,0,0,0,0,,,,,0,0,0,0,0,41,41,41,,,,,,,,,None,None,0,160.93893639999442,None,160.93893639999442,161.93903150013648,161.9223710000515,162.9223728000652,0,0,160.93893639999442,None,,,4,m,10,l,CIB,2021_Aug_06_1344,WASABI Nback,2020.2.10,59.99649620587999,
0,1,1,"[-0.2, 0.2]",None,0,0,0,0,,,,,0,0,0,0,0,42,42,42,,,,,,,,,None,None,0,162.93904269998893,None,162.93904269998893,163.93904430000111,163.9223873000592,164.92240300006233,0,1,162.93904269998893,None,,,4,m,10,l,CIB,2021_Aug_06_1344,WASABI Nback,2020.2.10,59.99649620587999,
0,1,9,"[0.2, -0.2]",None,0,0,0,0,,,,,0,0,0,0,0,43,43,43,,,,,,,,,None,None,0,164.93906820006669,None,164.93906820006669,165.9390599001199,165.9224094999954,166.92241310002282,0,1,164.93906820006669,None,,,4,m,10,l,CIB,2021_Aug_06_1344,WASABI Nback,2020.2.10,59.99649620587999,
0,1,9,"[0.2, -0.2]",None,0,0,0,0,,,,,0,0,0,0,0,44,44,44,,,,,,,,,None,None,0,166.9390815999359,None,166.9390815999359,167.93906130013056,167.9224284000229,168.922477300046,0,1,166.9390815999359,None,,,4,m,10,l,CIB,2021_Aug_06_1344,WASABI Nback,2020.2.10,59.99649620587999,
0,1,8,"[0, -0.2]",None,0,0,0,0,,,,,0,0,0,0,0,45,45,45,,,,,,,,,None,None,0,168.93908919999376,None,168.93908919999376,169.9391036001034,169.92243460007012,170.92245270009153,0,1,168.93908919999376,None,,,4,m,10,l,CIB,2021_Aug_06_1344,WASABI Nback,2020.2.10,59.99649620587999,
0,1,6,"[0.2, 0]",None,0,0,0,0,,,,,0,0,0,0,0,46,46,46,,,,,,,,,None,None,0,170.9390863000881,None,170.9390863000881,171.9390988999512,171.9224600000307,172.92245750012808,0,1,170.9390863000881,None,,,4,m,10,l,CIB,2021_Aug_06_1344,WASABI Nback,2020.2.10,59.99649620587999,
0,1,3,"[0.2, 0.2]",None,0,0,0,0,,,,,0,0,0,0,0,47,47,47,,,,,,,,,None,None,0,172.93912749993615,None,172.93912749993615,173.93913760012947,173.92246869998053,174.92248800001107,0,1,172.93912749993615,None,,,4,m,10,l,CIB,2021_Aug_06_1344,WASABI Nback,2020.2.10,59.99649620587999,
0,1,6,"[0.2, 0]",1,0,0,0,0,,,,,0,0,0,0,0,48,48,48,,,,,,,,,None,None,0,174.9391332999803,None,174.9391332999803,175.9391499001067,175.92248630011454,176.92246720008552,0,0,174.9391332999803,None,,,4,m,10,l,CIB,2021_Aug_06_1344,WASABI Nback,2020.2.10,59.99649620587999,
0,1,5,"[0, 0]",None,0,0,0,0,,,,,0,0,0,0,0,49,49,49,,,,,,,,,None,None,0,176.93914899998344,None,176.93914899998344,177.93915960006416,177.92250260012224,178.9225010999944,0,1,176.93914899998344,None,,,4,m,10,l,CIB,2021_Aug_06_1344,WASABI Nback,2020.2.10,59.99649620587999,
0,1,7,"[-0.2, -0.2]",None,0,0,0,0,,,,,0,0,0,0,0,50,50,50,,,,,,,,,None,None,0,178.93916940013878,None,178.93916940013878,179.93917130003683,179.92252109991387,180.92252420005389,0,1,178.93916940013878,None,,,4,m,10,l,CIB,2021_Aug_06_1344,WASABI Nback,2020.2.10,59.99649620587999,
0,1,5,"[0, 0]",1,0,0,0,0,,,,,0,0,0,0,0,51,51,51,,,,,,,,,None,None,0,180.93918549991213,None,180.93918549991213,181.9391801999882,181.9224914999213,182.92252589995041,0,0,180.93918549991213,None,,,4,m,10,l,CIB,2021_Aug_06_1344,WASABI Nback,2020.2.10,59.99649620587999,
0,1,1,"[-0.2, 0.2]",None,0,0,0,0,,,,,0,0,0,0,0,52,52,52,,,,,,,,,None,None,0,182.93917979998514,None,182.93917979998514,183.939217899926,183.9225345000159,184.92254659999162,0,1,182.93917979998514,None,,,4,m,10,l,CIB,2021_Aug_06_1344,WASABI Nback,2020.2.10,59.99649620587999,
0,1,7,"[-0.2, -0.2]",None,0,0,0,0,,,,,0,0,0,0,0,53,53,53,,,,,,,,,None,None,0,184.9392238999717,None,184.9392238999717,185.9392304001376,185.92254630010575,186.92256280011497,0,1,184.9392238999717,None,,,4,m,10,l,CIB,2021_Aug_06_1344,WASABI Nback,2020.2.10,59.99649620587999,
0,1,9,"[0.2, -0.2]",None,0,0,0,0,,,,,0,0,0,0,0,54,54,54,,,,,,,,,None,None,0,186.9392459001392,None,186.9392459001392,187.9392427999992,187.92256739991717,188.92257010005414,0,1,186.9392459001392,None,,,4,m,10,l,CIB,2021_Aug_06_1344,WASABI Nback,2020.2.10,59.99649620587999,
0,1,3,"[0.2, 0.2]",None,0,0,0,0,,,,,0,0,0,0,0,55,55,55,,,,,,,,,None,None,0,188.93924090010114,None,188.93924090010114,189.93925990001298,189.92258709995076,190.9226520000957,0,1,188.93924090010114,None,,,4,m,10,l,CIB,2021_Aug_06_1344,WASABI Nback,2020.2.10,59.99649620587999,
0,1,9,"[0.2, -0.2]",1,0,0,0,0,,,,,0,0,0,0,0,56,56,56,,,,,,,,,None,None,0,190.93927920004353,None,190.93927920004353,191.93924909993075,191.92253209999762,192.9226098000072,0,0,190.93927920004353,None,,,4,m,10,l,CIB,2021_Aug_06_1344,WASABI Nback,2020.2.10,59.99649620587999,
0,1,6,"[0.2, 0]",None,0,0,0,0,,,,,0,0,0,0,0,57,57,57,,,,,,,,,None,None,0,192.93926490005106,None,192.93926490005106,193.93928169994615,193.92260690010153,194.92263039993122,0,1,192.93926490005106,None,,,4,m,10,l,CIB,2021_Aug_06_1344,WASABI Nback,2020.2.10,59.99649620587999,
0,1,2,"[0, 0.2]",None,0,0,0,0,,,,,0,0,0,0,0,58,58,58,,,,,,,,,None,None,0,194.93928220006637,None,194.93928220006637,195.93928509997204,195.92263419996016,196.92263319995254,0,1,194.93928220006637,None,,,4,m,10,l,CIB,2021_Aug_06_1344,WASABI Nback,2020.2.10,59.99649620587999,
0,1,5,"[0, 0]",None,0,0,0,0,,,,,0,0,0,0,0,59,59,59,,,,,,,,,None,None,0,196.9393027999904,None,196.9393027999904,197.9393084999174,197.92265189997852,198.92265129997395,0,1,196.9393027999904,None,,,4,m,10,l,CIB,2021_Aug_06_1344,WASABI Nback,2020.2.10,59.99649620587999,
0,1,5,"[0, 0]",None,0,0,0,0,,,,,0,0,0,0,0,60,60,60,,,,,,,,,None,None,0,198.93931109993719,None,198.93931109993719,199.93932190001942,199.92266219994053,200.92267070012167,0,1,198.93931109993719,None,,,4,m,10,l,CIB,2021_Aug_06_1344,WASABI Nback,2020.2.10,59.99649620587999,
0,1,2,"[0, 0.2]",None,0,0,0,0,,,,,0,0,0,0,0,61,61,61,,,,,,,,,None,None,0,200.93933070008643,None,200.93933070008643,201.9393365001306,201.9226808999665,202.92264460003935,0,1,200.93933070008643,None,,,4,m,10,l,CIB,2021_Aug_06_1344,WASABI Nback,2020.2.10,59.99649620587999,
0,1,6,"[0.2, 0]",None,0,0,0,0,,,,,0,0,0,0,0,62,62,62,,,,,,,,,None,None,0,202.93934980011545,None,202.93934980011545,203.93935439991765,203.9227019001264,204.9227058000397,0,1,202.93934980011545,None,,,4,m,10,l,CIB,2021_Aug_06_1344,WASABI Nback,2020.2.10,59.99649620587999,
0,1,9,"[0.2, -0.2]",None,0,0,0,0,,,,,0,0,0,0,0,63,63,63,,,,,,,,,None,None,0,204.93935010000132,None,204.93935010000132,205.93937329994515,205.92270380002446,206.92274260008708,0,1,204.93935010000132,None,,,4,m,10,l,CIB,2021_Aug_06_1344,WASABI Nback,2020.2.10,59.99649620587999,
0,1,3,"[0.2, 0.2]",None,0,0,0,0,,,,,0,0,0,0,0,64,64,64,,,,,,,,,None,None,0,206.93937160004862,None,206.93937160004862,207.93939110008068,207.922728799982,208.92272479995154,0,1,206.93937160004862,None,,,4,m,10,l,CIB,2021_Aug_06_1344,WASABI Nback,2020.2.10,59.99649620587999,
0,1,9,"[0.2, -0.2]",1,0,0,0,0,,,,,0,0,0,0,0,65,65,65,,,,,,,,,None,None,0,208.93939640000463,None,208.93939640000463,209.9393962000031,209.92273360001855,210.92275199992582,0,0,208.93939640000463,None,,,4,m,10,l,CIB,2021_Aug_06_1344,WASABI Nback,2020.2.10,59.99649620587999,
0,1,7,"[-0.2, -0.2]",None,0,0,0,0,,,,,0,0,0,0,0,66,66,66,,,,,,,,,None,None,0,210.9394006000366,None,210.9394006000366,211.9394136001356,211.92275199992582,212.9227551999502,0,1,210.9394006000366,None,,,4,m,10,l,CIB,2021_Aug_06_1344,WASABI Nback,2020.2.10,59.99649620587999,
0,1,1,"[-0.2, 0.2]",None,0,0,0,0,,,,,0,0,0,0,0,67,67,67,,,,,,,,,None,None,0,212.9394195000641,None,212.9394195000641,213.93942399998195,213.9227716999594,214.92276340001263,0,1,212.9394195000641,None,,,4,m,10,l,CIB,2021_Aug_06_1344,WASABI Nback,2020.2.10,59.99649620587999,
0,1,5,"[0, 0]",None,0,0,0,0,,,,,0,0,0,0,0,68,68,68,,,,,,,,,None,None,0,214.93944200011902,None,214.93944200011902,215.93944480014034,215.92280220007524,216.9227962999139,0,1,214.93944200011902,None,,,4,m,10,l,CIB,2021_Aug_06_1344,WASABI Nback,2020.2.10,59.99649620587999,
0,1,7,"[-0.2, -0.2]",None,0,0,0,0,,,,,0,0,0,0,0,69,69,69,,,,,,,,,None,None,0,216.93945070006885,None,216.93945070006885,217.93945570010692,217.92279609991238,218.92282340000384,0,1,216.93945070006885,None,,,4,m,10,l,CIB,2021_Aug_06_1344,WASABI Nback,2020.2.10,59.99649620587999,
0,1,5,"[0, 0]",1,0,0,0,0,,,,,0,0,0,0,0,70,70,70,,,,,,,,,None,None,0,218.9394656000659,None,218.9394656000659,219.9394662999548,219.92281639995053,220.92282119998708,0,0,218.9394656000659,None,,,4,m,10,l,CIB,2021_Aug_06_1344,WASABI Nback,2020.2.10,59.99649620587999,
0,1,6,"[0.2, 0]",None,0,0,0,0,,,,,0,0,0,0,0,71,71,71,,,,,,,,,None,None,0,220.93948350008577,None,220.93948350008577,221.93948570010252,221.9228477999568,222.92286200006492,0,1,220.93948350008577,None,,,4,m,10,l,CIB,2021_Aug_06_1344,WASABI Nback,2020.2.10,59.99649620587999,
0,1,3,"[0.2, 0.2]",None,0,0,0,0,,,,,0,0,0,0,0,72,72,72,,,,,,,,,None,None,0,222.93951119994745,None,222.93951119994745,223.93951099994592,223.92284570005722,224.9228574000299,0,1,222.93951119994745,None,,,4,m,10,l,CIB,2021_Aug_06_1344,WASABI Nback,2020.2.10,59.99649620587999,
0,1,6,"[0.2, 0]",1,0,0,0,0,,,,,0,0,0,0,0,73,73,73,,,,,,,,,None,None,0,224.93945099995472,None,224.93945099995472,225.9395133999642,225.92284100013785,226.92286340007558,0,0,224.93945099995472,None,,,4,m,10,l,CIB,2021_Aug_06_1344,WASABI Nback,2020.2.10,59.99649620587999,
0,1,8,"[0, -0.2]",None,0,0,0,0,,,,,0,0,0,0,0,74,74,74,,,,,,,,,None,None,0,226.93952280003577,None,226.93952280003577,227.93953060009517,227.92287590005435,228.92288440000266,0,1,226.93952280003577,None,,,4,m,10,l,CIB,2021_Aug_06_1344,WASABI Nback,2020.2.10,59.99649620587999,
0,1,9,"[0.2, -0.2]",None,0,0,0,0,,,,,0,0,0,0,0,75,75,75,,,,,,,,,None,None,0,228.9395322999917,None,228.9395322999917,229.93954870011657,229.92288940004073,230.92289760010317,0,1,228.9395322999917,None,,,4,m,10,l,CIB,2021_Aug_06_1344,WASABI Nback,2020.2.10,59.99649620587999,
0,1,9,"[0.2, -0.2]",None,0,0,0,0,,,,,0,0,0,0,0,76,76,76,,,,,,,,,None,None,0,230.93955809995532,None,230.93955809995532,231.93956020008773,231.92292609997094,232.92293559992686,0,1,230.93955809995532,None,,,4,m,10,l,CIB,2021_Aug_06_1344,WASABI Nback,2020.2.10,59.99649620587999,
0,1,1,"[-0.2, 0.2]",None,0,0,0,0,,,,,0,0,0,0,0,77,77,77,,,,,,,,,None,None,0,232.93956420011818,None,232.93956420011818,233.9395723999478,233.92292320006527,234.9229437999893,0,1,232.93956420011818,None,,,4,m,10,l,CIB,2021_Aug_06_1344,WASABI Nback,2020.2.10,59.99649620587999,
0,1,3,"[0.2, 0.2]",None,0,0,0,0,,,,,0,0,0,0,0,78,78,78,,,,,,,,,None,None,0,234.93958110013045,None,234.93958110013045,235.93959380011074,235.92294960003346,236.92295129993,0,1,234.93958110013045,None,,,4,m,10,l,CIB,2021_Aug_06_1344,WASABI Nback,2020.2.10,59.99649620587999,
0,1,5,"[0, 0]",None,0,0,0,0,,,,,0,0,0,0,0,79,79,79,,,,,,,,,None,None,0,236.93960430007428,None,236.93960430007428,237.9395960001275,237.92295540007763,238.92297519999556,0,1,236.93960430007428,None,,,4,m,10,l,CIB,2021_Aug_06_1344,WASABI Nback,2020.2.10,59.99649620587999,
0,1,3,"[0.2, 0.2]",1,0,0,0,0,,,,,0,0,0,0,0,80,80,80,,,,,,,,,None,None,0,238.93962320010178,None,238.93962320010178,239.9394992000889,239.92297470010817,240.92298200004734,0,0,238.93962320010178,None,,,4,m,10,l,CIB,2021_Aug_06_1344,WASABI Nback,2020.2.10,59.99649620587999,
0,1,4,"[-0.2, 0]",None,0,0,0,0,,,,,0,0,0,0,0,81,81,81,,,,,,,,,None,None,0,240.93962189997546,None,240.93962189997546,241.93964270013385,241.92298069992103,242.92297870013863,0,1,240.93962189997546,None,,,4,m,10,l,CIB,2021_Aug_06_1344,WASABI Nback,2020.2.10,59.99649620587999,
0,1,7,"[-0.2, -0.2]",None,0,0,0,0,,,,,0,0,0,0,0,82,82,82,,,,,,,,,None,None,0,242.93964180001058,None,242.93964180001058,243.9396456000395,243.92297479999252,244.92300499998964,0,1,242.93964180001058,None,,,4,m,10,l,CIB,2021_Aug_06_1344,WASABI Nback,2020.2.10,59.99649620587999,
0,1,4,"[-0.2, 0]",1,0,0,0,0,,,,,0,0,0,0,0,83,83,83,,,,,,,,,None,None,0,244.93967469991185,None,244.93967469991185,245.93964929995127,245.92299470002763,246.92302750004455,0,0,244.93967469991185,None,,,4,m,10,l,CIB,2021_Aug_06_1344,WASABI Nback,2020.2.10,59.99649620587999,
0,1,4,"[-0.2, 0]",None,0,0,0,0,,,,,0,0,0,0,0,84,84,84,,,,,,,,,None,None,0,246.93966690008529,None,246.93966690008529,247.9396905999165,247.92302410001867,248.92302670003846,0,1,246.93966690008529,None,,,4,m,10,l,CIB,2021_Aug_06_1344,WASABI Nback,2020.2.10,59.99649620587999,
0,1,5,"[0, 0]",None,0,0,0,0,,,,,0,0,0,0,0,85,85,85,,,,,,,,,None,None,0,248.93968360009603,None,248.93968360009603,249.9396923999302,249.9230416000355,250.9230217000004,0,1,248.93968360009603,None,,,4,m,10,l,CIB,2021_Aug_06_1344,WASABI Nback,2020.2.10,59.99649620587999,
0,1,2,"[0, 0.2]",None,0,0,0,0,,,,,0,0,0,0,0,86,86,86,,,,,,,,,None,None,0,250.93971260008402,None,250.93971260008402,251.93970210012048,251.9230498999823,252.92306430009194,0,1,250.93971260008402,None,,,4,m,10,l,CIB,2021_Aug_06_1344,WASABI Nback,2020.2.10,59.99649620587999,
0,1,6,"[0.2, 0]",None,0,0,0,0,,,,,0,0,0,0,0,87,87,87,,,,,,,,,None,None,0,252.9397279000841,None,252.9397279000841,253.93973500002176,253.92305959993973,254.92308040009812,0,1,252.9397279000841,None,,,4,m,10,l,CIB,2021_Aug_06_1344,WASABI Nback,2020.2.10,59.99649620587999,
0,1,7,"[-0.2, -0.2]",None,0,0,0,0,,,,,0,0,0,0,0,88,88,88,,,,,,,,,None,None,0,254.93973190011457,None,254.93973190011457,255.93974689999595,255.92308850004338,256.9230744999368,0,1,254.93973190011457,None,,,4,m,10,l,CIB,2021_Aug_06_1344,WASABI Nback,2020.2.10,59.99649620587999,
0,1,6,"[0.2, 0]",1,0,0,0,0,,,,,0,0,0,0,0,89,89,89,,,,,,,,,None,None,0,256.9397571000736,None,256.9397571000736,257.939752999926,257.9230975001119,258.92311799991876,0,0,256.9397571000736,None,,,4,m,10,l,CIB,2021_Aug_06_1344,WASABI Nback,2020.2.10,59.99649620587999,
0,1,6,"[0.2, 0]",None,0,0,0,0,,,,,0,0,0,0,0,90,90,90,,,,,,,,,None,None,0,258.9397657001391,None,258.9397657001391,259.93978290003724,259.92308209999464,260.92311390000395,0,1,258.9397657001391,None,,,4,m,10,l,CIB,2021_Aug_06_1344,WASABI Nback,2020.2.10,59.99649620587999,
0,1,7,"[-0.2, -0.2]",None,0,0,0,0,,,,,0,0,0,0,0,91,91,91,,,,,,,,,None,None,0,260.939785100054,None,260.939785100054,261.93981060013175,261.92313689994626,262.9231346999295,0,1,260.939785100054,None,,,4,m,10,l,CIB,2021_Aug_06_1344,WASABI Nback,2020.2.10,59.99649620587999,
0,1,6,"[0.2, 0]",1,0,0,0,0,,,,,0,0,0,0,0,92,92,92,,,,,,,,,None,None,0,262.93980720010586,None,262.93980720010586,263.93983340007253,263.9231350000482,264.9230400000233,0,0,262.93980720010586,None,,,4,m,10,l,CIB,2021_Aug_06_1344,WASABI Nback,2020.2.10,59.99649620587999,
0,1,2,"[0, 0.2]",None,0,0,0,0,,,,,0,0,0,0,0,93,93,93,,,,,,,,,None,None,0,264.9398316000588,None,264.9398316000588,265.93982789991423,265.92315950011835,266.92317129997537,0,1,264.9398316000588,None,,,4,m,10,l,CIB,2021_Aug_06_1344,WASABI Nback,2020.2.10,59.99649620587999,
0,1,5,"[0, 0]",None,0,0,0,0,,,,,0,0,0,0,0,94,94,94,,,,,,,,,None,None,0,266.9398318999447,None,266.9398318999447,267.9398417000193,267.92317289998755,268.9231575001031,0,1,266.9398318999447,None,,,4,m,10,l,CIB,2021_Aug_06_1344,WASABI Nback,2020.2.10,59.99649620587999,
0,1,4,"[-0.2, 0]",None,0,0,0,0,,,,,0,0,0,0,0,95,95,95,,,,,,,,,None,None,0,268.93984619993716,None,268.93984619993716,269.93984710006043,269.92318299994804,270.92320420010947,0,1,268.93984619993716,None,,,4,m,10,l,CIB,2021_Aug_06_1344,WASABI Nback,2020.2.10,59.99649620587999,
0,1,4,"[-0.2, 0]",None,0,0,0,0,,,,,0,0,0,0,0,96,96,96,,,,,,,,,None,None,0,270.93987599993125,None,270.93987599993125,271.9398902999237,271.92320860014297,272.9232238000259,0,1,270.93987599993125,None,,,4,m,10,l,CIB,2021_Aug_06_1344,WASABI Nback,2020.2.10,59.99649620587999,
0,1,7,"[-0.2, -0.2]",None,0,0,0,0,,,,,0,0,0,0,0,97,97,97,,,,,,,,,None,None,0,272.9398787000682,None,272.9398787000682,273.93992360006087,273.9232266000472,274.92323240009136,0,1,272.9398787000682,None,,,4,m,10,l,CIB,2021_Aug_06_1344,WASABI Nback,2020.2.10,59.99649620587999,
0,1,4,"[-0.2, 0]",1,0,0,0,0,,,,,0,0,0,0,0,98,98,98,,,,,,,,,None,None,0,274.9398956000805,None,274.9398956000805,275.93992780009285,275.92324199993163,276.923247900093,0,0,274.9398956000805,None,,,4,m,10,l,CIB,2021_Aug_06_1344,WASABI Nback,2020.2.10,59.99649620587999,
0,1,3,"[0.2, 0.2]",None,0,0,0,0,,,,,0,0,0,0,0,99,99,99,,,,,,,,,None,None,0,276.939933600137,None,276.939933600137,277.939940799959,277.92325669992715,278.9232644001022,0,1,276.939933600137,None,,,4,m,10,l,CIB,2021_Aug_06_1344,WASABI Nback,2020.2.10,59.99649620587999,
0,1,5,"[0, 0]",None,0,0,0,0,,,,,0,0,0,0,0,100,100,100,,,,,,,,,None,None,0,278.93993870005943,None,278.93993870005943,279.93995589995757,279.92326730000786,280.92327739996836,0,1,278.93993870005943,None,,,4,m,10,l,CIB,2021_Aug_06_1344,WASABI Nback,2020.2.10,59.99649620587999,
0,1,3,"[0.2, 0.2]",1,0,0,0,0,,,,,0,0,0,0,0,101,101,101,,,,,,,,,None,None,0,280.939940799959,None,280.939940799959,281.93996990006417,281.92334190011024,282.92328749992885,0,0,280.939940799959,None,,,4,m,10,l,CIB,2021_Aug_06_1344,WASABI Nback,2020.2.10,59.99649620587999,
0,1,1,"[-0.2, 0.2]",None,0,0,0,0,,,,,0,0,0,0,0,102,102,102,,,,,,,,,None,None,0,282.9399776000064,None,282.9399776000064,283.93996190000325,283.9232890000567,284.923301700037,0,1,282.9399776000064,None,,,4,m,10,l,CIB,2021_Aug_06_1344,WASABI Nback,2020.2.10,59.99649620587999,
0,1,9,"[0.2, -0.2]",None,0,0,0,0,,,,,0,0,0,0,0,103,103,103,,,,,,,,,None,None,0,284.93997410009615,None,284.93997410009615,285.93997219996527,285.92331620003097,286.92331110010855,0,1,284.93997410009615,None,,,4,m,10,l,CIB,2021_Aug_06_1344,WASABI Nback,2020.2.10,59.99649620587999,
0,1,9,"[0.2, -0.2]",None,0,0,0,0,,,,,0,0,0,0,0,104,104,104,,,,,,,,,None,None,0,286.9399612999987,None,286.9399612999987,287.93998129991814,287.9233351999428,288.92333950009197,0,1,286.9399612999987,None,,,4,m,10,l,CIB,2021_Aug_06_1344,WASABI Nback,2020.2.10,59.99649620587999,
0,1,8,"[0, -0.2]",None,0,0,0,0,,,,,0,0,0,0,0,105,105,105,,,,,,,,,None,None,0,288.94003379996866,None,288.94003379996866,289.9399947000202,289.9233329000417,290.92335220007226,0,1,288.94003379996866,None,,,4,m,10,l,CIB,2021_Aug_06_1344,WASABI Nback,2020.2.10,59.99649620587999,
0,1,6,"[0.2, 0]",None,0,0,0,0,,,,,0,0,0,0,0,106,106,106,,,,,,,,,None,None,0,290.94000570010394,None,290.94000570010394,291.940016400069,291.923355899984,292.9233583000023,0,1,290.94000570010394,None,,,4,m,10,l,CIB,2021_Aug_06_1344,WASABI Nback,2020.2.10,59.99649620587999,
0,1,3,"[0.2, 0.2]",None,0,0,0,0,,,,,0,0,0,0,0,107,107,107,,,,,,,,,None,None,0,292.9400188000873,None,292.9400188000873,293.9400520999916,293.9233999000862,294.92338069994,0,1,292.9400188000873,None,,,4,m,10,l,CIB,2021_Aug_06_1344,WASABI Nback,2020.2.10,59.99649620587999,
0,1,6,"[0.2, 0]",1,0,0,0,0,,,,,0,0,0,0,0,108,108,108,,,,,,,,,None,None,0,294.9400420000311,None,294.9400420000311,295.9400392000098,295.9233748000115,296.923409699928,0,0,294.9400420000311,None,,,4,m,10,l,CIB,2021_Aug_06_1344,WASABI Nback,2020.2.10,59.99649620587999,
0,1,5,"[0, 0]",None,0,0,0,0,,,,,0,0,0,0,0,109,109,109,,,,,,,,,None,None,0,296.9400480000768,None,296.9400480000768,297.94005040009506,297.9233987000771,298.92340030008927,0,1,296.9400480000768,None,,,4,m,10,l,CIB,2021_Aug_06_1344,WASABI Nback,2020.2.10,59.99649620587999,
0,1,7,"[-0.2, -0.2]",None,0,0,0,0,,,,,0,0,0,0,0,110,110,110,,,,,,,,,None,None,0,298.94006230006926,None,298.94006230006926,299.9400707001332,299.9234277000651,300.92343680001795,0,1,298.94006230006926,None,,,4,m,10,l,CIB,2021_Aug_06_1344,WASABI Nback,2020.2.10,59.99649620587999,
0,1,5,"[0, 0]",1,0,0,0,0,,,,,0,0,0,0,0,111,111,111,,,,,,,,,None,None,0,300.9400774000678,None,300.9400774000678,301.9400945000816,301.9234408000484,302.9234464999754,0,0,300.9400774000678,None,,,4,m,10,l,CIB,2021_Aug_06_1344,WASABI Nback,2020.2.10,59.99649620587999,
0,1,1,"[-0.2, 0.2]",None,0,0,0,0,,,,,0,0,0,0,0,112,112,112,,,,,,,,,None,None,0,302.9400969000999,None,302.9400969000999,303.9400281000417,303.923442899948,304.92344509996474,0,1,302.9400969000999,None,,,4,m,10,l,CIB,2021_Aug_06_1344,WASABI Nback,2020.2.10,59.99649620587999,
0,1,7,"[-0.2, -0.2]",None,0,0,0,0,,,,,0,0,0,0,0,113,113,113,,,,,,,,,None,None,0,304.9401124001015,None,304.9401124001015,305.9401227000635,305.9234744999558,306.92347020003945,0,1,304.9401124001015,None,,,4,m,10,l,CIB,2021_Aug_06_1344,WASABI Nback,2020.2.10,59.99649620587999,
0,1,9,"[0.2, -0.2]",None,0,0,0,0,,,,,0,0,0,0,0,114,114,114,,,,,,,,,None,None,0,306.940123999957,None,306.940123999957,307.9401436999906,307.92348130000755,308.92348830006085,0,1,306.940123999957,None,,,4,m,10,l,CIB,2021_Aug_06_1344,WASABI Nback,2020.2.10,59.99649620587999,
0,1,3,"[0.2, 0.2]",None,0,0,0,0,,,,,0,0,0,0,0,115,115,115,,,,,,,,,None,None,0,308.940137000056,None,308.940137000056,309.94014020008035,309.92349770013243,310.92348810005933,0,1,308.940137000056,None,,,4,m,10,l,CIB,2021_Aug_06_1344,WASABI Nback,2020.2.10,59.99649620587999,
0,1,9,"[0.2, -0.2]",1,0,0,0,0,,,,,0,0,0,0,0,116,116,116,,,,,,,,,None,None,0,310.94016860006377,None,310.94016860006377,311.940167899942,311.9235092001036,312.92352010007016,0,0,310.94016860006377,None,,,4,m,10,l,CIB,2021_Aug_06_1344,WASABI Nback,2020.2.10,59.99649620587999,
0,1,6,"[0.2, 0]",None,0,0,0,0,,,,,0,0,0,0,0,117,117,117,,,,,,,,,None,None,0,312.94016740005463,None,312.94016740005463,313.9401748999953,313.92352760001086,314.9235275001265,0,1,312.94016740005463,None,,,4,m,10,l,CIB,2021_Aug_06_1344,WASABI Nback,2020.2.10,59.99649620587999,
0,1,2,"[0, 0.2]",None,0,0,0,0,,,,,0,0,0,0,0,118,118,118,,,,,,,,,None,None,0,314.940181999933,None,314.940181999933,315.94018650008366,315.9235427000094,316.92355850012973,0,1,314.940181999933,None,,,4,m,10,l,CIB,2021_Aug_06_1344,WASABI Nback,2020.2.10,59.99649620587999,
0,1,5,"[0, 0]",None,0,0,0,0,,,,,0,0,0,0,0,119,119,119,,,,,,,,,None,None,0,316.9402252000291,None,316.9402252000291,317.9402123999316,317.9235710001085,318.9235674000811,0,1,316.9402252000291,None,,,4,m,10,l,CIB,2021_Aug_06_1344,WASABI Nback,2020.2.10,59.99649620587999,
1,0,,,,0,1,1,1,0,0,0,0,,,,,,,,,,,,,,,,,,,,,,,,,,,,,,376.5406542001292,None,4,m,10,l,CIB,2021_Aug_06_1344,WASABI Nback,2020.2.10,59.99649620587999,
