	SID	date	sex	session	handedness	scanner	onset	duration	repetition	rating	body_site	keys	temperature	conditionrt	mouseclick	biopac_channel	condition	rt	value
0	3198	2025_Sep_17_1828	f	1	r	ss mrs	2.7748478000285104	5.006551309139468								19	Instructions		
1	3198	2025_Sep_17_1828	f	1	r	ss mrs	8.496962900040671	2.0090397599851713								6	Cue		
2	3198	2025_Sep_17_1828	f	1	r	ss mrs	10.504827800090425	3.9985303898574784								7	Pre-Jitter		
3	3198	2025_Sep_17_1828	f	1	r	ss mrs	14.54091330000665	15.009106470039114			Right Arm		48.0			14	Heat-Stimulation		
4	3198	2025_Sep_17_1828	f	1	r	ss mrs	29.63385580002796	5.006955340038985								8	Mid-Jitter		
5	3198	2025_Sep_17_1828	f	1	r	ss mrs	34.656660399981774	5.003153380122967								20	PainBinary	1.3514408000046387	1.0
6	3198	2025_Sep_17_1828	f	1	r	ss mrs	39.67794820002746	5.002380780060776								21	IntensityRating	1.1357183000072837	56.777777777777786
7	3198	2025_Sep_17_1828	f	1	r	ss mrs	44.696699000080116	5.006720680161379								22	ToleranceRating	2.502411099965684	-1.0
8	3198	2025_Sep_17_1828	f	1	r	ss mrs	49.706489600008354	5.012284989934415								9	Post-Q-Jitter		
9	3198	2025_Sep_17_1828	f	1	r	ss mrs	56.18650609999895	2.0103074100334197								6	Cue		
10	3198	2025_Sep_17_1828	f	1	r	ss mrs	58.194448800059035	3.9998188900062814								7	Pre-Jitter		
11	3198	2025_Sep_17_1828	f	1	r	ss mrs	62.21352540003136	15.011077580042183			Right Arm		47.5			14	Heat-Stimulation		
12	3198	2025_Sep_17_1828	f	1	r	ss mrs	77.3087335000746	5.004364839987829								8	Mid-Jitter		
13	3198	2025_Sep_17_1828	f	1	r	ss mrs	82.33096310007386	5.018427680013701								20	PainBinary	1.4681462000589818	1.0
14	3198	2025_Sep_17_1828	f	1	r	ss mrs	87.368233300047	5.019045880064368								21	IntensityRating	2.6358443999197334	57.50000000000001
15	3198	2025_Sep_17_1828	f	1	r	ss mrs	92.40355050005019	5.006898380001076								22	ToleranceRating	2.0689433999359608	-1.0
16	3198	2025_Sep_17_1828	f	1	r	ss mrs	97.4140148999868	5.01113388990052								9	Post-Q-Jitter		
17	3198	2025_Sep_17_1828	f	1	r	ss mrs	103.90399530006107	2.0059207099257037								6	Cue		
18	3198	2025_Sep_17_1828	f	1	r	ss mrs	105.91840900003444	8.002565589966252								7	Pre-Jitter		
19	3198	2025_Sep_17_1828	f	1	r	ss mrs	113.95061300008092	15.024288070038892			Right Arm		47.0			14	Heat-Stimulation		
20	3198	2025_Sep_17_1828	f	1	r	ss mrs	129.04544030001853	9.021727740066126								8	Mid-Jitter		
21	3198	2025_Sep_17_1828	f	1	r	ss mrs	138.0795571000781	5.015366580104455								20	PainBinary	3.253000299911946	1.0
22	3198	2025_Sep_17_1828	f	1	r	ss mrs	143.11669729999267	5.016267880098894								21	IntensityRating	2.4356561000458896	41.05555555555556
23	3198	2025_Sep_17_1828	f	1	r	ss mrs	148.15103140007704	5.006072680116631								22	ToleranceRating	1.5033671000273898	-1.0
24	3198	2025_Sep_17_1828	f	1	r	ss mrs	153.16104919998907	9.01456178992521								9	Post-Q-Jitter		
25	3198	2025_Sep_17_1828	f	1	r	ss mrs	163.65488819999155	2.005052010063082								6	Cue		
26	3198	2025_Sep_17_1828	f	1	r	ss mrs	165.66821630008053	4.000465789926238								7	Pre-Jitter		
27	3198	2025_Sep_17_1828	f	1	r	ss mrs	169.69622380007058	15.02720146998763			Right Arm		46.5			14	Heat-Stimulation		
28	3198	2025_Sep_17_1828	f	1	r	ss mrs	184.80072579998523	7.003603940014727								8	Mid-Jitter		
29	3198	2025_Sep_17_1828	f	1	r	ss mrs	191.82456710003316	5.016118280123919								20	PainBinary	1.4514867999823764	1.0
30	3198	2025_Sep_17_1828	f	1	r	ss mrs	196.85937740001827	5.004931780043989								21	IntensityRating	1.785110800061375	41.166666666666664
31	3198	2025_Sep_17_1828	f	1	r	ss mrs	201.88051070005167	5.004480780102313								22	ToleranceRating	1.73504179995507	-1.0
32	3198	2025_Sep_17_1828	f	1	r	ss mrs	206.88944870000705	7.013490989920683								9	Post-Q-Jitter		
33	3198	2025_Sep_17_1828	f	1	r	ss mrs	214.6070858000312	2.0035080700181425								6	Cue		
34	3198	2025_Sep_17_1828	f	1	r	ss mrs	216.61075410002377	4.0014178899582475								7	Pre-Jitter		
35	3198	2025_Sep_17_1828	f	1	r	ss mrs	220.67287330003455	15.02665314998012			Right Arm		46.0			14	Heat-Stimulation		
36	3198	2025_Sep_17_1828	f	1	r	ss mrs	235.77451300004032	9.010458040051162								8	Mid-Jitter		
37	3198	2025_Sep_17_1828	f	1	r	ss mrs	244.80165140004829	5.018059880007058								20	PainBinary	3.2889926000498235	-1.0
38	3198	2025_Sep_17_1828	f	1	r	ss mrs	259.830399800092	9.00361468968913								9	Post-Q-Jitter		
39	3198	2025_Sep_17_1828	f	1	r	ss mrs	270.29597920004744	2.002897819969803								6	Cue		
40	3198	2025_Sep_17_1828	f	1	r	ss mrs	272.30830360006075	6.002014189958572								7	Pre-Jitter		
41	3198	2025_Sep_17_1828	f	1	r	ss mrs	278.3423625000287	15.01836727000773			Right Arm		46.0			14	Heat-Stimulation		
42	3198	2025_Sep_17_1828	f	1	r	ss mrs	293.4424264000263	9.005352640058845								8	Mid-Jitter		
43	3198	2025_Sep_17_1828	f	1	r	ss mrs	302.4680579000851	5.01596148009412								20	PainBinary	2.685833499999717	-1.0
44	3198	2025_Sep_17_1828	f	1	r	ss mrs	317.49592470005155	9.003305589663796								9	Post-Q-Jitter		
45	3198	2025_Sep_17_1828	f	1	r	ss mrs	328.05136090004817	2.0063546600285918								6	Cue		
46	3198	2025_Sep_17_1828	f	1	r	ss mrs	330.0566649000393	4.001151690026745								7	Pre-Jitter		
47	3198	2025_Sep_17_1828	f	1	r	ss mrs	334.09624009998515	15.02142827003263			Right Arm		46.0			14	Heat-Stimulation		
48	3198	2025_Sep_17_1828	f	1	r	ss mrs	349.202317200019	9.013082340010442								8	Mid-Jitter		
49	3198	2025_Sep_17_1828	f	1	r	ss mrs	358.2310066000791	5.01757978007663								20	PainBinary	1.6200883999699727	-1.0
50	3198	2025_Sep_17_1828	f	1	r	ss mrs	373.25967599998694	9.003243089653552								9	Post-Q-Jitter		
51	3198	2025_Sep_17_1828	f	1	r	ss mrs	382.29167760000564	5.8876688700402156								26	ComfortRating	5.855235899914987	24.666666666666686
52	3198	2025_Sep_17_1828	f	1	r	ss mrs	388.19214739999734	3.1110533800674602								24	ValenceRating	3.0862092999741435	91.22222222222221
53	3198	2025_Sep_17_1828	f	1	r	ss mrs	391.32170199998654	1.7227312800241634								26	IntensityRating	1.7017585000721738	90.66666666666666
54	3198	2025_Sep_17_1828	f	1	r	ss mrs	393.0587873000186	5.087680480093695								27	AvoidanceRating	5.071267899940722	55.55555555555557
55	3198	2025_Sep_17_1828	f	1	r	ss mrs	398.1592080000555	1.99289158009924								28	RelaxationRating	1.9545962999109179	80.22222222222223
56	3198	2025_Sep_17_1828	f	1	r	ss mrs	400.16752730007283	3.013742179959081								29	AttentionRating	2.98606510006357	62.88888888888889
57	3198	2025_Sep_17_1828	f	1	r	ss mrs	403.1994599000318	2.6880293800495565								30	BoredomRating	2.6692116000922397	65.38888888888889
58	3198	2025_Sep_17_1828	f	1	r	ss mrs	405.9013368000742	4.3736326799262315								31	AlertnessRating	4.3540584000293165	-22.33333333333333
59	3198	2025_Sep_17_1828	f	1	r	ss mrs	410.28869580000173	4.689917779993266								32	PosThxRating	4.670917500043288	-20.66666666666667
60	3198	2025_Sep_17_1828	f	1	r	ss mrs	414.99237750004977	2.054964379989542								33	NegThxRating	2.0353873000713065	18.22222222222223
61	3198	2025_Sep_17_1828	f	1	r	ss mrs	417.06072419998236	2.0217586799990386								34	SelfRating	1.987970299902372	25.333333333333314
62	3198	2025_Sep_17_1828	f	1	r	ss mrs	419.0942928000586	1.1740575799485669								35	OtherRating	1.151353600085713	27.0
63	3198	2025_Sep_17_1828	f	1	r	ss mrs	420.2826234999811	3.0342131800716743								32	ImageryRating	3.0027553000254557	46.77777777777777
64	3198	2025_Sep_17_1828	f	1	r	ss mrs	423.3345578000881	2.4182770801708102								37	PresentRating	2.40344600006938	-38.22222222222222
