square,location,corrAns,trials.thisRepN,trials.thisTrialN,trials.thisN,trials.thisIndex,trials_2.thisRepN,trials_2.thisTrialN,trials_2.thisN,trials_2.thisIndex,fixation_1.started,fixation_1.stopped,grid_lines.started,grid_lines.stopped,target_square.started,target_square.stopped,fixation_2.started,fixation_2.stopped,response.corr,response.x,response.y,response.leftButton,response.click_left,response.click_right,response.started,response.stopped,response.rt_left,response.rt_right,ScoreReportText.started,ScoreReportText.stopped,ScoreReportResponse.keys,ScoreReportResponse.started,ScoreReportResponse.stopped,response_2.x,response_2.y,response_2.leftButton,grid_lines_2.started,grid_lines_2.stopped,target_square_2.started,target_square_2.stopped,fixation_3.started,fixation_3.stopped,response_2.click,response_2.corr,response_2.started,response_2.stopped,BodySiteInstructionText.started,BodySiteImg.started,BodySiteImg.stopped,BodySiteInstructionRead.keys,BodySiteInstructionRead.rt,BodySiteInstructionRead.started,BodySiteInstructionRead.stopped,response.click,IntensityRating.response,IntensityRating.rt,IntensityRating.started,IntensityRating.stopped,subject number,gender,distractMap first- or second-half (1 or 2),session,handedness,scanner,date,psychopyVersion,expName,frameRate,body_site_order,
6,"[0.2, 0]",None,0,0,0,0,,,,,872.4663571999408,None,873.4830521999393,None,873.4830521999393,874.4830308998935,874.4663758999668,875.4663726000581,1,0.001851851851851852,0.06481481481481481,"[0, 0, 0]",0,0,873.4830521999393,None,,,,,,,,,,,,,,,,,,,,,,,,,,,,,,,,,1,M,2,24,r,MCK,2021_Oct_03_0934,2020.2.10,distractmap2,59.99070144031131,"['Left Face', 'Right Arm', 'Left Leg', 'Abdomen']",
6,"[0.2, 0]",1,0,1,1,1,,,,,,,875.483052900061,None,875.483052900061,876.4830501000397,876.4663698000368,877.4663960998878,1,0.001851851851851852,0.06481481481481481,"[0, 0, 0]",0,0,875.483052900061,None,,,,,,,,,,,,,,,,,,,,,,,,,,,,,,,,,1,M,2,24,r,MCK,2021_Oct_03_0934,2020.2.10,distractmap2,59.99070144031131,"['Left Face', 'Right Arm', 'Left Leg', 'Abdomen']",
2,"[0, 0.2]",0,0,2,2,2,,,,,,,877.4830731998663,None,877.4830731998663,878.4830706000794,878.466393099865,879.4664096999913,1,0.001851851851851852,0.06481481481481481,"[0, 0, 0]",0,0,877.4830731998663,None,,,,,,,,,,,,,,,,,,,,,,,,,,,,,,,,,1,M,2,24,r,MCK,2021_Oct_03_0934,2020.2.10,distractmap2,59.99070144031131,"['Left Face', 'Right Arm', 'Left Leg', 'Abdomen']",
9,"[0.2, -0.2]",0,0,3,3,3,,,,,,,879.4830732999835,None,879.4830732999835,880.483097899938,880.4664221000858,881.4664238998666,1,0.001851851851851852,0.06481481481481481,"[0, 0, 0]",0,0,879.4830732999835,None,,,,,,,,,,,,,,,,,,,,,,,,,,,,,,,,,1,M,2,24,r,MCK,2021_Oct_03_0934,2020.2.10,distractmap2,59.99070144031131,"['Left Face', 'Right Arm', 'Left Leg', 'Abdomen']",
9,"[0.2, -0.2]",1,0,4,4,4,,,,,,,881.4830821999349,None,881.4830821999349,882.4830251000822,882.4664179000538,883.4664580998942,1,0.001851851851851852,0.06481481481481481,"[0, 0, 0]",0,0,881.4830821999349,None,,,,,,,,,,,,,,,,,,,,,,,,,,,,,,,,,1,M,2,24,r,MCK,2021_Oct_03_0934,2020.2.10,distractmap2,59.99070144031131,"['Left Face', 'Right Arm', 'Left Leg', 'Abdomen']",
6,"[0.2, 0]",0,0,5,5,5,,,,,,,883.483111999929,None,883.483111999929,884.4831004000735,884.466425999999,885.4664582000114,1,0.001851851851851852,0.06481481481481481,"[0, 0, 0]",0,0,883.483111999929,None,,,,,,,,,,,,,,,,,,,,,,,,,,,,,,,,,1,M,2,24,r,MCK,2021_Oct_03_0934,2020.2.10,distractmap2,59.99070144031131,"['Left Face', 'Right Arm', 'Left Leg', 'Abdomen']",
4,"[-0.2, 0]",0,0,6,6,6,,,,,,,885.4831077000126,None,885.4831077000126,886.4831453000661,886.4664509000722,887.4664515000768,1,0.001851851851851852,0.06481481481481481,"[0, 0, 0]",0,0,885.4831077000126,None,,,,,,,,,,,,,,,,,,,,,,,,,,,,,,,,,1,M,2,24,r,MCK,2021_Oct_03_0934,2020.2.10,distractmap2,59.99070144031131,"['Left Face', 'Right Arm', 'Left Leg', 'Abdomen']",
3,"[0.2, 0.2]",0,0,7,7,7,,,,,,,887.4831214000005,None,887.4831214000005,888.4831286999397,888.4664795999415,889.4664763000328,1,0.001851851851851852,0.06481481481481481,"[1, 0, 0]",1,0,887.4831214000005,None,1.830550900194794,0.56387950014323,,,,,,,,,,,,,,,,,,,,,,,,,,,,,,,1,M,2,24,r,MCK,2021_Oct_03_0934,2020.2.10,distractmap2,59.99070144031131,"['Left Face', 'Right Arm', 'Left Leg', 'Abdomen']",
3,"[0.2, 0.2]",1,0,8,8,8,,,,,,,889.4831526998896,None,889.4831526998896,890.4831421000417,890.4664797000587,891.4664944999386,1,0.001851851851851852,0.06481481481481481,"[0, 0, 0]",0,0,889.4831526998896,None,,,,,,,,,,,,,,,,,,,,,,,,,,,,,,,,,1,M,2,24,r,MCK,2021_Oct_03_0934,2020.2.10,distractmap2,59.99070144031131,"['Left Face', 'Right Arm', 'Left Leg', 'Abdomen']",
8,"[0, -0.2]",0,0,9,9,9,,,,,,,891.4831564000342,None,891.4831564000342,892.483178100083,892.4664948999416,893.4665145999752,1,0.001851851851851852,0.06481481481481481,"[0, 0, 0]",0,0,891.4831564000342,None,,,,,,,,,,,,,,,,,,,,,,,,,,,,,,,,,1,M,2,24,r,MCK,2021_Oct_03_0934,2020.2.10,distractmap2,59.99070144031131,"['Left Face', 'Right Arm', 'Left Leg', 'Abdomen']",
1,"[-0.2, 0.2]",0,0,10,10,10,,,,,,,893.4831578000449,None,893.4831578000449,894.4831705999095,894.46652180003,895.4665165999904,1,0.001851851851851852,0.06481481481481481,"[0, 0, 0]",0,0,893.4831578000449,None,,,,,,,,,,,,,,,,,,,,,,,,,,,,,,,,,1,M,2,24,r,MCK,2021_Oct_03_0934,2020.2.10,distractmap2,59.99070144031131,"['Left Face', 'Right Arm', 'Left Leg', 'Abdomen']",
2,"[0, 0.2]",0,0,11,11,11,,,,,,,895.4831763999537,None,895.4831763999537,896.4831928000785,896.4665204999037,897.466540500056,1,0.001851851851851852,0.06481481481481481,"[0, 0, 0]",0,0,895.4831763999537,None,,,,,,,,,,,,,,,,,,,,,,,,,,,,,,,,,1,M,2,24,r,MCK,2021_Oct_03_0934,2020.2.10,distractmap2,59.99070144031131,"['Left Face', 'Right Arm', 'Left Leg', 'Abdomen']",
4,"[-0.2, 0]",0,0,12,12,12,,,,,,,897.4831916999537,None,897.4831916999537,898.4832176999189,898.4665427000728,899.466542399954,1,0.001851851851851852,0.06481481481481481,"[0, 0, 0]",0,0,897.4831916999537,None,,,,,,,,,,,,,,,,,,,,,,,,,,,,,,,,,1,M,2,24,r,MCK,2021_Oct_03_0934,2020.2.10,distractmap2,59.99070144031131,"['Left Face', 'Right Arm', 'Left Leg', 'Abdomen']",
4,"[-0.2, 0]",1,0,13,13,13,,,,,,,899.4832071999554,None,899.4832071999554,900.4832218999509,900.4665663000196,901.4665697000455,1,0.001851851851851852,0.06481481481481481,"[0, 0, 0]",0,0,899.4832071999554,None,,,,,,,,,,,,,,,,,,,,,,,,,,,,,,,,,1,M,2,24,r,MCK,2021_Oct_03_0934,2020.2.10,distractmap2,59.99070144031131,"['Left Face', 'Right Arm', 'Left Leg', 'Abdomen']",
8,"[0, -0.2]",0,0,14,14,14,,,,,,,901.4832232000772,None,901.4832232000772,902.4832347999327,902.4665578000713,903.4665733000729,1,0.001851851851851852,0.06481481481481481,"[0, 0, 0]",0,0,901.4832232000772,None,,,,,,,,,,,,,,,,,,,,,,,,,,,,,,,,,1,M,2,24,r,MCK,2021_Oct_03_0934,2020.2.10,distractmap2,59.99070144031131,"['Left Face', 'Right Arm', 'Left Leg', 'Abdomen']",
5,"[0, 0]",0,0,15,15,15,,,,,,,903.4832375000697,None,903.4832375000697,904.4832415999845,904.46658509993,905.466603100067,1,0.001851851851851852,0.06481481481481481,"[0, 0, 0]",0,0,903.4832375000697,None,,,,,,,,,,,,,,,,,,,,,,,,,,,,,,,,,1,M,2,24,r,MCK,2021_Oct_03_0934,2020.2.10,distractmap2,59.99070144031131,"['Left Face', 'Right Arm', 'Left Leg', 'Abdomen']",
5,"[0, 0]",1,0,16,16,16,,,,,,,905.4832576999906,None,905.4832576999906,906.4832564999815,906.4666061999742,907.4666015999392,1,0.001851851851851852,0.06481481481481481,"[0, 0, 0]",0,0,905.4832576999906,None,,,,,,,,,,,,,,,,,,,,,,,,,,,,,,,,,1,M,2,24,r,MCK,2021_Oct_03_0934,2020.2.10,distractmap2,59.99070144031131,"['Left Face', 'Right Arm', 'Left Leg', 'Abdomen']",
1,"[-0.2, 0.2]",0,0,17,17,17,,,,,,,907.4832589998841,None,907.4832589998841,908.483280699933,908.4666184000671,909.4666347000748,1,0.001851851851851852,0.06481481481481481,"[0, 0, 0]",0,0,907.4832589998841,None,,,,,,,,,,,,,,,,,,,,,,,,,,,,,,,,,1,M,2,24,r,MCK,2021_Oct_03_0934,2020.2.10,distractmap2,59.99070144031131,"['Left Face', 'Right Arm', 'Left Leg', 'Abdomen']",
3,"[0.2, 0.2]",0,0,18,18,18,,,,,,,909.4832899998873,None,909.4832899998873,910.4833066998981,910.4666007999331,911.4666462999303,1,0.001851851851851852,0.06481481481481481,"[0, 0, 0]",0,0,909.4832899998873,None,,,,,,,,,,,,,,,,,,,,,,,,,,,,,,,,,1,M,2,24,r,MCK,2021_Oct_03_0934,2020.2.10,distractmap2,59.99070144031131,"['Left Face', 'Right Arm', 'Left Leg', 'Abdomen']",
6,"[0.2, 0]",0,0,19,19,19,,,,,,,911.4833106000442,None,911.4833106000442,912.4833003999665,912.4666395999957,913.4666559000034,1,0.001851851851851852,0.06481481481481481,"[0, 0, 0]",0,0,911.4833106000442,None,,,,,,,,,,,,,,,,,,,,,,,,,,,,,,,,,1,M,2,24,r,MCK,2021_Oct_03_0934,2020.2.10,distractmap2,59.99070144031131,"['Left Face', 'Right Arm', 'Left Leg', 'Abdomen']",
1,"[-0.2, 0.2]",0,0,20,20,20,,,,,,,913.4833070000168,None,913.4833070000168,914.4833323999774,914.4666722000111,915.4666641000658,1,0.001851851851851852,0.06481481481481481,"[0, 0, 0]",0,0,913.4833070000168,None,,,,,,,,,,,,,,,,,,,,,,,,,,,,,,,,,1,M,2,24,r,MCK,2021_Oct_03_0934,2020.2.10,distractmap2,59.99070144031131,"['Left Face', 'Right Arm', 'Left Leg', 'Abdomen']",
1,"[-0.2, 0.2]",1,0,21,21,21,,,,,,,915.4833241000306,None,915.4833241000306,916.4833311999682,916.4666742000263,917.4666810000781,1,0.001851851851851852,0.06481481481481481,"[0, 0, 0]",0,0,915.4833241000306,None,,,,,,,,,,,,,,,,,,,,,,,,,,,,,,,,,1,M,2,24,r,MCK,2021_Oct_03_0934,2020.2.10,distractmap2,59.99070144031131,"['Left Face', 'Right Arm', 'Left Leg', 'Abdomen']",
1,"[-0.2, 0.2]",1,0,22,22,22,,,,,,,917.4833500999957,None,917.4833500999957,918.4833559999242,918.4666800000705,919.466702299891,1,0.001851851851851852,0.06481481481481481,"[0, 0, 0]",0,0,917.4833500999957,None,,,,,,,,,,,,,,,,,,,,,,,,,,,,,,,,,1,M,2,24,r,MCK,2021_Oct_03_0934,2020.2.10,distractmap2,59.99070144031131,"['Left Face', 'Right Arm', 'Left Leg', 'Abdomen']",
3,"[0.2, 0.2]",0,0,23,23,23,,,,,,,919.4833792999852,None,919.4833792999852,920.4833706000354,920.4666915000416,921.4667048000265,1,0.001851851851851852,0.06481481481481481,"[0, 0, 0]",0,0,919.4833792999852,None,,,,,,,,,,,,,,,,,,,,,,,,,,,,,,,,,1,M,2,24,r,MCK,2021_Oct_03_0934,2020.2.10,distractmap2,59.99070144031131,"['Left Face', 'Right Arm', 'Left Leg', 'Abdomen']",
2,"[0, 0.2]",0,0,24,24,24,,,,,,,921.4833650998771,None,921.4833650998771,922.4833907999564,922.4667183998972,923.4667181000113,1,0.001851851851851852,0.06481481481481481,"[0, 0, 0]",0,0,921.4833650998771,None,,,,,,,,,,,,,,,,,,,,,,,,,,,,,,,,,1,M,2,24,r,MCK,2021_Oct_03_0934,2020.2.10,distractmap2,59.99070144031131,"['Left Face', 'Right Arm', 'Left Leg', 'Abdomen']",
1,"[-0.2, 0.2]",0,0,25,25,25,,,,,,,923.4833843999077,None,923.4833843999077,924.4833865999244,924.4667291999795,925.4666788000613,1,0.001851851851851852,0.06481481481481481,"[0, 0, 0]",0,0,923.4833843999077,None,,,,,,,,,,,,,,,,,,,,,,,,,,,,,,,,,1,M,2,24,r,MCK,2021_Oct_03_0934,2020.2.10,distractmap2,59.99070144031131,"['Left Face', 'Right Arm', 'Left Leg', 'Abdomen']",
7,"[-0.2, -0.2]",0,0,26,26,26,,,,,,,925.4834102999885,None,925.4834102999885,926.4834171000402,926.4667447998654,927.4667461998761,1,0.001851851851851852,0.06481481481481481,"[0, 0, 0]",0,0,925.4834102999885,None,,,,,,,,,,,,,,,,,,,,,,,,,,,,,,,,,1,M,2,24,r,MCK,2021_Oct_03_0934,2020.2.10,distractmap2,59.99070144031131,"['Left Face', 'Right Arm', 'Left Leg', 'Abdomen']",
7,"[-0.2, -0.2]",1,0,27,27,27,,,,,,,927.4834102999885,None,927.4834102999885,928.483435299946,928.4667670000345,929.4667599999812,1,0.001851851851851852,0.06481481481481481,"[0, 0, 0]",0,0,927.4834102999885,None,,,,,,,,,,,,,,,,,,,,,,,,,,,,,,,,,1,M,2,24,r,MCK,2021_Oct_03_0934,2020.2.10,distractmap2,59.99070144031131,"['Left Face', 'Right Arm', 'Left Leg', 'Abdomen']",
2,"[0, 0.2]",0,0,28,28,28,,,,,,,929.4834237999748,None,929.4834237999748,930.4834511000663,930.4667507999111,931.466785900062,1,0.001851851851851852,0.06481481481481481,"[0, 0, 0]",0,0,929.4834237999748,None,,,,,,,,,,,,,,,,,,,,,,,,,,,,,,,,,1,M,2,24,r,MCK,2021_Oct_03_0934,2020.2.10,distractmap2,59.99070144031131,"['Left Face', 'Right Arm', 'Left Leg', 'Abdomen']",
6,"[0.2, 0]",0,0,29,29,29,,,,,,,931.4833688000217,None,931.4833688000217,932.4834519000724,932.4667730000801,933.4667837000452,1,0.001851851851851852,0.06481481481481481,"[0, 0, 0]",0,0,931.4833688000217,None,,,,,,,,,,,,,,,,,,,,,,,,,,,,,,,,,1,M,2,24,r,MCK,2021_Oct_03_0934,2020.2.10,distractmap2,59.99070144031131,"['Left Face', 'Right Arm', 'Left Leg', 'Abdomen']",
,,,,,,,,,,,,,,,,,,,,,,,,,,,,,933.5001359998714,None,space,933.5001359998714,None,,,,,,,,,,,,,,,,,,,,,,,,,,1,M,2,24,r,MCK,2021_Oct_03_0934,2020.2.10,distractmap2,59.99070144031131,"['Left Face', 'Right Arm', 'Left Leg', 'Abdomen']",
6,"[0.2, 0]",None,,,,,0,0,0,0,990.7505363000091,None,,,,,,,,,,,,,,,,,,,,,,None,None,"[0, 0, 0]",991.7672120998614,None,991.7672120998614,992.7672498999164,992.7505622000899,993.7505592000671,"[0, 0, 0]",1,991.7672120998614,None,,,,,,,,,,,,,1,M,2,24,r,MCK,2021_Oct_03_0934,2020.2.10,distractmap2,59.99070144031131,"['Left Face', 'Right Arm', 'Left Leg', 'Abdomen']",
7,"[-0.2, -0.2]",None,,,,,0,1,1,1,,,,,,,,,,,,,,,,,,,,,,,,None,None,"[0, 0, 0]",993.7672041999176,995.7672474998981,993.7672041999176,994.7672429999802,994.7505824000109,995.7505799999926,"[0, 0, 0]",1,993.7672041999176,995.7672474998981,,,,,,,,,,,,,1,M,2,24,r,MCK,2021_Oct_03_0934,2020.2.10,distractmap2,59.99070144031131,"['Left Face', 'Right Arm', 'Left Leg', 'Abdomen']",
6,"[0.2, 0]",1,,,,,0,2,2,2,,,,,,,,,,,,,,,,,,,,,,,,None,None,"[0, 0, 0]",995.7839188000653,997.7839248999953,995.7839188000653,996.7839263998903,996.7672387999482,997.7672625000123,"[0, 0, 0]",1,995.7839188000653,997.7839248999953,,,,,,,,,,,,,1,M,2,24,r,MCK,2021_Oct_03_0934,2020.2.10,distractmap2,59.99070144031131,"['Left Face', 'Right Arm', 'Left Leg', 'Abdomen']",
2,"[0, 0.2]",0,,,,,0,3,3,3,,,,,,,,,,,,,,,,,,,,,,,,None,None,"[0, 0, 0]",997.8005951000378,999.8005808999296,997.8005951000378,998.8006144000683,998.7839426000137,999.7839408998843,"[0, 0, 0]",1,997.8005951000378,999.8005808999296,,,,,,,,,,,,,1,M,2,24,r,MCK,2021_Oct_03_0934,2020.2.10,distractmap2,59.99070144031131,"['Left Face', 'Right Arm', 'Left Leg', 'Abdomen']",
5,"[0, 0]",0,,,,,0,4,4,4,,,,,,,,,,,,,,,,,,,,,,,,None,None,"[0, 0, 0]",999.8172744999174,1001.8172897000331,999.8172744999174,1000.8172724000178,1000.8006049999967,1001.800631799968,"[0, 0, 0]",1,999.8172744999174,1001.8172897000331,,,,,,,,,,,,,1,M,2,24,r,MCK,2021_Oct_03_0934,2020.2.10,distractmap2,59.99070144031131,"['Left Face', 'Right Arm', 'Left Leg', 'Abdomen']",
4,"[-0.2, 0]",0,,,,,0,5,5,5,,,,,,,,,,,,,,,,,,,,,,,,None,None,"[0, 0, 0]",1001.8339609000832,1003.833966899896,1001.8339609000832,1002.8339422999416,1002.8172949000727,1003.817298399983,"[0, 0, 0]",1,1001.8339609000832,1003.833966899896,,,,,,,,,,,,,1,M,2,24,r,MCK,2021_Oct_03_0934,2020.2.10,distractmap2,59.99070144031131,"['Left Face', 'Right Arm', 'Left Leg', 'Abdomen']",
4,"[-0.2, 0]",0,,,,,0,6,6,6,,,,,,,,,,,,,,,,,,,,,,,,None,None,"[0, 0, 0]",1003.8506199999247,1005.8506491999142,1003.8506199999247,1004.8506336999126,1004.8339787998702,1005.8339932998642,"[0, 0, 0]",1,1003.8506199999247,1005.8506491999142,,,,,,,,,,,,,1,M,2,24,r,MCK,2021_Oct_03_0934,2020.2.10,distractmap2,59.99070144031131,"['Left Face', 'Right Arm', 'Left Leg', 'Abdomen']",
7,"[-0.2, -0.2]",0,,,,,0,7,7,7,,,,,,,,,,,,,,,,,,,,,,,,None,None,"[0, 0, 0]",1005.8673223999795,1007.8673230998684,1005.8673223999795,1006.8673270998988,1006.8506646000315,1007.8506591999903,"[0, 0, 0]",1,1005.8673223999795,1007.8673230998684,,,,,,,,,,,,,1,M,2,24,r,MCK,2021_Oct_03_0934,2020.2.10,distractmap2,59.99070144031131,"['Left Face', 'Right Arm', 'Left Leg', 'Abdomen']",
4,"[-0.2, 0]",1,,,,,0,8,8,8,,,,,,,,,,,,,,,,,,,,,,,,None,None,"[0, 0, 0]",1007.8839996000752,1009.8840163999703,1007.8839996000752,1008.8840015998576,1008.8673409000039,1009.8673553999979,"[0, 0, 0]",1,1007.8839996000752,1009.8840163999703,,,,,,,,,,,,,1,M,2,24,r,MCK,2021_Oct_03_0934,2020.2.10,distractmap2,59.99070144031131,"['Left Face', 'Right Arm', 'Left Leg', 'Abdomen']",
3,"[0.2, 0.2]",0,,,,,0,9,9,9,,,,,,,,,,,,,,,,,,,,,,,,None,None,"[0, 0, 0]",1009.9006938000675,1011.9006888000295,1009.9006938000675,1010.9006912999321,1010.8840147999581,1011.8840439000633,"[0, 0, 0]",1,1009.9006938000675,1011.9006888000295,,,,,,,,,,,,,1,M,2,24,r,MCK,2021_Oct_03_0934,2020.2.10,distractmap2,59.99070144031131,"['Left Face', 'Right Arm', 'Left Leg', 'Abdomen']",
5,"[0, 0]",0,,,,,0,10,10,10,,,,,,,,,,,,,,,,,,,,,,,,None,None,"[0, 0, 0]",1011.9173564999364,1013.9173721000552,1011.9173564999364,1012.9173711000476,1012.9007476998959,1013.9007170998957,"[0, 0, 0]",1,1011.9173564999364,1013.9173721000552,,,,,,,,,,,,,1,M,2,24,r,MCK,2021_Oct_03_0934,2020.2.10,distractmap2,59.99070144031131,"['Left Face', 'Right Arm', 'Left Leg', 'Abdomen']",
3,"[0.2, 0.2]",1,,,,,0,11,11,11,,,,,,,,,,,,,,,,,,,,,,,,None,None,"[0, 0, 0]",1013.9340508999303,1015.9340546000749,1013.9340508999303,1014.9340516999364,1014.9173806000035,1015.9173848000355,"[0, 0, 0]",1,1013.9340508999303,1015.9340546000749,,,,,,,,,,,,,1,M,2,24,r,MCK,2021_Oct_03_0934,2020.2.10,distractmap2,59.99070144031131,"['Left Face', 'Right Arm', 'Left Leg', 'Abdomen']",
1,"[-0.2, 0.2]",0,,,,,0,12,12,12,,,,,,,,,,,,,,,,,,,,,,,,None,None,"[0, 0, 0]",1015.9507198000792,1017.9507494000718,1015.9507198000792,1016.9507506999653,1016.934080200037,1017.9340780999046,"[0, 0, 0]",1,1015.9507198000792,1017.9507494000718,,,,,,,,,,,,,1,M,2,24,r,MCK,2021_Oct_03_0934,2020.2.10,distractmap2,59.99070144031131,"['Left Face', 'Right Arm', 'Left Leg', 'Abdomen']",
9,"[0.2, -0.2]",0,,,,,0,13,13,13,,,,,,,,,,,,,,,,,,,,,,,,None,None,"[0, 0, 0]",1017.9674360998906,1019.9674072000198,1017.9674360998906,1018.9673991000745,1018.9507444000337,1019.9507599000353,"[0, 0, 0]",1,1017.9674360998906,1019.9674072000198,,,,,,,,,,,,,1,M,2,24,r,MCK,2021_Oct_03_0934,2020.2.10,distractmap2,59.99070144031131,"['Left Face', 'Right Arm', 'Left Leg', 'Abdomen']",
9,"[0.2, -0.2]",0,,,,,0,14,14,14,,,,,,,,,,,,,,,,,,,,,,,,None,None,"[0, 0, 0]",1019.9840895999223,1021.9840983999893,1019.9840895999223,1020.984104800038,1020.9674309000839,1021.9674436999485,"[0, 0, 0]",1,1019.9840895999223,1021.9840983999893,,,,,,,,,,,,,1,M,2,24,r,MCK,2021_Oct_03_0934,2020.2.10,distractmap2,59.99070144031131,"['Left Face', 'Right Arm', 'Left Leg', 'Abdomen']",
8,"[0, -0.2]",0,,,,,0,15,15,15,,,,,,,,,,,,,,,,,,,,,,,,None,None,"[0, 0, 0]",1022.0007752999663,1024.0007581000682,1022.0007752999663,1023.0007724000607,1022.9841078999452,1023.984124599956,"[0, 0, 0]",1,1022.0007752999663,1024.0007581000682,,,,,,,,,,,,,1,M,2,24,r,MCK,2021_Oct_03_0934,2020.2.10,distractmap2,59.99070144031131,"['Left Face', 'Right Arm', 'Left Leg', 'Abdomen']",
6,"[0.2, 0]",0,,,,,0,16,16,16,,,,,,,,,,,,,,,,,,,,,,,,None,None,"[0, 0, 0]",1024.0174497000407,1026.0174664999358,1024.0174497000407,1025.0174702000804,1025.0008002999239,1026.0008024000563,"[0, 0, 0]",1,1024.0174497000407,1026.0174664999358,,,,,,,,,,,,,1,M,2,24,r,MCK,2021_Oct_03_0934,2020.2.10,distractmap2,59.99070144031131,"['Left Face', 'Right Arm', 'Left Leg', 'Abdomen']",
3,"[0.2, 0.2]",0,,,,,0,17,17,17,,,,,,,,,,,,,,,,,,,,,,,,None,None,"[0, 0, 0]",1026.0341397998855,1028.0341493000742,1026.0341397998855,1027.0341535999905,1027.0174755998887,1028.017514999956,"[0, 0, 0]",1,1026.0341397998855,1028.0341493000742,,,,,,,,,,,,,1,M,2,24,r,MCK,2021_Oct_03_0934,2020.2.10,distractmap2,59.99070144031131,"['Left Face', 'Right Arm', 'Left Leg', 'Abdomen']",
6,"[0.2, 0]",1,,,,,0,18,18,18,,,,,,,,,,,,,,,,,,,,,,,,None,None,"[0, 0, 0]",1028.0508107000496,1030.0508528999053,1028.0508107000496,1029.0508248000406,1029.0341656999663,1030.0341664999723,"[0, 0, 0]",0,1028.0508107000496,1030.0508528999053,,,,,,,,,,,,,1,M,2,24,r,MCK,2021_Oct_03_0934,2020.2.10,distractmap2,59.99070144031131,"['Left Face', 'Right Arm', 'Left Leg', 'Abdomen']",
5,"[0, 0]",0,,,,,0,19,19,19,,,,,,,,,,,,,,,,,,,,,,,,None,None,"[0, 0, 0]",1030.0674817999825,1032.0675252000801,1030.0674817999825,1031.0675099999644,1031.0508383999113,1032.0508246999234,"[0, 0, 0]",1,1030.0674817999825,1032.0675252000801,,,,,,,,,,,,,1,M,2,24,r,MCK,2021_Oct_03_0934,2020.2.10,distractmap2,59.99070144031131,"['Left Face', 'Right Arm', 'Left Leg', 'Abdomen']",
7,"[-0.2, -0.2]",0,,,,,0,20,20,20,,,,,,,,,,,,,,,,,,,,,,,,None,None,"[0, 0, 0]",1032.0841890000738,1034.0841868999414,1032.0841890000738,1033.084210800007,1033.0675085999537,1034.0675337000284,"[0, 0, 0]",1,1032.0841890000738,1034.0841868999414,,,,,,,,,,,,,1,M,2,24,r,MCK,2021_Oct_03_0934,2020.2.10,distractmap2,59.99070144031131,"['Left Face', 'Right Arm', 'Left Leg', 'Abdomen']",
5,"[0, 0]",1,,,,,0,21,21,21,,,,,,,,,,,,,,,,,,,,,,,,None,None,"[0, 0, 0]",1034.100859799888,1036.1008458000142,1034.100859799888,1035.1008607000113,1035.0842057000846,1036.0841957998928,"[0, 0, 0]",1,1034.100859799888,1036.1008458000142,,,,,,,,,,,,,1,M,2,24,r,MCK,2021_Oct_03_0934,2020.2.10,distractmap2,59.99070144031131,"['Left Face', 'Right Arm', 'Left Leg', 'Abdomen']",
1,"[-0.2, 0.2]",0,,,,,0,22,22,22,,,,,,,,,,,,,,,,,,,,,,,,None,None,"[0, 0, 0]",1036.1175484999549,1038.1175547998864,1036.1175484999549,1037.1175428999122,1037.1008844000753,1038.1009003999643,"[0, 0, 0]",1,1036.1175484999549,1038.1175547998864,,,,,,,,,,,,,1,M,2,24,r,MCK,2021_Oct_03_0934,2020.2.10,distractmap2,59.99070144031131,"['Left Face', 'Right Arm', 'Left Leg', 'Abdomen']",
7,"[-0.2, -0.2]",0,,,,,0,23,23,23,,,,,,,,,,,,,,,,,,,,,,,,None,None,"[0, 0, 0]",1038.134210899938,1040.1342187998816,1038.134210899938,1039.1342336998787,1039.117563799955,1040.1175695999991,"[0, 0, 0]",1,1038.134210899938,1040.1342187998816,,,,,,,,,,,,,1,M,2,24,r,MCK,2021_Oct_03_0934,2020.2.10,distractmap2,59.99070144031131,"['Left Face', 'Right Arm', 'Left Leg', 'Abdomen']",
9,"[0.2, -0.2]",0,,,,,0,24,24,24,,,,,,,,,,,,,,,,,,,,,,,,None,None,"[0, 0, 0]",1040.1509131998755,1042.1509086999577,1040.1509131998755,1041.1509111998603,1041.1342338998802,1042.1342587999534,"[0, 0, 0]",1,1040.1509131998755,1042.1509086999577,,,,,,,,,,,,,1,M,2,24,r,MCK,2021_Oct_03_0934,2020.2.10,distractmap2,59.99070144031131,"['Left Face', 'Right Arm', 'Left Leg', 'Abdomen']",
3,"[0.2, 0.2]",0,,,,,0,25,25,25,,,,,,,,,,,,,,,,,,,,,,,,None,None,"[0, 0, 0]",1042.1675958998967,1044.167591799982,1042.1675958998967,1043.1675777998753,1043.1509221000597,1044.1509272998665,"[0, 0, 0]",1,1042.1675958998967,1044.167591799982,,,,,,,,,,,,,1,M,2,24,r,MCK,2021_Oct_03_0934,2020.2.10,distractmap2,59.99070144031131,"['Left Face', 'Right Arm', 'Left Leg', 'Abdomen']",
9,"[0.2, -0.2]",1,,,,,0,26,26,26,,,,,,,,,,,,,,,,,,,,,,,,None,None,"[0, 0, 0]",1044.1842642999254,1046.1842795000412,1044.1842642999254,1045.1842580998782,1045.167611700017,1046.1676243999973,"[0, 0, 0]",0,1044.1842642999254,1046.1842795000412,,,,,,,,,,,,,1,M,2,24,r,MCK,2021_Oct_03_0934,2020.2.10,distractmap2,59.99070144031131,"['Left Face', 'Right Arm', 'Left Leg', 'Abdomen']",
6,"[0.2, 0]",0,,,,,0,27,27,27,,,,,,,,,,,,,,,,,,,,,,,,None,None,"[0, 0, 0]",1046.2009608000517,1048.2009497000836,1046.2009608000517,1047.2009701998904,1047.184293499915,1048.1842853000853,"[0, 0, 0]",1,1046.2009608000517,1048.2009497000836,,,,,,,,,,,,,1,M,2,24,r,MCK,2021_Oct_03_0934,2020.2.10,distractmap2,59.99070144031131,"['Left Face', 'Right Arm', 'Left Leg', 'Abdomen']",
2,"[0, 0.2]",0,,,,,0,28,28,28,,,,,,,,,,,,,,,,,,,,,,,,None,None,"[0, 0, 0]",1048.2176274000667,1050.217653800035,1048.2176274000667,1049.217627899954,1049.2009656999726,1050.2009872000199,"[0, 0, 0]",1,1048.2176274000667,1050.217653800035,,,,,,,,,,,,,1,M,2,24,r,MCK,2021_Oct_03_0934,2020.2.10,distractmap2,59.99070144031131,"['Left Face', 'Right Arm', 'Left Leg', 'Abdomen']",
5,"[0, 0]",0,,,,,0,29,29,29,,,,,,,,,,,,,,,,,,,,,,,,None,None,"[0, 0, 0]",1050.2343188000377,1052.234331100015,1050.2343188000377,1051.2343230000697,1051.2176435999572,1052.2176554999314,"[0, 0, 0]",1,1050.2343188000377,1052.234331100015,,,,,,,,,,,,,1,M,2,24,r,MCK,2021_Oct_03_0934,2020.2.10,distractmap2,59.99070144031131,"['Left Face', 'Right Arm', 'Left Leg', 'Abdomen']",
,,,,,,,,,,,,,,,,,,,,,,,,,,,,,1052.2509941000026,None,space,1052.2509941000026,None,,,,,,,,,,,,,,,,,,,,,,,,,,1,M,2,24,r,MCK,2021_Oct_03_0934,2020.2.10,distractmap2,59.99070144031131,"['Left Face', 'Right Arm', 'Left Leg', 'Abdomen']",
5,"[0, 0]",None,0,0,0,0,,,,,1314.136713200016,None,1316.9196172999218,None,1316.9196172999218,1317.9196289000101,1317.902977499878,1318.9029838000424,1,None,None,"[0, 0, 0]",,,1316.9196172999218,None,,,,,,,,,,,,,,,,,,,,,1090.7015080999117,1090.7015080999117,None,space,200.9008108000271,1090.7015080999117,None,"[0, 0, 0]",,,,,1,M,2,24,r,MCK,2021_Oct_03_0934,2020.2.10,distractmap2,59.99070144031131,"['Left Face', 'Right Arm', 'Left Leg', 'Abdomen']",
5,"[0, 0]",1,0,1,1,1,,,,,,,1318.9196452999022,1318.9196452999022,1318.9196452999022,1319.9196353999432,1319.9029932999983,1320.902995500015,1,None,None,"[0, 0, 0]",,,1318.9196452999022,1318.9196452999022,,,,,,,,,,,,,,,,,,,,,,,,,,,,"[0, 0, 0]",,,,,1,M,2,24,r,MCK,2021_Oct_03_0934,2020.2.10,distractmap2,59.99070144031131,"['Left Face', 'Right Arm', 'Left Leg', 'Abdomen']",
4,"[-0.2, 0]",0,0,2,2,2,,,,,,,1320.9196635999251,1320.9196635999251,1320.9196635999251,1321.919669300085,1321.9030144000426,1322.9029860999435,1,None,None,"[0, 0, 0]",,,1320.9196635999251,1320.9196635999251,,,,,,,,,,,,,,,,,,,,,,,,,,,,"[0, 0, 0]",,,,,1,M,2,24,r,MCK,2021_Oct_03_0934,2020.2.10,distractmap2,59.99070144031131,"['Left Face', 'Right Arm', 'Left Leg', 'Abdomen']",
2,"[0, 0.2]",0,0,3,3,3,,,,,,,1322.919594899984,1322.919594899984,1322.919594899984,1323.9196754998993,1323.903013400035,1324.9030319000594,0,None,None,"[0, 0, 0]",,,1322.919594899984,1322.919594899984,,,,,,,,,,,,,,,,,,,,,,,,,,,,"[0, 0, 0]",,,,,1,M,2,24,r,MCK,2021_Oct_03_0934,2020.2.10,distractmap2,59.99070144031131,"['Left Face', 'Right Arm', 'Left Leg', 'Abdomen']",
6,"[0.2, 0]",0,0,4,4,4,,,,,,,1324.9700191998854,1324.9700191998854,1324.9700191998854,1325.9696824999992,1325.9530450000893,None,1,None,None,"[0, 0, 0]",,,1324.9700191998854,1324.9700191998854,,,,,,,,,,,,,,,,,,,,,,,,,,,,"[0, 0, 0]",,,,,1,M,2,24,r,MCK,2021_Oct_03_0934,2020.2.10,distractmap2,59.99070144031131,"['Left Face', 'Right Arm', 'Left Leg', 'Abdomen']",
8,"[0, -0.2]",0,0,5,5,5,,,,,,,1326.9363740000408,None,1326.9363740000408,1327.9363814999815,1327.9197160999756,1328.9197233000305,1,None,None,"[0, 0, 0]",,,1326.9363740000408,None,,,,,,,,,,,,,,,,,,,,,,,,,,,,"[0, 0, 0]",,,,,1,M,2,24,r,MCK,2021_Oct_03_0934,2020.2.10,distractmap2,59.99070144031131,"['Left Face', 'Right Arm', 'Left Leg', 'Abdomen']",
1,"[-0.2, 0.2]",0,0,6,6,6,,,,,,,1328.93637520005,1328.93637520005,1328.93637520005,1329.9363017999567,1329.9197118999436,1330.919642599998,1,None,None,"[0, 0, 0]",,,1328.93637520005,1328.93637520005,,,,,,,,,,,,,,,,,,,,,,,,,,,,"[0, 0, 0]",,,,,1,M,2,24,r,MCK,2021_Oct_03_0934,2020.2.10,distractmap2,59.99070144031131,"['Left Face', 'Right Arm', 'Left Leg', 'Abdomen']",
4,"[-0.2, 0]",0,0,7,7,7,,,,,,,1330.9364092999604,1330.9364092999604,1330.9364092999604,1331.936412599869,1331.9197354000062,1332.9197362000123,1,None,None,"[0, 0, 0]",,,1330.9364092999604,1330.9364092999604,,,,,,,,,,,,,,,,,,,,,,,,,,,,"[0, 0, 0]",,,,,1,M,2,24,r,MCK,2021_Oct_03_0934,2020.2.10,distractmap2,59.99070144031131,"['Left Face', 'Right Arm', 'Left Leg', 'Abdomen']",
8,"[0, -0.2]",0,0,8,8,8,,,,,,,1332.9364100999665,1332.9364100999665,1332.9364100999665,1333.9364346000366,1333.919752100017,1334.9197509000078,1,None,None,"[0, 0, 0]",,,1332.9364100999665,1332.9364100999665,,,,,,,,,,,,,,,,,,,,,,,,,,,,"[0, 0, 0]",,,,,1,M,2,24,r,MCK,2021_Oct_03_0934,2020.2.10,distractmap2,59.99070144031131,"['Left Face', 'Right Arm', 'Left Leg', 'Abdomen']",
8,"[0, -0.2]",1,0,9,9,9,,,,,,,1334.936424799962,1334.936424799962,1334.936424799962,1335.9364298998844,1335.9197668998968,1336.919779199874,1,None,None,"[0, 0, 0]",,,1334.936424799962,1334.936424799962,,,,,,,,,,,,,,,,,,,,,,,,,,,,"[0, 0, 0]",,,,,1,M,2,24,r,MCK,2021_Oct_03_0934,2020.2.10,distractmap2,59.99070144031131,"['Left Face', 'Right Arm', 'Left Leg', 'Abdomen']",
,,,,,,,,,,,1336.9364509000443,None,,,,,,,,,,,,,,,,,,,,,,,,,,,,,,,,,,,,,,,,,,,27.839506172839506,1046.524549260037,,,1,M,2,24,r,MCK,2021_Oct_03_0934,2020.2.10,distractmap2,59.99070144031131,"['Left Face', 'Right Arm', 'Left Leg', 'Abdomen']",
3,"[0.2, 0.2]",None,,,,,0,0,0,0,1354.1033820000011,None,,,,,,,,,,,,,,,,,,,,,,None,None,"[0, 0, 0]",1356.9532769999932,None,1356.9532769999932,1357.953274599975,1357.9366097000893,1358.9366184999235,"[0, 0, 0]",1,1356.9532769999932,None,,,,,,,,,,,0.015129140112549067,5.013177540153265,1,M,2,24,r,MCK,2021_Oct_03_0934,2020.2.10,distractmap2,59.99070144031131,"['Left Face', 'Right Arm', 'Left Leg', 'Abdomen']",
3,"[0.2, 0.2]",None,,,,,0,1,1,1,,,,,,,,,,,,,,,,,,,,,,,,None,None,"[0, 0, 0]",1358.9532790998928,1360.9533075999934,1358.9532790998928,1359.9532900999766,1359.9366343000438,1360.9366399000864,"[0, 0, 0]",1,1358.9532790998928,1360.9533075999934,,,,,,,,,,,,,1,M,2,24,r,MCK,2021_Oct_03_0934,2020.2.10,distractmap2,59.99070144031131,"['Left Face', 'Right Arm', 'Left Leg', 'Abdomen']",
5,"[0, 0]",0,,,,,0,2,2,2,,,,,,,,,,,,,,,,,,,,,,,,None,None,"[0, 0, 0]",1360.9699736000039,1362.969988500001,1360.9699736000039,1361.96998049994,1361.9532951000147,1362.9531952000689,"[0, 0, 0]",1,1360.9699736000039,1362.969988500001,,,,,,,,,,,,,1,M,2,24,r,MCK,2021_Oct_03_0934,2020.2.10,distractmap2,59.99070144031131,"['Left Face', 'Right Arm', 'Left Leg', 'Abdomen']",
1,"[-0.2, 0.2]",0,,,,,0,3,3,3,,,,,,,,,,,,,,,,,,,,,,,,None,None,"[0, 0, 0]",1362.9866430000402,1364.9866675999947,1362.9866430000402,1363.986646400066,1363.9699947000481,1364.970002999995,"[0, 0, 0]",1,1362.9866430000402,1364.9866675999947,,,,,,,,,,,,,1,M,2,24,r,MCK,2021_Oct_03_0934,2020.2.10,distractmap2,59.99070144031131,"['Left Face', 'Right Arm', 'Left Leg', 'Abdomen']",
5,"[0, 0]",1,,,,,0,4,4,4,,,,,,,,,,,,,,,,,,,,,,,,None,None,"[0, 0, 0]",1365.0369619000703,None,1365.0369619000703,1366.0366789998952,1366.0198832000606,None,"[0, 0, 0]",1,1365.0369619000703,None,,,,,,,,,,,,,1,M,2,24,r,MCK,2021_Oct_03_0934,2020.2.10,distractmap2,59.99070144031131,"['Left Face', 'Right Arm', 'Left Leg', 'Abdomen']",
8,"[0, -0.2]",0,,,,,0,5,5,5,,,,,,,,,,,,,,,,,,,,,,,,None,None,"[0, 0, 0]",1367.0200121998787,1369.020027599996,1367.0200121998787,1368.0200261999853,1368.0033505000174,1369.003371000057,"[0, 0, 0]",1,1367.0200121998787,1369.020027599996,,,,,,,,,,,,,1,M,2,24,r,MCK,2021_Oct_03_0934,2020.2.10,distractmap2,59.99070144031131,"['Left Face', 'Right Arm', 'Left Leg', 'Abdomen']",
5,"[0, 0]",1,,,,,0,6,6,6,,,,,,,,,,,,,,,,,,,,,,,,None,None,"[0, 0, 0]",1369.0367103999015,1371.0367117000278,1369.0367103999015,1370.0366867000703,1370.0200260998681,1371.0200266998727,"[0, 0, 0]",1,1369.0367103999015,1371.0367117000278,,,,,,,,,,,,,1,M,2,24,r,MCK,2021_Oct_03_0934,2020.2.10,distractmap2,59.99070144031131,"['Left Face', 'Right Arm', 'Left Leg', 'Abdomen']",
7,"[-0.2, -0.2]",0,,,,,0,7,7,7,,,,,,,,,,,,,,,,,,,,,,,,None,None,"[0, 0, 0]",1371.0533856998663,1373.053380599944,1371.0533856998663,1372.0533825000748,1372.0367264999077,1373.0367982999887,"[0, 0, 0]",1,1371.0533856998663,1373.053380599944,,,,,,,,,,,,,1,M,2,24,r,MCK,2021_Oct_03_0934,2020.2.10,distractmap2,59.99070144031131,"['Left Face', 'Right Arm', 'Left Leg', 'Abdomen']",
5,"[0, 0]",1,,,,,0,8,8,8,,,,,,,,,,,,,,,,,,,,,,,,None,None,"[0, 0, 0]",1373.0700588999316,1375.0700516998768,1373.0700588999316,1374.0700459999498,1374.0533940999303,1375.0534030999988,"[0, 0, 0]",1,1373.0700588999316,1375.0700516998768,,,,,,,,,,,,,1,M,2,24,r,MCK,2021_Oct_03_0934,2020.2.10,distractmap2,59.99070144031131,"['Left Face', 'Right Arm', 'Left Leg', 'Abdomen']",
7,"[-0.2, -0.2]",1,,,,,0,9,9,9,,,,,,,,,,,,,,,,,,,,,,,,None,None,"[0, 0, 0]",1375.0867335000075,1377.0867560999468,1375.0867335000075,1376.0867461999878,1376.070076999953,1377.0700866000261,"[0, 0, 0]",1,1375.0867335000075,1377.0867560999468,,,,,,,,,,,,,1,M,2,24,r,MCK,2021_Oct_03_0934,2020.2.10,distractmap2,59.99070144031131,"['Left Face', 'Right Arm', 'Left Leg', 'Abdomen']",
,,,,,,,,,,,1377.1034162000287,None,,,,,,,,,,,,,,,,,,,,,,,,,,,,,,,,,,,,,,,,,,,18.641975308641975,1082.8920140601695,,,1,M,2,24,r,MCK,2021_Oct_03_0934,2020.2.10,distractmap2,59.99070144031131,"['Left Face', 'Right Arm', 'Left Leg', 'Abdomen']",
6,"[0.2, 0]",None,,,,,0,0,0,0,1392.2873041999992,None,,,,,,,,,,,,,,,,,,,,,,None,None,"[0, 0, 0]",1397.1369071998633,1399.1368970000185,1397.1369071998633,1398.1369155999273,1398.1202376000583,1399.120245799888,"[0, 0, 0]",1,1397.1369071998633,1399.1368970000185,,,,,,,,,,,0.014627940021455288,5.012097340077162,1,M,2,24,r,MCK,2021_Oct_03_0934,2020.2.10,distractmap2,59.99070144031131,"['Left Face', 'Right Arm', 'Left Leg', 'Abdomen']",
1,"[-0.2, 0.2]",None,,,,,0,1,1,1,,,,,,,,,,,,,,,,,,,,,,,,None,None,"[0, 0, 0]",1399.1535867999773,1401.1535972000565,1399.1535867999773,1400.1535843000747,1400.1369274999015,1401.1369477999397,"[0, 0, 0]",1,1399.1535867999773,1401.1535972000565,,,,,,,,,,,,,1,M,2,24,r,MCK,2021_Oct_03_0934,2020.2.10,distractmap2,59.99070144031131,"['Left Face', 'Right Arm', 'Left Leg', 'Abdomen']",
6,"[0.2, 0]",1,,,,,0,2,2,2,,,,,,,,,,,,,,,,,,,,,,,,None,None,"[0, 0, 0]",1401.1702759999316,1403.1702741000336,1401.1702759999316,1402.1702868998982,1402.1536024999805,1403.1536095999181,"[0, 0, 0]",1,1401.1702759999316,1403.1702741000336,,,,,,,,,,,,,1,M,2,24,r,MCK,2021_Oct_03_0934,2020.2.10,distractmap2,59.99070144031131,"['Left Face', 'Right Arm', 'Left Leg', 'Abdomen']",
4,"[-0.2, 0]",0,,,,,0,3,3,3,,,,,,,,,,,,,,,,,,,,,,,,None,None,"[0, 0, 0]",1403.1869419000577,1405.1869594000746,1403.1869419000577,1404.1869627998676,1404.1702878999058,1405.1703015998937,"[0, 0, 0]",1,1403.1869419000577,1405.1869594000746,,,,,,,,,,,,,1,M,2,24,r,MCK,2021_Oct_03_0934,2020.2.10,distractmap2,59.99070144031131,"['Left Face', 'Right Arm', 'Left Leg', 'Abdomen']",
1,"[-0.2, 0.2]",0,,,,,0,4,4,4,,,,,,,,,,,,,,,,,,,,,,,,None,None,"[0, 0, 0]",1405.2372659998946,None,1405.2372659998946,1406.236983800074,1406.2202993999235,None,"[0, 0, 0]",1,1405.2372659998946,None,,,,,,,,,,,,,1,M,2,24,r,MCK,2021_Oct_03_0934,2020.2.10,distractmap2,59.99070144031131,"['Left Face', 'Right Arm', 'Left Leg', 'Abdomen']",
8,"[0, -0.2]",0,,,,,0,5,5,5,,,,,,,,,,,,,,,,,,,,,,,,None,None,"[0, 0, 0]",1407.2203073999844,1409.220324399881,1407.2203073999844,1408.2203164999373,1408.2036490999162,1409.2036657000426,"[0, 0, 0]",1,1407.2203073999844,1409.220324399881,,,,,,,,,,,,,1,M,2,24,r,MCK,2021_Oct_03_0934,2020.2.10,distractmap2,59.99070144031131,"['Left Face', 'Right Arm', 'Left Leg', 'Abdomen']",
1,"[-0.2, 0.2]",1,,,,,0,6,6,6,,,,,,,,,,,,,,,,,,,,,,,,None,None,"[0, 0, 0]",1409.2370017999783,1411.2370179998688,1409.2370017999783,1410.237015800085,1410.2203452000394,1411.2203428000212,"[0, 0, 0]",1,1409.2370017999783,1411.2370179998688,,,,,,,,,,,,,1,M,2,24,r,MCK,2021_Oct_03_0934,2020.2.10,distractmap2,59.99070144031131,"['Left Face', 'Right Arm', 'Left Leg', 'Abdomen']",
8,"[0, -0.2]",1,,,,,0,7,7,7,,,,,,,,,,,,,,,,,,,,,,,,None,None,"[0, 0, 0]",1411.2536808000877,1413.253688100027,1411.2536808000877,1412.2536788999569,1412.2370021999814,1413.2370330998674,"[0, 0, 0]",1,1411.2536808000877,1413.253688100027,,,,,,,,,,,,,1,M,2,24,r,MCK,2021_Oct_03_0934,2020.2.10,distractmap2,59.99070144031131,"['Left Face', 'Right Arm', 'Left Leg', 'Abdomen']",
1,"[-0.2, 0.2]",1,,,,,0,8,8,8,,,,,,,,,,,,,,,,,,,,,,,,None,None,"[0, 0, 0]",1413.2703702000435,1415.2703698999248,1413.2703702000435,1414.2703732999507,1414.2536851998884,1415.253702600021,"[0, 0, 0]",1,1413.2703702000435,1415.2703698999248,,,,,,,,,,,,,1,M,2,24,r,MCK,2021_Oct_03_0934,2020.2.10,distractmap2,59.99070144031131,"['Left Face', 'Right Arm', 'Left Leg', 'Abdomen']",
6,"[0.2, 0]",0,,,,,0,9,9,9,,,,,,,,,,,,,,,,,,,,,,,,None,None,"[0, 0, 0]",1415.2870358999353,1417.2870568998624,1415.2870358999353,1416.2870471000206,1416.2703807998914,1417.2703871999402,"[0, 0, 0]",1,1415.2870358999353,1417.2870568998624,,,,,,,,,,,,,1,M,2,24,r,MCK,2021_Oct_03_0934,2020.2.10,distractmap2,59.99070144031131,"['Left Face', 'Right Arm', 'Left Leg', 'Abdomen']",
,,,,,,,,,,,1417.303731000051,None,,,,,,,,,,,,,,,,,,,,,,,,,,,,,,,,,,,,,,,,,,,17.037037037037038,1126.892460359959,,,1,M,2,24,r,MCK,2021_Oct_03_0934,2020.2.10,distractmap2,59.99070144031131,"['Left Face', 'Right Arm', 'Left Leg', 'Abdomen']",
7,"[-0.2, -0.2]",None,,,,,0,0,0,0,1434.4883548999205,None,,,,,,,,,,,,,,,,,,,,,,None,None,"[0, 0, 0]",1437.3372291999403,1439.3372247000225,1437.3372291999403,1438.3372376998886,1438.3205275000073,1439.320549899945,"[0, 0, 0]",1,1437.3372291999403,1439.3372247000225,,,,,,,,,,,0.014500140212476254,5.012010639999062,1,M,2,24,r,MCK,2021_Oct_03_0934,2020.2.10,distractmap2,59.99070144031131,"['Left Face', 'Right Arm', 'Left Leg', 'Abdomen']",
7,"[-0.2, -0.2]",None,,,,,0,1,1,1,,,,,,,,,,,,,,,,,,,,,,,,None,None,"[0, 0, 0]",1439.3538923999295,1441.353910899954,1439.3538923999295,1440.3538802999537,1440.337273400044,1441.3372565000318,"[0, 0, 0]",1,1439.3538923999295,1441.353910899954,,,,,,,,,,,,,1,M,2,24,r,MCK,2021_Oct_03_0934,2020.2.10,distractmap2,59.99070144031131,"['Left Face', 'Right Arm', 'Left Leg', 'Abdomen']",
7,"[-0.2, -0.2]",1,,,,,0,2,2,2,,,,,,,,,,,,,,,,,,,,,,,,None,None,"[0, 0, 0]",1441.3705746999476,1443.3705861000344,1441.3705746999476,1442.3705754000694,1442.3539050000254,1443.3539185998961,"[0, 0, 0]",0,1441.3705746999476,1443.3705861000344,,,,,,,,,,,,,1,M,2,24,r,MCK,2021_Oct_03_0934,2020.2.10,distractmap2,59.99070144031131,"['Left Face', 'Right Arm', 'Left Leg', 'Abdomen']",
5,"[0, 0]",0,,,,,0,3,3,3,,,,,,,,,,,,,,,,,,,,,,,,None,None,"[0, 0, 0]",1443.3872678999323,1445.3872737998608,1443.3872678999323,1444.3872801000252,1444.3705921999644,1445.370587100042,"[0, 0, 0]",1,1443.3872678999323,1445.3872737998608,,,,,,,,,,,,,1,M,2,24,r,MCK,2021_Oct_03_0934,2020.2.10,distractmap2,59.99070144031131,"['Left Face', 'Right Arm', 'Left Leg', 'Abdomen']",
1,"[-0.2, 0.2]",0,,,,,0,4,4,4,,,,,,,,,,,,,,,,,,,,,,,,None,None,"[0, 0, 0]",1445.437519500032,None,1445.437519500032,1446.4372775999364,1446.4206178998575,None,"[0, 0, 0]",1,1445.437519500032,None,,,,,,,,,,,,,1,M,2,24,r,MCK,2021_Oct_03_0934,2020.2.10,distractmap2,59.99070144031131,"['Left Face', 'Right Arm', 'Left Leg', 'Abdomen']",
6,"[0.2, 0]",0,,,,,0,5,5,5,,,,,,,,,,,,,,,,,,,,,,,,None,None,"[0, 0, 0]",1447.4206202998757,1449.4206121999305,1447.4206202998757,1448.420618099859,1448.4039433000144,1449.4039565999992,"[0, 0, 0]",1,1447.4206202998757,1449.4206121999305,,,,,,,,,,,,,1,M,2,24,r,MCK,2021_Oct_03_0934,2020.2.10,distractmap2,59.99070144031131,"['Left Face', 'Right Arm', 'Left Leg', 'Abdomen']",
1,"[-0.2, 0.2]",1,,,,,0,6,6,6,,,,,,,,,,,,,,,,,,,,,,,,None,None,"[0, 0, 0]",1449.4373011998832,1451.4373135999776,1449.4373011998832,1450.4373075000476,1450.420636499999,1451.4206171999685,"[0, 0, 0]",1,1449.4373011998832,1451.4373135999776,,,,,,,,,,,,,1,M,2,24,r,MCK,2021_Oct_03_0934,2020.2.10,distractmap2,59.99070144031131,"['Left Face', 'Right Arm', 'Left Leg', 'Abdomen']",
7,"[-0.2, -0.2]",0,,,,,0,7,7,7,,,,,,,,,,,,,,,,,,,,,,,,None,None,"[0, 0, 0]",1451.4539904999547,1453.45399249997,1451.4539904999547,1452.4539866999257,1452.4373266000766,1453.4373359999154,"[0, 0, 0]",1,1451.4539904999547,1453.45399249997,,,,,,,,,,,,,1,M,2,24,r,MCK,2021_Oct_03_0934,2020.2.10,distractmap2,59.99070144031131,"['Left Face', 'Right Arm', 'Left Leg', 'Abdomen']",
6,"[0.2, 0]",0,,,,,0,8,8,8,,,,,,,,,,,,,,,,,,,,,,,,None,None,"[0, 0, 0]",1453.4706585998647,1455.4706729999743,1453.4706585998647,1454.4706645999104,1454.4539079000242,1455.4540114998817,"[0, 0, 0]",1,1453.4706585998647,1455.4706729999743,,,,,,,,,,,,,1,M,2,24,r,MCK,2021_Oct_03_0934,2020.2.10,distractmap2,59.99070144031131,"['Left Face', 'Right Arm', 'Left Leg', 'Abdomen']",
7,"[-0.2, -0.2]",1,,,,,0,9,9,9,,,,,,,,,,,,,,,,,,,,,,,,None,None,"[0, 0, 0]",1455.4873651999515,1457.4873681999743,1455.4873651999515,1456.4873591999058,1456.470670199953,1457.4706866999622,"[0, 0, 0]",1,1455.4873651999515,1457.4873681999743,,,,,,,,,,,,,1,M,2,24,r,MCK,2021_Oct_03_0934,2020.2.10,distractmap2,59.99070144031131,"['Left Face', 'Right Arm', 'Left Leg', 'Abdomen']",
,,,,,,,,,,,1457.504031199962,None,,,,,,,,,,,,,,,,,,,,,,,,,,,,,,,,,,,,,,,,,,,14.629629629629628,1161.2591473597568,,,1,M,2,24,r,MCK,2021_Oct_03_0934,2020.2.10,distractmap2,59.99070144031131,"['Left Face', 'Right Arm', 'Left Leg', 'Abdomen']",
3,"[0.2, 0.2]",None,0,0,0,0,,,,,1470.703936100006,None,1477.5541814998724,None,1477.5541814998724,1478.5541860999074,1478.5375298000872,1479.5375268000644,1,None,None,"[0, 0, 0]",,,1477.5541814998724,None,,,,,,,,,,,,,,,,,,,,,,,,,,,,"[0, 0, 0]",,,0.014755940297618508,5.012362440349534,1,M,2,24,r,MCK,2021_Oct_03_0934,2020.2.10,distractmap2,59.99070144031131,"['Left Face', 'Right Arm', 'Left Leg', 'Abdomen']",
4,"[-0.2, 0]",0,0,1,1,1,,,,,,,1479.5541934000794,1479.5541934000794,1479.5541934000794,1480.5542162999045,1480.537530799862,1481.5375365000218,1,None,None,"[0, 0, 0]",,,1479.5541934000794,1479.5541934000794,,,,,,,,,,,,,,,,,,,,,,,,,,,,"[0, 0, 0]",,,,,1,M,2,24,r,MCK,2021_Oct_03_0934,2020.2.10,distractmap2,59.99070144031131,"['Left Face', 'Right Arm', 'Left Leg', 'Abdomen']",
1,"[-0.2, 0.2]",0,0,2,2,2,,,,,,,1481.5542395999655,1481.5542395999655,1481.5542395999655,1482.5542226999532,1482.5375359999016,1483.5374799000565,1,None,None,"[0, 0, 0]",,,1481.5542395999655,1481.5542395999655,,,,,,,,,,,,,,,,,,,,,,,,,,,,"[0, 0, 0]",,,,,1,M,2,24,r,MCK,2021_Oct_03_0934,2020.2.10,distractmap2,59.99070144031131,"['Left Face', 'Right Arm', 'Left Leg', 'Abdomen']",
2,"[0, 0.2]",0,0,3,3,3,,,,,,,1483.5542470999062,1483.5542470999062,1483.5542470999062,1484.5542307000142,1484.5375844999216,1485.537585400045,1,None,None,"[0, 0, 0]",,,1483.5542470999062,1483.5542470999062,,,,,,,,,,,,,,,,,,,,,,,,,,,,"[0, 0, 0]",,,,,1,M,2,24,r,MCK,2021_Oct_03_0934,2020.2.10,distractmap2,59.99070144031131,"['Left Face', 'Right Arm', 'Left Leg', 'Abdomen']",
2,"[0, 0.2]",1,0,4,4,4,,,,,,,1485.5712047000416,1485.5712047000416,1485.5712047000416,1486.570921199862,1486.5541604999453,1487.5542689999565,1,None,None,"[0, 0, 0]",,,1485.5712047000416,1485.5712047000416,,,,,,,,,,,,,,,,,,,,,,,,,,,,"[0, 0, 0]",,,,,1,M,2,24,r,MCK,2021_Oct_03_0934,2020.2.10,distractmap2,59.99070144031131,"['Left Face', 'Right Arm', 'Left Leg', 'Abdomen']",
5,"[0, 0]",0,0,5,5,5,,,,,,,1487.5709142999258,None,1487.5709142999258,1488.5709275000263,1488.5542784000281,1489.554287499981,1,None,None,"[0, 0, 0]",,,1487.5709142999258,None,,,,,,,,,,,,,,,,,,,,,,,,,,,,"[0, 0, 0]",,,,,1,M,2,24,r,MCK,2021_Oct_03_0934,2020.2.10,distractmap2,59.99070144031131,"['Left Face', 'Right Arm', 'Left Leg', 'Abdomen']",
1,"[-0.2, 0.2]",0,0,6,6,6,,,,,,,1489.5709438999183,1489.5709438999183,1489.5709438999183,1490.5709384998772,1490.5542743999977,1491.554287099978,1,None,None,"[0, 0, 0]",,,1489.5709438999183,1489.5709438999183,,,,,,,,,,,,,,,,,,,,,,,,,,,,"[0, 0, 0]",,,,,1,M,2,24,r,MCK,2021_Oct_03_0934,2020.2.10,distractmap2,59.99070144031131,"['Left Face', 'Right Arm', 'Left Leg', 'Abdomen']",
1,"[-0.2, 0.2]",1,0,7,7,7,,,,,,,1491.5709551000036,1491.5709551000036,1491.5709551000036,1492.570957900025,1492.5543120000511,1493.554185200017,1,None,None,"[0, 0, 0]",,,1491.5709551000036,1491.5709551000036,,,,,,,,,,,,,,,,,,,,,,,,,,,,"[0, 0, 0]",,,,,1,M,2,24,r,MCK,2021_Oct_03_0934,2020.2.10,distractmap2,59.99070144031131,"['Left Face', 'Right Arm', 'Left Leg', 'Abdomen']",
8,"[0, -0.2]",0,0,8,8,8,,,,,,,1493.5708725000732,1493.5708725000732,1493.5708725000732,1494.570978499949,1494.5543251000345,1495.5542935000267,1,None,None,"[0, 0, 0]",,,1493.5708725000732,1493.5708725000732,,,,,,,,,,,,,,,,,,,,,,,,,,,,"[0, 0, 0]",,,,,1,M,2,24,r,MCK,2021_Oct_03_0934,2020.2.10,distractmap2,59.99070144031131,"['Left Face', 'Right Arm', 'Left Leg', 'Abdomen']",
7,"[-0.2, -0.2]",0,0,9,9,9,,,,,,,1495.5709784000646,1495.5709784000646,1495.5709784000646,1496.570981200086,1496.554326799931,1497.5543517998885,1,None,None,"[0, 0, 0]",,,1495.5709784000646,1495.5709784000646,,,,,,,,,,,,,,,,,,,,,,,,,,,,"[0, 0, 0]",,,,,1,M,2,24,r,MCK,2021_Oct_03_0934,2020.2.10,distractmap2,59.99070144031131,"['Left Face', 'Right Arm', 'Left Leg', 'Abdomen']",
,,,,,,,,,,,1497.5709976998623,None,,,,,,,,,,,,,,,,,,,,,,,,,,,,,,,,,,,,,,,,,,,23.45679012345679,1205.126110960031,,,1,M,2,24,r,MCK,2021_Oct_03_0934,2020.2.10,distractmap2,59.99070144031131,"['Left Face', 'Right Arm', 'Left Leg', 'Abdomen']",
6,"[0.2, 0]",None,0,0,0,0,,,,,1514.7546516000293,None,1517.6044922000729,None,1517.6044922000729,1518.6044968999922,1518.5878363999072,1519.5878439999651,1,None,None,"[0, 0, 0]",,,1517.6044922000729,None,,,,,,,,,,,,,,,,,,,,,,,,,,,,"[0, 0, 0]",,,0.014798140153288841,5.012432940071449,1,M,2,24,r,MCK,2021_Oct_03_0934,2020.2.10,distractmap2,59.99070144031131,"['Left Face', 'Right Arm', 'Left Leg', 'Abdomen']",
6,"[0.2, 0]",1,0,1,1,1,,,,,,,1519.6045031000394,1519.6045031000394,1519.6045031000394,1520.6044777999632,1520.5878407999408,1521.5878691999242,1,None,None,"[0, 0, 0]",,,1519.6045031000394,1519.6045031000394,,,,,,,,,,,,,,,,,,,,,,,,,,,,"[0, 0, 0]",,,,,1,M,2,24,r,MCK,2021_Oct_03_0934,2020.2.10,distractmap2,59.99070144031131,"['Left Face', 'Right Arm', 'Left Leg', 'Abdomen']",
1,"[-0.2, 0.2]",0,0,2,2,2,,,,,,,1521.6045119999908,1521.6045119999908,1521.6045119999908,1522.6045282999985,1522.5878461999819,1523.5878643000033,1,None,None,"[0, 0, 0]",,,1521.6045119999908,1521.6045119999908,,,,,,,,,,,,,,,,,,,,,,,,,,,,"[0, 0, 0]",,,,,1,M,2,24,r,MCK,2021_Oct_03_0934,2020.2.10,distractmap2,59.99070144031131,"['Left Face', 'Right Arm', 'Left Leg', 'Abdomen']",
8,"[0, -0.2]",0,0,3,3,3,,,,,,,1523.6045263998676,1523.6045263998676,1523.6045263998676,1524.6045337000396,1524.5878886999562,1525.5878582000732,1,None,None,"[0, 0, 0]",,,1523.6045263998676,1523.6045263998676,,,,,,,,,,,,,,,,,,,,,,,,,,,,"[0, 0, 0]",,,,,1,M,2,24,r,MCK,2021_Oct_03_0934,2020.2.10,distractmap2,59.99070144031131,"['Left Face', 'Right Arm', 'Left Leg', 'Abdomen']",
1,"[-0.2, 0.2]",0,0,4,4,4,,,,,,,1525.6380513999611,1525.6380513999611,1525.6380513999611,1526.6378810000606,1526.621238199994,None,1,None,None,"[0, 0, 0]",,,1525.6380513999611,1525.6380513999611,,,,,,,,,,,,,,,,,,,,,,,,,,,,"[0, 0, 0]",,,,,1,M,2,24,r,MCK,2021_Oct_03_0934,2020.2.10,distractmap2,59.99070144031131,"['Left Face', 'Right Arm', 'Left Leg', 'Abdomen']",
4,"[-0.2, 0]",0,0,5,5,5,,,,,,,1527.621238599997,None,1527.621238599997,1528.6212528999895,1528.604574299883,1529.6045599000063,1,None,None,"[0, 0, 0]",,,1527.621238599997,None,,,,,,,,,,,,,,,,,,,,,,,,,,,,"[0, 0, 0]",,,,,1,M,2,24,r,MCK,2021_Oct_03_0934,2020.2.10,distractmap2,59.99070144031131,"['Left Face', 'Right Arm', 'Left Leg', 'Abdomen']",
5,"[0, 0]",0,0,6,6,6,,,,,,,1529.6212609999347,1529.6212609999347,1529.6212609999347,1530.6211449999828,1530.6045895998832,1531.6045961999334,1,None,None,"[0, 0, 0]",,,1529.6212609999347,1529.6212609999347,,,,,,,,,,,,,,,,,,,,,,,,,,,,"[0, 0, 0]",,,,,1,M,2,24,r,MCK,2021_Oct_03_0934,2020.2.10,distractmap2,59.99070144031131,"['Left Face', 'Right Arm', 'Left Leg', 'Abdomen']",
7,"[-0.2, -0.2]",0,0,7,7,7,,,,,,,1531.6212649000809,1531.6212649000809,1531.6212649000809,1532.6212700998876,1532.6045983000658,1533.6046078999061,1,None,None,"[0, 0, 0]",,,1531.6212649000809,1531.6212649000809,,,,,,,,,,,,,,,,,,,,,,,,,,,,"[0, 0, 0]",,,,,1,M,2,24,r,MCK,2021_Oct_03_0934,2020.2.10,distractmap2,59.99070144031131,"['Left Face', 'Right Arm', 'Left Leg', 'Abdomen']",
7,"[-0.2, -0.2]",1,0,8,8,8,,,,,,,1533.621294300072,1533.621294300072,1533.621294300072,1534.6212986998726,1534.6046269999351,1535.6046140999533,1,None,None,"[0, 0, 0]",,,1533.621294300072,1533.621294300072,,,,,,,,,,,,,,,,,,,,,,,,,,,,"[0, 0, 0]",,,,,1,M,2,24,r,MCK,2021_Oct_03_0934,2020.2.10,distractmap2,59.99070144031131,"['Left Face', 'Right Arm', 'Left Leg', 'Abdomen']",
7,"[-0.2, -0.2]",1,0,9,9,9,,,,,,,1535.62131149997,1535.62131149997,1535.62131149997,1536.6213104999624,1536.6046400999185,1537.6047322000377,1,None,None,"[0, 0, 0]",,,1535.62131149997,1535.62131149997,,,,,,,,,,,,,,,,,,,,,,,,,,,,"[0, 0, 0]",,,,,1,M,2,24,r,MCK,2021_Oct_03_0934,2020.2.10,distractmap2,59.99070144031131,"['Left Face', 'Right Arm', 'Left Leg', 'Abdomen']",
,,,,,,,,,,,1537.6212957000826,None,,,,,,,,,,,,,,,,,,,,,,,,,,,,,,,,,,,,,,,,,,,23.209876543209877,1243.109546259977,,,1,M,2,24,r,MCK,2021_Oct_03_0934,2020.2.10,distractmap2,59.99070144031131,"['Left Face', 'Right Arm', 'Left Leg', 'Abdomen']",
4,"[-0.2, 0]",None,,,,,0,0,0,0,1552.8382884999737,None,,,,,,,,,,,,,,,,,,,,,,None,None,"[0, 0, 0]",1557.6714659999125,1559.6714836000465,1557.6714659999125,1558.6714761999901,1558.6547737999354,1559.6548069999553,"[0, 0, 0]",1,1557.6714659999125,1559.6714836000465,,,,,,,,,,,0.014956840081140399,5.012728140223771,1,M,2,24,r,MCK,2021_Oct_03_0934,2020.2.10,distractmap2,59.99070144031131,"['Left Face', 'Right Arm', 'Left Leg', 'Abdomen']",
5,"[0, 0]",None,,,,,0,1,1,1,,,,,,,,,,,,,,,,,,,,,,,,None,None,"[0, 0, 0]",1559.6881343000568,1561.6881637000479,1559.6881343000568,1560.6880900999531,1560.671478400007,1561.6714906999841,"[0, 0, 0]",1,1559.6881343000568,1561.6881637000479,,,,,,,,,,,,,1,M,2,24,r,MCK,2021_Oct_03_0934,2020.2.10,distractmap2,59.99070144031131,"['Left Face', 'Right Arm', 'Left Leg', 'Abdomen']",
6,"[0.2, 0]",0,,,,,0,2,2,2,,,,,,,,,,,,,,,,,,,,,,,,None,None,"[0, 0, 0]",1561.7048303999472,1563.704827700043,1561.7048303999472,1562.7048299999442,1562.6881593000144,1563.6881595999002,"[0, 0, 0]",1,1561.7048303999472,1563.704827700043,,,,,,,,,,,,,1,M,2,24,r,MCK,2021_Oct_03_0934,2020.2.10,distractmap2,59.99070144031131,"['Left Face', 'Right Arm', 'Left Leg', 'Abdomen']",
1,"[-0.2, 0.2]",0,,,,,0,3,3,3,,,,,,,,,,,,,,,,,,,,,,,,None,None,"[0, 0, 0]",1563.7215038998984,1565.7215245000552,1563.7215038998984,1564.7215279000811,1564.704837199999,1565.7048482999671,"[0, 0, 0]",1,1563.7215038998984,1565.7215245000552,,,,,,,,,,,,,1,M,2,24,r,MCK,2021_Oct_03_0934,2020.2.10,distractmap2,59.99070144031131,"['Left Face', 'Right Arm', 'Left Leg', 'Abdomen']",
6,"[0.2, 0]",1,,,,,0,4,4,4,,,,,,,,,,,,,,,,,,,,,,,,None,None,"[0, 0, 0]",1565.7717593999114,None,1565.7717593999114,1566.7715258998796,1566.7548741998617,None,"[0, 0, 0]",1,1565.7717593999114,None,,,,,,,,,,,,,1,M,2,24,r,MCK,2021_Oct_03_0934,2020.2.10,distractmap2,59.99070144031131,"['Left Face', 'Right Arm', 'Left Leg', 'Abdomen']",
1,"[-0.2, 0.2]",1,,,,,0,5,5,5,,,,,,,,,,,,,,,,,,,,,,,,None,None,"[0, 0, 0]",1567.754866699921,1569.754893800011,1567.754866699921,1568.7548559000716,1568.7382133998908,1569.7382094999775,"[0, 0, 0]",1,1567.754866699921,1569.754893800011,,,,,,,,,,,,,1,M,2,24,r,MCK,2021_Oct_03_0934,2020.2.10,distractmap2,59.99070144031131,"['Left Face', 'Right Arm', 'Left Leg', 'Abdomen']",
2,"[0, 0.2]",0,,,,,0,6,6,6,,,,,,,,,,,,,,,,,,,,,,,,None,None,"[0, 0, 0]",1569.7715594000183,1571.7715666999575,1569.7715594000183,1570.7715491000563,1570.7548823000398,1571.75490109995,"[0, 0, 0]",1,1569.7715594000183,1571.7715666999575,,,,,,,,,,,,,1,M,2,24,r,MCK,2021_Oct_03_0934,2020.2.10,distractmap2,59.99070144031131,"['Left Face', 'Right Arm', 'Left Leg', 'Abdomen']",
3,"[0.2, 0.2]",0,,,,,0,7,7,7,,,,,,,,,,,,,,,,,,,,,,,,None,None,"[0, 0, 0]",1571.7882447999436,1573.7882411999162,1571.7882447999436,1572.7882445000578,1572.7715829999652,1573.7715759999119,"[0, 0, 0]",1,1571.7882447999436,1573.7882411999162,,,,,,,,,,,,,1,M,2,24,r,MCK,2021_Oct_03_0934,2020.2.10,distractmap2,59.99070144031131,"['Left Face', 'Right Arm', 'Left Leg', 'Abdomen']",
6,"[0.2, 0]",0,,,,,0,8,8,8,,,,,,,,,,,,,,,,,,,,,,,,None,None,"[0, 0, 0]",1573.8049166998826,1575.8049278000835,1573.8049166998826,1574.8049222999252,1574.7882542998996,1575.7882862999104,"[0, 0, 0]",1,1573.8049166998826,1575.8049278000835,,,,,,,,,,,,,1,M,2,24,r,MCK,2021_Oct_03_0934,2020.2.10,distractmap2,59.99070144031131,"['Left Face', 'Right Arm', 'Left Leg', 'Abdomen']",
3,"[0.2, 0.2]",1,,,,,0,9,9,9,,,,,,,,,,,,,,,,,,,,,,,,None,None,"[0, 0, 0]",1575.8215790998656,1577.821608300088,1575.8215790998656,1576.821604900062,1576.8049405999482,1577.8049552999437,"[0, 0, 0]",1,1575.8215790998656,1577.821608300088,,,,,,,,,,,,,1,M,2,24,r,MCK,2021_Oct_03_0934,2020.2.10,distractmap2,59.99070144031131,"['Left Face', 'Right Arm', 'Left Leg', 'Abdomen']",
,,,,,,,,,,,1577.8382941000164,None,,,,,,,,,,,,,,,,,,,,,,,,,,,,,,,,,,,,,,,,,,,15.246913580246915,1284.0596863599494,,,1,M,2,24,r,MCK,2021_Oct_03_0934,2020.2.10,distractmap2,59.99070144031131,"['Left Face', 'Right Arm', 'Left Leg', 'Abdomen']",
8,"[0, -0.2]",None,0,0,0,0,,,,,1593.0383321999107,None,1597.8884383998811,None,1597.8884383998811,1598.8884461000562,1598.8717702000868,1599.8717845999636,1,None,None,"[0, 0, 0]",,,1597.8884383998811,None,,,,,,,,,,,,,,,,,,,,,,,,,,,,"[0, 0, 0]",,,0.015132240252569318,5.013181940186769,1,M,2,24,r,MCK,2021_Oct_03_0934,2020.2.10,distractmap2,59.99070144031131,"['Left Face', 'Right Arm', 'Left Leg', 'Abdomen']",
6,"[0.2, 0]",0,0,1,1,1,,,,,,,1599.8884705998935,1599.8884705998935,1599.8884705998935,1600.8885403999593,1600.8717749998905,1601.871781700058,1,None,None,"[0, 0, 0]",,,1599.8884705998935,1599.8884705998935,,,,,,,,,,,,,,,,,,,,,,,,,,,,"[0, 0, 0]",,,,,1,M,2,24,r,MCK,2021_Oct_03_0934,2020.2.10,distractmap2,59.99070144031131,"['Left Face', 'Right Arm', 'Left Leg', 'Abdomen']",
6,"[0.2, 0]",1,0,2,2,2,,,,,,,1601.8884862998966,1601.8884862998966,1601.8884862998966,1602.8884912000503,1602.8718143000733,1603.8718024999835,1,None,None,"[0, 0, 0]",,,1601.8884862998966,1601.8884862998966,,,,,,,,,,,,,,,,,,,,,,,,,,,,"[0, 0, 0]",,,,,1,M,2,24,r,MCK,2021_Oct_03_0934,2020.2.10,distractmap2,59.99070144031131,"['Left Face', 'Right Arm', 'Left Leg', 'Abdomen']",
2,"[0, 0.2]",0,0,3,3,3,,,,,,,1603.8884813999757,1603.8884813999757,1603.8884813999757,1604.8884952999651,1604.8718208000064,1605.871812199941,1,None,None,"[0, 0, 0]",,,1603.8884813999757,1603.8884813999757,,,,,,,,,,,,,,,,,,,,,,,,,,,,"[0, 0, 0]",,,,,1,M,2,24,r,MCK,2021_Oct_03_0934,2020.2.10,distractmap2,59.99070144031131,"['Left Face', 'Right Arm', 'Left Leg', 'Abdomen']",
1,"[-0.2, 0.2]",0,0,4,4,4,,,,,,,1605.955315100029,1605.955315100029,1605.955315100029,1606.9551671000663,1606.9385198000818,None,1,None,None,"[0, 0, 0]",,,1605.955315100029,1605.955315100029,,,,,,,,,,,,,,,,,,,,,,,,,,,,"[0, 0, 0]",,,,,1,M,2,24,r,MCK,2021_Oct_03_0934,2020.2.10,distractmap2,59.99070144031131,"['Left Face', 'Right Arm', 'Left Leg', 'Abdomen']",
6,"[0.2, 0]",0,0,5,5,5,,,,,,,1607.9051755000837,None,1607.9051755000837,1608.9052003000397,1608.8885327999014,1609.8885260999668,1,None,None,"[0, 0, 0]",,,1607.9051755000837,None,,,,,,,,,,,,,,,,,,,,,,,,,,,,"[0, 0, 0]",,,,,1,M,2,24,r,MCK,2021_Oct_03_0934,2020.2.10,distractmap2,59.99070144031131,"['Left Face', 'Right Arm', 'Left Leg', 'Abdomen']",
9,"[0.2, -0.2]",0,0,6,6,6,,,,,,,1609.9052142000291,1609.9052142000291,1609.9052142000291,1610.905199300032,1610.8885492000263,1611.8885532000568,1,None,None,"[0, 0, 0]",,,1609.9052142000291,1609.9052142000291,,,,,,,,,,,,,,,,,,,,,,,,,,,,"[0, 0, 0]",,,,,1,M,2,24,r,MCK,2021_Oct_03_0934,2020.2.10,distractmap2,59.99070144031131,"['Left Face', 'Right Arm', 'Left Leg', 'Abdomen']",
1,"[-0.2, 0.2]",0,0,7,7,7,,,,,,,1611.9052337000612,1611.9052337000612,1611.9052337000612,1612.9052160000429,1612.8885419999715,1613.888571199961,1,None,None,"[0, 0, 0]",,,1611.9052337000612,1611.9052337000612,,,,,,,,,,,,,,,,,,,,,,,,,,,,"[0, 0, 0]",,,,,1,M,2,24,r,MCK,2021_Oct_03_0934,2020.2.10,distractmap2,59.99070144031131,"['Left Face', 'Right Arm', 'Left Leg', 'Abdomen']",
6,"[0.2, 0]",0,0,8,8,8,,,,,,,1613.9052357000764,1613.9052357000764,1613.9052357000764,1614.9052426000126,1614.8885603998788,1615.8885623000097,1,None,None,"[0, 0, 0]",,,1613.9052357000764,1613.9052357000764,,,,,,,,,,,,,,,,,,,,,,,,,,,,"[0, 0, 0]",,,,,1,M,2,24,r,MCK,2021_Oct_03_0934,2020.2.10,distractmap2,59.99070144031131,"['Left Face', 'Right Arm', 'Left Leg', 'Abdomen']",
6,"[0.2, 0]",1,0,9,9,9,,,,,,,1615.9052387999836,1615.9052387999836,1615.9052387999836,1616.9052581000142,1616.8885854999535,1617.8885900999885,1,None,None,"[0, 0, 0]",,,1615.9052387999836,1615.9052387999836,,,,,,,,,,,,,,,,,,,,,,,,,,,,"[0, 0, 0]",,,,,1,M,2,24,r,MCK,2021_Oct_03_0934,2020.2.10,distractmap2,59.99070144031131,"['Left Face', 'Right Arm', 'Left Leg', 'Abdomen']",
,,,,,,,,,,,1617.905250000069,None,,,,,,,,,,,,,,,,,,,,,,,,,,,,,,,,,,,,,,,,,,,24.320987654320987,1325.010228059953,,,1,M,2,24,r,MCK,2021_Oct_03_0934,2020.2.10,distractmap2,59.99070144031131,"['Left Face', 'Right Arm', 'Left Leg', 'Abdomen']",
9,"[0.2, -0.2]",None,0,0,0,0,,,,,1633.0889353000093,None,1637.9387536998838,None,1637.9387536998838,1638.9387562000193,1638.9220765999053,1639.9220759999007,1,None,None,"[0, 0, 0]",,,1637.9387536998838,None,,,,,,,,,,,,,,,,,,,,,,,,,,,,"[0, 0, 0]",,,0.014927640091627836,5.012682040221989,1,M,2,24,r,MCK,2021_Oct_03_0934,2020.2.10,distractmap2,59.99070144031131,"['Left Face', 'Right Arm', 'Left Leg', 'Abdomen']",
9,"[0.2, -0.2]",1,0,1,1,1,,,,,,,1639.938752999995,1639.938752999995,1639.938752999995,1640.9386650000233,1640.922097899951,1641.9220950000454,1,None,None,"[0, 0, 0]",,,1639.938752999995,1639.938752999995,,,,,,,,,,,,,,,,,,,,,,,,,,,,"[0, 0, 0]",,,,,1,M,2,24,r,MCK,2021_Oct_03_0934,2020.2.10,distractmap2,59.99070144031131,"['Left Face', 'Right Arm', 'Left Leg', 'Abdomen']",
9,"[0.2, -0.2]",1,0,2,2,2,,,,,,,1641.93876369996,1641.93876369996,1641.93876369996,1642.9387711000163,1642.9221153000835,1643.9221170998644,1,None,None,"[0, 0, 0]",,,1641.93876369996,1641.93876369996,,,,,,,,,,,,,,,,,,,,,,,,,,,,"[0, 0, 0]",,,,,1,M,2,24,r,MCK,2021_Oct_03_0934,2020.2.10,distractmap2,59.99070144031131,"['Left Face', 'Right Arm', 'Left Leg', 'Abdomen']",
3,"[0.2, 0.2]",0,0,3,3,3,,,,,,,1643.9388001998886,1643.9388001998886,1643.9388001998886,1644.9387932999525,1644.92212569993,1645.922132199863,1,None,None,"[0, 0, 0]",,,1643.9388001998886,1643.9388001998886,,,,,,,,,,,,,,,,,,,,,,,,,,,,"[0, 0, 0]",,,,,1,M,2,24,r,MCK,2021_Oct_03_0934,2020.2.10,distractmap2,59.99070144031131,"['Left Face', 'Right Arm', 'Left Leg', 'Abdomen']",
5,"[0, 0]",0,0,4,4,4,,,,,,,1645.9724204000086,1645.9724204000086,1645.9724204000086,1646.9721554999705,1646.9554761999752,None,1,None,None,"[0, 0, 0]",,,1645.9724204000086,1645.9724204000086,,,,,,,,,,,,,,,,,,,,,,,,,,,,"[0, 0, 0]",,,,,1,M,2,24,r,MCK,2021_Oct_03_0934,2020.2.10,distractmap2,59.99070144031131,"['Left Face', 'Right Arm', 'Left Leg', 'Abdomen']",
4,"[-0.2, 0]",0,0,5,5,5,,,,,,,1647.9555015999358,None,1647.9555015999358,1648.9555047999602,1648.938847299898,1649.9388462998904,1,None,None,"[0, 0, 0]",,,1647.9555015999358,None,,,,,,,,,,,,,,,,,,,,,,,,,,,,"[0, 0, 0]",,,,,1,M,2,24,r,MCK,2021_Oct_03_0934,2020.2.10,distractmap2,59.99070144031131,"['Left Face', 'Right Arm', 'Left Leg', 'Abdomen']",
9,"[0.2, -0.2]",0,0,6,6,6,,,,,,,1649.9555227998644,1649.9555227998644,1649.9555227998644,1650.9555220999755,1650.9388377000578,1651.9388526000548,1,None,None,"[0, 0, 0]",,,1649.9555227998644,1649.9555227998644,,,,,,,,,,,,,,,,,,,,,,,,,,,,"[0, 0, 0]",,,,,1,M,2,24,r,MCK,2021_Oct_03_0934,2020.2.10,distractmap2,59.99070144031131,"['Left Face', 'Right Arm', 'Left Leg', 'Abdomen']",
6,"[0.2, 0]",0,0,7,7,7,,,,,,,1651.95550739998,1651.95550739998,1651.95550739998,1652.955541800009,1652.9388683999423,1653.9388675000519,1,None,None,"[0, 0, 0]",,,1651.95550739998,1651.95550739998,,,,,,,,,,,,,,,,,,,,,,,,,,,,"[0, 0, 0]",,,,,1,M,2,24,r,MCK,2021_Oct_03_0934,2020.2.10,distractmap2,59.99070144031131,"['Left Face', 'Right Arm', 'Left Leg', 'Abdomen']",
2,"[0, 0.2]",0,0,8,8,8,,,,,,,1653.9555470000487,1653.9555470000487,1653.9555470000487,1654.9555391999893,1654.9388677000534,1655.938892700011,1,None,None,"[0, 0, 0]",,,1653.9555470000487,1653.9555470000487,,,,,,,,,,,,,,,,,,,,,,,,,,,,"[0, 0, 0]",,,,,1,M,2,24,r,MCK,2021_Oct_03_0934,2020.2.10,distractmap2,59.99070144031131,"['Left Face', 'Right Arm', 'Left Leg', 'Abdomen']",
2,"[0, 0.2]",1,0,9,9,9,,,,,,,1655.9555631999392,1655.9555631999392,1655.9555631999392,1656.9555704998784,1656.9388774998952,1657.938887400087,1,None,None,"[0, 0, 0]",,,1655.9555631999392,1655.9555631999392,,,,,,,,,,,,,,,,,,,,,,,,,,,,"[0, 0, 0]",,,,,1,M,2,24,r,MCK,2021_Oct_03_0934,2020.2.10,distractmap2,59.99070144031131,"['Left Face', 'Right Arm', 'Left Leg', 'Abdomen']",
,,,,,,,,,,,1657.9555581999011,None,,,,,,,,,,,,,,,,,,,,,,,,,,,,,,,,,,,,,,,,,,,23.209876543209877,1361.293997460045,,,1,M,2,24,r,MCK,2021_Oct_03_0934,2020.2.10,distractmap2,59.99070144031131,"['Left Face', 'Right Arm', 'Left Leg', 'Abdomen']",
2,"[0, 0.2]",None,0,0,0,0,,,,,1671.1392153999768,None,1677.9890421999153,None,1677.9890421999153,1678.9890620999504,1678.9723656999413,1679.972413700074,1,None,None,"[0, 0, 0]",,,1677.9890421999153,None,,,,,,,,,,,,,,,,,,,,,,,,,,,,"[0, 0, 0]",,,0.014754440169781446,5.01235944009386,1,M,2,24,r,MCK,2021_Oct_03_0934,2020.2.10,distractmap2,59.99070144031131,"['Left Face', 'Right Arm', 'Left Leg', 'Abdomen']",
8,"[0, -0.2]",0,0,1,1,1,,,,,,,1679.9890793999657,1679.9890793999657,1679.9890793999657,1680.9890723999124,1680.9724224999081,1681.9724145999644,1,None,None,"[0, 0, 0]",,,1679.9890793999657,1679.9890793999657,,,,,,,,,,,,,,,,,,,,,,,,,,,,"[0, 0, 0]",,,,,1,M,2,24,r,MCK,2021_Oct_03_0934,2020.2.10,distractmap2,59.99070144031131,"['Left Face', 'Right Arm', 'Left Leg', 'Abdomen']",
1,"[-0.2, 0.2]",0,0,2,2,2,,,,,,,1681.9890880999155,1681.9890880999155,1681.9890880999155,1682.9891025999095,1682.9724312999751,1683.9724270999432,1,None,None,"[0, 0, 0]",,,1681.9890880999155,1681.9890880999155,,,,,,,,,,,,,,,,,,,,,,,,,,,,"[0, 0, 0]",,,,,1,M,2,24,r,MCK,2021_Oct_03_0934,2020.2.10,distractmap2,59.99070144031131,"['Left Face', 'Right Arm', 'Left Leg', 'Abdomen']",
2,"[0, 0.2]",0,0,3,3,3,,,,,,,1683.9891083000693,1683.9891083000693,1683.9891083000693,1684.9891025999095,1684.9724582000636,1685.9724582000636,1,None,None,"[0, 0, 0]",,,1683.9891083000693,1683.9891083000693,,,,,,,,,,,,,,,,,,,,,,,,,,,,"[0, 0, 0]",,,,,1,M,2,24,r,MCK,2021_Oct_03_0934,2020.2.10,distractmap2,59.99070144031131,"['Left Face', 'Right Arm', 'Left Leg', 'Abdomen']",
2,"[0, 0.2]",1,0,4,4,4,,,,,,,1686.0229422000702,1686.0229422000702,1686.0229422000702,1687.02243979997,1687.0057850999292,None,1,None,None,"[0, 0, 0]",,,1686.0229422000702,1686.0229422000702,,,,,,,,,,,,,,,,,,,,,,,,,,,,"[0, 0, 0]",,,,,1,M,2,24,r,MCK,2021_Oct_03_0934,2020.2.10,distractmap2,59.99070144031131,"['Left Face', 'Right Arm', 'Left Leg', 'Abdomen']",
7,"[-0.2, -0.2]",0,0,5,5,5,,,,,,,1688.0057763999794,None,1688.0057763999794,1689.005810600007,1688.9891512000468,1689.9891474999022,1,None,None,"[0, 0, 0]",,,1688.0057763999794,None,,,,,,,,,,,,,,,,,,,,,,,,,,,,"[0, 0, 0]",,,,,1,M,2,24,r,MCK,2021_Oct_03_0934,2020.2.10,distractmap2,59.99070144031131,"['Left Face', 'Right Arm', 'Left Leg', 'Abdomen']",
9,"[0.2, -0.2]",0,0,6,6,6,,,,,,,1690.0057913998608,1690.0057913998608,1690.0057913998608,1691.0058279999066,1690.989140999969,1691.9891615000088,1,None,None,"[0, 0, 0]",,,1690.0057913998608,1690.0057913998608,,,,,,,,,,,,,,,,,,,,,,,,,,,,"[0, 0, 0]",,,,,1,M,2,24,r,MCK,2021_Oct_03_0934,2020.2.10,distractmap2,59.99070144031131,"['Left Face', 'Right Arm', 'Left Leg', 'Abdomen']",
9,"[0.2, -0.2]",1,0,7,7,7,,,,,,,1692.0058339999523,1692.0058339999523,1692.0058339999523,1693.005830799928,1692.9891651000362,1693.9891730998643,1,None,None,"[0, 0, 0]",,,1692.0058339999523,1692.0058339999523,,,,,,,,,,,,,,,,,,,,,,,,,,,,"[0, 0, 0]",,,,,1,M,2,24,r,MCK,2021_Oct_03_0934,2020.2.10,distractmap2,59.99070144031131,"['Left Face', 'Right Arm', 'Left Leg', 'Abdomen']",
4,"[-0.2, 0]",0,0,8,8,8,,,,,,,1694.005812499905,1694.005812499905,1694.005812499905,1695.0058589000255,1694.9891719999723,1695.9891870999709,1,None,None,"[0, 0, 0]",,,1694.005812499905,1694.005812499905,,,,,,,,,,,,,,,,,,,,,,,,,,,,"[0, 0, 0]",,,,,1,M,2,24,r,MCK,2021_Oct_03_0934,2020.2.10,distractmap2,59.99070144031131,"['Left Face', 'Right Arm', 'Left Leg', 'Abdomen']",
5,"[0, 0]",0,0,9,9,9,,,,,,,1696.005849499954,1696.005849499954,1696.005849499954,1697.0058472999372,1696.9891917998902,1697.9892011000775,1,None,None,"[0, 0, 0]",,,1696.005849499954,1696.005849499954,,,,,,,,,,,,,,,,,,,,,,,,,,,,"[0, 0, 0]",,,,,1,M,2,24,r,MCK,2021_Oct_03_0934,2020.2.10,distractmap2,59.99070144031131,"['Left Face', 'Right Arm', 'Left Leg', 'Abdomen']",
,,,,,,,,,,,1698.0058806999587,None,,,,,,,,,,,,,,,,,,,,,,,,,,,,,,,,,,,,,,,,,,,30.0,1405.9103703603614,,,1,M,2,24,r,MCK,2021_Oct_03_0934,2020.2.10,distractmap2,59.99070144031131,"['Left Face', 'Right Arm', 'Left Leg', 'Abdomen']",
2,"[0, 0.2]",None,,,,,0,0,0,0,1715.6889066000003,None,,,,,,,,,,,,,,,,,,,,,,None,None,"[0, 0, 0]",1718.055961499922,1720.0560397999361,1718.055961499922,1719.056027899962,1719.056027899962,1720.0560397999361,"[0, 0, 0]",1,1718.055961499922,1720.0560397999361,,,,,,,,,,,0.01539913984015584,5.013637840049341,1,M,2,24,r,MCK,2021_Oct_03_0934,2020.2.10,distractmap2,59.99070144031131,"['Left Face', 'Right Arm', 'Left Leg', 'Abdomen']",
5,"[0, 0]",None,,,,,0,1,1,1,,,,,,,,,,,,,,,,,,,,,,,,None,None,"[0, 0, 0]",1720.0727263998706,1722.0727200000547,1720.0727263998706,1721.0727023000363,1721.0560524999164,1722.0560647998936,"[0, 0, 0]",1,1720.0727263998706,1722.0727200000547,,,,,,,,,,,,,1,M,2,24,r,MCK,2021_Oct_03_0934,2020.2.10,distractmap2,59.99070144031131,"['Left Face', 'Right Arm', 'Left Leg', 'Abdomen']",
6,"[0.2, 0]",0,,,,,0,2,2,2,,,,,,,,,,,,,,,,,,,,,,,,None,None,"[0, 0, 0]",1722.089400100056,1724.0894196000881,1722.089400100056,1723.0893951999024,1723.0727204000577,1724.072728900006,"[0, 0, 0]",1,1722.089400100056,1724.0894196000881,,,,,,,,,,,,,1,M,2,24,r,MCK,2021_Oct_03_0934,2020.2.10,distractmap2,59.99070144031131,"['Left Face', 'Right Arm', 'Left Leg', 'Abdomen']",
1,"[-0.2, 0.2]",0,,,,,0,3,3,3,,,,,,,,,,,,,,,,,,,,,,,,None,None,"[0, 0, 0]",1724.1060768000316,1726.106075400021,1724.1060768000316,1725.1060770999175,1725.0894229998812,1726.089421399869,"[0, 0, 0]",1,1724.1060768000316,1726.106075400021,,,,,,,,,,,,,1,M,2,24,r,MCK,2021_Oct_03_0934,2020.2.10,distractmap2,59.99070144031131,"['Left Face', 'Right Arm', 'Left Leg', 'Abdomen']",
6,"[0.2, 0]",1,,,,,0,4,4,4,,,,,,,,,,,,,,,,,,,,,,,,None,None,"[0, 0, 0]",1726.156398500083,None,1726.156398500083,1727.156085100025,1727.1397003000602,None,"[0, 0, 0]",1,1726.156398500083,None,,,,,,,,,,,,,1,M,2,24,r,MCK,2021_Oct_03_0934,2020.2.10,distractmap2,59.99070144031131,"['Left Face', 'Right Arm', 'Left Leg', 'Abdomen']",
6,"[0.2, 0]",0,,,,,0,5,5,5,,,,,,,,,,,,,,,,,,,,,,,,None,None,"[0, 0, 0]",1728.1394392000511,1730.1394652000163,1728.1394392000511,1729.1394489000086,1729.122777499957,1730.1228028000332,"[0, 0, 0]",1,1728.1394392000511,1730.1394652000163,,,,,,,,,,,,,1,M,2,24,r,MCK,2021_Oct_03_0934,2020.2.10,distractmap2,59.99070144031131,"['Left Face', 'Right Arm', 'Left Leg', 'Abdomen']",
9,"[0.2, -0.2]",0,,,,,0,6,6,6,,,,,,,,,,,,,,,,,,,,,,,,None,None,"[0, 0, 0]",1730.1561290998943,1732.1561292998958,1730.1561290998943,1731.156126699876,1731.1394736999646,1732.1394702000543,"[0, 0, 0]",1,1730.1561290998943,1732.1561292998958,,,,,,,,,,,,,1,M,2,24,r,MCK,2021_Oct_03_0934,2020.2.10,distractmap2,59.99070144031131,"['Left Face', 'Right Arm', 'Left Leg', 'Abdomen']",
6,"[0.2, 0]",1,,,,,0,7,7,7,,,,,,,,,,,,,,,,,,,,,,,,None,None,"[0, 0, 0]",1732.172811999917,1734.1728185999673,1732.172811999917,1733.1728095998988,1733.156148100039,1734.1561573999934,"[0, 0, 0]",1,1732.172811999917,1734.1728185999673,,,,,,,,,,,,,1,M,2,24,r,MCK,2021_Oct_03_0934,2020.2.10,distractmap2,59.99070144031131,"['Left Face', 'Right Arm', 'Left Leg', 'Abdomen']",
3,"[0.2, 0.2]",0,,,,,0,8,8,8,,,,,,,,,,,,,,,,,,,,,,,,None,None,"[0, 0, 0]",1734.1895015998743,1736.1894970999565,1734.1895015998743,1735.1895101999398,1735.172811199911,1736.1728354999796,"[0, 0, 0]",1,1734.1895015998743,1736.1894970999565,,,,,,,,,,,,,1,M,2,24,r,MCK,2021_Oct_03_0934,2020.2.10,distractmap2,59.99070144031131,"['Left Face', 'Right Arm', 'Left Leg', 'Abdomen']",
9,"[0.2, -0.2]",0,,,,,0,9,9,9,,,,,,,,,,,,,,,,,,,,,,,,None,None,"[0, 0, 0]",1736.2061606999487,1738.206188699929,1736.2061606999487,1737.2061896000523,1737.1895349000115,1738.1895179999992,"[0, 0, 0]",1,1736.2061606999487,1738.206188699929,,,,,,,,,,,,,1,M,2,24,r,MCK,2021_Oct_03_0934,2020.2.10,distractmap2,59.99070144031131,"['Left Face', 'Right Arm', 'Left Leg', 'Abdomen']",
,,,,,,,,,,,1738.2228425000794,None,,,,,,,,,,,,,,,,,,,,,,,,,,,,,,,,,,,,,,,,,,,16.728395061728396,1442.1615080600604,,,1,M,2,24,r,MCK,2021_Oct_03_0934,2020.2.10,distractmap2,59.99070144031131,"['Left Face', 'Right Arm', 'Left Leg', 'Abdomen']",
2,"[0, 0.2]",None,0,0,0,0,,,,,1751.6066854998935,None,1758.273013399914,None,1758.273013399914,1759.2730239999946,1759.2563576998655,1760.2563523000572,1,None,None,"[0, 0, 0]",,,1758.273013399914,None,,,,,,,,,,,,,,,,,,,,,,,,,,,,"[0, 0, 0]",,,0.014548340113833547,5.011953740147874,1,M,2,24,r,MCK,2021_Oct_03_0934,2020.2.10,distractmap2,59.99070144031131,"['Left Face', 'Right Arm', 'Left Leg', 'Abdomen']",
2,"[0, 0.2]",1,0,1,1,1,,,,,,,1760.2730073998682,1760.2730073998682,1760.2730073998682,1761.273024499882,1761.2563823000528,1762.2563837000635,0,None,None,"[0, 0, 0]",,,1760.2730073998682,1760.2730073998682,,,,,,,,,,,,,,,,,,,,,,,,,,,,"[0, 0, 0]",,,,,1,M,2,24,r,MCK,2021_Oct_03_0934,2020.2.10,distractmap2,59.99070144031131,"['Left Face', 'Right Arm', 'Left Leg', 'Abdomen']",
1,"[-0.2, 0.2]",0,0,2,2,2,,,,,,,1762.2730375998653,1762.2730375998653,1762.2730375998653,1763.2730278000236,1763.256398000056,1764.2564046999905,1,None,None,"[0, 0, 0]",,,1762.2730375998653,1762.2730375998653,,,,,,,,,,,,,,,,,,,,,,,,,,,,"[0, 0, 0]",,,,,1,M,2,24,r,MCK,2021_Oct_03_0934,2020.2.10,distractmap2,59.99070144031131,"['Left Face', 'Right Arm', 'Left Leg', 'Abdomen']",
2,"[0, 0.2]",0,0,3,3,3,,,,,,,1764.2730541999917,1764.2730541999917,1764.2730541999917,1765.273048199946,1765.2563930000179,1766.256405299995,0,None,None,"[0, 0, 0]",,,1764.2730541999917,1764.2730541999917,,,,,,,,,,,,,,,,,,,,,,,,,,,,"[0, 0, 0]",,,,,1,M,2,24,r,MCK,2021_Oct_03_0934,2020.2.10,distractmap2,59.99070144031131,"['Left Face', 'Right Arm', 'Left Leg', 'Abdomen']",
2,"[0, 0.2]",1,0,4,4,4,,,,,,,1766.323469700059,1766.323469700059,1766.323469700059,1767.3230626999866,1767.3063540000003,None,0,None,None,"[0, 0, 0]",,,1766.323469700059,1766.323469700059,,,,,,,,,,,,,,,,,,,,,,,,,,,,"[0, 0, 0]",,,,,1,M,2,24,r,MCK,2021_Oct_03_0934,2020.2.10,distractmap2,59.99070144031131,"['Left Face', 'Right Arm', 'Left Leg', 'Abdomen']",
4,"[-0.2, 0]",0,0,5,5,5,,,,,,,1768.2897610999644,None,1768.2897610999644,1769.2897457999643,1769.2730811000802,1770.2731033000164,1,None,None,"[0, 0, 0]",,,1768.2897610999644,None,,,,,,,,,,,,,,,,,,,,,,,,,,,,"[0, 0, 0]",,,,,1,M,2,24,r,MCK,2021_Oct_03_0934,2020.2.10,distractmap2,59.99070144031131,"['Left Face', 'Right Arm', 'Left Leg', 'Abdomen']",
6,"[0.2, 0]",0,0,6,6,6,,,,,,,1770.2897836999036,1770.2897836999036,1770.2897836999036,1771.289781600004,1771.273105399916,1772.273116499884,1,None,None,"[0, 0, 0]",,,1770.2897836999036,1770.2897836999036,,,,,,,,,,,,,,,,,,,,,,,,,,,,"[0, 0, 0]",,,,,1,M,2,24,r,MCK,2021_Oct_03_0934,2020.2.10,distractmap2,59.99070144031131,"['Left Face', 'Right Arm', 'Left Leg', 'Abdomen']",
8,"[0, -0.2]",0,0,7,7,7,,,,,,,1772.2897725999355,1772.2897725999355,1772.2897725999355,1773.289797999896,1773.2731250999495,1774.2731264999602,1,None,None,"[0, 0, 0]",,,1772.2897725999355,1772.2897725999355,,,,,,,,,,,,,,,,,,,,,,,,,,,,"[0, 0, 0]",,,,,1,M,2,24,r,MCK,2021_Oct_03_0934,2020.2.10,distractmap2,59.99070144031131,"['Left Face', 'Right Arm', 'Left Leg', 'Abdomen']",
9,"[0.2, -0.2]",0,0,8,8,8,,,,,,,1774.28978500003,1774.28978500003,1774.28978500003,1775.2898055000696,1775.2731246000621,1776.2731425999664,1,None,None,"[0, 0, 0]",,,1774.28978500003,1774.28978500003,,,,,,,,,,,,,,,,,,,,,,,,,,,,"[0, 0, 0]",,,,,1,M,2,24,r,MCK,2021_Oct_03_0934,2020.2.10,distractmap2,59.99070144031131,"['Left Face', 'Right Arm', 'Left Leg', 'Abdomen']",
9,"[0.2, -0.2]",1,0,9,9,9,,,,,,,1776.289831199916,1776.289831199916,1776.289831199916,1777.2898099999875,1777.2731461999938,1778.2731677999254,0,None,None,"[0, 0, 0]",,,1776.289831199916,1776.289831199916,,,,,,,,,,,,,,,,,,,,,,,,,,,,"[0, 0, 0]",,,,,1,M,2,24,r,MCK,2021_Oct_03_0934,2020.2.10,distractmap2,59.99070144031131,"['Left Face', 'Right Arm', 'Left Leg', 'Abdomen']",
,,,,,,,,,,,1778.2898311000317,None,,,,,,,,,,,,,,,,,,,,,,,,,,,,,,,,,,,,,,,,,,,24.074074074074073,1485.5283055601176,,,1,M,2,24,r,MCK,2021_Oct_03_0934,2020.2.10,distractmap2,59.99070144031131,"['Left Face', 'Right Arm', 'Left Leg', 'Abdomen']",
3,"[0.2, 0.2]",None,,,,,0,0,0,0,1795.5068097000476,None,,,,,,,,,,,,,,,,,,,,,,None,None,"[0, 0, 0]",1798.339960299898,1800.3399952000473,1798.339960299898,1799.3399866998661,1799.3399866998661,1800.3399952000473,"[0, 0, 0]",1,1798.339960299898,1800.3399952000473,,,,,,,,,,,0.014730639988556504,5.012267839862034,1,M,2,24,r,MCK,2021_Oct_03_0934,2020.2.10,distractmap2,59.99070144031131,"['Left Face', 'Right Arm', 'Left Leg', 'Abdomen']",
9,"[0.2, -0.2]",None,,,,,0,1,1,1,,,,,,,,,,,,,,,,,,,,,,,,None,None,"[0, 0, 0]",1800.3566805000883,1802.3566894000396,1800.3566805000883,1801.3566679998767,1801.3400196000002,1802.3400089999195,"[0, 0, 0]",1,1800.3566805000883,1802.3566894000396,,,,,,,,,,,,,1,M,2,24,r,MCK,2021_Oct_03_0934,2020.2.10,distractmap2,59.99070144031131,"['Left Face', 'Right Arm', 'Left Leg', 'Abdomen']",
3,"[0.2, 0.2]",1,,,,,0,2,2,2,,,,,,,,,,,,,,,,,,,,,,,,None,None,"[0, 0, 0]",1802.3733456998598,1804.3733751000836,1802.3733456998598,1803.3733524000272,1803.356704799924,1804.3566757000517,"[0, 0, 0]",1,1802.3733456998598,1804.3733751000836,,,,,,,,,,,,,1,M,2,24,r,MCK,2021_Oct_03_0934,2020.2.10,distractmap2,59.99070144031131,"['Left Face', 'Right Arm', 'Left Leg', 'Abdomen']",
7,"[-0.2, -0.2]",0,,,,,0,3,3,3,,,,,,,,,,,,,,,,,,,,,,,,None,None,"[0, 0, 0]",1804.3900260999799,1806.3900216999464,1804.3900260999799,1805.3900297000073,1805.3733715999406,1806.3733804000076,"[0, 0, 0]",1,1804.3900260999799,1806.3900216999464,,,,,,,,,,,,,1,M,2,24,r,MCK,2021_Oct_03_0934,2020.2.10,distractmap2,59.99070144031131,"['Left Face', 'Right Arm', 'Left Leg', 'Abdomen']",
8,"[0, -0.2]",0,,,,,0,4,4,4,,,,,,,,,,,,,,,,,,,,,,,,None,None,"[0, 0, 0]",1806.4402373000048,None,1806.4402373000048,1807.440056399908,1807.4233762000222,None,"[0, 0, 0]",1,1806.4402373000048,None,,,,,,,,,,,,,1,M,2,24,r,MCK,2021_Oct_03_0934,2020.2.10,distractmap2,59.99070144031131,"['Left Face', 'Right Arm', 'Left Leg', 'Abdomen']",
4,"[-0.2, 0]",0,,,,,0,5,5,5,,,,,,,,,,,,,,,,,,,,,,,,None,None,"[0, 0, 0]",1808.4234102000482,1810.4234179998748,1808.4234102000482,1809.4234146000817,1809.4067367999814,1810.4067398000043,"[0, 0, 0]",1,1808.4234102000482,1810.4234179998748,,,,,,,,,,,,,1,M,2,24,r,MCK,2021_Oct_03_0934,2020.2.10,distractmap2,59.99070144031131,"['Left Face', 'Right Arm', 'Left Leg', 'Abdomen']",
4,"[-0.2, 0]",0,,,,,0,6,6,6,,,,,,,,,,,,,,,,,,,,,,,,None,None,"[0, 0, 0]",1810.4400794999674,1812.440083900001,1810.4400794999674,1811.440081199864,1811.4234307999723,1812.423433699878,"[0, 0, 0]",1,1810.4400794999674,1812.440083900001,,,,,,,,,,,,,1,M,2,24,r,MCK,2021_Oct_03_0934,2020.2.10,distractmap2,59.99070144031131,"['Left Face', 'Right Arm', 'Left Leg', 'Abdomen']",
1,"[-0.2, 0.2]",0,,,,,0,7,7,7,,,,,,,,,,,,,,,,,,,,,,,,None,None,"[0, 0, 0]",1812.4567698999308,1814.4567831000313,1812.4567698999308,1813.4567801000085,1813.4401004998945,1814.4401054000482,"[0, 0, 0]",1,1812.4567698999308,1814.4567831000313,,,,,,,,,,,,,1,M,2,24,r,MCK,2021_Oct_03_0934,2020.2.10,distractmap2,59.99070144031131,"['Left Face', 'Right Arm', 'Left Leg', 'Abdomen']",
4,"[-0.2, 0]",1,,,,,0,8,8,8,,,,,,,,,,,,,,,,,,,,,,,,None,None,"[0, 0, 0]",1814.4734581999946,1816.473369400017,1814.4734581999946,1815.4734388000797,1815.4567801000085,1816.4568024000619,"[0, 0, 0]",1,1814.4734581999946,1816.473369400017,,,,,,,,,,,,,1,M,2,24,r,MCK,2021_Oct_03_0934,2020.2.10,distractmap2,59.99070144031131,"['Left Face', 'Right Arm', 'Left Leg', 'Abdomen']",
8,"[0, -0.2]",0,,,,,0,9,9,9,,,,,,,,,,,,,,,,,,,,,,,,None,None,"[0, 0, 0]",1816.490179500077,1818.4901304000523,1816.490179500077,1817.4901376999915,1817.4734608998988,1818.4734734999947,"[0, 0, 0]",1,1816.490179500077,1818.4901304000523,,,,,,,,,,,,,1,M,2,24,r,MCK,2021_Oct_03_0934,2020.2.10,distractmap2,59.99070144031131,"['Left Face', 'Right Arm', 'Left Leg', 'Abdomen']",
,,,,,,,,,,,1818.5068053998984,None,,,,,,,,,,,,,,,,,,,,,,,,,,,,,,,,,,,,,,,,,,,15.802469135802468,1523.9283380601555,,,1,M,2,24,r,MCK,2021_Oct_03_0934,2020.2.10,distractmap2,59.99070144031131,"['Left Face', 'Right Arm', 'Left Leg', 'Abdomen']",
2,"[0, 0.2]",None,,,,,0,0,0,0,1833.7071060999297,None,,,,,,,,,,,,,,,,,,,,,,None,None,"[0, 0, 0]",1838.5401979000308,None,1838.5401979000308,1839.5402812999673,1839.5236303999554,1840.5236535998993,"[0, 0, 0]",1,1838.5401979000308,None,,,,,,,,,,,0.01502883993089199,5.0129344400484115,1,M,2,24,r,MCK,2021_Oct_03_0934,2020.2.10,distractmap2,59.99070144031131,"['Left Face', 'Right Arm', 'Left Leg', 'Abdomen']",
5,"[0, 0]",None,,,,,0,1,1,1,,,,,,,,,,,,,,,,,,,,,,,,None,None,"[0, 0, 0]",1840.5403086000588,1842.540307899937,1840.5403086000588,1841.5403308998793,1841.523655100027,1842.5236605000682,"[0, 0, 0]",1,1840.5403086000588,1842.540307899937,,,,,,,,,,,,,1,M,2,24,r,MCK,2021_Oct_03_0934,2020.2.10,distractmap2,59.99070144031131,"['Left Face', 'Right Arm', 'Left Leg', 'Abdomen']",
3,"[0.2, 0.2]",0,,,,,0,2,2,2,,,,,,,,,,,,,,,,,,,,,,,,None,None,"[0, 0, 0]",1842.5569998999126,1844.5570072000846,1842.5569998999126,1843.5569952998776,1843.5403239999432,1844.5403613999952,"[0, 0, 0]",1,1842.5569998999126,1844.5570072000846,,,,,,,,,,,,,1,M,2,24,r,MCK,2021_Oct_03_0934,2020.2.10,distractmap2,59.99070144031131,"['Left Face', 'Right Arm', 'Left Leg', 'Abdomen']",
5,"[0, 0]",1,,,,,0,3,3,3,,,,,,,,,,,,,,,,,,,,,,,,None,None,"[0, 0, 0]",1844.5736895999871,1846.5736841000617,1844.5736895999871,1845.5736932000145,1845.557014199905,1846.557016900042,"[0, 0, 0]",0,1844.5736895999871,1846.5736841000617,,,,,,,,,,,,,1,M,2,24,r,MCK,2021_Oct_03_0934,2020.2.10,distractmap2,59.99070144031131,"['Left Face', 'Right Arm', 'Left Leg', 'Abdomen']",
2,"[0, 0.2]",0,,,,,0,4,4,4,,,,,,,,,,,,,,,,,,,,,,,,None,None,"[0, 0, 0]",1846.6239986000583,None,1846.6239986000583,1847.6236924999394,1847.6070480998605,None,"[0, 0, 0]",1,1846.6239986000583,None,,,,,,,,,,,,,1,M,2,24,r,MCK,2021_Oct_03_0934,2020.2.10,distractmap2,59.99070144031131,"['Left Face', 'Right Arm', 'Left Leg', 'Abdomen']",
8,"[0, -0.2]",0,,,,,0,5,5,5,,,,,,,,,,,,,,,,,,,,,,,,None,None,"[0, 0, 0]",1848.6070488998666,1850.6070375000127,1848.6070488998666,1849.6070419999305,1849.590378700057,1850.590390899917,"[0, 0, 0]",1,1848.6070488998666,1850.6070375000127,,,,,,,,,,,,,1,M,2,24,r,MCK,2021_Oct_03_0934,2020.2.10,distractmap2,59.99070144031131,"['Left Face', 'Right Arm', 'Left Leg', 'Abdomen']",
4,"[-0.2, 0]",0,,,,,0,6,6,6,,,,,,,,,,,,,,,,,,,,,,,,None,None,"[0, 0, 0]",1850.6237190000247,1852.6237474998925,1850.6237190000247,1851.6237180999015,1851.6070709999185,1852.6070842999034,"[0, 0, 0]",1,1850.6237190000247,1852.6237474998925,,,,,,,,,,,,,1,M,2,24,r,MCK,2021_Oct_03_0934,2020.2.10,distractmap2,59.99070144031131,"['Left Face', 'Right Arm', 'Left Leg', 'Abdomen']",
8,"[0, -0.2]",1,,,,,0,7,7,7,,,,,,,,,,,,,,,,,,,,,,,,None,None,"[0, 0, 0]",1852.6404124998953,1854.6404297000263,1852.6404124998953,1853.6404259998817,1853.6237421000842,1854.6237468000036,"[0, 0, 0]",1,1852.6404124998953,1854.6404297000263,,,,,,,,,,,,,1,M,2,24,r,MCK,2021_Oct_03_0934,2020.2.10,distractmap2,59.99070144031131,"['Left Face', 'Right Arm', 'Left Leg', 'Abdomen']",
7,"[-0.2, -0.2]",0,,,,,0,8,8,8,,,,,,,,,,,,,,,,,,,,,,,,None,None,"[0, 0, 0]",1854.6570794999134,1856.657105299877,1854.6570794999134,1855.6570792000275,1855.6404472000431,1856.6404560999945,"[0, 0, 0]",1,1854.6570794999134,1856.657105299877,,,,,,,,,,,,,1,M,2,24,r,MCK,2021_Oct_03_0934,2020.2.10,distractmap2,59.99070144031131,"['Left Face', 'Right Arm', 'Left Leg', 'Abdomen']",
8,"[0, -0.2]",1,,,,,0,9,9,9,,,,,,,,,,,,,,,,,,,,,,,,None,None,"[0, 0, 0]",1856.673779899953,1858.673789900029,1856.673779899953,1857.6737673999742,1857.6571229998954,1858.6570242999587,"[0, 0, 0]",1,1856.673779899953,1858.673789900029,,,,,,,,,,,,,1,M,2,24,r,MCK,2021_Oct_03_0934,2020.2.10,distractmap2,59.99070144031131,"['Left Face', 'Right Arm', 'Left Leg', 'Abdomen']",
,,,,,,,,,,,1858.6904571000487,None,,,,,,,,,,,,,,,,,,,,,,,,,,,,,,,,,,,,,,,,,,,15.246913580246915,1561.4455873600673,,,1,M,2,24,r,MCK,2021_Oct_03_0934,2020.2.10,distractmap2,59.99070144031131,"['Left Face', 'Right Arm', 'Left Leg', 'Abdomen']",
4,"[-0.2, 0]",None,0,0,0,0,,,,,1871.8740796998609,None,1878.707268099999,None,1878.707268099999,1879.7072950999718,1879.6906264999416,1880.690629000077,1,None,None,"[0, 0, 0]",,,1878.707268099999,None,,,,,,,,,,,,,,,,,,,,,,,,,,,,"[0, 0, 0]",,,0.014729540096595883,5.012310639955103,1,M,2,24,r,MCK,2021_Oct_03_0934,2020.2.10,distractmap2,59.99070144031131,"['Left Face', 'Right Arm', 'Left Leg', 'Abdomen']",
7,"[-0.2, -0.2]",0,0,1,1,1,,,,,,,1880.7073007998988,1880.7073007998988,1880.7073007998988,1881.7075684000738,1881.690642700065,1882.6906524999067,1,None,None,"[0, 0, 0]",,,1880.7073007998988,1880.7073007998988,,,,,,,,,,,,,,,,,,,,,,,,,,,,"[0, 0, 0]",,,,,1,M,2,24,r,MCK,2021_Oct_03_0934,2020.2.10,distractmap2,59.99070144031131,"['Left Face', 'Right Arm', 'Left Leg', 'Abdomen']",
7,"[-0.2, -0.2]",1,0,2,2,2,,,,,,,1882.7073409000877,1882.7073409000877,1882.7073409000877,1883.707320699934,1883.6906387999188,1884.6906596000772,1,None,None,"[0, 0, 0]",,,1882.7073409000877,1882.7073409000877,,,,,,,,,,,,,,,,,,,,,,,,,,,,"[0, 0, 0]",,,,,1,M,2,24,r,MCK,2021_Oct_03_0934,2020.2.10,distractmap2,59.99070144031131,"['Left Face', 'Right Arm', 'Left Leg', 'Abdomen']",
4,"[-0.2, 0]",0,0,3,3,3,,,,,,,1884.707326099975,1884.707326099975,1884.707326099975,1885.7073407999706,1885.6906799999997,1886.6906725999434,1,None,None,"[0, 0, 0]",,,1884.707326099975,1884.707326099975,,,,,,,,,,,,,,,,,,,,,,,,,,,,"[0, 0, 0]",,,,,1,M,2,24,r,MCK,2021_Oct_03_0934,2020.2.10,distractmap2,59.99070144031131,"['Left Face', 'Right Arm', 'Left Leg', 'Abdomen']",
8,"[0, -0.2]",0,0,4,4,4,,,,,,,1886.7574907999951,1886.7574907999951,1886.7574907999951,1887.7573500000872,1887.7406746998895,None,1,None,None,"[0, 0, 0]",,,1886.7574907999951,1886.7574907999951,,,,,,,,,,,,,,,,,,,,,,,,,,,,"[0, 0, 0]",,,,,1,M,2,24,r,MCK,2021_Oct_03_0934,2020.2.10,distractmap2,59.99070144031131,"['Left Face', 'Right Arm', 'Left Leg', 'Abdomen']",
4,"[-0.2, 0]",0,0,5,5,5,,,,,,,1888.724003399955,None,1888.724003399955,1889.724029700039,1889.7073562999722,1890.7073552999645,1,None,None,"[0, 0, 0]",,,1888.724003399955,None,,,,,,,,,,,,,,,,,,,,,,,,,,,,"[0, 0, 0]",,,,,1,M,2,24,r,MCK,2021_Oct_03_0934,2020.2.10,distractmap2,59.99070144031131,"['Left Face', 'Right Arm', 'Left Leg', 'Abdomen']",
7,"[-0.2, -0.2]",0,0,6,6,6,,,,,,,1890.7240138000343,1890.7240138000343,1890.7240138000343,1891.724037699867,1891.7072810998652,1892.7073804999236,1,None,None,"[0, 0, 0]",,,1890.7240138000343,1890.7240138000343,,,,,,,,,,,,,,,,,,,,,,,,,,,,"[0, 0, 0]",,,,,1,M,2,24,r,MCK,2021_Oct_03_0934,2020.2.10,distractmap2,59.99070144031131,"['Left Face', 'Right Arm', 'Left Leg', 'Abdomen']",
6,"[0.2, 0]",0,0,7,7,7,,,,,,,1892.7240337999538,1892.7240337999538,1892.7240337999538,1893.7240420999005,1893.707402799977,1894.70741240005,1,None,None,"[0, 0, 0]",,,1892.7240337999538,1892.7240337999538,,,,,,,,,,,,,,,,,,,,,,,,,,,,"[0, 0, 0]",,,,,1,M,2,24,r,MCK,2021_Oct_03_0934,2020.2.10,distractmap2,59.99070144031131,"['Left Face', 'Right Arm', 'Left Leg', 'Abdomen']",
6,"[0.2, 0]",1,0,8,8,8,,,,,,,1894.7240645999555,1894.7240645999555,1894.7240645999555,1895.7240581999067,1895.7074025999755,1896.7074309000745,0,None,None,"[0, 0, 0]",,,1894.7240645999555,1894.7240645999555,,,,,,,,,,,,,,,,,,,,,,,,,,,,"[0, 0, 0]",,,,,1,M,2,24,r,MCK,2021_Oct_03_0934,2020.2.10,distractmap2,59.99070144031131,"['Left Face', 'Right Arm', 'Left Leg', 'Abdomen']",
1,"[-0.2, 0.2]",0,0,9,9,9,,,,,,,1896.724067099858,1896.724067099858,1896.724067099858,1897.7240718998946,1897.707427999936,1898.7074348998722,1,None,None,"[0, 0, 0]",,,1896.724067099858,1896.724067099858,,,,,,,,,,,,,,,,,,,,,,,,,,,,"[0, 0, 0]",,,,,1,M,2,24,r,MCK,2021_Oct_03_0934,2020.2.10,distractmap2,59.99070144031131,"['Left Face', 'Right Arm', 'Left Leg', 'Abdomen']",
,,,,,,,,,,,1898.7240833998658,None,,,,,,,,,,,,,,,,,,,,,,,,,,,,,,,,,,,,,,,,,,,23.271604938271608,1602.762753559975,,,1,M,2,24,r,MCK,2021_Oct_03_0934,2020.2.10,distractmap2,59.99070144031131,"['Left Face', 'Right Arm', 'Left Leg', 'Abdomen']",
2,"[0, 0.2]",None,,,,,0,0,0,0,1912.0745675000362,None,,,,,,,,,,,,,,,,,,,,,,None,None,"[0, 0, 0]",1918.7742631,1920.774251600029,1918.7742631,1919.7742574999575,1919.757604500046,1920.757596799871,"[0, 0, 0]",1,1918.7742631,1920.774251600029,,,,,,,,,,,0.014552840031683445,5.011933439876884,1,M,2,24,r,MCK,2021_Oct_03_0934,2020.2.10,distractmap2,59.99070144031131,"['Left Face', 'Right Arm', 'Left Leg', 'Abdomen']",
2,"[0, 0.2]",None,,,,,0,1,1,1,,,,,,,,,,,,,,,,,,,,,,,,None,None,"[0, 0, 0]",1920.7909377999604,1922.7909560999833,1920.7909377999604,1921.790928500006,1921.7742669999134,1922.774279099889,"[0, 0, 0]",1,1920.7909377999604,1922.7909560999833,,,,,,,,,,,,,1,M,2,24,r,MCK,2021_Oct_03_0934,2020.2.10,distractmap2,59.99070144031131,"['Left Face', 'Right Arm', 'Left Leg', 'Abdomen']",
2,"[0, 0.2]",1,,,,,0,2,2,2,,,,,,,,,,,,,,,,,,,,,,,,None,None,"[0, 0, 0]",1922.8076199998613,1924.8076323999558,1922.8076199998613,1923.8076267000288,1923.7909530000761,1924.790952600073,"[0, 0, 0]",1,1922.8076199998613,1924.8076323999558,,,,,,,,,,,,,1,M,2,24,r,MCK,2021_Oct_03_0934,2020.2.10,distractmap2,59.99070144031131,"['Left Face', 'Right Arm', 'Left Leg', 'Abdomen']",
8,"[0, -0.2]",0,,,,,0,3,3,3,,,,,,,,,,,,,,,,,,,,,,,,None,None,"[0, 0, 0]",1924.8242895000149,1926.824306699913,1924.8242895000149,1925.8242941999342,1925.8076374998782,1926.8076625000685,"[0, 0, 0]",1,1924.8242895000149,1926.824306699913,,,,,,,,,,,,,1,M,2,24,r,MCK,2021_Oct_03_0934,2020.2.10,distractmap2,59.99070144031131,"['Left Face', 'Right Arm', 'Left Leg', 'Abdomen']",
2,"[0, 0.2]",1,,,,,0,4,4,4,,,,,,,,,,,,,,,,,,,,,,,,None,None,"[0, 0, 0]",1926.8744705000427,None,1926.8744705000427,1927.8743123998865,1927.8576686000451,None,"[0, 0, 0]",1,1926.8744705000427,None,,,,,,,,,,,,,1,M,2,24,r,MCK,2021_Oct_03_0934,2020.2.10,distractmap2,59.99070144031131,"['Left Face', 'Right Arm', 'Left Leg', 'Abdomen']",
5,"[0, 0]",0,,,,,0,5,5,5,,,,,,,,,,,,,,,,,,,,,,,,None,None,"[0, 0, 0]",1928.8576656000223,1930.8575895999093,1928.8576656000223,1929.8576744000893,1929.8410010000225,1930.8410145998932,"[0, 0, 0]",1,1928.8576656000223,1930.8575895999093,,,,,,,,,,,,,1,M,2,24,r,MCK,2021_Oct_03_0934,2020.2.10,distractmap2,59.99070144031131,"['Left Face', 'Right Arm', 'Left Leg', 'Abdomen']",
1,"[-0.2, 0.2]",0,,,,,0,6,6,6,,,,,,,,,,,,,,,,,,,,,,,,None,None,"[0, 0, 0]",1930.8743427998852,1932.874368299963,1930.8743427998852,1931.874363000039,1931.857687599957,1932.8576964999083,"[0, 0, 0]",1,1930.8743427998852,1932.874368299963,,,,,,,,,,,,,1,M,2,24,r,MCK,2021_Oct_03_0934,2020.2.10,distractmap2,59.99070144031131,"['Left Face', 'Right Arm', 'Left Leg', 'Abdomen']",
1,"[-0.2, 0.2]",0,,,,,0,7,7,7,,,,,,,,,,,,,,,,,,,,,,,,None,None,"[0, 0, 0]",1932.8910190998577,1934.8910441999324,1932.8910190998577,1933.8910457999445,1933.874364499934,1934.874374399893,"[0, 0, 0]",1,1932.8910190998577,1934.8910441999324,,,,,,,,,,,,,1,M,2,24,r,MCK,2021_Oct_03_0934,2020.2.10,distractmap2,59.99070144031131,"['Left Face', 'Right Arm', 'Left Leg', 'Abdomen']",
6,"[0.2, 0]",0,,,,,0,8,8,8,,,,,,,,,,,,,,,,,,,,,,,,None,None,"[0, 0, 0]",1934.9077280999627,1936.9077244999353,1934.9077280999627,1935.9077232000418,1935.8910618999507,1936.8910417000297,"[0, 0, 0]",1,1934.9077280999627,1936.9077244999353,,,,,,,,,,,,,1,M,2,24,r,MCK,2021_Oct_03_0934,2020.2.10,distractmap2,59.99070144031131,"['Left Face', 'Right Arm', 'Left Leg', 'Abdomen']",
1,"[-0.2, 0.2]",1,,,,,0,9,9,9,,,,,,,,,,,,,,,,,,,,,,,,None,None,"[0, 0, 0]",1936.9244011000264,1938.9244188000448,1936.9244011000264,1937.9243995000143,1937.907730499981,1938.9077361000236,"[0, 0, 0]",1,1936.9244011000264,1938.9244188000448,,,,,,,,,,,,,1,M,2,24,r,MCK,2021_Oct_03_0934,2020.2.10,distractmap2,59.99070144031131,"['Left Face', 'Right Arm', 'Left Leg', 'Abdomen']",
,,,,,,,,,,,1938.9410188999027,None,,,,,,,,,,,,,,,,,,,,,,,,,,,,,,,,,,,,,,,,,,,14.382716049382719,1642.0290641600732,,,1,M,2,24,r,MCK,2021_Oct_03_0934,2020.2.10,distractmap2,59.99070144031131,"['Left Face', 'Right Arm', 'Left Leg', 'Abdomen']",
5,"[0, 0]",None,0,0,0,0,,,,,2201.960068800021,None,2206.7431707999203,None,2206.7431707999203,2207.7431651998777,2207.726507199928,2208.726499899989,1,None,None,"[0, 0, 0]",,,2206.7431707999203,None,,,,,,,,,,,,,,,,,,,,,1992.3915075999685,1992.3915075999685,None,space,190.25917540001683,1992.3915075999685,None,"[0, 0, 0]",,,0.015214039944112301,5.013266339898109,1,M,2,24,r,MCK,2021_Oct_03_0934,2020.2.10,distractmap2,59.99070144031131,"['Left Face', 'Right Arm', 'Left Leg', 'Abdomen']",
5,"[0, 0]",1,0,1,1,1,,,,,,,2208.743182499893,2208.743182499893,2208.743182499893,2209.743176799966,2209.726520899916,2210.7265242000576,1,None,None,"[0, 0, 0]",,,2208.743182499893,2208.743182499893,,,,,,,,,,,,,,,,,,,,,,,,,,,,"[0, 0, 0]",,,,,1,M,2,24,r,MCK,2021_Oct_03_0934,2020.2.10,distractmap2,59.99070144031131,"['Left Face', 'Right Arm', 'Left Leg', 'Abdomen']",
4,"[-0.2, 0]",0,0,2,2,2,,,,,,,2210.7431933998596,2210.7431933998596,2210.7431933998596,2211.743205799954,2211.7265246000607,2212.7265359000303,1,None,None,"[0, 0, 0]",,,2210.7431933998596,2210.7431933998596,,,,,,,,,,,,,,,,,,,,,,,,,,,,"[0, 0, 0]",,,,,1,M,2,24,r,MCK,2021_Oct_03_0934,2020.2.10,distractmap2,59.99070144031131,"['Left Face', 'Right Arm', 'Left Leg', 'Abdomen']",
2,"[0, 0.2]",0,0,3,3,3,,,,,,,2212.743195799878,2212.743195799878,2212.743195799878,2213.743211499881,2213.726536900038,2214.7265462998766,1,None,None,"[0, 0, 0]",,,2212.743195799878,2212.743195799878,,,,,,,,,,,,,,,,,,,,,,,,,,,,"[0, 0, 0]",,,,,1,M,2,24,r,MCK,2021_Oct_03_0934,2020.2.10,distractmap2,59.99070144031131,"['Left Face', 'Right Arm', 'Left Leg', 'Abdomen']",
6,"[0.2, 0]",0,0,4,4,4,,,,,,,2214.7768643000163,2214.7768643000163,2214.7768643000163,2215.776586699998,2215.7599197998643,None,1,None,None,"[0, 0, 0]",,,2214.7768643000163,2214.7768643000163,,,,,,,,,,,,,,,,,,,,,,,,,,,,"[0, 0, 0]",,,,,1,M,2,24,r,MCK,2021_Oct_03_0934,2020.2.10,distractmap2,59.99070144031131,"['Left Face', 'Right Arm', 'Left Leg', 'Abdomen']",
8,"[0, -0.2]",0,0,5,5,5,,,,,,,2216.759908200009,None,2216.759908200009,2217.7599206999876,2217.7432595000137,2218.743234100053,1,None,None,"[0, 0, 0]",,,2216.759908200009,None,,,,,,,,,,,,,,,,,,,,,,,,,,,,"[0, 0, 0]",,,,,1,M,2,24,r,MCK,2021_Oct_03_0934,2020.2.10,distractmap2,59.99070144031131,"['Left Face', 'Right Arm', 'Left Leg', 'Abdomen']",
1,"[-0.2, 0.2]",0,0,6,6,6,,,,,,,2218.7599198999815,2218.7599198999815,2218.7599198999815,2219.7599307000637,2219.743286699988,2220.743259599898,1,None,None,"[0, 0, 0]",,,2218.7599198999815,2218.7599198999815,,,,,,,,,,,,,,,,,,,,,,,,,,,,"[0, 0, 0]",,,,,1,M,2,24,r,MCK,2021_Oct_03_0934,2020.2.10,distractmap2,59.99070144031131,"['Left Face', 'Right Arm', 'Left Leg', 'Abdomen']",
4,"[-0.2, 0]",0,0,7,7,7,,,,,,,2220.759937199997,2220.759937199997,2220.759937199997,2221.7599382998887,2221.7432856999803,2222.743286699988,1,None,None,"[0, 0, 0]",,,2220.759937199997,2220.759937199997,,,,,,,,,,,,,,,,,,,,,,,,,,,,"[0, 0, 0]",,,,,1,M,2,24,r,MCK,2021_Oct_03_0934,2020.2.10,distractmap2,59.99070144031131,"['Left Face', 'Right Arm', 'Left Leg', 'Abdomen']",
8,"[0, -0.2]",0,0,8,8,8,,,,,,,2222.7599456000607,2222.7599456000607,2222.7599456000607,2223.75996210007,2223.743304299889,2224.7433132000733,1,None,None,"[0, 0, 0]",,,2222.7599456000607,2222.7599456000607,,,,,,,,,,,,,,,,,,,,,,,,,,,,"[0, 0, 0]",,,,,1,M,2,24,r,MCK,2021_Oct_03_0934,2020.2.10,distractmap2,59.99070144031131,"['Left Face', 'Right Arm', 'Left Leg', 'Abdomen']",
8,"[0, -0.2]",1,0,9,9,9,,,,,,,2224.7599587999284,2224.7599587999284,2224.7599587999284,2225.7599678998813,2225.743317599874,2226.743308499921,1,None,None,"[0, 0, 0]",,,2224.7599587999284,2224.7599587999284,,,,,,,,,,,,,,,,,,,,,,,,,,,,"[0, 0, 0]",,,,,1,M,2,24,r,MCK,2021_Oct_03_0934,2020.2.10,distractmap2,59.99070144031131,"['Left Face', 'Right Arm', 'Left Leg', 'Abdomen']",
,,,,,,,,,,,2226.759886200074,None,,,,,,,,,,,,,,,,,,,,,,,,,,,,,,,,,,,,,,,,,,,38.33333333333333,1929.6647151599173,,,1,M,2,24,r,MCK,2021_Oct_03_0934,2020.2.10,distractmap2,59.99070144031131,"['Left Face', 'Right Arm', 'Left Leg', 'Abdomen']",
3,"[0.2, 0.2]",None,,,,,0,0,0,0,2240.0102635000367,None,,,,,,,,,,,,,,,,,,,,,,None,None,"[0, 0, 0]",2246.776853099931,2248.7768264999613,2246.776853099931,2247.776814599987,2247.7601499999873,2248.760163599858,"[0, 0, 0]",1,2246.776853099931,2248.7768264999613,,,,,,,,,,,0.01512714009732008,5.013102540047839,1,M,2,24,r,MCK,2021_Oct_03_0934,2020.2.10,distractmap2,59.99070144031131,"['Left Face', 'Right Arm', 'Left Leg', 'Abdomen']",
3,"[0.2, 0.2]",None,,,,,0,1,1,1,,,,,,,,,,,,,,,,,,,,,,,,None,None,"[0, 0, 0]",2248.7934957998805,2250.7935019000433,2248.7934957998805,2249.793497999897,2249.776827200083,2250.7768377000466,"[0, 0, 0]",1,2248.7934957998805,2250.7935019000433,,,,,,,,,,,,,1,M,2,24,r,MCK,2021_Oct_03_0934,2020.2.10,distractmap2,59.99070144031131,"['Left Face', 'Right Arm', 'Left Leg', 'Abdomen']",
5,"[0, 0]",0,,,,,0,2,2,2,,,,,,,,,,,,,,,,,,,,,,,,None,None,"[0, 0, 0]",2250.810160999885,2252.810183299938,2250.810160999885,2251.8101812000386,2251.793507900089,2252.793526099995,"[0, 0, 0]",1,2250.810160999885,2252.810183299938,,,,,,,,,,,,,1,M,2,24,r,MCK,2021_Oct_03_0934,2020.2.10,distractmap2,59.99070144031131,"['Left Face', 'Right Arm', 'Left Leg', 'Abdomen']",
1,"[-0.2, 0.2]",0,,,,,0,3,3,3,,,,,,,,,,,,,,,,,,,,,,,,None,None,"[0, 0, 0]",2252.826849400066,2254.8268802000675,2252.826849400066,2253.826884099981,2253.810182899935,2254.810205799993,"[0, 0, 0]",1,2252.826849400066,2254.8268802000675,,,,,,,,,,,,,1,M,2,24,r,MCK,2021_Oct_03_0934,2020.2.10,distractmap2,59.99070144031131,"['Left Face', 'Right Arm', 'Left Leg', 'Abdomen']",
5,"[0, 0]",1,,,,,0,4,4,4,,,,,,,,,,,,,,,,,,,,,,,,None,None,"[0, 0, 0]",2254.8771549998783,None,2254.8771549998783,2255.8768921999726,2255.8602110000793,None,"[0, 0, 0]",1,2254.8771549998783,None,,,,,,,,,,,,,1,M,2,24,r,MCK,2021_Oct_03_0934,2020.2.10,distractmap2,59.99070144031131,"['Left Face', 'Right Arm', 'Left Leg', 'Abdomen']",
8,"[0, -0.2]",0,,,,,0,5,5,5,,,,,,,,,,,,,,,,,,,,,,,,None,None,"[0, 0, 0]",2256.8602167000063,2258.8602354999166,2256.8602167000063,2257.860237899935,2257.843561100075,2258.8435791998636,"[0, 0, 0]",1,2256.8602167000063,2258.8602354999166,,,,,,,,,,,,,1,M,2,24,r,MCK,2021_Oct_03_0934,2020.2.10,distractmap2,59.99070144031131,"['Left Face', 'Right Arm', 'Left Leg', 'Abdomen']",
5,"[0, 0]",1,,,,,0,6,6,6,,,,,,,,,,,,,,,,,,,,,,,,None,None,"[0, 0, 0]",2258.8768996999133,2260.8769241999835,2258.8768996999133,2259.8769237999804,2259.860238299938,2260.8602404999547,"[0, 0, 0]",1,2258.8768996999133,2260.8769241999835,,,,,,,,,,,,,1,M,2,24,r,MCK,2021_Oct_03_0934,2020.2.10,distractmap2,59.99070144031131,"['Left Face', 'Right Arm', 'Left Leg', 'Abdomen']",
7,"[-0.2, -0.2]",0,,,,,0,7,7,7,,,,,,,,,,,,,,,,,,,,,,,,None,None,"[0, 0, 0]",2260.8935831999406,2262.8936121000443,2260.8935831999406,2261.893589899875,2261.8769453000277,2262.8769398999866,"[0, 0, 0]",1,2260.8935831999406,2262.8936121000443,,,,,,,,,,,,,1,M,2,24,r,MCK,2021_Oct_03_0934,2020.2.10,distractmap2,59.99070144031131,"['Left Face', 'Right Arm', 'Left Leg', 'Abdomen']",
5,"[0, 0]",1,,,,,0,8,8,8,,,,,,,,,,,,,,,,,,,,,,,,None,None,"[0, 0, 0]",2262.910269399872,2264.910292000044,2262.910269399872,2263.9102874998935,2263.8936029998586,2264.8936197999865,"[0, 0, 0]",1,2262.910269399872,2264.910292000044,,,,,,,,,,,,,1,M,2,24,r,MCK,2021_Oct_03_0934,2020.2.10,distractmap2,59.99070144031131,"['Left Face', 'Right Arm', 'Left Leg', 'Abdomen']",
7,"[-0.2, -0.2]",1,,,,,0,9,9,9,,,,,,,,,,,,,,,,,,,,,,,,None,None,"[0, 0, 0]",2264.926945199957,2266.9269687000196,2264.926945199957,2265.9269025998656,2265.910298099974,2266.910309500061,"[0, 0, 0]",1,2264.926945199957,2266.9269687000196,,,,,,,,,,,,,1,M,2,24,r,MCK,2021_Oct_03_0934,2020.2.10,distractmap2,59.99070144031131,"['Left Face', 'Right Arm', 'Left Leg', 'Abdomen']",
,,,,,,,,,,,2266.943642599974,None,,,,,,,,,,,,,,,,,,,,,,,,,,,,,,,,,,,,,,,,,,,31.234567901234566,1972.3656140598468,,,1,M,2,24,r,MCK,2021_Oct_03_0934,2020.2.10,distractmap2,59.99070144031131,"['Left Face', 'Right Arm', 'Left Leg', 'Abdomen']",
6,"[0.2, 0]",None,,,,,0,0,0,0,2282.6271353000775,None,,,,,,,,,,,,,,,,,,,,,,None,None,"[0, 0, 0]",2286.977132400032,None,2286.977132400032,2287.9771187999286,2287.960457399953,2288.960474099964,"[0, 0, 0]",1,2286.977132400032,None,,,,,,,,,,,0.014541340293362737,5.011871740221977,1,M,2,24,r,MCK,2021_Oct_03_0934,2020.2.10,distractmap2,59.99070144031131,"['Left Face', 'Right Arm', 'Left Leg', 'Abdomen']",
1,"[-0.2, 0.2]",None,,,,,0,1,1,1,,,,,,,,,,,,,,,,,,,,,,,,None,None,"[0, 0, 0]",2288.977168200072,2290.9771583999973,2288.977168200072,2289.97714870004,2289.960479799891,2290.960484900046,"[0, 0, 0]",1,2288.977168200072,2290.9771583999973,,,,,,,,,,,,,1,M,2,24,r,MCK,2021_Oct_03_0934,2020.2.10,distractmap2,59.99070144031131,"['Left Face', 'Right Arm', 'Left Leg', 'Abdomen']",
6,"[0.2, 0]",1,,,,,0,2,2,2,,,,,,,,,,,,,,,,,,,,,,,,None,None,"[0, 0, 0]",2290.993820599979,2292.993842500029,2290.993820599979,2291.9938250000123,2291.977176599903,2292.9771515999455,"[0, 0, 0]",1,2290.993820599979,2292.993842500029,,,,,,,,,,,,,1,M,2,24,r,MCK,2021_Oct_03_0934,2020.2.10,distractmap2,59.99070144031131,"['Left Face', 'Right Arm', 'Left Leg', 'Abdomen']",
4,"[-0.2, 0]",0,,,,,0,3,3,3,,,,,,,,,,,,,,,,,,,,,,,,None,None,"[0, 0, 0]",2293.010507799918,2295.0105214999057,2293.010507799918,2294.0104920000304,2293.9938479000703,2294.993873700034,"[0, 0, 0]",1,2293.010507799918,2295.0105214999057,,,,,,,,,,,,,1,M,2,24,r,MCK,2021_Oct_03_0934,2020.2.10,distractmap2,59.99070144031131,"['Left Face', 'Right Arm', 'Left Leg', 'Abdomen']",
1,"[-0.2, 0.2]",0,,,,,0,4,4,4,,,,,,,,,,,,,,,,,,,,,,,,None,None,"[0, 0, 0]",2295.0608391999267,None,2295.0608391999267,2296.060521699954,2296.0438703000546,None,"[0, 0, 0]",1,2295.0608391999267,None,,,,,,,,,,,,,1,M,2,24,r,MCK,2021_Oct_03_0934,2020.2.10,distractmap2,59.99070144031131,"['Left Face', 'Right Arm', 'Left Leg', 'Abdomen']",
8,"[0, -0.2]",0,,,,,0,5,5,5,,,,,,,,,,,,,,,,,,,,,,,,None,None,"[0, 0, 0]",2297.0438784,2299.043894900009,2297.0438784,2298.043889899971,2298.0272101999726,2299.027266100049,"[0, 0, 0]",1,2297.0438784,2299.043894900009,,,,,,,,,,,,,1,M,2,24,r,MCK,2021_Oct_03_0934,2020.2.10,distractmap2,59.99070144031131,"['Left Face', 'Right Arm', 'Left Leg', 'Abdomen']",
1,"[-0.2, 0.2]",1,,,,,0,6,6,6,,,,,,,,,,,,,,,,,,,,,,,,None,None,"[0, 0, 0]",2299.0605528999586,2301.0605663000606,2299.0605528999586,2300.060536300065,2300.0439083999954,2301.0439009000547,"[0, 0, 0]",1,2299.0605528999586,2301.0605663000606,,,,,,,,,,,,,1,M,2,24,r,MCK,2021_Oct_03_0934,2020.2.10,distractmap2,59.99070144031131,"['Left Face', 'Right Arm', 'Left Leg', 'Abdomen']",
8,"[0, -0.2]",1,,,,,0,7,7,7,,,,,,,,,,,,,,,,,,,,,,,,None,None,"[0, 0, 0]",2301.0772394000087,2303.077243699925,2301.0772394000087,2302.077254799893,2302.060582499951,2303.0605746000074,"[0, 0, 0]",0,2301.0772394000087,2303.077243699925,,,,,,,,,,,,,1,M,2,24,r,MCK,2021_Oct_03_0934,2020.2.10,distractmap2,59.99070144031131,"['Left Face', 'Right Arm', 'Left Leg', 'Abdomen']",
1,"[-0.2, 0.2]",1,,,,,0,8,8,8,,,,,,,,,,,,,,,,,,,,,,,,None,None,"[0, 0, 0]",2303.093925900059,2305.093952599913,2303.093925900059,2304.0939307999797,2304.0772585000377,2305.077260900056,"[0, 0, 0]",1,2303.093925900059,2305.093952599913,,,,,,,,,,,,,1,M,2,24,r,MCK,2021_Oct_03_0934,2020.2.10,distractmap2,59.99070144031131,"['Left Face', 'Right Arm', 'Left Leg', 'Abdomen']",
6,"[0.2, 0]",0,,,,,0,9,9,9,,,,,,,,,,,,,,,,,,,,,,,,None,None,"[0, 0, 0]",2305.110501999967,2307.1105953999795,2305.110501999967,2306.1106105998624,2306.09395219991,2307.0939611999784,"[0, 0, 0]",0,2305.110501999967,2307.1105953999795,,,,,,,,,,,,,1,M,2,24,r,MCK,2021_Oct_03_0934,2020.2.10,distractmap2,59.99070144031131,"['Left Face', 'Right Arm', 'Left Leg', 'Abdomen']",
