	SID	date	sex	session	handedness	scanner	onset	duration	repetition	rating	body_site	keys	temperature	conditionrt	mouseclick	biopac_channel	condition	rt	value	skin_site
0	2496	2024_Apr_25_1826	F	2	R	SS SK	2.7814788001123816	5.007234212709591			Chest					41	Regulation Instruction			3
1	2496	2024_Apr_25_1826	F	2	R	SS SK	7.977551900083199	7.001506760017946			Chest					7	Pre-Trial Jitter			3
2	2496	2024_Apr_25_1826	F	2	R	SS SK	15.005670299986377	13.012192740105093			Chest		47.5			17	Heat-Stimulation			3
3	2496	2024_Apr_25_1826	F	2	R	SS SK	28.05388190015219	7.015991820255294			Chest					8	Post-Trial Jitter			3
4	2496	2024_Apr_25_1826	F	2	R	SS SK	35.08027909998782	4.9966802599374205			Chest					20	PainBinary	2.1843189001083374	-1.0	3
5	2496	2024_Apr_25_1826	F	2	R	SS SK	40.09702430013567	5.0133275599218905			Chest					21	IntensityRating	3.033571399981156	22.71604938271605	3
6	2496	2024_Apr_25_1826	F	2	R	SS SK	45.125801800051704	5.005887259962037			Chest					52	AcceptBinary	1.6335626998916268	1.0	3
7	2496	2024_Apr_25_1826	F	2	R	SS SK	50.13336850004271	7.0075471799355			Chest					9	Post-Q-Jitter			3
8	2496	2024_Apr_25_1826	F	2	R	SS SK	57.339541899971664	7.011998940259218			Chest					7	Pre-Trial Jitter			3
9	2496	2024_Apr_25_1826	F	2	R	SS SK	64.3959562999662	12.999412419972941			Chest		47.5			17	Heat-Stimulation			3
10	2496	2024_Apr_25_1826	F	2	R	SS SK	77.43582640006207	7.003252540016547			Chest					8	Post-Trial Jitter			3
11	2496	2024_Apr_25_1826	F	2	R	SS SK	84.46539789997041	5.01099165994674			Chest					20	PainBinary	2.650113800074905	-1.0	3
12	2496	2024_Apr_25_1826	F	2	R	SS SK	89.49734360002913	5.013861159794033			Chest					21	IntensityRating	2.7335889998357743	26.04938271604938	3
13	2496	2024_Apr_25_1826	F	2	R	SS SK	94.52652890002355	5.005576259922236			Chest					52	AcceptBinary	1.933578599942848	1.0	3
14	2496	2024_Apr_25_1826	F	2	R	SS SK	99.53289999999106	7.009650079999119			Chest					9	Post-Q-Jitter			3
15	2496	2024_Apr_25_1826	F	2	R	SS SK	107.38812220003456	7.015904660569504			Chest					7	Pre-Trial Jitter			3
16	2496	2024_Apr_25_1826	F	2	R	SS SK	114.4412513000425	13.010095820296556			Chest		47.5			17	Heat-Stimulation			3
17	2496	2024_Apr_25_1826	F	2	R	SS SK	127.48564080009237	5.0048167400527745			Chest					8	Post-Trial Jitter			3
18	2496	2024_Apr_25_1826	F	2	R	SS SK	132.5148122999817	4.996576859848574			Chest					20	PainBinary	1.700561299920082	-1.0	3
19	2496	2024_Apr_25_1826	F	2	R	SS SK	137.5308181999717	4.9980640599969774			Chest					21	IntensityRating	4.150596500141546	24.074074074074073	3
20	2496	2024_Apr_25_1826	F	2	R	SS SK	142.54436940001324	5.00439115986228			Chest					52	AcceptBinary	1.11696120002307	1.0	3
21	2496	2024_Apr_25_1826	F	2	R	SS SK	147.5506529000122	7.008608180098236			Chest					9	Post-Q-Jitter			3
22	2496	2024_Apr_25_1826	F	2	R	SS SK	155.3843676999677	9.007916000671685			Chest					7	Pre-Trial Jitter			3
23	2496	2024_Apr_25_1826	F	2	R	SS SK	164.4415955999866	13.010505820158869			Chest		47.5			17	Heat-Stimulation			3
24	2496	2024_Apr_25_1826	F	2	R	SS SK	177.48627450014465	9.004763740114868			Chest					8	Post-Trial Jitter			3
25	2496	2024_Apr_25_1826	F	2	R	SS SK	186.51777080004103	5.008577559841797			Chest					20	PainBinary	1.7500528001692146	-1.0	3
26	2496	2024_Apr_25_1826	F	2	R	SS SK	191.54855920001864	4.997135560028255			Chest					21	IntensityRating	3.117391200037673	24.50617283950617	3
27	2496	2024_Apr_25_1826	F	2	R	SS SK	196.55978070013225	5.008144960040227			Chest					52	AcceptBinary	1.1683944000396878	1.0	3
28	2496	2024_Apr_25_1826	F	2	R	SS SK	201.56831550016068	7.007832380011678			Chest					9	Post-Q-Jitter			3
29	2496	2024_Apr_25_1826	F	2	R	SS SK	208.7976957000792	4.999200320336968			Chest					7	Pre-Trial Jitter			3
30	2496	2024_Apr_25_1826	F	2	R	SS SK	213.83149050013162	12.99852684000507			Chest		47.5			17	Heat-Stimulation			3
31	2496	2024_Apr_25_1826	F	2	R	SS SK	226.87171930004843	5.001608039950952			Chest					8	Post-Trial Jitter			3
32	2496	2024_Apr_25_1826	F	2	R	SS SK	231.89991270005703	5.012044060043991			Chest					20	PainBinary	1.5501700001768768	1.0	3
33	2496	2024_Apr_25_1826	F	2	R	SS SK	236.93203789996915	4.997885460034013			Chest					21	IntensityRating	3.350336200091988	28.518518518518515	3
34	2496	2024_Apr_25_1826	F	2	R	SS SK	241.94506629998796	5.005311460001394			Chest					52	AcceptBinary	1.4524913998320699	1.0	3
35	2496	2024_Apr_25_1826	F	2	R	SS SK	246.9509600000456	6.993668780196458			Chest					9	Post-Q-Jitter			3
36	2496	2024_Apr_25_1826	F	2	R	SS SK	254.7616864000447	9.005520400824025			Chest					7	Pre-Trial Jitter			3
37	2496	2024_Apr_25_1826	F	2	R	SS SK	263.79644770012237	13.003060339950025			Chest		47.5			17	Heat-Stimulation			3
38	2496	2024_Apr_25_1826	F	2	R	SS SK	276.83705380000174	9.005434740101919			Chest					8	Post-Trial Jitter			3
39	2496	2024_Apr_25_1826	F	2	R	SS SK	285.86613960005343	4.997473660157993			Chest					20	PainBinary	1.333660600008443	1.0	3
40	2496	2024_Apr_25_1826	F	2	R	SS SK	290.8826928001363	5.014520759694278			Chest					21	IntensityRating	4.200245100073516	31.604938271604937	3
41	2496	2024_Apr_25_1826	F	2	R	SS SK	295.91167790000327	5.006664359942079			Chest					52	AcceptBinary	1.7336057000793517	1.0	3
42	2496	2024_Apr_25_1826	F	2	R	SS SK	300.9188179001212	8.992511080112308			Chest					9	Post-Q-Jitter			3
43	2496	2024_Apr_25_1826	F	2	R	SS SK	310.0924953999929	5.011965860147029			Chest					7	Pre-Trial Jitter			3
44	2496	2024_Apr_25_1826	F	2	R	SS SK	315.1428932000417	13.011439319932833			Chest		47.5			17	Heat-Stimulation			3
45	2496	2024_Apr_25_1826	F	2	R	SS SK	328.1908482001163	9.01575072016567			Chest					8	Post-Trial Jitter			3
46	2496	2024_Apr_25_1826	F	2	R	SS SK	337.21795170009136	5.011719860136509			Chest					20	PainBinary	1.5668985999654979	1.0	3
47	2496	2024_Apr_25_1826	F	2	R	SS SK	342.25105650001206	5.012316860025749			Chest					21	IntensityRating	3.602667100029066	29.197530864197528	3
48	2496	2024_Apr_25_1826	F	2	R	SS SK	347.2789024999365	5.006746760103852			Chest					52	AcceptBinary	1.7670154001098126	1.0	3
49	2496	2024_Apr_25_1826	F	2	R	SS SK	352.2867239001207	5.007975979940966			Chest					9	Post-Q-Jitter			3
50	2496	2024_Apr_25_1826	F	2	R	SS SK	357.497025599936	5.004086840199307			Chest					7	Pre-Trial Jitter			3
51	2496	2024_Apr_25_1826	F	2	R	SS SK	362.54366359999403	13.010982920182869			Chest		47.5			17	Heat-Stimulation			3
52	2496	2024_Apr_25_1826	F	2	R	SS SK	375.58963980013505	7.002605140209198			Chest					8	Post-Trial Jitter			3
53	2496	2024_Apr_25_1826	F	2	R	SS SK	382.61826240015216	4.995524459751323			Chest					20	PainBinary	1.2669510999694467	1.0	3
54	2496	2024_Apr_25_1826	F	2	R	SS SK	387.6339865999762	4.997509859967977			Chest					21	IntensityRating	3.6007528000045568	29.32098765432099	3
55	2496	2024_Apr_25_1826	F	2	R	SS SK	392.64656140003353	5.005824559601024			Chest					52	AcceptBinary	1.3503411000128835	1.0	3
56	2496	2024_Apr_25_1826	F	2	R	SS SK	397.6535044000484	5.008690380025655			Chest					9	Post-Q-Jitter			3
57	2496	2024_Apr_25_1826	F	2	R	SS SK	402.85756020015106	7.000712860142812			Chest					7	Pre-Trial Jitter			3
58	2496	2024_Apr_25_1826	F	2	R	SS SK	409.90337230009027	13.009357740171254			Chest		47.5			17	Heat-Stimulation			3
59	2496	2024_Apr_25_1826	F	2	R	SS SK	422.95516470004804	5.005981739843264			Chest					8	Post-Trial Jitter			3
60	2496	2024_Apr_25_1826	F	2	R	SS SK	427.98447480006143	4.997466060100123			Chest					20	PainBinary	0.9670253000222147	-1.0	3
61	2496	2024_Apr_25_1826	F	2	R	SS SK	433.0006027999334	4.998680860036984			Chest					21	IntensityRating	3.083923000143841	25.37037037037037	3
62	2496	2024_Apr_25_1826	F	2	R	SS SK	438.0135182000231	5.006322959670797			Chest					52	AcceptBinary	1.38366930000484	1.0	3
63	2496	2024_Apr_25_1826	F	2	R	SS SK	443.020605500089	9.008912279969081			Chest					9	Post-Q-Jitter			3
64	2496	2024_Apr_25_1826	F	2	R	SS SK	452.2135465000756	9.006522160256281			Chest					7	Pre-Trial Jitter			3
65	2496	2024_Apr_25_1826	F	2	R	SS SK	461.24226339999586	13.016072939848527			Chest		47.5			17	Heat-Stimulation			3
66	2496	2024_Apr_25_1826	F	2	R	SS SK	474.2889936999418	9.006249040132388			Chest					8	Post-Trial Jitter			3
67	2496	2024_Apr_25_1826	F	2	R	SS SK	483.31980840000324	5.011405859841034			Chest					20	PainBinary	1.8856585999019444	1.0	3
68	2496	2024_Apr_25_1826	F	2	R	SS SK	488.35164210014045	4.997817059978843			Chest					21	IntensityRating	4.000440600095317	27.901234567901234	3
69	2496	2024_Apr_25_1826	F	2	R	SS SK	493.3648184000049	5.00488935993053			Chest					52	AcceptBinary	1.383648999966681	1.0	3
70	2496	2024_Apr_25_1826	F	2	R	SS SK	498.37043150002137	6.993818380171433			Chest					9	Post-Q-Jitter			3
71	2496	2024_Apr_25_1826	F	2	R	SS SK	505.70345399994403	5.011244380380958			Chest					7	Pre-Trial Jitter			3
72	2496	2024_Apr_25_1826	F	2	R	SS SK	510.7706685999874	12.993729220237583			Chest		47.5			17	Heat-Stimulation			3
73	2496	2024_Apr_25_1826	F	2	R	SS SK	523.8075244000647	9.003503940068185			Chest					8	Post-Trial Jitter			3
74	2496	2024_Apr_25_1826	F	2	R	SS SK	532.8373021001462	5.010794959962368			Chest					20	PainBinary	1.0502529998775572	1.0	3
75	2496	2024_Apr_25_1826	F	2	R	SS SK	537.8689000001177	4.9978096599224955			Chest					21	IntensityRating	2.4171205998864025	33.395061728395056	3
76	2496	2024_Apr_25_1826	F	2	R	SS SK	542.8811769001186	5.006723860045895			Chest					52	AcceptBinary	2.3002663000952452	1.0	3
77	2496	2024_Apr_25_1826	F	2	R	SS SK	547.8890091001522	7.007853880058974			Chest					9	Post-Q-Jitter			3
78	2496	2024_Apr_25_1826	F	2	R	SS SK	555.2132624001242	5.009436400374398			Chest					7	Pre-Trial Jitter			3
79	2496	2024_Apr_25_1826	F	2	R	SS SK	560.273543999996	13.005813220050186			Chest		47.5			17	Heat-Stimulation			3
80	2496	2024_Apr_25_1826	F	2	R	SS SK	573.32376820012	5.005574940005317			Chest					8	Post-Trial Jitter			3
81	2496	2024_Apr_25_1826	F	2	R	SS SK	578.3531176000834	4.997009760001674			Chest					20	PainBinary	1.5503409998491406	1.0	3
82	2496	2024_Apr_25_1826	F	2	R	SS SK	583.3694385001436	4.997812560060993			Chest					21	IntensityRating	2.5002737999893725	29.876543209876544	3
83	2496	2024_Apr_25_1826	F	2	R	SS SK	588.3821825999767	5.005766559857875			Chest					52	AcceptBinary	1.3502955997828394	1.0	3
84	2496	2024_Apr_25_1826	F	2	R	SS SK	593.388593000127	4.993049880024046			Chest					9	Post-Q-Jitter			3
85	2496	2024_Apr_25_1826	F	2	R	SS SK	599.1829075000715	9.004438520874828			Chest					7	Pre-Trial Jitter			3
86	2496	2024_Apr_25_1826	F	2	R	SS SK	608.2228518000338	13.008313540136442			Chest		47.5			17	Heat-Stimulation			3
87	2496	2024_Apr_25_1826	F	2	R	SS SK	621.276286000153	5.001664040144533			Chest					8	Post-Trial Jitter			3
88	2496	2024_Apr_25_1826	F	2	R	SS SK	626.3042091999669	4.995939060114324			Chest					20	PainBinary	1.4856908000074327	1.0	3
89	2496	2024_Apr_25_1826	F	2	R	SS SK	631.3192935001571	4.9991917598526925			Chest					21	IntensityRating	2.333721499890089	31.97530864197531	3
90	2496	2024_Apr_25_1826	F	2	R	SS SK	636.3322944000829	5.006629260024056			Chest					52	AcceptBinary	1.5003551000263542	1.0	3
91	2496	2024_Apr_25_1826	F	2	R	SS SK	641.3397677999455	9.008518180111423			Chest					9	Post-Q-Jitter			3
92	2496	2024_Apr_25_1826	F	2	R	SS SK	650.5537674000952	8.997358940076083			Chest					7	Pre-Trial Jitter			3
93	2496	2024_Apr_25_1826	F	2	R	SS SK	659.5954726000782	13.014232520246878			Chest		47.5			17	Heat-Stimulation			3
94	2496	2024_Apr_25_1826	F	2	R	SS SK	672.6450974000618	9.015254919882864			Chest					8	Post-Trial Jitter			3
95	2496	2024_Apr_25_1826	F	2	R	SS SK	681.6719593000598	5.011742659844458			Chest					20	PainBinary	1.0169112000148743	1.0	3
96	2496	2024_Apr_25_1826	F	2	R	SS SK	686.7064809000585	5.009457859676331			Chest					21	IntensityRating	4.000335999997333	30.432098765432098	3
97	2496	2024_Apr_25_1826	F	2	R	SS SK	691.7332344001625	5.006021959707141			Chest					52	AcceptBinary	0.9003472998738289	1.0	3
98	2496	2024_Apr_25_1826	F	2	R	SS SK	696.7403665001038	5.008583280257881			Chest					9	Post-Q-Jitter			3
99	2496	2024_Apr_25_1826	F	2	R	SS SK	701.9420988999773	5.005201560212299			Chest					7	Pre-Trial Jitter			3
100	2496	2024_Apr_25_1826	F	2	R	SS SK	706.9779340999667	13.000431660097092			Chest		47.5			17	Heat-Stimulation			3
101	2496	2024_Apr_25_1826	F	2	R	SS SK	720.0261266999878	5.004219240043312			Chest					8	Post-Trial Jitter			3
102	2496	2024_Apr_25_1826	F	2	R	SS SK	725.0549153999891	4.996800360037014			Chest					20	PainBinary	1.3669948999304324	1.0	3
103	2496	2024_Apr_25_1826	F	2	R	SS SK	730.0705450000241	4.998999159783125			Chest					21	IntensityRating	2.48377349996008	31.234567901234566	3
104	2496	2024_Apr_25_1826	F	2	R	SS SK	735.0840038000606	5.005519659956917			Chest					52	AcceptBinary	1.2503225000109524	1.0	3
105	2496	2024_Apr_25_1826	F	2	R	SS SK	740.0901337000541	6.993399380007759			Chest					9	Post-Q-Jitter			3
106	2496	2024_Apr_25_1826	F	2	R	SS SK	747.4443084001541	9.001810160232708			Chest					7	Pre-Trial Jitter			3
107	2496	2024_Apr_25_1826	F	2	R	SS SK	756.4902737000957	13.010189440101385			Chest		47.5			17	Heat-Stimulation			3
108	2496	2024_Apr_25_1826	F	2	R	SS SK	769.5428734000307	5.005209440365434			Chest					8	Post-Trial Jitter			3
109	2496	2024_Apr_25_1826	F	2	R	SS SK	774.5731622001622	5.011448559816927			Chest					20	PainBinary	1.3336223999504	1.0	3
110	2496	2024_Apr_25_1826	F	2	R	SS SK	779.6054520001635	4.996966660022736			Chest					21	IntensityRating	1.9866086998954415	34.32098765432099	3
111	2496	2024_Apr_25_1826	F	2	R	SS SK	784.6178111000918	5.0057126597967			Chest					52	AcceptBinary	1.2837351998314261	1.0	3
112	2496	2024_Apr_25_1826	F	2	R	SS SK	789.6243609001394	5.009378980146721			Chest					9	Post-Q-Jitter			3
113	2496	2024_Apr_25_1826	F	2	R	SS SK	794.6631909001153	4.498598040081561			Chest					26	ComfortRating	4.4670302998274565	17.530864197530875	3
114	2496	2024_Apr_25_1826	F	2	R	SS SK	799.1779515999369	5.58587356004864			Chest					24	ValenceRating	5.567027899902314	57.34567901234568	3
115	2496	2024_Apr_25_1826	F	2	R	SS SK	804.7872190999333	3.950788559857756			Chest					26	IntensityRating	3.9336415000725538	52.345679012345684	3
116	2496	2024_Apr_25_1826	F	2	R	SS SK	808.7546749000903	3.9326095597352833			Chest					27	AvoidanceRating	3.9170069999527186	44.32098765432099	3
117	2496	2024_Apr_25_1826	F	2	R	SS SK	812.7012523999438	2.672846159664914			Chest					28	RelaxationRating	2.6503118998371065	60.55555555555555	3
118	2496	2024_Apr_25_1826	F	2	R	SS SK	815.3894849999342	5.229804859962314			Chest					29	AttentionRating	5.200411399826407	79.62962962962963	3
119	2496	2024_Apr_25_1826	F	2	R	SS SK	820.6356893000193	2.837514159968123			Chest					30	BoredomRating	2.8170776998158544	62.96296296296296	3
120	2496	2024_Apr_25_1826	F	2	R	SS SK	823.4883555001579	3.432284059934318			Chest					31	AlertnessRating	3.4170414998661727	-3.0864197530864175	3
121	2496	2024_Apr_25_1826	F	2	R	SS SK	826.937445100164	3.7675184598192573			Chest					32	PosThxRating	3.750395300099626	-11.851851851851862	3
122	2496	2024_Apr_25_1826	F	2	R	SS SK	830.7208581001032	2.4174252601806074			Chest					33	NegThxRating	2.4003719000611454	13.95061728395062	3
123	2496	2024_Apr_25_1826	F	2	R	SS SK	833.1528650999535	4.036815260071307			Chest					34	SelfRating	4.017135399859399	10.617283950617278	3
124	2496	2024_Apr_25_1826	F	2	R	SS SK	837.2032531001605	1.9027703600004315			Chest					35	OtherRating	1.868929399875924	13.70370370370371	3
125	2496	2024_Apr_25_1826	F	2	R	SS SK	839.1212375999894	3.266924259951338			Chest					32	ImageryRating	3.2504725998733193	41.60493827160494	3
126	2496	2024_Apr_25_1826	F	2	R	SS SK	842.406775600044	5.279256060020998			Chest					37	PresentRating	5.250307400012389	22.59259259259261	3
