	SID	date	sex	session	handedness	scanner	onset	duration	repetition	rating	body_site	keys	temperature	conditionrt	mouseclick	biopac_channel	condition	rt	value	skin_site
0	2496	2024_Apr_25_1826	F	2	R	SS SK	2.781101199798286	5.002541132969782			Left Leg					41	Regulation Instruction			2
1	2496	2024_Apr_25_1826	F	2	R	SS SK	8.161598699865863	7.0121011200826615			Left Leg					7	Pre-Trial Jitter			2
2	2496	2024_Apr_25_1826	F	2	R	SS SK	15.221904499921948	13.00845642015338			Left Leg		47.0			15	Heat-Stimulation			2
3	2496	2024_Apr_25_1826	F	2	R	SS SK	28.276948699960485	5.015254919882864			Left Leg					8	Post-Trial Jitter			2
4	2496	2024_Apr_25_1826	F	2	R	SS SK	33.30314539978281	4.996289960108697			Left Leg					20	PainBinary	1.9170111999846995	1.0	2
5	2496	2024_Apr_25_1826	F	2	R	SS SK	38.32013969984837	5.012438860023394			Left Leg					21	IntensityRating	2.8169005000963807	35.432098765432094	2
6	2496	2024_Apr_25_1826	F	2	R	SS SK	43.34858249989338	5.005674159852788			Left Leg					52	AcceptBinary	2.083660899894312	1.0	2
7	2496	2024_Apr_25_1826	F	2	R	SS SK	48.35551069979556	7.008638779865578			Left Leg					9	Post-Q-Jitter			2
8	2496	2024_Apr_25_1826	F	2	R	SS SK	55.57437129993923	9.00441664014943			Left Leg					7	Pre-Trial Jitter			2
9	2496	2024_Apr_25_1826	F	2	R	SS SK	64.62602369999513	13.001367540098727			Left Leg		47.0			15	Heat-Stimulation			2
10	2496	2024_Apr_25_1826	F	2	R	SS SK	77.67619399982505	9.001285640057176			Left Leg					8	Post-Trial Jitter			2
11	2496	2024_Apr_25_1826	F	2	R	SS SK	86.70406499993987	4.99573425995186			Left Leg					20	PainBinary	1.250412099994719	1.0	2
12	2496	2024_Apr_25_1826	F	2	R	SS SK	91.72057119989768	5.012860259972513			Left Leg					21	IntensityRating	2.716927499976009	32.53086419753087	2
13	2496	2024_Apr_25_1826	F	2	R	SS SK	96.74886179994792	5.006381759885699			Left Leg					52	AcceptBinary	1.9171853000298142	1.0	2
14	2496	2024_Apr_25_1826	F	2	R	SS SK	101.75582719990052	5.0091889798641205			Left Leg					9	Post-Q-Jitter			2
15	2496	2024_Apr_25_1826	F	2	R	SS SK	107.48534359992482	5.000161720672622			Left Leg					7	Pre-Trial Jitter			2
16	2496	2024_Apr_25_1826	F	2	R	SS SK	112.51097369985655	13.015779740177095			Left Leg		47.0			15	Heat-Stimulation			2
17	2496	2024_Apr_25_1826	F	2	R	SS SK	125.55851519992575	5.004245740128681			Left Leg					8	Post-Trial Jitter			2
18	2496	2024_Apr_25_1826	F	2	R	SS SK	130.58762739994563	5.012913360027596			Left Leg					20	PainBinary	1.7002520998939872	1.0	2
19	2496	2024_Apr_25_1826	F	2	R	SS SK	135.61996739986353	4.99838315974921			Left Leg					21	IntensityRating	3.2336932001635432	27.22222222222222	2
20	2496	2024_Apr_25_1826	F	2	R	SS SK	140.63280419982038	5.006112159928307			Left Leg					52	AcceptBinary	1.4169511999934912	1.0	2
21	2496	2024_Apr_25_1826	F	2	R	SS SK	145.63987219985574	5.008632380282506			Left Leg					9	Post-Q-Jitter			2
22	2496	2024_Apr_25_1826	F	2	R	SS SK	150.8705135998316	8.997534020105377			Left Leg					7	Pre-Trial Jitter			2
23	2496	2024_Apr_25_1826	F	2	R	SS SK	159.9174178999383	13.004071820294484			Left Leg		47.0			15	Heat-Stimulation			2
24	2496	2024_Apr_25_1826	F	2	R	SS SK	172.9584815998096	9.005559439770877			Left Leg					8	Post-Trial Jitter			2
25	2496	2024_Apr_25_1826	F	2	R	SS SK	181.9889608998783	4.994782959809527			Left Leg					20	PainBinary	1.419823900097981	1.0	2
26	2496	2024_Apr_25_1826	F	2	R	SS SK	187.0040846997872	4.997949360171333			Left Leg					21	IntensityRating	4.117479299893603	30.679012345679013	2
27	2496	2024_Apr_25_1826	F	2	R	SS SK	192.01681559998542	5.005919159855694			Left Leg					52	AcceptBinary	1.850257899845019	1.0	2
28	2496	2024_Apr_25_1826	F	2	R	SS SK	197.02385589992628	9.008654179982841			Left Leg					9	Post-Q-Jitter			2
29	2496	2024_Apr_25_1826	F	2	R	SS SK	207.03420749981888	5.004620681051165			Left Leg					7	Pre-Trial Jitter			2
30	2496	2024_Apr_25_1826	F	2	R	SS SK	212.06092499988154	13.001611559651792			Left Leg		47.0			15	Heat-Stimulation			2
31	2496	2024_Apr_25_1826	F	2	R	SS SK	225.1091573999729	5.00537133985199			Left Leg					8	Post-Trial Jitter			2
32	2496	2024_Apr_25_1826	F	2	R	SS SK	230.13932579988614	5.011788959847763			Left Leg					20	PainBinary	1.6002623999956995	1.0	2
33	2496	2024_Apr_25_1826	F	2	R	SS SK	235.17163469991647	4.99728795979172			Left Leg					21	IntensityRating	3.2003605999052525	29.074074074074076	2
34	2496	2024_Apr_25_1826	F	2	R	SS SK	240.1839230998885	5.006137559888884			Left Leg					52	AcceptBinary	1.317257999908179	1.0	2
35	2496	2024_Apr_25_1826	F	2	R	SS SK	245.1908594998531	9.009088080376387			Left Leg					9	Post-Q-Jitter			2
36	2496	2024_Apr_25_1826	F	2	R	SS SK	254.5626334999688	9.015723440330476			Left Leg					7	Pre-Trial Jitter			2
37	2496	2024_Apr_25_1826	F	2	R	SS SK	263.61249529989436	13.016346920048818			Left Leg		47.0			15	Heat-Stimulation			2
38	2496	2024_Apr_25_1826	F	2	R	SS SK	276.6600148999132	7.004844540031627			Left Leg					8	Post-Trial Jitter			2
39	2496	2024_Apr_25_1826	F	2	R	SS SK	283.68961729994044	4.995791760040447			Left Leg					20	PainBinary	1.067510100081563	1.0	2
40	2496	2024_Apr_25_1826	F	2	R	SS SK	288.70499049988575	4.9985131598077714			Left Leg					21	IntensityRating	3.8670455999672413	33.51851851851852	2
41	2496	2024_Apr_25_1826	F	2	R	SS SK	293.71727639995515	5.007382959825918			Left Leg					52	AcceptBinary	1.716931900009513	1.0	2
42	2496	2024_Apr_25_1826	F	2	R	SS SK	298.725204099901	7.008319879882038			Left Leg					9	Post-Q-Jitter			2
43	2496	2024_Apr_25_1826	F	2	R	SS SK	305.94487929996103	7.0024183401837945			Left Leg					7	Pre-Trial Jitter			2
44	2496	2024_Apr_25_1826	F	2	R	SS SK	312.9838678999804	13.00803263997659			Left Leg		47.0			15	Heat-Stimulation			2
45	2496	2024_Apr_25_1826	F	2	R	SS SK	326.027327099815	5.004659940022975			Left Leg					8	Post-Trial Jitter			2
46	2496	2024_Apr_25_1826	F	2	R	SS SK	331.05711860000156	5.011899759992957			Left Leg					20	PainBinary	1.4690000000409782	1.0	2
47	2496	2024_Apr_25_1826	F	2	R	SS SK	336.09001459996216	5.012883459916338			Left Leg					21	IntensityRating	3.716935900039971	35.74074074074074	2
48	2496	2024_Apr_25_1826	F	2	R	SS SK	341.11780859995633	5.007398660061881			Left Leg					52	AcceptBinary	1.4838648999575526	1.0	2
49	2496	2024_Apr_25_1826	F	2	R	SS SK	346.12608570000157	9.007642379961908			Left Leg					9	Post-Q-Jitter			2
50	2496	2024_Apr_25_1826	F	2	R	SS SK	355.3155484998133	9.012234960217029			Left Leg					7	Pre-Trial Jitter			2
51	2496	2024_Apr_25_1826	F	2	R	SS SK	364.3717674999498	13.000088920118287			Left Leg		47.0			15	Heat-Stimulation			2
52	2496	2024_Apr_25_1826	F	2	R	SS SK	377.41275569982827	7.001692839898169			Left Leg					8	Post-Trial Jitter			2
53	2496	2024_Apr_25_1826	F	2	R	SS SK	384.4407285999041	4.995888659963384			Left Leg					20	PainBinary	1.7504486001562327	1.0	2
54	2496	2024_Apr_25_1826	F	2	R	SS SK	389.45694669988006	4.996901659760624			Left Leg					21	IntensityRating	2.817046699812636	36.11111111111111	2
55	2496	2024_Apr_25_1826	F	2	R	SS SK	394.46862439997494	5.006959360092878			Left Leg					52	AcceptBinary	1.1503077999223024	1.0	2
56	2496	2024_Apr_25_1826	F	2	R	SS SK	399.4761777999811	9.008689480135217			Left Leg					9	Post-Q-Jitter			2
57	2496	2024_Apr_25_1826	F	2	R	SS SK	408.8787008000072	7.003769620321691			Left Leg					7	Pre-Trial Jitter			2
58	2496	2024_Apr_25_1826	F	2	R	SS SK	415.9272678999696	13.006927140057087			Left Leg		47.0			15	Heat-Stimulation			2
59	2496	2024_Apr_25_1826	F	2	R	SS SK	428.9787546999287	5.004189540166408			Left Leg					8	Post-Trial Jitter			2
60	2496	2024_Apr_25_1826	F	2	R	SS SK	434.0082002999261	5.012104160152376			Left Leg					20	PainBinary	1.7691001000348479	1.0	2
61	2496	2024_Apr_25_1826	F	2	R	SS SK	439.04115679999813	5.012923459988087			Left Leg					21	IntensityRating	2.000321100000292	32.77777777777778	2
62	2496	2024_Apr_25_1826	F	2	R	SS SK	444.06972759985365	5.005895459791645			Left Leg					52	AcceptBinary	1.666973700048402	1.0	2
63	2496	2024_Apr_25_1826	F	2	R	SS SK	449.0767339998856	7.00868688011542			Left Leg					9	Post-Q-Jitter			2
64	2496	2024_Apr_25_1826	F	2	R	SS SK	456.4217574999202	9.002120280638337			Left Leg					7	Pre-Trial Jitter			2
65	2496	2024_Apr_25_1826	F	2	R	SS SK	465.4559826999903	13.000652140006423			Left Leg		47.0			15	Heat-Stimulation			2
66	2496	2024_Apr_25_1826	F	2	R	SS SK	478.4956643998157	9.004869040101767			Left Leg					8	Post-Trial Jitter			2
67	2496	2024_Apr_25_1826	F	2	R	SS SK	487.52456229995005	4.9972497599665076			Left Leg					20	PainBinary	1.5836539999581873	1.0	2
68	2496	2024_Apr_25_1826	F	2	R	SS SK	492.54152389988303	5.013430259888992			Left Leg					21	IntensityRating	2.9170226000715047	28.209876543209877	2
69	2496	2024_Apr_25_1826	F	2	R	SS SK	497.57080909982324	5.005068260245025			Left Leg					52	AcceptBinary		1.0	2
70	2496	2024_Apr_25_1826	F	2	R	SS SK	502.57651579985395	4.993612880120054			Left Leg					9	Post-Q-Jitter			2
71	2496	2024_Apr_25_1826	F	2	R	SS SK	507.98312469990924	5.013806180097163			Left Leg					7	Pre-Trial Jitter			2
72	2496	2024_Apr_25_1826	F	2	R	SS SK	513.0293193999678	13.005022840108722			Left Leg		47.0			15	Heat-Stimulation			2
73	2496	2024_Apr_25_1826	F	2	R	SS SK	526.0809261999093	5.00205564009957			Left Leg					8	Post-Trial Jitter			2
74	2496	2024_Apr_25_1826	F	2	R	SS SK	531.1097985999659	5.011087259976193			Left Leg					20	PainBinary	1.416882500052452	1.0	2
75	2496	2024_Apr_25_1826	F	2	R	SS SK	536.1409755998757	4.998868359951302			Left Leg					21	IntensityRating	2.183685600059107	27.59259259259259	2
76	2496	2024_Apr_25_1826	F	2	R	SS SK	541.1545223998837	5.005247459979728			Left Leg					52	AcceptBinary	2.433657699963078	1.0	2
77	2496	2024_Apr_25_1826	F	2	R	SS SK	546.1612066999078	5.008615779923275			Left Leg					9	Post-Q-Jitter			2
78	2496	2024_Apr_25_1826	F	2	R	SS SK	551.3516151998192	9.011220559943467			Left Leg					7	Pre-Trial Jitter			2
79	2496	2024_Apr_25_1826	F	2	R	SS SK	560.3862228998914	13.008963939966634			Left Leg		47.0			15	Heat-Stimulation			2
80	2496	2024_Apr_25_1826	F	2	R	SS SK	573.432564499788	7.016520119970664			Left Leg					8	Post-Trial Jitter			2
81	2496	2024_Apr_25_1826	F	2	R	SS SK	580.4600601999555	4.995059659937397			Left Leg					20	PainBinary	1.3837303998880088	1.0	2
82	2496	2024_Apr_25_1826	F	2	R	SS SK	585.474691499956	4.999221160076559			Left Leg					21	IntensityRating	3.3170286999084055	31.97530864197531	2
83	2496	2024_Apr_25_1826	F	2	R	SS SK	590.4877572997939	5.006537259789184			Left Leg					52	AcceptBinary	1.0502630001865327	1.0	2
84	2496	2024_Apr_25_1826	F	2	R	SS SK	595.4949071998708	7.009057080140337			Left Leg					9	Post-Q-Jitter			2
85	2496	2024_Apr_25_1826	F	2	R	SS SK	603.5377386999317	7.006676841061562			Left Leg					7	Pre-Trial Jitter			2
86	2496	2024_Apr_25_1826	F	2	R	SS SK	610.5942798999604	12.99403831991367			Left Leg		47.0			15	Heat-Stimulation			2
87	2496	2024_Apr_25_1826	F	2	R	SS SK	623.6306740997825	9.004829840036109			Left Leg					8	Post-Trial Jitter			2
88	2496	2024_Apr_25_1826	F	2	R	SS SK	632.6601776999887	4.9959956598468125			Left Leg					20	PainBinary	1.5686992998234928	1.0	2
89	2496	2024_Apr_25_1826	F	2	R	SS SK	637.6761297998019	4.997647559968755			Left Leg					21	IntensityRating		34.32098765432099	2
90	2496	2024_Apr_25_1826	F	2	R	SS SK	642.6893772999756	5.004511359846219			Left Leg					52	AcceptBinary	1.5336541999131441	1.0	2
91	2496	2024_Apr_25_1826	F	2	R	SS SK	647.6951679999474	7.009713780134916			Left Leg					9	Post-Q-Jitter			2
92	2496	2024_Apr_25_1826	F	2	R	SS SK	655.6852632998489	5.012796900933608			Left Leg					7	Pre-Trial Jitter			2
93	2496	2024_Apr_25_1826	F	2	R	SS SK	660.7376822999213	13.008357520215213			Left Leg		47.0			15	Heat-Stimulation			2
94	2496	2024_Apr_25_1826	F	2	R	SS SK	673.7846472999081	7.014566820114851			Left Leg					8	Post-Trial Jitter			2
95	2496	2024_Apr_25_1826	F	2	R	SS SK	680.8104534999002	4.9964601600077			Left Leg					20	PainBinary	1.8007847999688238	1.0	2
96	2496	2024_Apr_25_1826	F	2	R	SS SK	685.8261983999982	4.998509559780359			Left Leg					21	IntensityRating	4.533627500059083	32.901234567901234	2
97	2496	2024_Apr_25_1826	F	2	R	SS SK	690.8390944998246	5.006166459992528			Left Leg					52	AcceptBinary	1.3336316000204533	1.0	2
98	2496	2024_Apr_25_1826	F	2	R	SS SK	695.846972099971	9.00726318010129			Left Leg					9	Post-Q-Jitter			2
99	2496	2024_Apr_25_1826	F	2	R	SS SK	705.2207745998167	7.009772240417078			Left Leg					7	Pre-Trial Jitter			2
100	2496	2024_Apr_25_1826	F	2	R	SS SK	712.263722299831	13.007386439945549			Left Leg		47.0			15	Heat-Stimulation			2
101	2496	2024_Apr_25_1826	F	2	R	SS SK	725.3175822999328	9.016594320069999			Left Leg					8	Post-Trial Jitter			2
102	2496	2024_Apr_25_1826	F	2	R	SS SK	734.3443716999609	4.996612360002473			Left Leg					20	PainBinary	1.5004108999855816	1.0	2
103	2496	2024_Apr_25_1826	F	2	R	SS SK	739.3619230999611	5.011618959950283			Left Leg					21	IntensityRating	2.6836767999920994	28.024691358024693	2
104	2496	2024_Apr_25_1826	F	2	R	SS SK	744.3900330998003	5.005497459787875			Left Leg					52	AcceptBinary	1.6503351000137627	1.0	2
105	2496	2024_Apr_25_1826	F	2	R	SS SK	749.3966359999031	5.0090083801187575			Left Leg					9	Post-Q-Jitter			2
106	2496	2024_Apr_25_1826	F	2	R	SS SK	755.1764367998112	4.99944436061196			Left Leg					7	Pre-Trial Jitter			2
107	2496	2024_Apr_25_1826	F	2	R	SS SK	760.2044879999012	13.010441340040416			Left Leg		47.0			15	Heat-Stimulation			2
108	2496	2024_Apr_25_1826	F	2	R	SS SK	773.2492154999636	5.004382439889014			Left Leg					8	Post-Trial Jitter			2
109	2496	2024_Apr_25_1826	F	2	R	SS SK	778.2792965997942	5.010995360091329			Left Leg					20	PainBinary	1.2002744998317212	1.0	2
110	2496	2024_Apr_25_1826	F	2	R	SS SK	783.3106573999394	4.9985158601775765			Left Leg					21	IntensityRating	3.3670153999701142	29.01234567901235	2
111	2496	2024_Apr_25_1826	F	2	R	SS SK	788.3239229999017	5.005433759884909			Left Leg					52	AcceptBinary	1.2336208999622613	1.0	2
112	2496	2024_Apr_25_1826	F	2	R	SS SK	793.330847799778	7.008354080142453			Left Leg					9	Post-Q-Jitter			2
113	2496	2024_Apr_25_1826	F	2	R	SS SK	800.3721421998926	5.559331740019843			Left Leg					26	ComfortRating	5.533619099995121	17.777777777777786	2
114	2496	2024_Apr_25_1826	F	2	R	SS SK	805.9494848998729	3.8047643599566072			Left Leg					24	ValenceRating	3.7836097001563758	55.37037037037037	2
115	2496	2024_Apr_25_1826	F	2	R	SS SK	809.7763710999861	2.0344559599179775			Left Leg					26	IntensityRating	2.0170686000492424	50.0	2
116	2496	2024_Apr_25_1826	F	2	R	SS SK	811.8281174998265	4.214381960220635			Left Leg					27	AvoidanceRating	4.201209099963307	41.60493827160494	2
117	2496	2024_Apr_25_1826	F	2	R	SS SK	816.0583641999401	2.9039119600784034			Left Leg					28	RelaxationRating	2.883709300076589	65.30864197530865	2
118	2496	2024_Apr_25_1826	F	2	R	SS SK	818.9779869997874	2.8647399600595236			Left Leg					29	AttentionRating	2.8363995999097824	64.75308641975309	2
119	2496	2024_Apr_25_1826	F	2	R	SS SK	821.857461999869	2.2725029597058892			Left Leg					30	BoredomRating	2.236445599934086	67.28395061728395	2
120	2496	2024_Apr_25_1826	F	2	R	SS SK	824.1424271999858	2.9359505597967654			Left Leg					31	AlertnessRating	2.916989300167188	-17.407407407407405	2
121	2496	2024_Apr_25_1826	F	2	R	SS SK	827.092608399922	2.6356828599236906			Left Leg					32	PosThxRating	2.617092299973592	-15.18518518518519	2
122	2496	2024_Apr_25_1826	F	2	R	SS SK	829.7441604998894	1.4659049599431455			Left Leg					33	NegThxRating	1.4502765000797808	18.641975308641975	2
123	2496	2024_Apr_25_1826	F	2	R	SS SK	831.2264212998562	2.068037660093978			Left Leg					34	SelfRating	2.0503078000620008	-14.444444444444443	2
124	2496	2024_Apr_25_1826	F	2	R	SS SK	833.3091565999202	4.969392859842628			Left Leg					35	OtherRating	4.95040910015814	-3.209876543209873	2
125	2496	2024_Apr_25_1826	F	2	R	SS SK	838.2945065998938	3.1321271599736065			Left Leg					32	ImageryRating	3.1169863000977784	28.888888888888886	2
126	2496	2024_Apr_25_1826	F	2	R	SS SK	841.445628099842	3.9466374600306153			Left Leg					37	PresentRating	3.9341614998411387	30.740740740740762	2
