	SID	day	sex	session	handedness	scanner	onset	duration	value	body_site	temperature	condition	keys	rt	phase	biopac_channel
0	1651	3	M	48	r	MH			38.39506172839506	Chest	48.0	Threat		7.156736800010549	Placebo	
1	1651	3	M	48	r	MH			36.60493827160494	Chest	48.0	Stress		3.4398293000122067	Placebo	
2	1651	3	M	48	r	MH			36.54320987654321	Chest	48.0	PainAnxiety		3.9670570000016596	Placebo	
3	1651	3	M	48	r	MH			36.97530864197531	Chest	48.0	OtherAnxiety		2.6337215999956243	Placebo	
4	1651	3	M	48	r	MH			39.75308641975309	Chest	48.0	PainConfidence		5.4399757999926805	Placebo	
5	1651	3	M	48	r	MH	2.7820365999941714	4.999835439521121		Chest	48.0	Instructions			Placebo	19
6	1651	3	M	48	r	MH	8.255592599976808	5.003306619997602	36.97530864197531	Chest	48.0	Expectancy		2.7337590999959502	Placebo	51
7	1651	3	M	48	r	MH	13.953339100000449	2.007975259970408		Chest	48.0	Cue			Placebo	6
8	1651	3	M	48	r	MH	15.97759959998075	4.009643360011978		Chest	48.0	Pre-Jitter			Placebo	7
9	1651	3	M	48	r	MH	20.045833199983463	15.00671409998904		Chest	48.0	Placebo Heat 			Placebo	17
10	1651	3	M	48	r	MH	35.05831759999273	9.01530866001849		Chest	48.0	Mid-Jitter			Placebo	8
11	1651	3	M	48	r	MH	44.103022399998736	5.009380340023199	1.0	Chest	48.0	PainBinary		2.117070700012846	Placebo	20
12	1651	3	M	48	r	MH	49.153948099992704	5.007637239992619	22.592592592592595	Chest	48.0	IntensityRating		2.1837895999778993	Placebo	21
13	1651	3	M	48	r	MH	54.17792669998016	9.009797759994399		Chest	48.0	Post-Q-Jitter			Placebo	9
14	1651	3	M	48	r	MH	63.47746470000129	5.010851219994947	23.76543209876543	Chest	48.0	Expectancy		3.983826899988344	Placebo	51
15	1651	3	M	48	r	MH	69.14561569999205	2.0079300799698103		Chest	48.0	Cue			Placebo	6
16	1651	3	M	48	r	MH	71.16149209998548	8.009613059955882		Chest	48.0	Pre-Jitter			Placebo	7
17	1651	3	M	48	r	MH	79.24918439998874	15.001140479987953		Chest	48.0	Placebo Heat 			Placebo	17
18	1651	3	M	48	r	MH	94.25963499999489	7.013803759997245		Chest	48.0	Mid-Jitter			Placebo	8
19	1651	3	M	48	r	MH	101.30542609997792	5.005673239997122	1.0	Chest	48.0	PainBinary		1.9837039000121877	Placebo	20
20	1651	3	M	48	r	MH	106.35542700000224	5.005762440006947	21.358024691358025	Chest	48.0	IntensityRating		1.8671337999985553	Placebo	21
21	1651	3	M	48	r	MH	111.37881989998277	7.009087860002182		Chest	48.0	Post-Q-Jitter			Placebo	9
22	1651	3	M	48	r	MH	118.68282279997948	5.0177708200062625	22.283950617283953	Chest	48.0	Expectancy		2.7670789000112563	Placebo	51
23	1651	3	M	48	r	MH	124.37591529998463	2.0149592599773314		Chest	48.0	Cue			Placebo	6
24	1651	3	M	48	r	MH	126.39537059998838	8.009626460028812		Chest	48.0	Pre-Jitter			Placebo	7
25	1651	3	M	48	r	MH	134.45798059998197	15.00133811996784		Chest	48.0	Placebo Heat 			Placebo	17
26	1651	3	M	48	r	MH	149.47584539998206	9.015843459987082		Chest	48.0	Mid-Jitter			Placebo	8
27	1651	3	M	48	r	MH	158.52124020000338	5.008511839987477	1.0	Chest	48.0	PainBinary		2.4673275999957696	Placebo	20
28	1651	3	M	48	r	MH	163.5718153999769	5.007608040003106	23.024691358024693	Chest	48.0	IntensityRating			Placebo	21
29	1651	3	M	48	r	MH	168.59798699998646	9.005142560054082		Chest	48.0	Post-Q-Jitter			Placebo	9
30	1651	3	M	48	r	MH	177.8817696000042	5.02101353998296	18.08641975308642	Chest	48.0	Expectancy		3.7338115999882575	Placebo	51
31	1651	3	M	48	r	MH	183.58355419998406	2.0009745600109454		Chest	48.0	Cue			Placebo	6
32	1651	3	M	48	r	MH	185.5970754000009	4.007341960008489		Chest	48.0	Pre-Jitter			Placebo	7
33	1651	3	M	48	r	MH	189.65261239997926	15.013136720022885		Chest	48.0	Placebo Heat 			Placebo	17
34	1651	3	M	48	r	MH	204.67819399997825	5.01217055998859		Chest	48.0	Mid-Jitter			Placebo	8
35	1651	3	M	48	r	MH	209.72333829998388	5.005296739982441	1.0	Chest	48.0	PainBinary		1.917099699989194	Placebo	20
36	1651	3	M	48	r	MH	214.77489060000516	5.002284140005941	18.45679012345679	Chest	48.0	IntensityRating		2.28931220000959	Placebo	21
37	1651	3	M	48	r	MH	219.79794099999708	5.006303060014034		Chest	48.0	Post-Q-Jitter			Placebo	9
38	1651	3	M	48	r	MH	225.1061118999787	5.006709319975926	18.209876543209877	Chest	48.0	Expectancy		2.567122999986168	Placebo	51
39	1651	3	M	48	r	MH	230.78571619998547	2.0142376799776684		Chest	48.0	Cue			Placebo	6
40	1651	3	M	48	r	MH	232.8150088999828	8.00578186000348		Chest	48.0	Pre-Jitter			Placebo	7
41	1651	3	M	48	r	MH	240.87208709999686	15.008517320035025		Chest	48.0	Placebo Heat 			Placebo	17
42	1651	3	M	48	r	MH	255.8947777999856	5.0133549599850085		Chest	48.0	Mid-Jitter			Placebo	8
43	1651	3	M	48	r	MH	260.94037969998317	5.005582239973592	-1.0	Chest	48.0	PainBinary		3.1170902000158094	Placebo	20
44	1651	3	M	48	r	MH	270.9767438999843	5.016130539792357		Chest	48.0	Post-Q-Jitter			Placebo	9
45	1651	3	M	48	r	MH	276.26558969999314	5.022106939984951	20.308641975308642	Chest	48.0	Expectancy		4.305817599990405	Placebo	51
46	1651	3	M	48	r	MH	281.967948000005	2.0174717599875294		Chest	48.0	Cue			Placebo	6
47	1651	3	M	48	r	MH	283.9989515999914	6.005613160028588		Chest	48.0	Pre-Jitter			Placebo	7
48	1651	3	M	48	r	MH	290.0663660999853	15.004364299966255		Chest	48.0	Placebo Heat 			Placebo	17
49	1651	3	M	48	r	MH	305.0790480999858	5.012364060006803		Chest	48.0	Mid-Jitter			Placebo	8
50	1651	3	M	48	r	MH	310.1228252000001	5.00820593998651	-1.0	Chest	48.0	PainBinary		4.4215234000002965	Placebo	20
51	1651	3	M	48	r	MH	320.1613545999862	5.014552539825672		Chest	48.0	Post-Q-Jitter			Placebo	9
52	1651	3	M	48	r	MH	325.2170891999849	3.1702460199885536	26.790123456790127	Chest	48.0	ComfortRating		3.133798900002148	Placebo	26
53	1651	3	M	48	r	MH	328.4322940999991	3.2899107200209983	66.5432098765432	Chest	48.0	ValenceRating		3.2566271999967285	Placebo	24
54	1651	3	M	48	r	MH	331.7573734000034	1.7397977399814408	63.33333333333333	Chest	48.0	IntensityRating		1.7059796999965329	Placebo	26
55	1651	3	M	48	r	MH	333.545959399984	6.7460262200038414	-23.827160493827165	Chest	48.0	AvoidanceRating		6.71714449999854	Placebo	27
56	1651	3	M	48	r	MH	340.3209960999957	2.4627374399860855	78.64197530864197	Chest	48.0	RelaxationRating		2.4338315000059083	Placebo	28
57	1651	3	M	48	r	MH	342.82765419999487	3.0828093200107105	74.50617283950616	Chest	48.0	AttentionRating		3.0504267000069376	Placebo	29
58	1651	3	M	48	r	MH	345.9388561999949	3.9771486399986316	27.901234567901234	Chest	48.0	BoredomRating		3.950444599991897	Placebo	30
59	1651	3	M	48	r	MH	349.9595077999984	1.9025284400267992	-55.30864197530864	Chest	48.0	AlertnessRating		1.8733701000164729	Placebo	31
60	1651	3	M	48	r	MH	351.910582099983	2.267100439959904	38.518518518518505	Chest	48.0	PosThxRating		2.250441599986516	Placebo	32
61	1651	3	M	48	r	MH	354.22831649999716	1.4816862200095784	-47.40740740740741	Chest	48.0	NegThxRating		1.4504383000021335	Placebo	33
62	1651	3	M	48	r	MH	355.7433714999934	1.5516057399800047	19.382716049382708	Chest	48.0	SelfRating		1.5228127999871504	Placebo	34
63	1651	3	M	48	r	MH	357.3431823999854	1.385356540005887	-51.851851851851855	Chest	48.0	OtherRating		1.3566473000100814	Placebo	35
64	1651	3	M	48	r	MH	358.7793822999811	3.5796623200003523	56.419753086419774	Chest	48.0	ImageryRating		3.5392917999997735	Placebo	32
65	1651	3	M	48	r	MH	362.39798849998624	1.8758375199977309	27.28395061728395	Chest	48.0	PresentRating		1.850491699995473	Placebo	37
