BodySiteInstructionText.started,BodySiteImg.started,BodySiteImg.stopped,BodySiteInstructionRead.keys,BodySiteInstructionRead.rt,BodySiteInstructionRead.started,BodySiteInstructionRead.stopped,fixation.started,fixation.stopped,IntensityRating.response,IntensityRating.rt,IntensityRating.started,IntensityRating.stopped,ComfortRating.response,ComfortRating.rt,ComfortRating.started,ComfortRating.stopped,ValenceRating.response,ValenceRating.rt,ValenceRating.started,ValenceRating.stopped,AvoidRating.response,AvoidRating.rt,AvoidRating.started,AvoidRating.stopped,RelaxRating.response,RelaxRating.rt,RelaxRating.started,RelaxRating.stopped,TaskAttentionRating.response,TaskAttentionRating.rt,TaskAttentionRating.started,TaskAttentionRating.stopped,BoredomRating.response,BoredomRating.rt,BoredomRating.started,BoredomRating.stopped,AlertnessRating.response,AlertnessRating.rt,AlertnessRating.started,AlertnessRating.stopped,PosThxRating.response,PosThxRating.rt,PosThxRating.started,PosThxRating.stopped,NegThxRating.response,NegThxRating.rt,NegThxRating.started,NegThxRating.stopped,SelfRating.response,SelfRating.rt,SelfRating.started,SelfRating.stopped,OtherRating.response,OtherRating.rt,OtherRating.started,OtherRating.stopped,ImageryRating.response,ImageryRating.rt,ImageryRating.started,ImageryRating.stopped,PresentRating.response,PresentRating.rt,PresentRating.started,PresentRating.stopped,subject number,gender,session,handedness,scanner,run,experience(1) or regulate(2),date,psychopyVersion,expName,body_site_order,frameRate,
50.642062899976736,50.642062899976736,None,space,482.6536564999842,50.642062899976736,None,571.8630536999844,None,40.80246913580247,535.6443581900094,,,,,,,,,,,,,,,,,,,,,,,,,,,,,,,,,,,,,,,,,,,,,,,,,,,,,,,5,m,25,r,JAD,,1,2022_Mar_08_2003,2020.2.10,acceptmap-experience,"['Left Leg', 'Left Face', 'Left Leg', 'Left Face']",59.99152919094079,
,,,,,,,599.8798262999917,None,44.382716049382715,564.4603749899834,0.014527109975460917,5.011222609959077,,,,,,,,,,,,,,,,,,,,,,,,,,,,,,,,,,,,,,,,,,,,,,,,,,,,,5,m,25,r,JAD,,1,2022_Mar_08_2003,2020.2.10,acceptmap-experience,"['Left Leg', 'Left Face', 'Left Leg', 'Left Face']",59.99152919094079,
,,,,,,,627.896820199996,None,40.925925925925924,592.294191789988,0.015433010004926473,5.0132828099885955,,,,,,,,,,,,,,,,,,,,,,,,,,,,,,,,,,,,,,,,,,,,,,,,,,,,,5,m,25,r,JAD,,1,2022_Mar_08_2003,2020.2.10,acceptmap-experience,"['Left Leg', 'Left Face', 'Left Leg', 'Left Face']",59.99152919094079,
,,,,,,,655.9137124999834,None,45.98765432098765,621.5944293900102,0.015191010024864227,5.012820810021367,,,,,,,,,,,,,,,,,,,,,,,,,,,,,,,,,,,,,,,,,,,,,,,,,,,,,5,m,25,r,JAD,,1,2022_Mar_08_2003,2020.2.10,acceptmap-experience,"['Left Leg', 'Left Face', 'Left Leg', 'Left Face']",59.99152919094079,
,,,,,,,683.930632899981,None,46.11111111111111,646.1947687900101,0.015207210002699867,5.012818210001569,,,,,,,,,,,,,,,,,,,,,,,,,,,,,,,,,,,,,,,,,,,,,,,,,,,,,5,m,25,r,JAD,,1,2022_Mar_08_2003,2020.2.10,acceptmap-experience,"['Left Leg', 'Left Face', 'Left Leg', 'Left Face']",59.99152919094079,
,,,,,,,711.9475184000039,None,44.938271604938265,672.3784896899888,0.015068709995830432,5.012549509992823,,,,,,,,,,,,,,,,,,,,,,,,,,,,,,,,,,,,,,,,,,,,,,,,,,,,,5,m,25,r,JAD,,1,2022_Mar_08_2003,2020.2.10,acceptmap-experience,"['Left Leg', 'Left Face', 'Left Leg', 'Left Face']",59.99152919094079,
,,,,,,,739.96442199999,None,43.2716049382716,702.2288017900428,0.01493271000799723,5.012280410010135,,,,,,,,,,,,,,,,,,,,,,,,,,,,,,,,,,,,,,,,,,,,,,,,,,,,,5,m,25,r,JAD,,1,2022_Mar_08_2003,2020.2.10,acceptmap-experience,"['Left Leg', 'Left Face', 'Left Leg', 'Left Face']",59.99152919094079,
,,,,,,,767.9813433999952,None,43.76543209876543,734.0791563899838,0.014824609970673919,5.012051909987349,,,,,,,,,,,,,,,,,,,,,,,,,,,,,,,,,,,,,,,,,,,,,,,,,,,,,5,m,25,r,JAD,,1,2022_Mar_08_2003,2020.2.10,acceptmap-experience,"['Left Leg', 'Left Face', 'Left Leg', 'Left Face']",59.99152919094079,
,,,,,,,795.9982394999824,None,46.48148148148148,760.7795164900017,0.014726910012541339,5.011876709992066,,,,,,,,,,,,,,,,,,,,,,,,,,,,,,,,,,,,,,,,,,,,,,,,,,,,,5,m,25,r,JAD,,1,2022_Mar_08_2003,2020.2.10,acceptmap-experience,"['Left Leg', 'Left Face', 'Left Leg', 'Left Face']",59.99152919094079,
,,,,,,,824.0151432999992,None,45.24691358024691,787.929914289969,0.014603910007281229,5.01164491000236,,,,,,,,,,,,,,,,,,,,,,,,,,,,,,,,,,,,,,,,,,,,,,,,,,,,,5,m,25,r,JAD,,1,2022_Mar_08_2003,2020.2.10,acceptmap-experience,"['Left Leg', 'Left Face', 'Left Leg', 'Left Face']",59.99152919094079,
,,,,,,,852.0320658999844,None,44.567901234567906,815.0801741899922,0.014456410019192845,5.011355110007571,,,,,,,,,,,,,,,,,,,,,,,,,,,,,,,,,,,,,,,,,,,,,,,,,,,,,5,m,25,r,JAD,,1,2022_Mar_08_2003,2020.2.10,acceptmap-experience,"['Left Leg', 'Left Face', 'Left Leg', 'Left Face']",59.99152919094079,
,,,,,,,880.0489795999893,None,46.9753086419753,844.3295630899956,0.014404810004634783,5.011168409982929,,,,,,,,,,,,,,,,,,,,,,,,,,,,,,,,,,,,,,,,,,,,,,,,,,,,,5,m,25,r,JAD,,1,2022_Mar_08_2003,2020.2.10,acceptmap-experience,"['Left Leg', 'Left Face', 'Left Leg', 'Left Face']",59.99152919094079,
,,,,,,,908.065870099992,None,46.85185185185185,867.8966247900098,0.015272410004399717,5.012883910007076,,,,,,,,,,,,,,,,,,,,,,,,,,,,,,,,,,,,,,,,,,,,,,,,,,,,,5,m,25,r,JAD,,1,2022_Mar_08_2003,2020.2.10,acceptmap-experience,"['Left Leg', 'Left Face', 'Left Leg', 'Left Face']",59.99152919094079,
,,,,,,,936.0827760999964,None,45.24691358024691,900.5636855900229,0.015095909999217838,5.012635510007385,,,,,,,,,,,,,,,,,,,,,,,,,,,,,,,,,,,,,,,,,,,,,,,,,,,,,5,m,25,r,JAD,,1,2022_Mar_08_2003,2020.2.10,acceptmap-experience,"['Left Leg', 'Left Face', 'Left Leg', 'Left Face']",59.99152919094079,
,,,,,,,964.0996926999942,None,46.9753086419753,927.9622035900247,0.015006109984824434,5.012409709976055,,,,,,,,,,,,,,,,,,,,,,,,,,,,,,,,,,,,,,,,,,,,,,,,,,,,,5,m,25,r,JAD,,1,2022_Mar_08_2003,2020.2.10,acceptmap-experience,"['Left Leg', 'Left Face', 'Left Leg', 'Left Face']",59.99152919094079,
,,,,,,,992.1165953000018,None,46.04938271604939,954.4310253900185,0.01667470997199416,5.015753009996843,,,,,,,,,,,,,,,,,,,,,,,,,,,,,,,,,,,,,,,,,,,,,,,,,,,,,5,m,25,r,JAD,,1,2022_Mar_08_2003,2020.2.10,acceptmap-experience,"['Left Leg', 'Left Face', 'Left Leg', 'Left Face']",59.99152919094079,
,,,,,,,,,,,0.014756009972188622,5.011965909972787,13.086419753086417,962.0818687900028,,,,,,,,,,,,,,,,,,,,,,,,,,,,,,,,,,,,,,,,,,,,,,,,,,,5,m,25,r,JAD,,1,2022_Mar_08_2003,2020.2.10,acceptmap-experience,"['Left Leg', 'Left Face', 'Left Leg', 'Left Face']",59.99152919094079,
,,,,,,,,,,,,,,,0.014004809985635802,None,26.91358024691357,967.1988586900115,,,,,,,,,,,,,,,,,,,,,,,,,,,,,,,,,,,,,,,,,,,,,,,5,m,25,r,JAD,,1,2022_Mar_08_2003,2020.2.10,acceptmap-experience,"['Left Leg', 'Left Face', 'Left Leg', 'Left Face']",59.99152919094079,
,,,,,,,,,64.62962962962962,972.7078266800381,,,,,,,,,0.013762009999481961,None,,,,,,,,,,,,,,,,,,,,,,,,,,,,,,,,,,,,,,,,,,,,,5,m,25,r,JAD,,1,2022_Mar_08_2003,2020.2.10,acceptmap-experience,"['Left Leg', 'Left Face', 'Left Leg', 'Left Face']",59.99152919094079,
,,,,,,,,,,,0.004880619962932542,None,,,,,,,,,79.69135802469137,979.8992500900058,,,,,,,,,,,,,,,,,,,,,,,,,,,,,,,,,,,,,,,,,,,5,m,25,r,JAD,,1,2022_Mar_08_2003,2020.2.10,acceptmap-experience,"['Left Leg', 'Left Face', 'Left Leg', 'Left Face']",59.99152919094079,
,,,,,,,,,,,,,,,,,,,,,,,0.013408509985310957,None,58.76543209876544,984.9327258900157,,,,,,,,,,,,,,,,,,,,,,,,,,,,,,,,,,,,,,,5,m,25,r,JAD,,1,2022_Mar_08_2003,2020.2.10,acceptmap-experience,"['Left Leg', 'Left Face', 'Left Leg', 'Left Face']",59.99152919094079,
,,,,,,,,,,,,,,,,,,,,,,,,,,,0.013369909982429817,None,89.44444444444444,990.5333169900114,,,,,,,,,,,,,,,,,,,,,,,,,,,,,,,,,,,5,m,25,r,JAD,,1,2022_Mar_08_2003,2020.2.10,acceptmap-experience,"['Left Leg', 'Left Face', 'Left Leg', 'Left Face']",59.99152919094079,
,,,,,,,,,,,,,,,,,,,,,,,,,,,,,,,0.012821609998354688,None,63.39506172839506,994.6666051899956,,,,,,,,,,,,,,,,,,,,,,,,,,,,,,,5,m,25,r,JAD,,1,2022_Mar_08_2003,2020.2.10,acceptmap-experience,"['Left Leg', 'Left Face', 'Left Leg', 'Left Face']",59.99152919094079,
,,,,,,,,,,,,,,,,,,,,,,,,,,,,,,,,,,,0.01289390999590978,None,-24.5679012345679,999.8328685900196,,,,,,,,,,,,,,,,,,,,,,,,,,,5,m,25,r,JAD,,1,2022_Mar_08_2003,2020.2.10,acceptmap-experience,"['Left Leg', 'Left Face', 'Left Leg', 'Left Face']",59.99152919094079,
,,,,,,,,,,,,,,,,,,,,,,,,,,,,,,,,,,,,,,,0.01334290998056531,None,-100.0,1004.7166131900158,,,,,,,,,,,,,,,,,,,,,,,5,m,25,r,JAD,,1,2022_Mar_08_2003,2020.2.10,acceptmap-experience,"['Left Leg', 'Left Face', 'Left Leg', 'Left Face']",59.99152919094079,
,,,,,,,,,,,,,,,,,,,,,,,,,,,,,,,,,,,,,,,,,,,0.012965409987373278,None,100.0,1009.0995622900082,,,,,,,,,,,,,,,,,,,5,m,25,r,JAD,,1,2022_Mar_08_2003,2020.2.10,acceptmap-experience,"['Left Leg', 'Left Face', 'Left Leg', 'Left Face']",59.99152919094079,
,,,,,,,,,,,,,,,,,,,,,,,,,,,,,,,,,,,,,,,,,,,,,,,0.01339310998446308,None,15.802469135802454,1014.2325749899901,,,,,,,,,,,,,,,5,m,25,r,JAD,,1,2022_Mar_08_2003,2020.2.10,acceptmap-experience,"['Left Leg', 'Left Face', 'Left Leg', 'Left Face']",59.99152919094079,
,,,,,,,,,,,,,,,,,,,,,,,,,,,,,,,,,,,,,,,,,,,,,,,,,,,0.01375760999508202,None,14.93827160493828,1020.6999485899869,,,,,,,,,,,5,m,25,r,JAD,,1,2022_Mar_08_2003,2020.2.10,acceptmap-experience,"['Left Leg', 'Left Face', 'Left Leg', 'Left Face']",59.99152919094079,
,,,,,,,,,,,,,,,,,,,,,,,,,,,,,,,,,,,,,,,,,,,,,,,,,,,,,,,0.013105510006425902,None,-20.740740740740733,1031.21600339,,,,,,,5,m,25,r,JAD,,1,2022_Mar_08_2003,2020.2.10,acceptmap-experience,"['Left Leg', 'Left Face', 'Left Leg', 'Left Face']",59.99152919094079,
,,,,,,,,,,,,,,,,,,,,,,,,,,,,,,,,,,,,,,,,,,,,,,,,,,,,,,,,,,,0.013801810011500493,None,45.30864197530863,1039.0830156900047,,,5,m,25,r,JAD,,1,2022_Mar_08_2003,2020.2.10,acceptmap-experience,"['Left Leg', 'Left Face', 'Left Leg', 'Left Face']",59.99152919094079,
1157.7349913999788,1157.7349913999788,None,space,163.70599079999374,1157.7349913999788,None,1360.6197716000024,None,37.28395061728395,1326.4677240900055,,,,,,,,,,,,,,,,,,,,,,,,,,,,,,,,,,,,,,,,,,,,,,,,,,,,,0.013529310002923012,None,5,m,25,r,JAD,,1,2022_Mar_08_2003,2020.2.10,acceptmap-experience,"['Left Leg', 'Left Face', 'Left Leg', 'Left Face']",59.99152919094079,
,,,,,,,1388.6366779999807,None,37.407407407407405,1351.51734399001,0.014604709984268993,5.011794009973528,,,,,,,,,,,,,,,,,,,,,,,,,,,,,,,,,,,,,,,,,,,,,,,,,,,,,5,m,25,r,JAD,,1,2022_Mar_08_2003,2020.2.10,acceptmap-experience,"['Left Leg', 'Left Face', 'Left Leg', 'Left Face']",59.99152919094079,
,,,,,,,1416.6535714999773,None,36.54320987654321,1378.3846907900006,0.015214810002362356,5.012894009996671,,,,,,,,,,,,,,,,,,,,,,,,,,,,,,,,,,,,,,,,,,,,,,,,,,,,,5,m,25,r,JAD,,1,2022_Mar_08_2003,2020.2.10,acceptmap-experience,"['Left Leg', 'Left Face', 'Left Leg', 'Left Face']",59.99152919094079,
,,,,,,,1444.6704755999963,None,36.97530864197531,1410.1849747899978,0.014741110004251823,5.011934509995626,,,,,,,,,,,,,,,,,,,,,,,,,,,,,,,,,,,,,,,,,,,,,,,,,,,,,5,m,25,r,JAD,,1,2022_Mar_08_2003,2020.2.10,acceptmap-experience,"['Left Leg', 'Left Face', 'Left Leg', 'Left Face']",59.99152919094079,
,,,,,,,1472.6873973000038,None,36.851851851851855,1438.1014796900272,0.014733210002304986,5.011930709995795,,,,,,,,,,,,,,,,,,,,,,,,,,,,,,,,,,,,,,,,,,,,,,,,,,,,,5,m,25,r,JAD,,1,2022_Mar_08_2003,2020.2.10,acceptmap-experience,"['Left Leg', 'Left Face', 'Left Leg', 'Left Face']",59.99152919094079,
,,,,,,,1500.7043038999836,None,37.03703703703704,1466.3355479900201,0.015120609983569011,5.012706509965938,,,,,,,,,,,,,,,,,,,,,,,,,,,,,,,,,,,,,,,,,,,,,,,,,,,,,5,m,25,r,JAD,,1,2022_Mar_08_2003,2020.2.10,acceptmap-experience,"['Left Leg', 'Left Face', 'Left Leg', 'Left Face']",59.99152919094079,
,,,,,,,1528.7211901999835,None,36.66666666666667,1492.5019036900194,0.014677109982585534,5.01190230998327,,,,,,,,,,,,,,,,,,,,,,,,,,,,,,,,,,,,,,,,,,,,,,,,,,,,,5,m,25,r,JAD,,1,2022_Mar_08_2003,2020.2.10,acceptmap-experience,"['Left Leg', 'Left Face', 'Left Leg', 'Left Face']",59.99152919094079,
,,,,,,,1556.738138899993,None,32.901234567901234,1520.5529089900083,0.015186509990599006,5.012834609980928,,,,,,,,,,,,,,,,,,,,,,,,,,,,,,,,,,,,,,,,,,,,,,,,,,,,,5,m,25,r,JAD,,1,2022_Mar_08_2003,2020.2.10,acceptmap-experience,"['Left Leg', 'Left Face', 'Left Leg', 'Left Face']",59.99152919094079,
,,,,,,,1584.7550226000021,None,50.0,1548.2526802900247,0.014434409997193143,5.011319810000714,,,,,,,,,,,,,,,,,,,,,,,,,,,,,,,,,,,,,,,,,,,,,,,,,,,,,5,m,25,r,JAD,,1,2022_Mar_08_2003,2020.2.10,acceptmap-experience,"['Left Leg', 'Left Face', 'Left Leg', 'Left Face']",59.99152919094079,
,,,,,,,1612.7719286999782,None,50.0,1576.2694866900274,0.014895109983626753,5.0124273099936545,,,,,,,,,,,,,,,,,,,,,,,,,,,,,,,,,,,,,,,,,,,,,,,,,,,,,5,m,25,r,JAD,,1,2022_Mar_08_2003,2020.2.10,acceptmap-experience,"['Left Leg', 'Left Face', 'Left Leg', 'Left Face']",59.99152919094079,
,,,,,,,1640.788873499987,None,50.0,1604.2862928899995,0.015004409971879795,5.012381409964291,,,,,,,,,,,,,,,,,,,,,,,,,,,,,,,,,,,,,,,,,,,,,,,,,,,,,5,m,25,r,JAD,,1,2022_Mar_08_2003,2020.2.10,acceptmap-experience,"['Left Leg', 'Left Face', 'Left Leg', 'Left Face']",59.99152919094079,
,,,,,,,1668.8057482999866,None,50.0,1636.3030547899834,0.01510011000209488,5.012830609979574,,,,,,,,,,,,,,,,,,,,,,,,,,,,,,,,,,,,,,,,,,,,,,,,,,,,,5,m,25,r,JAD,,1,2022_Mar_08_2003,2020.2.10,acceptmap-experience,"['Left Leg', 'Left Face', 'Left Leg', 'Left Face']",59.99152919094079,
,,,,,,,1696.8226627999975,None,50.0,1664.320128990017,0.015272410004399717,5.01313991000643,,,,,,,,,,,,,,,,,,,,,,,,,,,,,,,,,,,,,,,,,,,,,,,,,,,,,5,m,25,r,JAD,,1,2022_Mar_08_2003,2020.2.10,acceptmap-experience,"['Left Leg', 'Left Face', 'Left Leg', 'Left Face']",59.99152919094079,
,,,,,,,1724.8395758999977,None,50.0,1688.3371572900214,0.015135209978325292,5.012943109963089,,,,,,,,,,,,,,,,,,,,,,,,,,,,,,,,,,,,,,,,,,,,,,,,,,,,,5,m,25,r,JAD,,1,2022_Mar_08_2003,2020.2.10,acceptmap-experience,"['Left Leg', 'Left Face', 'Left Leg', 'Left Face']",59.99152919094079,
,,,,,,,1752.8564910999849,None,50.0,1718.3537693899998,0.014961709966883063,5.012553209962789,,,,,,,,,,,,,,,,,,,,,,,,,,,,,,,,,,,,,,,,,,,,,,,,,,,,,5,m,25,r,JAD,,1,2022_Mar_08_2003,2020.2.10,acceptmap-experience,"['Left Leg', 'Left Face', 'Left Leg', 'Left Face']",59.99152919094079,
,,,,,,,1780.8732844000042,None,50.0,1746.371592290001,0.015272910008206964,5.013138809998054,,,,,,,,,,,,,,,,,,,,,,,,,,,,,,,,,,,,,,,,,,,,,,,,,,,,,5,m,25,r,JAD,,1,2022_Mar_08_2003,2020.2.10,acceptmap-experience,"['Left Leg', 'Left Face', 'Left Leg', 'Left Face']",59.99152919094079,
,,,,,,,,,,,0.014377309998963028,5.0114301099965815,0.0,1806.3732163899986,,,,,,,,,,,,,,,,,,,,,,,,,,,,,,,,,,,,,,,,,,,,,,,,,,,5,m,25,r,JAD,,1,2022_Mar_08_2003,2020.2.10,acceptmap-experience,"['Left Leg', 'Left Face', 'Left Leg', 'Left Face']",59.99152919094079,
,,,,,,,,,,,,,,,0.013308510009665042,60.010535109991906,19.506172839506178,1813.6067202900012,,,,,,,,,,,,,,,,,,,,,,,,,,,,,,,,,,,,,,,,,,,,,,,5,m,25,r,JAD,,1,2022_Mar_08_2003,2020.2.10,acceptmap-experience,"['Left Leg', 'Left Face', 'Left Leg', 'Left Face']",59.99152919094079,
,,,,,,,,,54.81481481481482,1816.1223305800231,,,,,,,,,0.013189910008804873,None,,,,,,,,,,,,,,,,,,,,,,,,,,,,,,,,,,,,,,,,,,,,,5,m,25,r,JAD,,1,2022_Mar_08_2003,2020.2.10,acceptmap-experience,"['Left Leg', 'Left Face', 'Left Leg', 'Left Face']",59.99152919094079,
,,,,,,,,,,,0.014238219970138744,None,,,,,,,,,50.0,1818.1402983900043,,,,,,,,,,,,,,,,,,,,,,,,,,,,,,,,,,,,,,,,,,,5,m,25,r,JAD,,1,2022_Mar_08_2003,2020.2.10,acceptmap-experience,"['Left Leg', 'Left Face', 'Left Leg', 'Left Face']",59.99152919094079,
,,,,,,,,,,,,,,,,,,,,,,,0.012995010009035468,None,86.04938271604938,1821.2905728899932,,,,,,,,,,,,,,,,,,,,,,,,,,,,,,,,,,,,,,,5,m,25,r,JAD,,1,2022_Mar_08_2003,2020.2.10,acceptmap-experience,"['Left Leg', 'Left Face', 'Left Leg', 'Left Face']",59.99152919094079,
,,,,,,,,,,,,,,,,,,,,,,,,,,,0.012721809995127842,None,37.53086419753087,1825.2228441899933,,,,,,,,,,,,,,,,,,,,,,,,,,,,,,,,,,,5,m,25,r,JAD,,1,2022_Mar_08_2003,2020.2.10,acceptmap-experience,"['Left Leg', 'Left Face', 'Left Leg', 'Left Face']",59.99152919094079,
,,,,,,,,,,,,,,,,,,,,,,,,,,,,,,,0.01383780999458395,None,44.938271604938265,1828.890195690008,,,,,,,,,,,,,,,,,,,,,,,,,,,,,,,5,m,25,r,JAD,,1,2022_Mar_08_2003,2020.2.10,acceptmap-experience,"['Left Leg', 'Left Face', 'Left Leg', 'Left Face']",59.99152919094079,
,,,,,,,,,,,,,,,,,,,,,,,,,,,,,,,,,,,0.013186109979869798,None,-55.432098765432094,1833.0070602899941,,,,,,,,,,,,,,,,,,,,,,,,,,,5,m,25,r,JAD,,1,2022_Mar_08_2003,2020.2.10,acceptmap-experience,"['Left Leg', 'Left Face', 'Left Leg', 'Left Face']",59.99152919094079,
,,,,,,,,,,,,,,,,,,,,,,,,,,,,,,,,,,,,,,,0.013001810002606362,None,-0.7407407407407476,1837.1567710900272,,,,,,,,,,,,,,,,,,,,,,,5,m,25,r,JAD,,1,2022_Mar_08_2003,2020.2.10,acceptmap-experience,"['Left Leg', 'Left Face', 'Left Leg', 'Left Face']",59.99152919094079,
,,,,,,,,,,,,,,,,,,,,,,,,,,,,,,,,,,,,,,,,,,,0.013334809977095574,None,1.9753086419753032,1838.923276489979,,,,,,,,,,,,,,,,,,,5,m,25,r,JAD,,1,2022_Mar_08_2003,2020.2.10,acceptmap-experience,"['Left Leg', 'Left Face', 'Left Leg', 'Left Face']",59.99152919094079,
,,,,,,,,,,,,,,,,,,,,,,,,,,,,,,,,,,,,,,,,,,,,,,,0.013534310011891648,None,-31.481481481481495,1844.1071455900092,,,,,,,,,,,,,,,5,m,25,r,JAD,,1,2022_Mar_08_2003,2020.2.10,acceptmap-experience,"['Left Leg', 'Left Face', 'Left Leg', 'Left Face']",59.99152919094079,
,,,,,,,,,,,,,,,,,,,,,,,,,,,,,,,,,,,,,,,,,,,,,,,,,,,0.013035409996518865,None,30.493827160493822,1848.5231668899942,,,,,,,,,,,5,m,25,r,JAD,,1,2022_Mar_08_2003,2020.2.10,acceptmap-experience,"['Left Leg', 'Left Face', 'Left Leg', 'Left Face']",59.99152919094079,
,,,,,,,,,,,,,,,,,,,,,,,,,,,,,,,,,,,,,,,,,,,,,,,,,,,,,,,0.01371491001918912,None,20.246913580246925,1860.5402006900404,,,,,,,5,m,25,r,JAD,,1,2022_Mar_08_2003,2020.2.10,acceptmap-experience,"['Left Leg', 'Left Face', 'Left Leg', 'Left Face']",59.99152919094079,
,,,,,,,,,,,,,,,,,,,,,,,,,,,,,,,,,,,,,,,,,,,,,,,,,,,,,,,,,,,0.013448409968987107,None,-19.135802469135797,1864.3074812900159,,,5,m,25,r,JAD,,1,2022_Mar_08_2003,2020.2.10,acceptmap-experience,"['Left Leg', 'Left Face', 'Left Leg', 'Left Face']",59.99152919094079,
1991.6085974999878,1991.6085974999878,None,space,174.2575674999971,1991.6085974999878,None,2205.860435599985,None,52.22222222222223,2170.7579961900483,,,,,,,,,,,,,,,,,,,,,,,,,,,,,,,,,,,,,,,,,,,,,,,,,,,,,0.012887009972473606,None,5,m,25,r,JAD,,1,2022_Mar_08_2003,2020.2.10,acceptmap-experience,"['Left Leg', 'Left Face', 'Left Leg', 'Left Face']",59.99152919094079,
,,,,,,,2233.8773303999915,None,50.55555555555556,2195.125240889989,0.014984209963586181,5.012304909963859,,,,,,,,,,,,,,,,,,,,,,,,,,,,,,,,,,,,,,,,,,,,,,,,,,,,,5,m,25,r,JAD,,1,2022_Mar_08_2003,2020.2.10,acceptmap-experience,"['Left Leg', 'Left Face', 'Left Leg', 'Left Face']",59.99152919094079,
,,,,,,,2261.8942513999937,None,49.50617283950617,2225.7085809899727,0.014602709998143837,5.01166650999221,,,,,,,,,,,,,,,,,,,,,,,,,,,,,,,,,,,,,,,,,,,,,,,,,,,,,5,m,25,r,JAD,,1,2022_Mar_08_2003,2020.2.10,acceptmap-experience,"['Left Leg', 'Left Face', 'Left Leg', 'Left Face']",59.99152919094079,
,,,,,,,2289.911159799987,None,47.03703703703704,2254.3926205900207,0.01488821001839824,5.012241510004969,,,,,,,,,,,,,,,,,,,,,,,,,,,,,,,,,,,,,,,,,,,,,,,,,,,,,5,m,25,r,JAD,,1,2022_Mar_08_2003,2020.2.10,acceptmap-experience,"['Left Leg', 'Left Face', 'Left Leg', 'Left Face']",59.99152919094079,
,,,,,,,2317.928059400001,None,50.0,2278.49051239001,0.014436509984079748,5.011323810002068,,,,,,,,,,,,,,,,,,,,,,,,,,,,,,,,,,,,,,,,,,,,,,,,,,,,,5,m,25,r,JAD,,1,2022_Mar_08_2003,2020.2.10,acceptmap-experience,"['Left Leg', 'Left Face', 'Left Leg', 'Left Face']",59.99152919094079,
,,,,,,,2345.944999500003,None,47.901234567901234,2307.626160290034,0.016736110002966598,5.015893010015134,,,,,,,,,,,,,,,,,,,,,,,,,,,,,,,,,,,,,,,,,,,,,,,,,,,,,5,m,25,r,JAD,,1,2022_Mar_08_2003,2020.2.10,acceptmap-experience,"['Left Leg', 'Left Face', 'Left Leg', 'Left Face']",59.99152919094079,
,,,,,,,2373.9618872999854,None,53.2716049382716,2336.1598504900176,0.014663909969385713,5.011640009994153,,,,,,,,,,,,,,,,,,,,,,,,,,,,,,,,,,,,,,,,,,,,,,,,,,,,,5,m,25,r,JAD,,1,2022_Mar_08_2003,2020.2.10,acceptmap-experience,"['Left Leg', 'Left Face', 'Left Leg', 'Left Face']",59.99152919094079,
,,,,,,,2401.9788116999844,None,53.14814814814815,2365.476866490004,0.014564809971489012,5.011598809971474,,,,,,,,,,,,,,,,,,,,,,,,,,,,,,,,,,,,,,,,,,,,,,,,,,,,,5,m,25,r,JAD,,1,2022_Mar_08_2003,2020.2.10,acceptmap-experience,"['Left Leg', 'Left Face', 'Left Leg', 'Left Face']",59.99152919094079,
,,,,,,,2429.9957128999813,None,50.0,2389.293381489988,0.014478709985269234,5.011580909980694,,,,,,,,,,,,,,,,,,,,,,,,,,,,,,,,,,,,,,,,,,,,,,,,,,,,,5,m,25,r,JAD,,1,2022_Mar_08_2003,2020.2.10,acceptmap-experience,"['Left Leg', 'Left Face', 'Left Leg', 'Left Face']",59.99152919094079,
,,,,,,,2458.012603899988,None,48.82716049382716,2421.7269390900037,0.01485701001365669,5.012173710012576,,,,,,,,,,,,,,,,,,,,,,,,,,,,,,,,,,,,,,,,,,,,,,,,,,,,,5,m,25,r,JAD,,1,2022_Mar_08_2003,2020.2.10,acceptmap-experience,"['Left Leg', 'Left Face', 'Left Leg', 'Left Face']",59.99152919094079,
,,,,,,,2486.0295545999834,None,50.0,2449.077442990005,0.01490460999775678,5.012260910007171,,,,,,,,,,,,,,,,,,,,,,,,,,,,,,,,,,,,,,,,,,,,,,,,,,,,,5,m,25,r,JAD,,1,2022_Mar_08_2003,2020.2.10,acceptmap-experience,"['Left Leg', 'Left Face', 'Left Leg', 'Left Face']",59.99152919094079,
,,,,,,,2514.0464375999873,None,47.592592592592595,2476.9440224900027,0.014641710004070774,5.011750909994589,,,,,,,,,,,,,,,,,,,,,,,,,,,,,,,,,,,,,,,,,,,,,,,,,,,,,5,m,25,r,JAD,,1,2022_Mar_08_2003,2020.2.10,acceptmap-experience,"['Left Leg', 'Left Face', 'Left Leg', 'Left Face']",59.99152919094079,
,,,,,,,2542.0633747999964,None,52.345679012345684,2508.7609048900194,0.01496510999277234,5.012378510000417,,,,,,,,,,,,,,,,,,,,,,,,,,,,,,,,,,,,,,,,,,,,,,,,,,,,,5,m,25,r,JAD,,1,2022_Mar_08_2003,2020.2.10,acceptmap-experience,"['Left Leg', 'Left Face', 'Left Leg', 'Left Face']",59.99152919094079,
,,,,,,,2570.0802610999963,None,54.382716049382715,2532.610884189984,0.015030209993710741,5.012524809979368,,,,,,,,,,,,,,,,,,,,,,,,,,,,,,,,,,,,,,,,,,,,,,,,,,,,,5,m,25,r,JAD,,1,2022_Mar_08_2003,2020.2.10,acceptmap-experience,"['Left Leg', 'Left Face', 'Left Leg', 'Left Face']",59.99152919094079,
,,,,,,,2598.0971686999837,None,52.53086419753087,2564.028740490001,0.015173510008025914,5.012807210005121,,,,,,,,,,,,,,,,,,,,,,,,,,,,,,,,,,,,,,,,,,,,,,,,,,,,,5,m,25,r,JAD,,1,2022_Mar_08_2003,2020.2.10,acceptmap-experience,"['Left Leg', 'Left Face', 'Left Leg', 'Left Face']",59.99152919094079,
,,,,,,,2626.114094999997,None,50.49382716049383,2589.9456021900114,0.014328410004964098,5.01104081000085,,,,,,,,,,,,,,,,,,,,,,,,,,,,,,,,,,,,,,,,,,,,,,,,,,,,,5,m,25,r,JAD,,1,2022_Mar_08_2003,2020.2.10,acceptmap-experience,"['Left Leg', 'Left Face', 'Left Leg', 'Left Face']",59.99152919094079,
,,,,,,,,,,,0.01437260999227874,5.011216409999179,-11.358024691358011,2598.4967582900135,,,,,,,,,,,,,,,,,,,,,,,,,,,,,,,,,,,,,,,,,,,,,,,,,,,5,m,25,r,JAD,,1,2022_Mar_08_2003,2020.2.10,acceptmap-experience,"['Left Leg', 'Left Face', 'Left Leg', 'Left Face']",59.99152919094079,
,,,,,,,,,,,,,,,0.013316009979462251,None,60.98765432098767,2601.6974154899945,,,,,,,,,,,,,,,,,,,,,,,,,,,,,,,,,,,,,,,,,,,,,,,5,m,25,r,JAD,,1,2022_Mar_08_2003,2020.2.10,acceptmap-experience,"['Left Leg', 'Left Face', 'Left Leg', 'Left Face']",59.99152919094079,
,,,,,,,,,80.37037037037037,2603.4279885799915,,,,,,,,,0.01274430999183096,None,,,,,,,,,,,,,,,,,,,,,,,,,,,,,,,,,,,,,,,,,,,,,5,m,25,r,JAD,,1,2022_Mar_08_2003,2020.2.10,acceptmap-experience,"['Left Leg', 'Left Face', 'Left Leg', 'Left Face']",59.99152919094079,
,,,,,,,,,,,0.015428920014528558,None,,,,,,,,,81.54320987654322,2606.247123289999,,,,,,,,,,,,,,,,,,,,,,,,,,,,,,,,,,,,,,,,,,,5,m,25,r,JAD,,1,2022_Mar_08_2003,2020.2.10,acceptmap-experience,"['Left Leg', 'Left Face', 'Left Leg', 'Left Face']",59.99152919094079,
,,,,,,,,,,,,,,,,,,,,,,,0.013023609993979335,None,31.666666666666664,2608.8973336899944,,,,,,,,,,,,,,,,,,,,,,,,,,,,,,,,,,,,,,,5,m,25,r,JAD,,1,2022_Mar_08_2003,2020.2.10,acceptmap-experience,"['Left Leg', 'Left Face', 'Left Leg', 'Left Face']",59.99152919094079,
,,,,,,,,,,,,,,,,,,,,,,,,,,,0.012836309993872419,None,67.46913580246914,2611.829507389979,,,,,,,,,,,,,,,,,,,,,,,,,,,,,,,,,,,5,m,25,r,JAD,,1,2022_Mar_08_2003,2020.2.10,acceptmap-experience,"['Left Leg', 'Left Face', 'Left Leg', 'Left Face']",59.99152919094079,
,,,,,,,,,,,,,,,,,,,,,,,,,,,,,,,0.01402751001296565,None,100.0,2614.6302028900245,,,,,,,,,,,,,,,,,,,,,,,,,,,,,,,5,m,25,r,JAD,,1,2022_Mar_08_2003,2020.2.10,acceptmap-experience,"['Left Leg', 'Left Face', 'Left Leg', 'Left Face']",59.99152919094079,
,,,,,,,,,,,,,,,,,,,,,,,,,,,,,,,,,,,0.013367409963393584,None,45.06172839506172,2618.546653490019,,,,,,,,,,,,,,,,,,,,,,,,,,,5,m,25,r,JAD,,1,2022_Mar_08_2003,2020.2.10,acceptmap-experience,"['Left Leg', 'Left Face', 'Left Leg', 'Left Face']",59.99152919094079,
,,,,,,,,,,,,,,,,,,,,,,,,,,,,,,,,,,,,,,,0.013499109976692125,None,0.0,2621.6629950900096,,,,,,,,,,,,,,,,,,,,,,,5,m,25,r,JAD,,1,2022_Mar_08_2003,2020.2.10,acceptmap-experience,"['Left Leg', 'Left Face', 'Left Leg', 'Left Face']",59.99152919094079,
,,,,,,,,,,,,,,,,,,,,,,,,,,,,,,,,,,,,,,,,,,,0.013927909982157871,None,0.12345679012344135,2625.1975355900067,,,,,,,,,,,,,,,,,,,5,m,25,r,JAD,,1,2022_Mar_08_2003,2020.2.10,acceptmap-experience,"['Left Leg', 'Left Face', 'Left Leg', 'Left Face']",59.99152919094079,
,,,,,,,,,,,,,,,,,,,,,,,,,,,,,,,,,,,,,,,,,,,,,,,0.012784609978552908,None,-0.24691358024692533,2628.59743989,,,,,,,,,,,,,,,5,m,25,r,JAD,,1,2022_Mar_08_2003,2020.2.10,acceptmap-experience,"['Left Leg', 'Left Face', 'Left Leg', 'Left Face']",59.99152919094079,
,,,,,,,,,,,,,,,,,,,,,,,,,,,,,,,,,,,,,,,,,,,,,,,,,,,0.012889009987702593,None,-0.49382716049382225,2630.0471322899975,,,,,,,,,,,5,m,25,r,JAD,,1,2022_Mar_08_2003,2020.2.10,acceptmap-experience,"['Left Leg', 'Left Face', 'Left Leg', 'Left Face']",59.99152919094079,
,,,,,,,,,,,,,,,,,,,,,,,,,,,,,,,,,,,,,,,,,,,,,,,,,,,,,,,0.013230609998572618,None,-0.617283950617292,2633.5808197899896,,,,,,,5,m,25,r,JAD,,1,2022_Mar_08_2003,2020.2.10,acceptmap-experience,"['Left Leg', 'Left Face', 'Left Leg', 'Left Face']",59.99152919094079,
,,,,,,,,,,,,,,,,,,,,,,,,,,,,,,,,,,,,,,,,,,,,,,,,,,,,,,,,,,,0.01291171001503244,None,-0.617283950617292,2641.280255689984,,,5,m,25,r,JAD,,1,2022_Mar_08_2003,2020.2.10,acceptmap-experience,"['Left Leg', 'Left Face', 'Left Leg', 'Left Face']",59.99152919094079,
2785.832151299983,2785.832151299983,None,space,126.53897360002156,2785.832151299983,None,2959.3003164999827,None,30.925925925925927,2922.381405089982,,,,,,,,,,,,,,,,,,,,,,,,,,,,,,,,,,,,,,,,,,,,,,,,,,,,,0.013537210004869848,None,5,m,25,r,JAD,,1,2022_Mar_08_2003,2020.2.10,acceptmap-experience,"['Left Leg', 'Left Face', 'Left Leg', 'Left Face']",59.99152919094079,
,,,,,,,2987.3172143999836,None,35.80246913580247,2948.3647175900114,0.014796010014833882,5.012040310015436,,,,,,,,,,,,,,,,,,,,,,,,,,,,,,,,,,,,,,,,,,,,,,,,,,,,,5,m,25,r,JAD,,1,2022_Mar_08_2003,2020.2.10,acceptmap-experience,"['Left Leg', 'Left Face', 'Left Leg', 'Left Face']",59.99152919094079,
,,,,,,,3015.334127099981,None,32.59259259259259,2980.831885689986,0.015043909981613979,5.0124899100046605,,,,,,,,,,,,,,,,,,,,,,,,,,,,,,,,,,,,,,,,,,,,,,,,,,,,,5,m,25,r,JAD,,1,2022_Mar_08_2003,2020.2.10,acceptmap-experience,"['Left Leg', 'Left Face', 'Left Leg', 'Left Face']",59.99152919094079,
,,,,,,,3043.3510553999804,None,32.407407407407405,3008.8488388900005,0.014785410021431744,5.011914110014914,,,,,,,,,,,,,,,,,,,,,,,,,,,,,,,,,,,,,,,,,,,,,,,,,,,,,5,m,25,r,JAD,,1,2022_Mar_08_2003,2020.2.10,acceptmap-experience,"['Left Leg', 'Left Face', 'Left Leg', 'Left Face']",59.99152919094079,
,,,,,,,3071.3679643999785,None,31.11111111111111,3037.3823469900235,0.0147594099980779,5.012146110006142,,,,,,,,,,,,,,,,,,,,,,,,,,,,,,,,,,,,,,,,,,,,,,,,,,,,,5,m,25,r,JAD,,1,2022_Mar_08_2003,2020.2.10,acceptmap-experience,"['Left Leg', 'Left Face', 'Left Leg', 'Left Face']",59.99152919094079,
,,,,,,,3099.3848494999984,None,29.876543209876544,3060.565467289998,0.014845709985820577,5.012139109981945,,,,,,,,,,,,,,,,,,,,,,,,,,,,,,,,,,,,,,,,,,,,,,,,,,,,,5,m,25,r,JAD,,1,2022_Mar_08_2003,2020.2.10,acceptmap-experience,"['Left Leg', 'Left Face', 'Left Leg', 'Left Face']",59.99152919094079,
,,,,,,,3127.401794299978,None,31.35802469135803,3088.416166890034,0.015234510006848723,5.012937410006998,,,,,,,,,,,,,,,,,,,,,,,,,,,,,,,,,,,,,,,,,,,,,,,,,,,,,5,m,25,r,JAD,,1,2022_Mar_08_2003,2020.2.10,acceptmap-experience,"['Left Leg', 'Left Face', 'Left Leg', 'Left Face']",59.99152919094079,
,,,,,,,3155.4186870999984,None,31.41975308641975,3120.166790390009,0.014790009969146922,5.012017109955195,,,,,,,,,,,,,,,,,,,,,,,,,,,,,,,,,,,,,,,,,,,,,,,,,,,,,5,m,25,r,JAD,,1,2022_Mar_08_2003,2020.2.10,acceptmap-experience,"['Left Leg', 'Left Face', 'Left Leg', 'Left Face']",59.99152919094079,
,,,,,,,3183.4356122000027,None,31.728395061728392,3148.9001235900214,0.014450410002609715,5.011358210002072,,,,,,,,,,,,,,,,,,,,,,,,,,,,,,,,,,,,,,,,,,,,,,,,,,,,,5,m,25,r,JAD,,1,2022_Mar_08_2003,2020.2.10,acceptmap-experience,"['Left Leg', 'Left Face', 'Left Leg', 'Left Face']",59.99152919094079,
,,,,,,,3211.452503599983,None,30.74074074074074,3176.450087890029,0.01470890999189578,5.01189391000662,,,,,,,,,,,,,,,,,,,,,,,,,,,,,,,,,,,,,,,,,,,,,,,,,,,,,5,m,25,r,JAD,,1,2022_Mar_08_2003,2020.2.10,acceptmap-experience,"['Left Leg', 'Left Face', 'Left Leg', 'Left Face']",59.99152919094079,
,,,,,,,3239.46940859998,None,31.35802469135803,3201.617016889999,0.01498590997653082,5.012420109997038,,,,,,,,,,,,,,,,,,,,,,,,,,,,,,,,,,,,,,,,,,,,,,,,,,,,,5,m,25,r,JAD,,1,2022_Mar_08_2003,2020.2.10,acceptmap-experience,"['Left Leg', 'Left Face', 'Left Leg', 'Left Face']",59.99152919094079,
,,,,,,,3267.4863174999773,None,30.37037037037037,3231.9843902900175,0.014924310002243146,5.01229561000946,,,,,,,,,,,,,,,,,,,,,,,,,,,,,,,,,,,,,,,,,,,,,,,,,,,,,5,m,25,r,JAD,,1,2022_Mar_08_2003,2020.2.10,acceptmap-experience,"['Left Leg', 'Left Face', 'Left Leg', 'Left Face']",59.99152919094079,
,,,,,,,3295.5032446999976,None,30.49382716049383,3259.0345270899707,0.01448220998281613,5.011396109970519,,,,,,,,,,,,,,,,,,,,,,,,,,,,,,,,,,,,,,,,,,,,,,,,,,,,,5,m,25,r,JAD,,1,2022_Mar_08_2003,2020.2.10,acceptmap-experience,"['Left Leg', 'Left Face', 'Left Leg', 'Left Face']",59.99152919094079,
,,,,,,,3323.520148199983,None,30.864197530864196,3288.5513504899864,0.014601610018871725,5.011620410019532,,,,,,,,,,,,,,,,,,,,,,,,,,,,,,,,,,,,,,,,,,,,,,,,,,,,,5,m,25,r,JAD,,1,2022_Mar_08_2003,2020.2.10,acceptmap-experience,"['Left Leg', 'Left Face', 'Left Leg', 'Left Face']",59.99152919094079,
,,,,,,,3351.5370416999795,None,35.18518518518518,3316.6682556900196,0.014700410014484078,5.011875110008987,,,,,,,,,,,,,,,,,,,,,,,,,,,,,,,,,,,,,,,,,,,,,,,,,,,,,5,m,25,r,JAD,,1,2022_Mar_08_2003,2020.2.10,acceptmap-experience,"['Left Leg', 'Left Face', 'Left Leg', 'Left Face']",59.99152919094079,
,,,,,,,3379.5539613,None,32.77777777777778,3340.7664699900197,0.014687809976749122,5.011810009978944,,,,,,,,,,,,,,,,,,,,,,,,,,,,,,,,,,,,,,,,,,,,,,,,,,,,,5,m,25,r,JAD,,1,2022_Mar_08_2003,2020.2.10,acceptmap-experience,"['Left Leg', 'Left Face', 'Left Leg', 'Left Face']",59.99152919094079,
,,,,,,,,,,,0.016705309972167015,5.015788709977642,-9.629629629629619,3346.703457189986,,,,,,,,,,,,,,,,,,,,,,,,,,,,,,,,,,,,,,,,,,,,,,,,,,,5,m,25,r,JAD,,1,2022_Mar_08_2003,2020.2.10,acceptmap-experience,"['Left Leg', 'Left Face', 'Left Leg', 'Left Face']",59.99152919094079,
,,,,,,,,,,,,,,,0.013129010010743514,None,-22.71604938271605,3351.6701045900118,,,,,,,,,,,,,,,,,,,,,,,,,,,,,,,,,,,,,,,,,,,,,,,5,m,25,r,JAD,,1,2022_Mar_08_2003,2020.2.10,acceptmap-experience,"['Left Leg', 'Left Face', 'Left Leg', 'Left Face']",59.99152919094079,
,,,,,,,,,40.0,3355.4345824800257,,,,,,,,,0.013221209985204041,None,,,,,,,,,,,,,,,,,,,,,,,,,,,,,,,,,,,,,,,,,,,,,5,m,25,r,JAD,,1,2022_Mar_08_2003,2020.2.10,acceptmap-experience,"['Left Leg', 'Left Face', 'Left Leg', 'Left Face']",59.99152919094079,
,,,,,,,,,,,0.015362419973826036,None,,,,,,,,,42.160493827160494,3359.886458790017,,,,,,,,,,,,,,,,,,,,,,,,,,,,,,,,,,,,,,,,,,,5,m,25,r,JAD,,1,2022_Mar_08_2003,2020.2.10,acceptmap-experience,"['Left Leg', 'Left Face', 'Left Leg', 'Left Face']",59.99152919094079,
,,,,,,,,,,,,,,,,,,,,,,,0.01355320998118259,None,60.0,3364.6367971899745,,,,,,,,,,,,,,,,,,,,,,,,,,,,,,,,,,,,,,,5,m,25,r,JAD,,1,2022_Mar_08_2003,2020.2.10,acceptmap-experience,"['Left Leg', 'Left Face', 'Left Leg', 'Left Face']",59.99152919094079,
,,,,,,,,,,,,,,,,,,,,,,,,,,,0.013271010015159845,None,42.96296296296296,3368.3031919899804,,,,,,,,,,,,,,,,,,,,,,,,,,,,,,,,,,,5,m,25,r,JAD,,1,2022_Mar_08_2003,2020.2.10,acceptmap-experience,"['Left Leg', 'Left Face', 'Left Leg', 'Left Face']",59.99152919094079,
,,,,,,,,,,,,,,,,,,,,,,,,,,,,,,,0.013483910006470978,None,76.72839506172839,3371.037094189989,,,,,,,,,,,,,,,,,,,,,,,,,,,,,,,5,m,25,r,JAD,,1,2022_Mar_08_2003,2020.2.10,acceptmap-experience,"['Left Leg', 'Left Face', 'Left Leg', 'Left Face']",59.99152919094079,
,,,,,,,,,,,,,,,,,,,,,,,,,,,,,,,,,,,0.013028009998379275,None,-26.172839506172835,3375.169939489977,,,,,,,,,,,,,,,,,,,,,,,,,,,5,m,25,r,JAD,,1,2022_Mar_08_2003,2020.2.10,acceptmap-experience,"['Left Leg', 'Left Face', 'Left Leg', 'Left Face']",59.99152919094079,
,,,,,,,,,,,,,,,,,,,,,,,,,,,,,,,,,,,,,,,0.013578910031355917,None,0.0,3377.187207990006,,,,,,,,,,,,,,,,,,,,,,,5,m,25,r,JAD,,1,2022_Mar_08_2003,2020.2.10,acceptmap-experience,"['Left Leg', 'Left Face', 'Left Leg', 'Left Face']",59.99152919094079,
,,,,,,,,,,,,,,,,,,,,,,,,,,,,,,,,,,,,,,,,,,,0.01295170999947004,None,-0.49382716049382225,3378.769748490042,,,,,,,,,,,,,,,,,,,5,m,25,r,JAD,,1,2022_Mar_08_2003,2020.2.10,acceptmap-experience,"['Left Leg', 'Left Face', 'Left Leg', 'Left Face']",59.99152919094079,
,,,,,,,,,,,,,,,,,,,,,,,,,,,,,,,,,,,,,,,,,,,,,,,0.013788309966912493,None,34.44444444444443,3387.6862921899883,,,,,,,,,,,,,,,5,m,25,r,JAD,,1,2022_Mar_08_2003,2020.2.10,acceptmap-experience,"['Left Leg', 'Left Face', 'Left Leg', 'Left Face']",59.99152919094079,
,,,,,,,,,,,,,,,,,,,,,,,,,,,,,,,,,,,,,,,,,,,,,,,,,,,0.014130610012216493,None,33.333333333333314,3390.304399889981,,,,,,,,,,,5,m,25,r,JAD,,1,2022_Mar_08_2003,2020.2.10,acceptmap-experience,"['Left Leg', 'Left Face', 'Left Leg', 'Left Face']",59.99152919094079,
,,,,,,,,,,,,,,,,,,,,,,,,,,,,,,,,,,,,,,,,,,,,,,,,,,,,,,,0.0125783100083936,None,31.728395061728406,3395.503606090002,,,,,,,5,m,25,r,JAD,,1,2022_Mar_08_2003,2020.2.10,acceptmap-experience,"['Left Leg', 'Left Face', 'Left Leg', 'Left Face']",59.99152919094079,
,,,,,,,,,,,,,,,,,,,,,,,,,,,,,,,,,,,,,,,,,,,,,,,,,,,,,,,,,,,0.013401109987171367,None,-93.4567901234568,3399.8702006899985,,,5,m,25,r,JAD,,1,2022_Mar_08_2003,2020.2.10,acceptmap-experience,"['Left Leg', 'Left Face', 'Left Leg', 'Left Face']",59.99152919094079,
,,,,,,,,,,,,,,,,,,,,,,,,,,,,,,,,,,,,,,,,,,,,,,,,,,,,,,,,,,,,,,,0.013533010001992807,None,,,,,,,,,,,,,
