RestT1,TaskT1,square,location,corrAns,counterbalancer.thisRepN,counterbalancer.thisTrialN,counterbalancer.thisN,counterbalancer.thisIndex,RestT1Loop.thisRepN,RestT1Loop.thisTrialN,RestT1Loop.thisN,RestT1Loop.thisIndex,TaskT1Loop.thisRepN,TaskT1Loop.thisTrialN,TaskT1Loop.thisN,TaskT1Loop.thisIndex,trials_2.thisRepN,trials_2.thisTrialN,trials_2.thisN,trials_2.thisIndex,fixation_1.started,fixation_1.stopped,NbackInstructions.started,NbackInstructions.stopped,NbackStart.keys,NbackStart.rt,NbackStart.started,NbackStart.stopped,fixation_2.started,fixation_2.stopped,response_2.x,response_2.y,response_2.leftButton,grid_lines_2.started,grid_lines_2.stopped,target_square_2.started,target_square_2.stopped,fixation_3.started,fixation_3.stopped,response_2.click,response_2.corr,response_2.started,response_2.stopped,response_2.rt,subject number,gender,session,handedness,scanner,date,expName,psychopyVersion,frameRate,
1,0,,,,0,0,0,0,0,0,0,0,,,,,,,,,72.12376079999376,None,,,,,,,,,,,,,,,,,,,,,,,3,F,25,L,SK,2022_Feb_23_1555,WASABI Nback,2020.2.10,59.96987114468888,
0,1,,,,0,1,1,1,,,,,0,0,0,0,,,,,,,397.4429830000154,None,space,13.53601370000979,397.4429830000154,None,,,,,,,,,,,,,,,,,3,F,25,L,SK,2022_Feb_23_1555,WASABI Nback,2020.2.10,59.96987114468888,
0,1,5,"[0, 0]",None,0,1,1,1,,,,,0,0,0,0,0,0,0,0,,,,,,,,,None,None,None,None,[],None,None,None,None,None,None,[],[],None,None,,3,F,25,L,SK,2022_Feb_23_1555,WASABI Nback,2020.2.10,59.96987114468888,
0,1,2,"[0, 0.2]",None,0,1,1,1,,,,,0,0,0,0,0,1,1,1,,,,,,,,,,,None,None,[],None,None,None,None,None,None,[],[],None,None,,3,F,25,L,SK,2022_Feb_23_1555,WASABI Nback,2020.2.10,59.96987114468888,
0,1,6,"[0.2, 0]",None,0,1,1,1,,,,,0,0,0,0,0,2,2,2,,,,,,,,,,,None,None,0,416.9598149000085,None,416.9598149000085,417.95978760003345,417.9430272000027,None,0,1,416.9598149000085,None,,3,F,25,L,SK,2022_Feb_23_1555,WASABI Nback,2020.2.10,59.96987114468888,
0,1,9,"[0.2, -0.2]",None,0,1,1,1,,,,,0,0,0,0,0,3,3,3,,,,,,,,,,,None,None,0,418.0265101999976,None,418.0265101999976,419.02647199999774,419.0098125000368,420.00982239999576,0,1,418.0265101999976,None,,3,F,25,L,SK,2022_Feb_23_1555,WASABI Nback,2020.2.10,59.96987114468888,
0,1,3,"[0.2, 0.2]",None,0,1,1,1,,,,,0,0,0,0,0,4,4,4,,,,,,,,,,,None,None,0,420.02648850000696,None,420.02648850000696,421.0265039000078,421.00982239999576,422.0098231000011,0,1,420.02648850000696,None,,3,F,25,L,SK,2022_Feb_23_1555,WASABI Nback,2020.2.10,59.96987114468888,
0,1,9,"[0.2, -0.2]",1,0,1,1,1,,,,,0,0,0,0,0,5,5,5,,,,,,,,,,,None,None,0,422.02650089998497,None,422.02650089998497,423.02649369998835,423.0098463000031,424.0098449999932,0,1,422.02650089998497,None,,3,F,25,L,SK,2022_Feb_23_1555,WASABI Nback,2020.2.10,59.96987114468888,
0,1,7,"[-0.2, -0.2]",None,0,1,1,1,,,,,0,0,0,0,0,6,6,6,,,,,,,,,,,None,None,0,424.02652790001594,None,424.02652790001594,425.0265243999893,425.0098520999891,426.0098618000047,0,1,424.02652790001594,None,,3,F,25,L,SK,2022_Feb_23_1555,WASABI Nback,2020.2.10,59.96987114468888,
0,1,1,"[-0.2, 0.2]",None,0,1,1,1,,,,,0,0,0,0,0,7,7,7,,,,,,,,,,,None,None,0,426.02645750000374,None,426.02645750000374,427.02654600003734,427.0098683999968,428.0098689000006,0,1,426.02645750000374,None,,3,F,25,L,SK,2022_Feb_23_1555,WASABI Nback,2020.2.10,59.96987114468888,
0,1,5,"[0, 0]",None,0,1,1,1,,,,,0,0,0,0,0,8,8,8,,,,,,,,,,,None,None,0,428.02655060001416,None,428.02655060001416,429.0265427000122,429.00987539999187,430.0098717000219,0,1,428.02655060001416,None,,3,F,25,L,SK,2022_Feb_23_1555,WASABI Nback,2020.2.10,59.96987114468888,
0,1,7,"[-0.2, -0.2]",None,0,1,1,1,,,,,0,0,0,0,0,9,9,9,,,,,,,,,,,None,None,0,430.02656750002643,None,430.02656750002643,431.02655790001154,431.00994970003376,432.00989180000033,0,1,430.02656750002643,None,,3,F,25,L,SK,2022_Feb_23_1555,WASABI Nback,2020.2.10,59.96987114468888,
0,1,5,"[0, 0]",1,0,1,1,1,,,,,0,0,0,0,0,10,10,10,,,,,,,,,,,None,None,0,432.0265698999865,None,432.0265698999865,433.02659490000224,433.00988710002275,434.0099149000016,0,0,432.0265698999865,None,,3,F,25,L,SK,2022_Feb_23_1555,WASABI Nback,2020.2.10,59.96987114468888,
0,1,6,"[0.2, 0]",None,0,1,1,1,,,,,0,0,0,0,0,11,11,11,,,,,,,,,,,None,None,0,434.02658040000824,None,434.02658040000824,435.02658890001476,435.0099285999895,436.00993010000093,0,1,434.02658040000824,None,,3,F,25,L,SK,2022_Feb_23_1555,WASABI Nback,2020.2.10,59.96987114468888,
0,1,3,"[0.2, 0.2]",None,0,1,1,1,,,,,0,0,0,0,0,12,12,12,,,,,,,,,,,None,None,0,436.0265917000361,None,436.0265917000361,437.02659620001214,437.00993500003824,438.00995159999,0,1,436.0265917000361,None,,3,F,25,L,SK,2022_Feb_23_1555,WASABI Nback,2020.2.10,59.96987114468888,
0,1,6,"[0.2, 0]",1,0,1,1,1,,,,,0,0,0,0,0,13,13,13,,,,,,,,,,,None,None,0,438.0266150000389,None,438.0266150000389,439.0266153999837,439.00985090003815,440.00995590002276,0,1,438.0266150000389,None,,3,F,25,L,SK,2022_Feb_23_1555,WASABI Nback,2020.2.10,59.96987114468888,
0,1,8,"[0, -0.2]",None,0,1,1,1,,,,,0,0,0,0,0,14,14,14,,,,,,,,,,,None,None,0,440.02663810004015,None,440.02663810004015,441.0266418000101,441.0099636000232,442.0098747999873,0,1,440.02663810004015,None,,3,F,25,L,SK,2022_Feb_23_1555,WASABI Nback,2020.2.10,59.96987114468888,
0,1,9,"[0.2, -0.2]",None,0,1,1,1,,,,,0,0,0,0,0,15,15,15,,,,,,,,,,,None,None,0,442.02665900002467,None,442.02665900002467,443.0266849999898,443.00998149998486,444.0099949000287,0,1,442.02665900002467,None,,3,F,25,L,SK,2022_Feb_23_1555,WASABI Nback,2020.2.10,59.96987114468888,
0,1,9,"[0.2, -0.2]",None,0,1,1,1,,,,,0,0,0,0,0,16,16,16,,,,,,,,,,,None,None,0,444.02666710002813,None,444.02666710002813,445.0266767999856,445.0100099000265,446.01000140002,0,1,444.02666710002813,None,,3,F,25,L,SK,2022_Feb_23_1555,WASABI Nback,2020.2.10,59.96987114468888,
0,1,1,"[-0.2, 0.2]",None,0,1,1,1,,,,,0,0,0,0,0,17,17,17,,,,,,,,,,,None,None,0,446.02668150002137,None,446.02668150002137,447.02668160002213,447.0100270000403,448.01001780002844,0,1,446.02668150002137,None,,3,F,25,L,SK,2022_Feb_23_1555,WASABI Nback,2020.2.10,59.96987114468888,
0,1,3,"[0.2, 0.2]",None,0,1,1,1,,,,,0,0,0,0,0,18,18,18,,,,,,,,,,,None,None,0,448.0267039000173,None,448.0267039000173,449.0266946000047,449.010039100016,450.010034899984,0,1,448.0267039000173,None,,3,F,25,L,SK,2022_Feb_23_1555,WASABI Nback,2020.2.10,59.96987114468888,
0,1,5,"[0, 0]",None,0,1,1,1,,,,,0,0,0,0,0,19,19,19,,,,,,,,,,,None,None,0,450.02670590003254,None,450.02670590003254,451.0267111000139,451.01003790000686,452.01005159999477,0,1,450.02670590003254,None,,3,F,25,L,SK,2022_Feb_23_1555,WASABI Nback,2020.2.10,59.96987114468888,
0,1,3,"[0.2, 0.2]",1,0,1,1,1,,,,,0,0,0,0,0,20,20,20,,,,,,,,,,,None,None,0,452.0267254000064,None,452.0267254000064,453.02673300000606,453.0100662999903,454.0100730000413,0,1,452.0267254000064,None,,3,F,25,L,SK,2022_Feb_23_1555,WASABI Nback,2020.2.10,59.96987114468888,
0,1,4,"[-0.2, 0]",None,0,1,1,1,,,,,0,0,0,0,0,21,21,21,,,,,,,,,,,None,None,0,454.02673069998855,None,454.02673069998855,455.02674310002476,455.0100745999953,456.01009739999427,0,1,454.02673069998855,None,,3,F,25,L,SK,2022_Feb_23_1555,WASABI Nback,2020.2.10,59.96987114468888,
0,1,7,"[-0.2, -0.2]",None,0,1,1,1,,,,,0,0,0,0,0,22,22,22,,,,,,,,,,,None,None,0,456.0267352000228,None,456.0267352000228,457.0267535999883,457.01010419998784,458.01010359998327,0,1,456.0267352000228,None,,3,F,25,L,SK,2022_Feb_23_1555,WASABI Nback,2020.2.10,59.96987114468888,
0,1,4,"[-0.2, 0]",1,0,1,1,1,,,,,0,0,0,0,0,23,23,23,,,,,,,,,,,None,None,0,458.0267688999884,None,458.0267688999884,459.02677960001165,459.01011139998445,460.01010650000535,0,1,458.0267688999884,None,,3,F,25,L,SK,2022_Feb_23_1555,WASABI Nback,2020.2.10,59.96987114468888,
0,1,4,"[-0.2, 0]",None,0,1,1,1,,,,,0,0,0,0,0,24,24,24,,,,,,,,,,,None,None,0,460.02678549999837,None,460.02678549999837,461.02678270003526,461.01011999999173,462.01013519999105,0,1,460.02678549999837,None,,3,F,25,L,SK,2022_Feb_23_1555,WASABI Nback,2020.2.10,59.96987114468888,
0,1,5,"[0, 0]",None,0,1,1,1,,,,,0,0,0,0,0,25,25,25,,,,,,,,,,,None,None,0,462.0267913999851,None,462.0267913999851,463.02680240001064,463.01011840003775,464.0101572999847,0,1,462.0267913999851,None,,3,F,25,L,SK,2022_Feb_23_1555,WASABI Nback,2020.2.10,59.96987114468888,
0,1,2,"[0, 0.2]",None,0,1,1,1,,,,,0,0,0,0,0,26,26,26,,,,,,,,,,,None,None,0,464.0268105000141,None,464.0268105000141,465.02682720002485,465.0101460000151,466.0101537000155,0,1,464.0268105000141,None,,3,F,25,L,SK,2022_Feb_23_1555,WASABI Nback,2020.2.10,59.96987114468888,
0,1,6,"[0.2, 0]",None,0,1,1,1,,,,,0,0,0,0,0,27,27,27,,,,,,,,,,,None,None,0,466.0268226999906,None,466.0268226999906,467.0268338000169,467.0101636000327,468.0101708000293,0,1,466.0268226999906,None,,3,F,25,L,SK,2022_Feb_23_1555,WASABI Nback,2020.2.10,59.96987114468888,
0,1,7,"[-0.2, -0.2]",None,0,1,1,1,,,,,0,0,0,0,0,28,28,28,,,,,,,,,,,None,None,0,468.02684870001394,None,468.02684870001394,469.02684460004093,469.01018799998565,470.01019420003286,0,1,468.02684870001394,None,,3,F,25,L,SK,2022_Feb_23_1555,WASABI Nback,2020.2.10,59.96987114468888,
0,1,6,"[0.2, 0]",1,0,1,1,1,,,,,0,0,0,0,0,29,29,29,,,,,,,,,,,None,None,0,470.02684820001014,None,470.02684820001014,471.0268630000064,471.01018769998336,472.01020449999487,0,0,470.02684820001014,None,,3,F,25,L,SK,2022_Feb_23_1555,WASABI Nback,2020.2.10,59.96987114468888,
0,1,6,"[0.2, 0]",None,0,1,1,1,,,,,0,0,0,0,0,30,30,30,,,,,,,,,,,None,None,0,472.02687890001107,None,472.02687890001107,473.02688180003315,473.01024880004115,474.0102257000399,0,1,472.02687890001107,None,,3,F,25,L,SK,2022_Feb_23_1555,WASABI Nback,2020.2.10,59.96987114468888,
0,1,7,"[-0.2, -0.2]",None,0,1,1,1,,,,,0,0,0,0,0,31,31,31,,,,,,,,,,,None,None,0,474.0268851000001,None,474.0268851000001,475.02689710003324,475.0102329000365,476.01024129998405,0,1,474.0268851000001,None,,3,F,25,L,SK,2022_Feb_23_1555,WASABI Nback,2020.2.10,59.96987114468888,
0,1,6,"[0.2, 0]",1,0,1,1,1,,,,,0,0,0,0,0,32,32,32,,,,,,,,,,,None,None,0,476.0268974000355,None,476.0268974000355,477.0269189000246,477.01023920002626,478.0102528000134,0,1,476.0268974000355,None,,3,F,25,L,SK,2022_Feb_23_1555,WASABI Nback,2020.2.10,59.96987114468888,
0,1,2,"[0, 0.2]",None,0,1,1,1,,,,,0,0,0,0,0,33,33,33,,,,,,,,,,,None,None,0,478.0269111000234,None,478.0269111000234,479.026930299995,479.010251700005,480.0102626000298,0,1,478.0269111000234,None,,3,F,25,L,SK,2022_Feb_23_1555,WASABI Nback,2020.2.10,59.96987114468888,
0,1,5,"[0, 0]",None,0,1,1,1,,,,,0,0,0,0,0,34,34,34,,,,,,,,,,,None,None,0,480.02693150000414,None,480.02693150000414,481.026946900005,481.01026280003134,482.01027620001696,0,1,480.02693150000414,None,,3,F,25,L,SK,2022_Feb_23_1555,WASABI Nback,2020.2.10,59.96987114468888,
0,1,4,"[-0.2, 0]",None,0,1,1,1,,,,,0,0,0,0,0,35,35,35,,,,,,,,,,,None,None,0,482.0269455999951,None,482.0269455999951,483.0269481000141,483.010301500035,484.0103109999909,0,1,482.0269455999951,None,,3,F,25,L,SK,2022_Feb_23_1555,WASABI Nback,2020.2.10,59.96987114468888,
0,1,4,"[-0.2, 0]",None,0,1,1,1,,,,,0,0,0,0,0,36,36,36,,,,,,,,,,,None,None,0,484.0269588000374,None,484.0269588000374,485.02696980000474,485.0103144000168,486.01032200001646,0,1,484.0269588000374,None,,3,F,25,L,SK,2022_Feb_23_1555,WASABI Nback,2020.2.10,59.96987114468888,
0,1,7,"[-0.2, -0.2]",None,0,1,1,1,,,,,0,0,0,0,0,37,37,37,,,,,,,,,,,None,None,0,486.0269752999884,None,486.0269752999884,487.0269813000341,487.0103320000344,488.010336700012,0,1,486.0269752999884,None,,3,F,25,L,SK,2022_Feb_23_1555,WASABI Nback,2020.2.10,59.96987114468888,
0,1,4,"[-0.2, 0]",1,0,1,1,1,,,,,0,0,0,0,0,38,38,38,,,,,,,,,,,None,None,0,488.02699230000144,None,488.02699230000144,489.02699769998435,489.0103387000272,490.01035100000445,0,0,488.02699230000144,None,,3,F,25,L,SK,2022_Feb_23_1555,WASABI Nback,2020.2.10,59.96987114468888,
0,1,3,"[0.2, 0.2]",None,0,1,1,1,,,,,0,0,0,0,0,39,39,39,,,,,,,,,,,None,None,0,490.02700210001785,None,490.02700210001785,491.0270285999868,491.0103565999889,492.0103524000151,0,1,490.02700210001785,None,,3,F,25,L,SK,2022_Feb_23_1555,WASABI Nback,2020.2.10,59.96987114468888,
0,1,5,"[0, 0]",None,0,1,1,1,,,,,0,0,0,0,0,40,40,40,,,,,,,,,,,None,None,0,492.0270636000205,None,492.0270636000205,493.0270295999944,493.0103734000004,494.01038200000767,0,1,492.0270636000205,None,,3,F,25,L,SK,2022_Feb_23_1555,WASABI Nback,2020.2.10,59.96987114468888,
0,1,3,"[0.2, 0.2]",1,0,1,1,1,,,,,0,0,0,0,0,41,41,41,,,,,,,,,,,None,None,0,494.02704330004053,None,494.02704330004053,495.0270335000241,495.0103780000354,496.0104013000382,0,0,494.02704330004053,None,,3,F,25,L,SK,2022_Feb_23_1555,WASABI Nback,2020.2.10,59.96987114468888,
0,1,1,"[-0.2, 0.2]",None,0,1,1,1,,,,,0,0,0,0,0,42,42,42,,,,,,,,,,,None,None,0,496.02705330000026,None,496.02705330000026,497.02706580003724,497.01040660002036,498.0104172999854,0,1,496.02705330000026,None,,3,F,25,L,SK,2022_Feb_23_1555,WASABI Nback,2020.2.10,59.96987114468888,
0,1,9,"[0.2, -0.2]",None,0,1,1,1,,,,,0,0,0,0,0,43,43,43,,,,,,,,,,,None,None,0,498.02706370002124,None,498.02706370002124,499.0270697000087,499.0104250999866,500.0104269000003,0,1,498.02706370002124,None,,3,F,25,L,SK,2022_Feb_23_1555,WASABI Nback,2020.2.10,59.96987114468888,
0,1,9,"[0.2, -0.2]",None,0,1,1,1,,,,,0,0,0,0,0,44,44,44,,,,,,,,,,,None,None,0,500.02709660003893,None,500.02709660003893,501.02709240000695,501.010441099992,502.0103342999937,0,1,500.02709660003893,None,,3,F,25,L,SK,2022_Feb_23_1555,WASABI Nback,2020.2.10,59.96987114468888,
0,1,8,"[0, -0.2]",None,0,1,1,1,,,,,0,0,0,0,0,45,45,45,,,,,,,,,,,None,None,0,502.0271005000104,None,502.0271005000104,503.02710200002184,503.01049930002773,504.01045579998754,0,1,502.0271005000104,None,,3,F,25,L,SK,2022_Feb_23_1555,WASABI Nback,2020.2.10,59.96987114468888,
0,1,6,"[0.2, 0]",None,0,1,1,1,,,,,0,0,0,0,0,46,46,46,,,,,,,,,,,None,None,0,504.0271104000276,None,504.0271104000276,505.0271300000022,505.01045240001986,506.01047410001047,0,1,504.0271104000276,None,,3,F,25,L,SK,2022_Feb_23_1555,WASABI Nback,2020.2.10,59.96987114468888,
0,1,3,"[0.2, 0.2]",None,0,1,1,1,,,,,0,0,0,0,0,47,47,47,,,,,,,,,,,None,None,0,506.0271318000159,None,506.0271318000159,507.02713840000797,507.0104901000159,508.0104818000109,0,1,506.0271318000159,None,,3,F,25,L,SK,2022_Feb_23_1555,WASABI Nback,2020.2.10,59.96987114468888,
0,1,6,"[0.2, 0]",1,0,1,1,1,,,,,0,0,0,0,0,48,48,48,,,,,,,,,,,None,None,0,508.0270668999874,None,508.0270668999874,509.0271534000058,509.0104939999874,510.0105332999956,0,1,508.0270668999874,None,,3,F,25,L,SK,2022_Feb_23_1555,WASABI Nback,2020.2.10,59.96987114468888,
0,1,5,"[0, 0]",None,0,1,1,1,,,,,0,0,0,0,0,49,49,49,,,,,,,,,,,None,None,0,510.02715889998944,None,510.02715889998944,511.0271712000249,511.01051039999584,512.0105331999948,0,1,510.02715889998944,None,,3,F,25,L,SK,2022_Feb_23_1555,WASABI Nback,2020.2.10,59.96987114468888,
0,1,7,"[-0.2, -0.2]",None,0,1,1,1,,,,,0,0,0,0,0,50,50,50,,,,,,,,,,,None,None,0,512.0271825999953,None,512.0271825999953,513.0271827999968,513.0105341000017,514.0105391000398,0,1,512.0271825999953,None,,3,F,25,L,SK,2022_Feb_23_1555,WASABI Nback,2020.2.10,59.96987114468888,
0,1,5,"[0, 0]",1,0,1,1,1,,,,,0,0,0,0,0,51,51,51,,,,,,,,,,,None,None,0,514.0271852000151,None,514.0271852000151,515.0271979999961,515.0105361000169,516.0105556999915,0,1,514.0271852000151,None,,3,F,25,L,SK,2022_Feb_23_1555,WASABI Nback,2020.2.10,59.96987114468888,
0,1,1,"[-0.2, 0.2]",None,0,1,1,1,,,,,0,0,0,0,0,52,52,52,,,,,,,,,,,None,None,0,516.0272185000358,None,516.0272185000358,517.0272091000224,517.0105555999908,518.0105674000224,0,1,516.0272185000358,None,,3,F,25,L,SK,2022_Feb_23_1555,WASABI Nback,2020.2.10,59.96987114468888,
0,1,7,"[-0.2, -0.2]",None,0,1,1,1,,,,,0,0,0,0,0,53,53,53,,,,,,,,,,,None,None,0,518.0272143000038,None,518.0272143000038,519.0272225000081,519.0105646000011,520.0105857999879,0,1,518.0272143000038,None,,3,F,25,L,SK,2022_Feb_23_1555,WASABI Nback,2020.2.10,59.96987114468888,
0,1,9,"[0.2, -0.2]",None,0,1,1,1,,,,,0,0,0,0,0,54,54,54,,,,,,,,,,,None,None,0,520.0272735999897,None,520.0272735999897,521.0272436999949,521.0105965000112,522.0106022999971,0,1,520.0272735999897,None,,3,F,25,L,SK,2022_Feb_23_1555,WASABI Nback,2020.2.10,59.96987114468888,
0,1,3,"[0.2, 0.2]",None,0,1,1,1,,,,,0,0,0,0,0,55,55,55,,,,,,,,,,,None,None,1,522.0272479000269,None,522.0272479000269,523.0272678000038,523.0105796999997,524.0106112000067,1,0,522.0272479000269,None,1.616997100005392,3,F,25,L,SK,2022_Feb_23_1555,WASABI Nback,2020.2.10,59.96987114468888,
0,1,9,"[0.2, -0.2]",1,0,1,1,1,,,,,0,0,0,0,0,56,56,56,,,,,,,,,,,None,None,0,524.0272833000054,None,524.0272833000054,525.0272899999982,525.0106270000106,526.010626800009,0,1,524.0272833000054,None,,3,F,25,L,SK,2022_Feb_23_1555,WASABI Nback,2020.2.10,59.96987114468888,
0,1,6,"[0.2, 0]",None,0,1,1,1,,,,,0,0,0,0,0,57,57,57,,,,,,,,,,,None,None,0,526.0272835000069,None,526.0272835000069,527.0272893999936,527.0106356000178,528.010647099989,0,1,526.0272835000069,None,,3,F,25,L,SK,2022_Feb_23_1555,WASABI Nback,2020.2.10,59.96987114468888,
0,1,2,"[0, 0.2]",None,0,1,1,1,,,,,0,0,0,0,0,58,58,58,,,,,,,,,,,None,None,0,528.0272983000032,None,528.0272983000032,529.027307500015,529.0106370000285,530.0106648000074,0,1,528.0272983000032,None,,3,F,25,L,SK,2022_Feb_23_1555,WASABI Nback,2020.2.10,59.96987114468888,
0,1,5,"[0, 0]",None,0,1,1,1,,,,,0,0,0,0,0,59,59,59,,,,,,,,,,,None,None,0,530.0273195999907,None,530.0273195999907,531.0273182000383,531.010655799997,532.0106733000139,0,1,530.0273195999907,None,,3,F,25,L,SK,2022_Feb_23_1555,WASABI Nback,2020.2.10,59.96987114468888,
0,1,5,"[0, 0]",None,0,1,1,1,,,,,0,0,0,0,0,60,60,60,,,,,,,,,,,None,None,0,532.0273287000018,None,532.0273287000018,533.0273355999961,533.0106853999896,534.0106985000311,0,1,532.0273287000018,None,,3,F,25,L,SK,2022_Feb_23_1555,WASABI Nback,2020.2.10,59.96987114468888,
0,1,2,"[0, 0.2]",None,0,1,1,1,,,,,0,0,0,0,0,61,61,61,,,,,,,,,,,None,None,0,534.0273392000236,None,534.0273392000236,535.0273548000259,535.0106789999991,536.0107067000354,0,1,534.0273392000236,None,,3,F,25,L,SK,2022_Feb_23_1555,WASABI Nback,2020.2.10,59.96987114468888,
0,1,6,"[0.2, 0]",None,0,1,1,1,,,,,0,0,0,0,0,62,62,62,,,,,,,,,,,None,None,0,536.0272634000285,None,536.0272634000285,537.0273632000317,537.0107190000126,538.0107260000077,0,1,536.0272634000285,None,,3,F,25,L,SK,2022_Feb_23_1555,WASABI Nback,2020.2.10,59.96987114468888,
0,1,9,"[0.2, -0.2]",None,0,1,1,1,,,,,0,0,0,0,0,63,63,63,,,,,,,,,,,None,None,0,538.0273828000063,None,538.0273828000063,539.0273982000072,539.0107322999975,540.010728400026,0,1,538.0273828000063,None,,3,F,25,L,SK,2022_Feb_23_1555,WASABI Nback,2020.2.10,59.96987114468888,
0,1,3,"[0.2, 0.2]",None,0,1,1,1,,,,,0,0,0,0,0,64,64,64,,,,,,,,,,,None,None,0,540.0273956999881,None,540.0273956999881,541.0273988000117,541.0107441000291,542.0107545999927,0,1,540.0273956999881,None,,3,F,25,L,SK,2022_Feb_23_1555,WASABI Nback,2020.2.10,59.96987114468888,
0,1,9,"[0.2, -0.2]",1,0,1,1,1,,,,,0,0,0,0,0,65,65,65,,,,,,,,,,,None,None,0,542.0274010000285,None,542.0274010000285,543.0274138000095,543.0107504000189,544.0107693999889,0,0,542.0274010000285,None,,3,F,25,L,SK,2022_Feb_23_1555,WASABI Nback,2020.2.10,59.96987114468888,
0,1,7,"[-0.2, -0.2]",None,0,1,1,1,,,,,0,0,0,0,0,66,66,66,,,,,,,,,,,None,None,0,544.0274184999871,None,544.0274184999871,545.0274375000154,545.0107773999916,546.0107843999867,0,1,544.0274184999871,None,,3,F,25,L,SK,2022_Feb_23_1555,WASABI Nback,2020.2.10,59.96987114468888,
0,1,1,"[-0.2, 0.2]",None,0,1,1,1,,,,,0,0,0,0,0,67,67,67,,,,,,,,,,,None,None,0,546.0274308000226,None,546.0274308000226,547.0274463000242,547.0106299000327,548.0107850999921,0,1,546.0274308000226,None,,3,F,25,L,SK,2022_Feb_23_1555,WASABI Nback,2020.2.10,59.96987114468888,
0,1,5,"[0, 0]",None,0,1,1,1,,,,,0,0,0,0,0,68,68,68,,,,,,,,,,,None,None,0,548.0274610000197,None,548.0274610000197,549.027463400038,549.0107934999978,550.0108129000291,0,1,548.0274610000197,None,,3,F,25,L,SK,2022_Feb_23_1555,WASABI Nback,2020.2.10,59.96987114468888,
0,1,7,"[-0.2, -0.2]",None,0,1,1,1,,,,,0,0,0,0,0,69,69,69,,,,,,,,,,,None,None,0,550.0274691000232,None,550.0274691000232,551.0274863000377,551.0108068000409,552.0108254000079,0,1,550.0274691000232,None,,3,F,25,L,SK,2022_Feb_23_1555,WASABI Nback,2020.2.10,59.96987114468888,
0,1,5,"[0, 0]",1,0,1,1,1,,,,,0,0,0,0,0,70,70,70,,,,,,,,,,,None,None,0,552.0275020000408,None,552.0275020000408,553.0275157000287,553.0108373000403,554.0108297000406,0,0,552.0275020000408,None,,3,F,25,L,SK,2022_Feb_23_1555,WASABI Nback,2020.2.10,59.96987114468888,
0,1,6,"[0.2, 0]",None,0,1,1,1,,,,,0,0,0,0,0,71,71,71,,,,,,,,,,,None,None,0,554.0274600000121,None,554.0274600000121,555.027513500012,555.010853499989,556.0108474000008,0,1,554.0274600000121,None,,3,F,25,L,SK,2022_Feb_23_1555,WASABI Nback,2020.2.10,59.96987114468888,
0,1,3,"[0.2, 0.2]",None,0,1,1,1,,,,,0,0,0,0,0,72,72,72,,,,,,,,,,,None,None,0,556.0275346999988,None,556.0275346999988,557.0275331999874,557.0108589000301,558.0108751000371,0,1,556.0275346999988,None,,3,F,25,L,SK,2022_Feb_23_1555,WASABI Nback,2020.2.10,59.96987114468888,
0,1,6,"[0.2, 0]",1,0,1,1,1,,,,,0,0,0,0,0,73,73,73,,,,,,,,,,,None,None,0,558.0275481999852,None,558.0275481999852,559.0275339999935,559.0108766999911,560.010875899985,0,0,558.0275481999852,None,,3,F,25,L,SK,2022_Feb_23_1555,WASABI Nback,2020.2.10,59.96987114468888,
0,1,8,"[0, -0.2]",None,0,1,1,1,,,,,0,0,0,0,0,74,74,74,,,,,,,,,,,None,None,0,560.0274235000252,None,560.0274235000252,561.0275596000138,561.0109020000091,562.0108806000208,0,1,560.0274235000252,None,,3,F,25,L,SK,2022_Feb_23_1555,WASABI Nback,2020.2.10,59.96987114468888,
0,1,9,"[0.2, -0.2]",None,0,1,1,1,,,,,0,0,0,0,0,75,75,75,,,,,,,,,,,None,None,0,562.027567800018,None,562.027567800018,563.0275742000085,563.0109036000213,564.0109136000392,0,1,562.027567800018,None,,3,F,25,L,SK,2022_Feb_23_1555,WASABI Nback,2020.2.10,59.96987114468888,
0,1,9,"[0.2, -0.2]",None,0,1,1,1,,,,,0,0,0,0,0,76,76,76,,,,,,,,,,,None,None,0,564.0275808000006,None,564.0275808000006,565.0275837000227,565.0109317000024,566.010928200034,0,1,564.0275808000006,None,,3,F,25,L,SK,2022_Feb_23_1555,WASABI Nback,2020.2.10,59.96987114468888,
0,1,1,"[-0.2, 0.2]",None,0,1,1,1,,,,,0,0,0,0,0,77,77,77,,,,,,,,,,,None,None,0,566.0276047000079,None,566.0276047000079,567.0275975000113,567.0109296999872,568.0109494000208,0,1,566.0276047000079,None,,3,F,25,L,SK,2022_Feb_23_1555,WASABI Nback,2020.2.10,59.96987114468888,
0,1,3,"[0.2, 0.2]",None,0,1,1,1,,,,,0,0,0,0,0,78,78,78,,,,,,,,,,,None,None,0,568.0276569999987,None,568.0276569999987,569.027610899997,569.0109491000185,570.0109679999878,0,1,568.0276569999987,None,,3,F,25,L,SK,2022_Feb_23_1555,WASABI Nback,2020.2.10,59.96987114468888,
0,1,5,"[0, 0]",None,0,1,1,1,,,,,0,0,0,0,0,79,79,79,,,,,,,,,,,None,None,0,570.027617099986,None,570.027617099986,571.0276310000336,571.0109767999966,572.0109752999851,0,1,570.027617099986,None,,3,F,25,L,SK,2022_Feb_23_1555,WASABI Nback,2020.2.10,59.96987114468888,
0,1,3,"[0.2, 0.2]",1,0,1,1,1,,,,,0,0,0,0,0,80,80,80,,,,,,,,,,,None,None,0,572.0276502000052,None,572.0276502000052,573.0276541000349,573.0109741000342,574.0109863000107,0,1,572.0276502000052,None,,3,F,25,L,SK,2022_Feb_23_1555,WASABI Nback,2020.2.10,59.96987114468888,
0,1,4,"[-0.2, 0]",None,0,1,1,1,,,,,0,0,0,0,0,81,81,81,,,,,,,,,,,None,None,0,574.0276605000254,None,574.0276605000254,575.027672199998,575.0109935000073,576.0110087000066,0,1,574.0276605000254,None,,3,F,25,L,SK,2022_Feb_23_1555,WASABI Nback,2020.2.10,59.96987114468888,
0,1,7,"[-0.2, -0.2]",None,0,1,1,1,,,,,0,0,0,0,0,82,82,82,,,,,,,,,,,None,None,0,576.0276646999991,None,576.0276646999991,577.0276969000115,577.0110074999975,578.0110145999934,0,1,576.0276646999991,None,,3,F,25,L,SK,2022_Feb_23_1555,WASABI Nback,2020.2.10,59.96987114468888,
0,1,4,"[-0.2, 0]",1,0,1,1,1,,,,,0,0,0,0,0,83,83,83,,,,,,,,,,,None,None,1,578.0276916000294,None,578.0276916000294,579.0276875999989,579.0110190000269,580.0110420000274,1,1,578.0276916000294,None,1.883662300009746,3,F,25,L,SK,2022_Feb_23_1555,WASABI Nback,2020.2.10,59.96987114468888,
0,1,4,"[-0.2, 0]",None,0,1,1,1,,,,,0,0,0,0,0,84,84,84,,,,,,,,,,,None,None,0,580.02769300004,None,580.02769300004,581.0276975000161,581.0110408000182,582.0110502000316,0,1,580.02769300004,None,,3,F,25,L,SK,2022_Feb_23_1555,WASABI Nback,2020.2.10,59.96987114468888,
0,1,5,"[0, 0]",None,0,1,1,1,,,,,0,0,0,0,0,85,85,85,,,,,,,,,,,None,None,0,582.0277138000238,None,582.0277138000238,583.0277327999938,583.0110685999971,584.0110651000286,0,1,582.0277138000238,None,,3,F,25,L,SK,2022_Feb_23_1555,WASABI Nback,2020.2.10,59.96987114468888,
0,1,2,"[0, 0.2]",None,0,1,1,1,,,,,0,0,0,0,0,86,86,86,,,,,,,,,,,None,None,0,584.0277363000205,None,584.0277363000205,585.027744400024,585.0110595999868,586.0110846000025,0,1,584.0277363000205,None,,3,F,25,L,SK,2022_Feb_23_1555,WASABI Nback,2020.2.10,59.96987114468888,
0,1,6,"[0.2, 0]",None,0,1,1,1,,,,,0,0,0,0,0,87,87,87,,,,,,,,,,,None,None,0,586.0277502000099,None,586.0277502000099,587.0277605000301,587.0109894000343,588.0110870000208,0,1,586.0277502000099,None,,3,F,25,L,SK,2022_Feb_23_1555,WASABI Nback,2020.2.10,59.96987114468888,
0,1,7,"[-0.2, -0.2]",None,0,1,1,1,,,,,0,0,0,0,0,88,88,88,,,,,,,,,,,None,None,0,588.0277677000267,None,588.0277677000267,589.0277660000138,589.011105099984,590.0111208999879,0,1,588.0277677000267,None,,3,F,25,L,SK,2022_Feb_23_1555,WASABI Nback,2020.2.10,59.96987114468888,
0,1,6,"[0.2, 0]",1,0,1,1,1,,,,,0,0,0,0,0,89,89,89,,,,,,,,,,,None,None,0,590.0277833000291,None,590.0277833000291,591.0277984000277,591.0111265000305,592.0111239000107,0,1,590.0277833000291,None,,3,F,25,L,SK,2022_Feb_23_1555,WASABI Nback,2020.2.10,59.96987114468888,
0,1,6,"[0.2, 0]",None,0,1,1,1,,,,,0,0,0,0,0,90,90,90,,,,,,,,,,,None,None,0,592.0277925999835,None,592.0277925999835,593.0278027000022,593.0111427000375,594.0111359999864,0,1,592.0277925999835,None,,3,F,25,L,SK,2022_Feb_23_1555,WASABI Nback,2020.2.10,59.96987114468888,
0,1,7,"[-0.2, -0.2]",None,0,1,1,1,,,,,0,0,0,0,0,91,91,91,,,,,,,,,,,None,None,0,594.0278048000182,None,594.0278048000182,595.0278242999921,595.011157800036,596.011170200014,0,1,594.0278048000182,None,,3,F,25,L,SK,2022_Feb_23_1555,WASABI Nback,2020.2.10,59.96987114468888,
0,1,6,"[0.2, 0]",1,0,1,1,1,,,,,0,0,0,0,0,92,92,92,,,,,,,,,,,None,None,0,596.0278216000297,None,596.0278216000297,597.0278203000198,597.0111717000254,598.0111655000364,0,1,596.0278216000297,None,,3,F,25,L,SK,2022_Feb_23_1555,WASABI Nback,2020.2.10,59.96987114468888,
0,1,2,"[0, 0.2]",None,0,1,1,1,,,,,0,0,0,0,0,93,93,93,,,,,,,,,,,None,None,0,598.0278356000199,None,598.0278356000199,599.0278446000302,599.0111720000277,600.0111804000335,0,1,598.0278356000199,None,,3,F,25,L,SK,2022_Feb_23_1555,WASABI Nback,2020.2.10,59.96987114468888,
0,1,5,"[0, 0]",None,0,1,1,1,,,,,0,0,0,0,0,94,94,94,,,,,,,,,,,None,None,0,600.0278643000056,None,600.0278643000056,601.0278610000387,601.0111860000179,602.0112074000062,0,1,600.0278643000056,None,,3,F,25,L,SK,2022_Feb_23_1555,WASABI Nback,2020.2.10,59.96987114468888,
0,1,4,"[-0.2, 0]",None,0,1,1,1,,,,,0,0,0,0,0,95,95,95,,,,,,,,,,,None,None,0,602.0278610000387,None,602.0278610000387,603.027876200038,603.0111417000298,604.0112143000006,0,1,602.0278610000387,None,,3,F,25,L,SK,2022_Feb_23_1555,WASABI Nback,2020.2.10,59.96987114468888,
0,1,4,"[-0.2, 0]",None,0,1,1,1,,,,,0,0,0,0,0,96,96,96,,,,,,,,,,,None,None,0,604.0278849999886,None,604.0278849999886,605.0278971000225,605.0112369999988,606.0112399000209,0,1,604.0278849999886,None,,3,F,25,L,SK,2022_Feb_23_1555,WASABI Nback,2020.2.10,59.96987114468888,
0,1,7,"[-0.2, -0.2]",None,0,1,1,1,,,,,0,0,0,0,0,97,97,97,,,,,,,,,,,None,None,0,606.027900999994,None,606.027900999994,607.0279050000245,607.01122819999,608.0112434999901,0,1,606.027900999994,None,,3,F,25,L,SK,2022_Feb_23_1555,WASABI Nback,2020.2.10,59.96987114468888,
0,1,4,"[-0.2, 0]",1,0,1,1,1,,,,,0,0,0,0,0,98,98,98,,,,,,,,,,,None,None,0,608.027909299999,None,608.027909299999,609.027931699995,609.0112665999914,610.0112612000084,0,0,608.027909299999,None,,3,F,25,L,SK,2022_Feb_23_1555,WASABI Nback,2020.2.10,59.96987114468888,
0,1,3,"[0.2, 0.2]",None,0,1,1,1,,,,,0,0,0,0,0,99,99,99,,,,,,,,,,,None,None,0,610.0279248000006,None,610.0279248000006,611.0279364000307,611.0112702000188,612.0113009000197,0,1,610.0279248000006,None,,3,F,25,L,SK,2022_Feb_23_1555,WASABI Nback,2020.2.10,59.96987114468888,
0,1,5,"[0, 0]",None,0,1,1,1,,,,,0,0,0,0,0,100,100,100,,,,,,,,,,,None,None,0,612.0279509000247,None,612.0279509000247,613.0279480000027,613.0112976999953,614.0113017000258,0,1,612.0279509000247,None,,3,F,25,L,SK,2022_Feb_23_1555,WASABI Nback,2020.2.10,59.96987114468888,
0,1,3,"[0.2, 0.2]",1,0,1,1,1,,,,,0,0,0,0,0,101,101,101,,,,,,,,,,,None,None,0,614.0279517000308,None,614.0279517000308,615.0279662000248,615.0113171000266,616.0113046999904,0,1,614.0279517000308,None,,3,F,25,L,SK,2022_Feb_23_1555,WASABI Nback,2020.2.10,59.96987114468888,
0,1,1,"[-0.2, 0.2]",None,0,1,1,1,,,,,0,0,0,0,0,102,102,102,,,,,,,,,,,None,None,0,616.0279666000279,None,616.0279666000279,617.0279829000356,617.0113336000359,618.0113321000244,0,1,616.0279666000279,None,,3,F,25,L,SK,2022_Feb_23_1555,WASABI Nback,2020.2.10,59.96987114468888,
0,1,9,"[0.2, -0.2]",None,0,1,1,1,,,,,0,0,0,0,0,103,103,103,,,,,,,,,,,None,None,0,618.0279907000368,None,618.0279907000368,619.0279930999968,619.0113463000162,620.0113421999849,0,1,618.0279907000368,None,,3,F,25,L,SK,2022_Feb_23_1555,WASABI Nback,2020.2.10,59.96987114468888,
0,1,9,"[0.2, -0.2]",None,0,1,1,1,,,,,0,0,0,0,0,104,104,104,,,,,,,,,,,None,None,0,620.0280228999909,None,620.0280228999909,621.0279463999905,621.0113583999919,622.011364200036,0,1,620.0280228999909,None,,3,F,25,L,SK,2022_Feb_23_1555,WASABI Nback,2020.2.10,59.96987114468888,
0,1,8,"[0, -0.2]",None,0,1,1,1,,,,,0,0,0,0,0,105,105,105,,,,,,,,,,,None,None,0,622.0280380999902,None,622.0280380999902,623.0280364000355,623.0113631000277,624.0113676000037,0,1,622.0280380999902,None,,3,F,25,L,SK,2022_Feb_23_1555,WASABI Nback,2020.2.10,59.96987114468888,
0,1,6,"[0.2, 0]",None,0,1,1,1,,,,,0,0,0,0,0,106,106,106,,,,,,,,,,,None,None,0,624.0280346000218,None,624.0280346000218,625.0280431000283,625.0113843000145,626.0113842000137,0,1,624.0280346000218,None,,3,F,25,L,SK,2022_Feb_23_1555,WASABI Nback,2020.2.10,59.96987114468888,
0,1,3,"[0.2, 0.2]",None,0,1,1,1,,,,,0,0,0,0,0,107,107,107,,,,,,,,,,,None,None,0,626.0280500000226,None,626.0280500000226,627.0280588000314,627.011386600032,628.0113980000024,0,1,626.0280500000226,None,,3,F,25,L,SK,2022_Feb_23_1555,WASABI Nback,2020.2.10,59.96987114468888,
0,1,6,"[0.2, 0]",1,0,1,1,1,,,,,0,0,0,0,0,108,108,108,,,,,,,,,,,None,None,0,628.0280752000399,None,628.0280752000399,629.0280713000102,629.0114082000218,630.011315700016,0,1,628.0280752000399,None,,3,F,25,L,SK,2022_Feb_23_1555,WASABI Nback,2020.2.10,59.96987114468888,
0,1,5,"[0, 0]",None,0,1,1,1,,,,,0,0,0,0,0,109,109,109,,,,,,,,,,,None,None,0,630.0280768999946,None,630.0280768999946,631.0280901000369,631.011420099996,632.0114395000273,0,1,630.0280768999946,None,,3,F,25,L,SK,2022_Feb_23_1555,WASABI Nback,2020.2.10,59.96987114468888,
0,1,7,"[-0.2, -0.2]",None,0,1,1,1,,,,,0,0,0,0,0,110,110,110,,,,,,,,,,,None,None,0,632.0281079999986,None,632.0281079999986,633.0281038000248,633.0114408000372,634.0114451000118,0,1,632.0281079999986,None,,3,F,25,L,SK,2022_Feb_23_1555,WASABI Nback,2020.2.10,59.96987114468888,
0,1,5,"[0, 0]",1,0,1,1,1,,,,,0,0,0,0,0,111,111,111,,,,,,,,,,,None,None,0,634.0281094000093,None,634.0281094000093,635.0281171000097,635.0114715000382,636.011482700007,0,1,634.0281094000093,None,,3,F,25,L,SK,2022_Feb_23_1555,WASABI Nback,2020.2.10,59.96987114468888,
0,1,1,"[-0.2, 0.2]",None,0,1,1,1,,,,,0,0,0,0,0,112,112,112,,,,,,,,,,,None,None,0,636.0281310999999,None,636.0281310999999,637.0281609999947,637.011486900039,638.0114898000029,0,1,636.0281310999999,None,,3,F,25,L,SK,2022_Feb_23_1555,WASABI Nback,2020.2.10,59.96987114468888,
0,1,7,"[-0.2, -0.2]",None,0,1,1,1,,,,,0,0,0,0,0,113,113,113,,,,,,,,,,,None,None,0,638.0281465000007,None,638.0281465000007,639.0281617,639.0114937000326,640.0115059000091,0,1,638.0281465000007,None,,3,F,25,L,SK,2022_Feb_23_1555,WASABI Nback,2020.2.10,59.96987114468888,
0,1,9,"[0.2, -0.2]",None,0,1,1,1,,,,,0,0,0,0,0,114,114,114,,,,,,,,,,,None,None,0,640.0281622000039,None,640.0281622000039,641.0281654000282,641.0115142000141,642.0115121999988,0,1,640.0281622000039,None,,3,F,25,L,SK,2022_Feb_23_1555,WASABI Nback,2020.2.10,59.96987114468888,
0,1,3,"[0.2, 0.2]",None,0,1,1,1,,,,,0,0,0,0,0,115,115,115,,,,,,,,,,,None,None,0,642.0281792000169,None,642.0281792000169,643.0281882000272,643.0115345999948,644.0115256999852,0,1,642.0281792000169,None,,3,F,25,L,SK,2022_Feb_23_1555,WASABI Nback,2020.2.10,59.96987114468888,
0,1,9,"[0.2, -0.2]",1,0,1,1,1,,,,,0,0,0,0,0,116,116,116,,,,,,,,,,,None,None,1,644.0281938000116,None,644.0281938000116,645.0281990999938,645.0115459000226,646.0115483000409,1,1,644.0281938000116,None,1.2003274000016972,3,F,25,L,SK,2022_Feb_23_1555,WASABI Nback,2020.2.10,59.96987114468888,
0,1,6,"[0.2, 0]",None,0,1,1,1,,,,,0,0,0,0,0,117,117,117,,,,,,,,,,,None,None,0,646.0282064999919,None,646.0282064999919,647.0282189000282,647.0115624000318,648.0115665000048,0,1,646.0282064999919,None,,3,F,25,L,SK,2022_Feb_23_1555,WASABI Nback,2020.2.10,59.96987114468888,
0,1,2,"[0, 0.2]",None,0,1,1,1,,,,,0,0,0,0,0,118,118,118,,,,,,,,,,,None,None,0,648.0282295999932,None,648.0282295999932,649.0282262000255,649.0115768000251,650.011588399997,0,1,648.0282295999932,None,,3,F,25,L,SK,2022_Feb_23_1555,WASABI Nback,2020.2.10,59.96987114468888,
0,1,5,"[0, 0]",None,0,1,1,1,,,,,0,0,0,0,0,119,119,119,,,,,,,,,,,None,None,0,650.0282561000204,None,650.0282561000204,651.0282478000154,651.0115986000164,652.0116334999911,0,1,650.0282561000204,None,,3,F,25,L,SK,2022_Feb_23_1555,WASABI Nback,2020.2.10,59.96987114468888,
