	SID	biopac_channel	body_site	condition	correct	date	duration	handedness	mouseclick	onset	rt	scanner	score	session	sex	skin_site	temperature	value
0	2475	51	Left Leg	Expectancy		2023_Feb_04_1421	5.013312712311745	R		3.054032899904996	4.316911600064486	MH SP		02	M	99		33.888888888888886
1	2475	45	Left Leg	2-back Instruction		2023_Feb_04_1421	5.015730950050056	R		8.470382099971175		MH SP		02	M	99		
2	2475	7	Left Leg	Pre-trial Jitter		2023_Feb_04_1421	7.004631069954485	R		13.492668999824673		MH SP		02	M	99		
3	2475	44.0	Left Leg	pretrialfixation		2023_Feb_04_1421	1.0001644301228225	R		20.81160799972713		MH SP		02	M	99		
4	2475		Left Leg	2-back	1.0	2023_Feb_04_1421	1.9895933703519404	R		21.82526890002191		MH SP	12.5	02	M	99	48.5	
5	2475		Left Leg	2-back	1.0	2023_Feb_04_1421	1.9868482700549066	R		23.835024000145495		MH SP	25.0	02	M	99	48.5	
6	2475		Left Leg	2-back	1.0	2023_Feb_04_1421	1.9875688701868057	R	2	25.834674699697644	0.46349640004336834	MH SP	37.5	02	M	99	48.5	
7	2475		Left Leg	2-back	1.0	2023_Feb_04_1421	1.9877256699837744	R	0	27.83460900001228	0.4966489998623729	MH SP	50.0	02	M	99	48.5	
8	2475		Left Leg	2-back	1.0	2023_Feb_04_1421	1.9876243695616722	R	2	29.834652899764478	0.8465419001877308	MH SP	62.5	02	M	99	48.5	
9	2475		Left Leg	2-back	1.0	2023_Feb_04_1421	1.9874910698272288	R	2	31.834752100054175	0.7467360999435186	MH SP	75.0	02	M	99	48.5	
10	2475		Left Leg	2-back	1.0	2023_Feb_04_1421	1.987679969985038	R	2	33.834696599747986	0.49683009972795844	MH SP	87.5	02	M	99	48.5	
11	2475		Left Leg	2-back	1.0	2023_Feb_04_1421	1.986906270030886	R	0	35.83507619984448	0.38014280004426837	MH SP	100.0	02	M	99	48.5	
12	2475	48.0	Left Leg	ScoreReport		2023_Feb_04_1421	5.000113369897008	R		37.84519769996405		MH SP		02	M	99		
13	2475	8	Left Leg	Post-trial Jitter		2023_Feb_04_1421	9.00926668010652	R		42.90735309990123		MH SP		02	M	99		
14	2475	20	Left Leg	PainBinary		2023_Feb_04_1421	4.999840939883143	R		51.9371189000085	2.6671808999963105	MH SP		02	M	99		-1.0
15	2475	21	Left Leg	IntensityRating		2023_Feb_04_1421	5.010010540019721	R		56.95708510000259	3.652670099865645	MH SP		02	M	99		29.197530864197528
16	2475	9	Left Leg	Post-Q-Jitter		2023_Feb_04_1421	8.992845070082694	R		61.97407400002703		MH SP		02	M	99		
17	2475	51	Left Leg	Expectancy		2023_Feb_04_1421	5.014171809889376	R		71.33845750009641	3.1502313995733857	MH SP		02	M	99		31.666666666666664
18	2475	45	Left Leg	2-back Instruction		2023_Feb_04_1421	4.99935965007171	R		76.75426909979433		MH SP		02	M	99		
19	2475	7	Left Leg	Pre-trial Jitter		2023_Feb_04_1421	5.000143870245665	R		81.76227260008454		MH SP		02	M	99		
20	2475	44.0	Left Leg	pretrialfixation		2023_Feb_04_1421	1.0092877699062228	R		87.09939069999382		MH SP		02	M	99		
21	2475		Left Leg	2-back	1.0	2023_Feb_04_1421	1.9881393699906766	R		88.11000650003552		MH SP	12.5	02	M	99	48.5	
22	2475		Left Leg	2-back	1.0	2023_Feb_04_1421	1.9874009699560702	R		90.11870099976659		MH SP	25.0	02	M	99	48.5	
23	2475		Left Leg	2-back	1.0	2023_Feb_04_1421	1.987451570108533	R	2	92.11870490014553	0.5131418001838028	MH SP	37.5	02	M	99	48.5	
24	2475		Left Leg	2-back	1.0	2023_Feb_04_1421	1.9877856699749827	R	0	94.11856770003214	0.36344820028170943	MH SP	50.0	02	M	99	48.5	
25	2475		Left Leg	2-back	1.0	2023_Feb_04_1421	1.9874339699745178	R	2	96.11875959997997	0.5801574001088738	MH SP	62.5	02	M	99	48.5	
26	2475		Left Leg	2-back	1.0	2023_Feb_04_1421	1.9875060701742768	R	2	98.11876330012456	0.59687320003286	MH SP	75.0	02	M	99	48.5	
27	2475		Left Leg	2-back	1.0	2023_Feb_04_1421	1.987497670110315	R	2	100.11877019982785	0.5462650000117719	MH SP	87.5	02	M	99	48.5	
28	2475		Left Leg	2-back	1.0	2023_Feb_04_1421	1.9876671694219112	R	0	102.11869079992175	0.5964850001037121	MH SP	100.0	02	M	99	48.5	
29	2475	48.0	Left Leg	ScoreReport		2023_Feb_04_1421	5.001292469911277	R		104.12858119979501		MH SP		02	M	99		
30	2475	8	Left Leg	Post-trial Jitter		2023_Feb_04_1421	4.999751480296254	R		109.18775169970468		MH SP		02	M	99		
31	2475	20	Left Leg	PainBinary		2023_Feb_04_1421	5.0015017404221	R		114.20359459985048	2.2337118997238576	MH SP		02	M	99		-1.0
32	2475	21	Left Leg	IntensityRating		2023_Feb_04_1421	5.009913540445268	R		119.22442370001227	3.8001517998054624	MH SP		02	M	99		27.59259259259259
33	2475	9	Left Leg	Post-Q-Jitter		2023_Feb_04_1421	4.994413369335234	R		124.24056930001825		MH SP		02	M	99		
34	2475	51	Left Leg	Expectancy		2023_Feb_04_1421	5.015271939337254	R		130.42181580001488	4.600118299946189	MH SP		02	M	99		31.913580246913583
35	2475	44	Left Leg	0-back Instruction		2023_Feb_04_1421	5.010528650134802	R		135.84094929974526		MH SP		02	M	99		
36	2475	7	Left Leg	Pre-Trial Jitter		2023_Feb_04_1421	9.001264869235456	R		140.8623333997093		MH SP		02	M	99		
37	2475	44.0	Left Leg	pretrialfixation		2023_Feb_04_1421	0.9988619298674166	R		150.1719188997522		MH SP		02	M	99		
38	2475		Left Leg	0-back	1.0	2023_Feb_04_1421	1.9897218700498343	R	0.0	151.17652199976146	0.5131552000530064	MH SP	12.5	02	M	99	48.5	
39	2475		Left Leg	0-back	1.0	2023_Feb_04_1421	1.9874923694878817	R	0.0	153.18597360001877	0.39629050018265843	MH SP	25.0	02	M	99	48.5	
40	2475		Left Leg	0-back	1.0	2023_Feb_04_1421	1.9885671697556973	R	0.0	155.18547279993072	0.3295640996657312	MH SP	37.5	02	M	99	48.5	
41	2475		Left Leg	0-back	1.0	2023_Feb_04_1421	1.9886425700969994	R	0.0	157.18541579972953	0.3801349001005292	MH SP	50.0	02	M	99	48.5	
42	2475		Left Leg	0-back	1.0	2023_Feb_04_1421	1.9878013702109456	R	0.0	159.18590010004118	0.39685000013560057	MH SP	62.5	02	M	99	48.5	
43	2475		Left Leg	0-back	1.0	2023_Feb_04_1421	1.9888719697482884	R	0.0	161.1853609001264	0.32992569962516427	MH SP	75.0	02	M	99	48.5	
44	2475		Left Leg	0-back	1.0	2023_Feb_04_1421	1.9877571701072156	R	0.0	163.185927500017	0.5468151997774839	MH SP	87.5	02	M	99	48.5	
45	2475		Left Leg	0-back	1.0	2023_Feb_04_1421	1.9889168697409332	R	0.0	165.18538369983435	0.38012659968808293	MH SP	100.0	02	M	99	48.5	
46	2475	48.0	Left Leg	ScoreReport		2023_Feb_04_1421	5.003977669868618	R		167.19460249971598		MH SP		02	M	99		
47	2475	8	Left Leg	Post-Trial Jitter		2023_Feb_04_1421	8.998140279669315	R		172.25587729969993		MH SP		02	M	99		
48	2475	20	Left Leg	PainBinary		2023_Feb_04_1421	5.0003169402480125	R		181.27152170008048	1.7696849000640213	MH SP		02	M	99		1.0
49	2475	21	Left Leg	IntensityRating		2023_Feb_04_1421	5.011660140473396	R		186.29090850008652	4.266785599756986	MH SP		02	M	99		34.629629629629626
50	2475	23	Left Leg	DistractBinary		2023_Feb_04_1421	5.0021466398611665	R		191.3207545997575		MH SP		02	M	99		-1.0
51	2475	9	Left Leg	Post-Q-Jitter		2023_Feb_04_1421	9.010415169876069	R		196.32498729974031		MH SP		02	M	99		
52	2475	51	Left Leg	Expectancy		2023_Feb_04_1421	4.999488299712539	R		205.65556660015136		MH SP		02	M	99		36.358024691358025
53	2475	44	Left Leg	0-back Instruction		2023_Feb_04_1421	5.00605445029214	R		211.05229320004582		MH SP		02	M	99		
54	2475	7	Left Leg	Pre-Trial Jitter		2023_Feb_04_1421	5.001810269895941	R		216.0628225998953		MH SP		02	M	99		
55	2475	44.0	Left Leg	pretrialfixation		2023_Feb_04_1421	1.0082114301621914	R		221.36793479975313		MH SP		02	M	99		
56	2475		Left Leg	0-back	1.0	2023_Feb_04_1421	1.988862169906497	R	0.0	222.37764720013365	0.4293049001134932	MH SP	12.5	02	M	99	48.5	
57	2475		Left Leg	0-back	1.0	2023_Feb_04_1421	1.9880215697921813	R	0.0	224.38648519990966	0.34679909981787205	MH SP	25.0	02	M	99	48.5	
58	2475		Left Leg	0-back	1.0	2023_Feb_04_1421	1.9890725701116025	R	0.0	226.38594749988988	0.33019169978797436	MH SP	37.5	02	M	99	48.5	
59	2475		Left Leg	0-back	1.0	2023_Feb_04_1421	1.9875412699766457	R	0.0	228.386716700159	0.31295799976214767	MH SP	50.0	02	M	99	48.5	
60	2475		Left Leg	0-back	1.0	2023_Feb_04_1421	1.9887037705630064	R	0.0	230.3861644999124	0.31362960021942854	MH SP	62.5	02	M	99	48.5	
61	2475		Left Leg	0-back	1.0	2023_Feb_04_1421	1.988568670116365	R	0.0	232.38627160014585	0.29695590026676655	MH SP	75.0	02	M	99	48.5	
62	2475		Left Leg	0-back	1.0	2023_Feb_04_1421	1.9883729703724384	R	0.0	234.38637099973857	0.2968656998127699	MH SP	87.5	02	M	99	48.5	
63	2475		Left Leg	0-back	1.0	2023_Feb_04_1421	1.9889668696559966	R	0.0	236.38604849996045	0.31675870018079877	MH SP	100.0	02	M	99	48.5	
64	2475	48.0	Left Leg	ScoreReport		2023_Feb_04_1421	5.002024770248681	R		238.39626020006835		MH SP		02	M	99		
65	2475	8	Left Leg	Post-Trial Jitter		2023_Feb_04_1421	8.998667979612947	R		243.45634680008516		MH SP		02	M	99		
66	2475	20	Left Leg	PainBinary		2023_Feb_04_1421	5.000520340166986	R		252.47216269979253	2.5337600000202656	MH SP		02	M	99		1.0
67	2475	21	Left Leg	IntensityRating		2023_Feb_04_1421	5.01125974021852	R		257.4918538001366	4.519450899679214	MH SP		02	M	99		35.24691358024691
68	2475	23	Left Leg	DistractBinary		2023_Feb_04_1421	5.002620339859277	R		262.5212538000196	1.6003996999934316	MH SP		02	M	99		1.0
69	2475	9	Left Leg	Post-Q-Jitter		2023_Feb_04_1421	8.993523069657385	R		267.52585869980976		MH SP		02	M	99		
70	2475	51	Left Leg	Expectancy		2023_Feb_04_1421	5.014113659970462	R		276.8072935999371	3.433465300127864	MH SP		02	M	99		38.02469135802469
71	2475	45	Left Leg	2-back Instruction		2023_Feb_04_1421	5.0008552498184144	R		282.2306181997992		MH SP		02	M	99		
72	2475	7	Left Leg	Pre-trial Jitter		2023_Feb_04_1421	5.000957869924605	R		287.247282799799		MH SP		02	M	99		
73	2475	44.0	Left Leg	pretrialfixation		2023_Feb_04_1421	1.0098585300147533	R		292.5511841000989		MH SP		02	M	99		
74	2475		Left Leg	2-back	1.0	2023_Feb_04_1421	1.9901673700660467	R		293.5610194001347		MH SP	12.5	02	M	99	48.5	
75	2475		Left Leg	2-back	1.0	2023_Feb_04_1421	1.986779069993645	R		295.5711516998708		MH SP	25.0	02	M	99	48.5	
76	2475		Left Leg	2-back	1.0	2023_Feb_04_1421	1.9882827699184418	R	0	297.5704163000919	0.42990570003166795	MH SP	37.5	02	M	99	48.5	
77	2475		Left Leg	2-back	1.0	2023_Feb_04_1421	1.987662369851023	R	2	299.5707923998125	0.39647649973630905	MH SP	50.0	02	M	99	48.5	
78	2475		Left Leg	2-back	1.0	2023_Feb_04_1421	1.9878741702996194	R	0	301.5706278998405	0.630139300134033	MH SP	62.5	02	M	99	48.5	
79	2475		Left Leg	2-back	1.0	2023_Feb_04_1421	1.9876342699863017	R	2	303.57076280005276	0.6468059001490474	MH SP	75.0	02	M	99	48.5	
80	2475		Left Leg	2-back	1.0	2023_Feb_04_1421	1.9876214703544974	R	2	305.5708010001108	0.596883200109005	MH SP	87.5	02	M	99	48.5	
81	2475		Left Leg	2-back	1.0	2023_Feb_04_1421	1.986876169219613	R	2	307.5712194000371	0.8137035998515785	MH SP	100.0	02	M	99	48.5	
82	2475	48.0	Left Leg	ScoreReport		2023_Feb_04_1421	5.001555670052767	R		309.5802906998433		MH SP		02	M	99		
83	2475	8	Left Leg	Post-trial Jitter		2023_Feb_04_1421	6.995854780077934	R		314.6418010001071		MH SP		02	M	99		
84	2475	20	Left Leg	PainBinary		2023_Feb_04_1421	5.001868540421128	R		321.65554919978604	1.5836856998503208	MH SP		02	M	99		-1.0
85	2475	21	Left Leg	IntensityRating		2023_Feb_04_1421	5.0111905401572585	R		326.67592069972306	3.9167936998419464	MH SP		02	M	99		14.753086419753089
86	2475	9	Left Leg	Post-Q-Jitter		2023_Feb_04_1421	7.009478969499469	R		331.69349050009623		MH SP		02	M	99		
87	2475	51	Left Leg	Expectancy		2023_Feb_04_1421	5.001086439471692	R		339.8893830999732	4.600339500233531	MH SP		02	M	99		22.283950617283953
88	2475	45	Left Leg	2-back Instruction		2023_Feb_04_1421	4.998243349604309	R		345.29088510014117		MH SP		02	M	99		
89	2475	7	Left Leg	Pre-trial Jitter		2023_Feb_04_1421	7.002364069689065	R		350.29724039975554		MH SP		02	M	99		
90	2475	44.0	Left Leg	pretrialfixation		2023_Feb_04_1421	1.0114668998867273	R		357.6177615998313		MH SP		02	M	99		
91	2475		Left Leg	2-back	1.0	2023_Feb_04_1421	1.9896723693236709	R		358.6286880001426		MH SP	12.5	02	M	99	48.5	
92	2475		Left Leg	2-back	1.0	2023_Feb_04_1421	1.986916869878769	R		360.6383887999691		MH SP	25.0	02	M	99	48.5	
93	2475		Left Leg	2-back	1.0	2023_Feb_04_1421	1.9872785694897175	R	2	362.63821429992095	0.5634243995882571	MH SP	37.5	02	M	99	48.5	
94	2475		Left Leg	2-back	1.0	2023_Feb_04_1421	1.986593369860202	R	2	364.63863099971786	0.4797795000486076	MH SP	50.0	02	M	99	48.5	
95	2475		Left Leg	2-back	1.0	2023_Feb_04_1421	1.9870876702480018	R	0	366.6383111998439	0.6300978004001081	MH SP	62.5	02	M	99	48.5	
96	2475		Left Leg	2-back	1.0	2023_Feb_04_1421	1.9866872699931264	R	0	368.63857699977234	0.4997699996456504	MH SP	75.0	02	M	99	48.5	
97	2475		Left Leg	2-back	1.0	2023_Feb_04_1421	1.9865338699892163	R	2	370.638703300152	0.4798359996639192	MH SP	87.5	02	M	99	48.5	
98	2475		Left Leg	2-back	1.0	2023_Feb_04_1421	1.9862052695825696	R	2	372.6388538000174	0.579965699929744	MH SP	100.0	02	M	99	48.5	
99	2475	48.0	Left Leg	ScoreReport		2023_Feb_04_1421	5.001488969661295	R		374.64793210010976		MH SP		02	M	99		
100	2475	8	Left Leg	Post-trial Jitter		2023_Feb_04_1421	5.002187179867178	R		379.7059173998423		MH SP		02	M	99		
101	2475	20	Left Leg	PainBinary		2023_Feb_04_1421	5.00135844014585	R		384.72305239969864	1.3670478002168238	MH SP		02	M	99		-1.0
102	2475	21	Left Leg	IntensityRating		2023_Feb_04_1421	5.0109036401845515	R		389.7433870998211	4.0668609999120235	MH SP		02	M	99		16.11111111111111
103	2475	9	Left Leg	Post-Q-Jitter		2023_Feb_04_1421	4.994578369893134	R		394.75992299988866		MH SP		02	M	99		
104	2475	42	Left Leg	0-back Instruction		2023_Feb_04_1421	5.006422340404242	R		399.77905299980193		MH SP		02	M	99		
105	2475	7	Left Leg	Pre-Trial Jitter		2023_Feb_04_1421	9.00204817019403	R		404.79796679969877		MH SP		02	M	99		
106	2475	44.0	Left Leg	pretrialfixation		2023_Feb_04_1421	1.012115789577365	R		414.06796719972044		MH SP		02	M	99		
107	2475		Left Leg	0-back	1.0	2023_Feb_04_1421	1.990513569675386	R	0.0	415.0787650998682	0.44558760011568666	MH SP	12.5	02	M	99	32.0	
108	2475		Left Leg	0-back	1.0	2023_Feb_04_1421	1.9877318697981536	R	0.0	417.08857319969684	0.3135143001563847	MH SP	25.0	02	M	99	32.0	
109	2475		Left Leg	0-back	1.0	2023_Feb_04_1421	1.988244369160384	R	0.0	419.0883102999069	0.3302811998873949	MH SP	37.5	02	M	99	32.0	
110	2475		Left Leg	0-back	1.0	2023_Feb_04_1421	1.9889841699041426	R	0.0	421.08796579996124	0.34682160010561347	MH SP	50.0	02	M	99	32.0	
111	2475		Left Leg	0-back	1.0	2023_Feb_04_1421	1.9875068697147071	R	0.0	423.0887314998545	0.3507095999084413	MH SP	62.5	02	M	99	32.0	
112	2475		Left Leg	0-back	1.0	2023_Feb_04_1421	1.9882662696763873	R	0.0	425.0883033000864	0.3133435002528131	MH SP	75.0	02	M	99	32.0	
113	2475		Left Leg	0-back	1.0	2023_Feb_04_1421	1.9863560697995126	R	0.0	427.089345399756	0.33345430018380284	MH SP	87.5	02	M	99	32.0	
114	2475		Left Leg	0-back	1.0	2023_Feb_04_1421	1.9890917702578008	R	0.0	429.0879341000691	0.34688729979097843	MH SP	100.0	02	M	99	32.0	
115	2475	48.0	Left Leg	ScoreReport		2023_Feb_04_1421	5.003170769661665	R		431.09770089993253		MH SP		02	M	99		
116	2475	8	Left Leg	Post-Trial Jitter		2023_Feb_04_1421	8.999352779705077	R		436.15800999989733		MH SP		02	M	99		
117	2475	42	Left Leg	0-back Instruction		2023_Feb_04_1421	5.007586539722979	R		445.178937099874		MH SP		02	M	99		
118	2475	7	Left Leg	Pre-Trial Jitter		2023_Feb_04_1421	5.0156725398264825	R		450.19994310010225		MH SP		02	M	99		
119	2475	44.0	Left Leg	pretrialfixation		2023_Feb_04_1421	1.0110020898282528	R		455.4689702996984		MH SP		02	M	99		
120	2475		Left Leg	0-back	1.0	2023_Feb_04_1421	1.9901477694511414	R	0.0	456.47942039975896	0.46301359962671995	MH SP	12.5	02	M	99	32.0	
121	2475		Left Leg	0-back	1.0	2023_Feb_04_1421	1.9879568694159389	R	0.0	458.488863799721	0.3467977000400424	MH SP	25.0	02	M	99	32.0	
122	2475		Left Leg	0-back	1.0	2023_Feb_04_1421	1.988476169295609	R	0.0	460.4886651998386	0.33015579963102937	MH SP	37.5	02	M	99	32.0	
123	2475		Left Leg	0-back	1.0	2023_Feb_04_1421	1.9887436698190868	R	0.0	462.48852950008586	0.2965611000545323	MH SP	50.0	02	M	99	32.0	
124	2475		Left Leg	0-back	1.0	2023_Feb_04_1421	1.9883828698657453	R	0.0	464.4887035000138	0.32958019990473986	MH SP	62.5	02	M	99	32.0	
125	2475		Left Leg	0-back	1.0	2023_Feb_04_1421	1.9888526699505746	R	0.0	466.4885176997632	0.2960506002418697	MH SP	75.0	02	M	99	32.0	
126	2475		Left Leg	0-back	1.0	2023_Feb_04_1421	1.9890790698118508	R	0.0	468.4884001999162	0.3298760000616312	MH SP	87.5	02	M	99	32.0	
127	2475		Left Leg	0-back	1.0	2023_Feb_04_1421	1.9889926696196198	R	0.0	470.4884854000993	0.3460200000554323	MH SP	100.0	02	M	99	32.0	
128	2475	48.0	Left Leg	ScoreReport		2023_Feb_04_1421	5.003550169989467	R		472.4978832998313		MH SP		02	M	99		
129	2475	8	Left Leg	Post-Trial Jitter		2023_Feb_04_1421	8.99869887996465	R		477.55872419988737		MH SP		02	M	99		
130	2475	51	Left Leg	Expectancy		2023_Feb_04_1421	5.001728459727019	R		486.8490162999369		MH SP		02	M	99		26.666666666666668
131	2475	44	Left Leg	0-back Instruction		2023_Feb_04_1421	5.0108933500014246	R		492.26107160001993		MH SP		02	M	99		
132	2475	7	Left Leg	Pre-Trial Jitter		2023_Feb_04_1421	5.002135270275176	R		497.28221500013024		MH SP		02	M	99		
133	2475	44.0	Left Leg	pretrialfixation		2023_Feb_04_1421	1.0143947000615299	R		502.6011020997539		MH SP		02	M	99		
134	2475		Left Leg	0-back	1.0	2023_Feb_04_1421	1.991333870217204	R	0.0	503.61263479990885	0.41297149984166026	MH SP	12.5	02	M	99	48.5	
135	2475		Left Leg	0-back	1.0	2023_Feb_04_1421	1.9880288699641824	R	0.0	505.6226266999729	0.29669270012527704	MH SP	25.0	02	M	99	48.5	
136	2475		Left Leg	0-back	1.0	2023_Feb_04_1421	1.988850469700992	R	0.0	507.6223108000122	0.3337282999418676	MH SP	37.5	02	M	99	48.5	
137	2475		Left Leg	0-back	1.0	2023_Feb_04_1421	1.9890513699501753	R	0.0	509.6221885997802	0.2961150002665818	MH SP	50.0	02	M	99	48.5	
138	2475		Left Leg	0-back	1.0	2023_Feb_04_1421	1.9886455703526735	R	0.0	511.6223879000172	0.2799303000792861	MH SP	62.5	02	M	99	48.5	
139	2475		Left Leg	0-back	1.0	2023_Feb_04_1421	1.988774069584906	R	0.0	513.6223635999486	0.41752739995718	MH SP	75.0	02	M	99	48.5	
140	2475		Left Leg	0-back	1.0	2023_Feb_04_1421	1.9887524698860943	R	0.0	515.6224214998074	0.31343659991398454	MH SP	87.5	02	M	99	48.5	
141	2475		Left Leg	0-back	1.0	2023_Feb_04_1421	1.9889522697776556	R	0.0	517.6223101997748	0.3130226000212133	MH SP	100.0	02	M	99	48.5	
142	2475	48.0	Left Leg	ScoreReport		2023_Feb_04_1421	5.004161070100963	R		519.6314193001017		MH SP		02	M	99		
143	2475	8	Left Leg	Post-Trial Jitter		2023_Feb_04_1421	6.99952358007431	R		524.6921588997357		MH SP		02	M	99		
144	2475	20	Left Leg	PainBinary		2023_Feb_04_1421	5.0003886399790645	R		531.7084801997989	1.6338328998535872	MH SP		02	M	99		1.0
145	2475	21	Left Leg	IntensityRating		2023_Feb_04_1421	5.0090951402671635	R		536.7291621998884	3.2858223002403975	MH SP		02	M	99		35.06172839506173
146	2475	23	Left Leg	DistractBinary		2023_Feb_04_1421	5.002381940372288	R		541.7575441999361	2.233770300168544	MH SP		02	M	99		1.0
147	2475	9	Left Leg	Post-Q-Jitter		2023_Feb_04_1421	6.992962469812483	R		546.7623205999844		MH SP		02	M	99		
148	2475	51	Left Leg	Expectancy		2023_Feb_04_1421	5.00508525967598	R		554.047958899755	3.533713400363922	MH SP		02	M	99		31.41975308641975
149	2475	44	Left Leg	0-back Instruction		2023_Feb_04_1421	5.004463650286198	R		559.4566631000489		MH SP		02	M	99		
150	2475	7	Left Leg	Pre-Trial Jitter		2023_Feb_04_1421	7.001303969416767	R		564.4666538001038		MH SP		02	M	99		
151	2475	44.0	Left Leg	pretrialfixation		2023_Feb_04_1421	0.998453970067203	R		571.8097048997879		MH SP		02	M	99		
152	2475		Left Leg	0-back	1.0	2023_Feb_04_1421	1.9895038702525198	R	0.0	572.8142240000889	0.3455837001092732	MH SP	12.5	02	M	99	48.5	
153	2475		Left Leg	0-back	1.0	2023_Feb_04_1421	1.9877064703032374	R	0.0	574.8235209998675	0.3126521999947727	MH SP	25.0	02	M	99	48.5	
154	2475		Left Leg	0-back	1.0	2023_Feb_04_1421	1.9878147696144879	R	0.0	576.8235186999664	0.3799246000126004	MH SP	37.5	02	M	99	48.5	
155	2475		Left Leg	0-back	1.0	2023_Feb_04_1421	1.988609069492668	R	0.0	578.8231068998575	0.329871800262481	MH SP	50.0	02	M	99	48.5	
156	2475		Left Leg	0-back	1.0	2023_Feb_04_1421	1.989051470067352	R	0.0	580.8228817000054	0.3177737998776138	MH SP	62.5	02	M	99	48.5	
157	2475		Left Leg	0-back	1.0	2023_Feb_04_1421	1.9890685696154833	R	0.0	582.8229505000636	0.3296424997970462	MH SP	75.0	02	M	99	48.5	
158	2475		Left Leg	0-back	1.0	2023_Feb_04_1421	1.9885697700083256	R	0.0	584.8232037997805	0.33069249987602234	MH SP	87.5	02	M	99	48.5	
159	2475		Left Leg	0-back	1.0	2023_Feb_04_1421	1.98861947003752	R	0.0	586.8232209999114	0.330133399926126	MH SP	100.0	02	M	99	48.5	
160	2475	48.0	Left Leg	ScoreReport		2023_Feb_04_1421	5.003577369265258	R		588.8324098000303		MH SP		02	M	99		
161	2475	8	Left Leg	Post-Trial Jitter		2023_Feb_04_1421	9.001044179778546	R		593.8920867997222		MH SP		02	M	99		
162	2475	20	Left Leg	PainBinary		2023_Feb_04_1421	5.002533540129662	R		602.9080936997198	1.400397399906069	MH SP		02	M	99		1.0
163	2475	21	Left Leg	IntensityRating		2023_Feb_04_1421	5.011012940201908	R		607.9289200999774	3.618996699806303	MH SP		02	M	99		37.53086419753087
164	2475	23	Left Leg	DistractBinary		2023_Feb_04_1421	5.002725440077484	R		612.9581230999902	1.3504155999980867	MH SP		02	M	99		1.0
165	2475	9	Left Leg	Post-Q-Jitter		2023_Feb_04_1421	8.994483970105648	R		617.9623203999363		MH SP		02	M	99		
166	2475	43	Left Leg	2-back Instruction		2023_Feb_04_1421	5.0077472403645515	R		626.9807469998486		MH SP		02	M	99		
167	2475	7	Left Leg	Pre-trial Jitter		2023_Feb_04_1421	5.0008420697413385	R		632.0008851997554		MH SP		02	M	99		
168	2475	44.0	Left Leg	pretrialfixation		2023_Feb_04_1421	1.0001516197808087	R		637.2679296000861		MH SP		02	M	99		
169	2475		Left Leg	2-back	1.0	2023_Feb_04_1421	1.9902604697272182	R		638.2812449000776		MH SP	12.5	02	M	99	32.0	
170	2475		Left Leg	2-back	1.0	2023_Feb_04_1421	1.9873839695937932	R		640.2910326998681		MH SP	25.0	02	M	99	32.0	
171	2475		Left Leg	2-back	1.0	2023_Feb_04_1421	1.988029669970274	R	2	642.290733799804	0.41340760001912713	MH SP	37.5	02	M	99	32.0	
172	2475		Left Leg	2-back	1.0	2023_Feb_04_1421	1.9875076697207987	R	2	644.2910122000612	0.46349360002204776	MH SP	50.0	02	M	99	32.0	
173	2475		Left Leg	2-back	1.0	2023_Feb_04_1421	1.9871577695012093	R	0	646.2912085996941	0.40035800030454993	MH SP	62.5	02	M	99	32.0	
174	2475		Left Leg	2-back	1.0	2023_Feb_04_1421	1.9870365699753165	R	0	648.2913044998422	0.5505588999949396	MH SP	75.0	02	M	99	32.0	
175	2475		Left Leg	2-back	1.0	2023_Feb_04_1421	1.9872100693173707	R	2	650.2912682001479	0.479402800090611	MH SP	87.5	02	M	99	32.0	
176	2475		Left Leg	2-back	1.0	2023_Feb_04_1421	1.9875239692628384	R	2	652.291078099981	0.4467420997098088	MH SP	100.0	02	M	99	32.0	
177	2475	48.0	Left Leg	ScoreReport		2023_Feb_04_1421	5.016626140102744	R		654.3015862000175		MH SP		02	M	99		
178	2475	8	Left Leg	Post-trial Jitter		2023_Feb_04_1421	8.996429879684001	R		659.3617716999725		MH SP		02	M	99		
179	2475	43	Left Leg	2-back Instruction		2023_Feb_04_1421	5.006353340577334	R		668.3818620997481		MH SP		02	M	99		
180	2475	7	Left Leg	Pre-trial Jitter		2023_Feb_04_1421	5.001128470059484	R		673.4011766999029		MH SP		02	M	99		
181	2475	44.0	Left Leg	pretrialfixation		2023_Feb_04_1421	1.0108799897134304	R		678.6713292999193		MH SP		02	M	99		
182	2475		Left Leg	2-back	1.0	2023_Feb_04_1421	1.990809369366616	R		679.6813878999092		MH SP	12.5	02	M	99	32.0	
183	2475		Left Leg	2-back	1.0	2023_Feb_04_1421	1.9868252696469426	R		681.691745699849		MH SP	25.0	02	M	99	32.0	
184	2475		Left Leg	2-back	1.0	2023_Feb_04_1421	1.9877727697603405	R	2	683.6912842998281	0.613268899731338	MH SP	37.5	02	M	99	32.0	
185	2475		Left Leg	2-back	1.0	2023_Feb_04_1421	1.9876003698445857	R	2	685.6914221998304	0.4635455999523401	MH SP	50.0	02	M	99	32.0	
186	2475		Left Leg	2-back	1.0	2023_Feb_04_1421	1.9875592701137066	R	0	687.691426999867	0.5502764000557363	MH SP	62.5	02	M	99	32.0	
187	2475		Left Leg	2-back	1.0	2023_Feb_04_1421	1.987457170151174	R	2	689.691505599767	0.5630660001188517	MH SP	75.0	02	M	99	32.0	
188	2475		Left Leg	2-back	1.0	2023_Feb_04_1421	1.9878361700102687	R	0	691.6913398001343	0.6135595999658108	MH SP	87.5	02	M	99	32.0	
189	2475		Left Leg	2-back	1.0	2023_Feb_04_1421	1.9872205695137382	R	2	693.6916585001163	0.5000207000412047	MH SP	100.0	02	M	99	32.0	
190	2475	48.0	Left Leg	ScoreReport		2023_Feb_04_1421	5.016581740230322	R		695.7020694999956		MH SP		02	M	99		
191	2475	8	Left Leg	Post-trial Jitter		2023_Feb_04_1421	6.999874579720199	R		700.7604775000364		MH SP		02	M	99		
192	2475	26	Left Leg	ComfortRating		2023_Feb_04_1421	10.487659940030426	R		707.7833782001399	10.452828799840063	MH SP		02	M	99		-4.3209876543210015
193	2475	24	Left Leg	ValenceRating		2023_Feb_04_1421	6.7239977405406535	R		718.29863760015	6.700177999678999	MH SP		02	M	99		52.28395061728395
194	2475	26	Left Leg	IntensityRating		2023_Feb_04_1421	2.695232740137726	R		725.0463860998861	2.6667790999636054	MH SP		02	M	99		61.358024691358025
195	2475	27	Left Leg	AvoidanceRating		2023_Feb_04_1421	4.642946840263903	R		727.7642306997441	4.616792700253427	MH SP		02	M	99		30.0
196	2475	28	Left Leg	RelaxationRating		2023_Feb_04_1421	6.716878440696746	R		732.4273310997523	6.700488900300115	MH SP		02	M	99		34.32098765432099
197	2475	29	Left Leg	AttentionRating		2023_Feb_04_1421	5.175520039629191	R		739.164747599978	5.150135499890894	MH SP		02	M	99		79.5679012345679
198	2475	30	Left Leg	BoredomRating		2023_Feb_04_1421	6.217150340322405	R		744.3606750997715	6.186027300078422	MH SP		02	M	99		33.2716049382716
199	2475	31	Left Leg	AlertnessRating		2023_Feb_04_1421	6.246823440305889	R		750.5958857000805	6.21678109979257	MH SP		02	M	99		81.11111111111111
200	2475	32	Left Leg	PosThxRating		2023_Feb_04_1421	5.259362139739096	R		756.864669600036	5.233571299817413	MH SP		02	M	99		-20.740740740740733
201	2475	33	Left Leg	NegThxRating		2023_Feb_04_1421	6.493818340357393	R		762.1475121998228	6.466867400333285	MH SP		02	M	99		-16.419753086419746
202	2475	34	Left Leg	SelfRating		2023_Feb_04_1421	5.379020839929581	R		768.6633334998041	5.350217399653047	MH SP		02	M	99		62.22222222222226
203	2475	35	Left Leg	OtherRating		2023_Feb_04_1421	4.129826340358704	R		774.0629712999798	4.1175910998135805	MH SP		02	M	99		-60.98765432098766
204	2475	32	Left Leg	ImageryRating		2023_Feb_04_1421	10.439059739932418	R		778.2167410999537	10.402827899903059	MH SP		02	M	99		-3.9506172839506206
205	2475	37	Left Leg	PresentRating		2023_Feb_04_1421	5.441282239742577	R		788.6824123999104	5.402439400088042	MH SP		02	M	99		74.81481481481481
