	SID	biopac_channel	body_site	condition	correct	date	duration	handedness	mouseclick	onset	rt	scanner	score	session	sex	skin_site	temperature	value
0	2990	42	Left Leg	0-back Instruction		2024_Aug_02_1737	5.013109202729538	r		2.788959600031376		SS MRS		2	f	3		
1	2990	7	Left Leg	Pre-Trial Jitter		2024_Aug_02_1737	5.013922199956141	r		7.813909100019373		SS MRS		2	f	3		
2	2990	44.0	Left Leg	pretrialfixation		2024_Aug_02_1737	0.9964571000309661	r		13.106050600064918		SS MRS		2	f	3		
3	2990		Left Leg	0-back	1.0	2024_Aug_02_1737	1.9961073000449687	r	0.0	14.114582100068219	0.5802133999532089	SS MRS	12.5	2	f	3	32.0	
4	2990		Left Leg	0-back	1.0	2024_Aug_02_1737	1.9881208001170307	r	0.0	16.118601500056684	0.4174818000756204	SS MRS	25.0	2	f	3	32.0	
5	2990		Left Leg	0-back	1.0	2024_Aug_02_1737	1.9890326000750065	r	0.0	18.118163499981165	0.4006052000913769	SS MRS	37.5	2	f	3	32.0	
6	2990		Left Leg	0-back	1.0	2024_Aug_02_1737	1.9890994001179934	r	0.0	20.118152600014582	0.3471058999421075	SS MRS	50.0	2	f	3	32.0	
7	2990		Left Leg	0-back	1.0	2024_Aug_02_1737	1.9889533000532538	r	0.0	22.118250100058503	0.3295245000626892	SS MRS	62.5	2	f	3	32.0	
8	2990		Left Leg	0-back	1.0	2024_Aug_02_1737	1.9889903999865055	r	0.0	24.118029800010845	0.41371009999420494	SS MRS	75.0	2	f	3	32.0	
9	2990		Left Leg	0-back	1.0	2024_Aug_02_1737	1.9889159001177177	r	0.0	26.11832840007264	0.3469687000615522	SS MRS	87.5	2	f	3	32.0	
10	2990		Left Leg	0-back	1.0	2024_Aug_02_1737	1.989783399971202	r	0.0	28.117662700009532	0.38046270003542304	SS MRS	100.0	2	f	3	32.0	
11	2990	48.0	Left Leg	ScoreReport		2024_Aug_02_1737	5.0040042999899015	r		30.12750619999133		SS MRS		2	f	3		
12	2990	8	Left Leg	Post-Trial Jitter		2024_Aug_02_1737	9.008590400102548	r		35.19194539997261		SS MRS		2	f	3		
13	2990	42	Left Leg	0-back Instruction		2024_Aug_02_1737	4.99421340005938	r		44.22421390004456		SS MRS		2	f	3		
14	2990	7	Left Leg	Pre-Trial Jitter		2024_Aug_02_1737	5.006188400089741	r		49.226613000035286		SS MRS		2	f	3		
15	2990	44.0	Left Leg	pretrialfixation		2024_Aug_02_1737	1.0119002000428736	r		54.49881949997507		SS MRS		2	f	3		
16	2990		Left Leg	0-back	1.0	2024_Aug_02_1737	1.9902555999578908	r	0.0	55.50965790008195	0.46324030007235706	SS MRS	12.5	2	f	3	32.0	
17	2990		Left Leg	0-back	1.0	2024_Aug_02_1737	1.9875274000223726	r	0.0	57.51936380006373	0.34696310001891106	SS MRS	25.0	2	f	3	32.0	
18	2990		Left Leg	0-back	1.0	2024_Aug_02_1737	1.9888179000699893	r	0.0	59.518758499994874	0.3468791999621317	SS MRS	37.5	2	f	3	32.0	
19	2990		Left Leg	0-back	1.0	2024_Aug_02_1737	1.989249299862422	r	0.0	61.51855889998842	0.36333249998278916	SS MRS	50.0	2	f	3	32.0	
20	2990		Left Leg	0-back	1.0	2024_Aug_02_1737	1.9889951000222936	r	0.0	63.518700600019656	0.36699180002324283	SS MRS	62.5	2	f	3	32.0	
21	2990		Left Leg	0-back	1.0	2024_Aug_02_1737	1.9893135000020266	r	0.0	65.51856770005543	0.29676349996589124	SS MRS	75.0	2	f	3	32.0	
22	2990		Left Leg	0-back	1.0	2024_Aug_02_1737	1.9889361000386998	r	0.0	67.51877750002313	0.2838656000094488	SS MRS	87.5	2	f	3	32.0	
23	2990		Left Leg	0-back	1.0	2024_Aug_02_1737	1.9890319999540225	r	0.0	69.51875559997279	0.3471291000023484	SS MRS	100.0	2	f	3	32.0	
24	2990	48.0	Left Leg	ScoreReport		2024_Aug_02_1737	5.004801900009625	r		71.52756820002105		SS MRS		2	f	3		
25	2990	8	Left Leg	Post-Trial Jitter		2024_Aug_02_1737	8.999368200078607	r		76.58870459999889		SS MRS		2	f	3		
26	2990	51	Left Leg	Expectancy		2024_Aug_02_1737	5.014751800103113	r		86.04776230000425	4.583632000023499	SS MRS		2	f	3		50.0
27	2990	45	Left Leg	2-back Instruction		2024_Aug_02_1737	4.999292299966328	r		91.45555080007762		SS MRS		2	f	3		
28	2990	7	Left Leg	Pre-trial Jitter		2024_Aug_02_1737	5.005471599986777	r		96.46088160004001		SS MRS		2	f	3		
29	2990	44.0	Left Leg	pretrialfixation		2024_Aug_02_1737	1.0125415000366047	r		101.78237250004895		SS MRS		2	f	3		
30	2990		Left Leg	2-back	1.0	2024_Aug_02_1737	1.9887128999689594	r		102.79429640003946		SS MRS	12.5	2	f	3	48.5	
31	2990		Left Leg	2-back	1.0	2024_Aug_02_1737	1.9873776000458747	r		104.80332469998393		SS MRS	25.0	2	f	3	48.5	
32	2990		Left Leg	2-back	1.0	2024_Aug_02_1737	1.9880340999225155	r	2	106.8030199999921	0.5470369000686333	SS MRS	37.5	2	f	3	48.5	
33	2990		Left Leg	2-back	1.0	2024_Aug_02_1737	1.9876338000176474	r	2	108.8032481999835	0.7805655999109149	SS MRS	50.0	2	f	3	48.5	
34	2990		Left Leg	2-back	1.0	2024_Aug_02_1737	1.9876259999582544	r	0	110.80327060003765	0.48020330001600087	SS MRS	62.5	2	f	3	48.5	
35	2990		Left Leg	2-back	1.0	2024_Aug_02_1737	1.9873564000008628	r	2	112.80342999997083	0.7471452999161556	SS MRS	75.0	2	f	3	48.5	
36	2990		Left Leg	2-back	1.0	2024_Aug_02_1737	1.9879563000285998	r	0	114.80315940000582	0.38060340005904436	SS MRS	87.5	2	f	3	48.5	
37	2990		Left Leg	2-back	1.0	2024_Aug_02_1737	1.9874545000493526	r	2	116.80339070002083	0.71685880003497	SS MRS	100.0	2	f	3	48.5	
38	2990	48.0	Left Leg	ScoreReport		2024_Aug_02_1737	5.001527900109068	r		118.8130960999988		SS MRS		2	f	3		
39	2990	8	Left Leg	Post-trial Jitter		2024_Aug_02_1737	4.996210200130008	r		123.87415839999449		SS MRS		2	f	3		
40	2990	20	Left Leg	PainBinary		2024_Aug_02_1737	5.017678900039755	r		128.88845840003341	2.015956800081767	SS MRS		2	f	3		1.0
41	2990	21	Left Leg	IntensityRating		2024_Aug_02_1737	5.011399199953303	r		133.925038699992		SS MRS		2	f	3		22.592592592592595
42	2990	23	Left Leg	DistractBinary		2024_Aug_02_1737	5.001580000040121	r		138.95499030000065	2.40037189994473	SS MRS		2	f	3		1.0
43	2990	9	Left Leg	Post-Q-Jitter		2024_Aug_02_1737	4.994014500058256	r		143.9588281000033		SS MRS		2	f	3		
44	2990	51	Left Leg	Expectancy		2024_Aug_02_1737	5.006595500162803	r		149.15259750001132	2.86676979996264	SS MRS		2	f	3		37.03703703703704
45	2990	45	Left Leg	2-back Instruction		2024_Aug_02_1737	5.002967200009152	r		154.55445820000023		SS MRS		2	f	3		
46	2990	7	Left Leg	Pre-trial Jitter		2024_Aug_02_1737	9.0040491000982	r		159.5623259000713		SS MRS		2	f	3		
47	2990	44.0	Left Leg	pretrialfixation		2024_Aug_02_1737	1.0141842999728397	r		168.86565340007655		SS MRS		2	f	3		
48	2990		Left Leg	2-back	1.0	2024_Aug_02_1737	1.98793179995846	r		169.87880679999944		SS MRS	12.5	2	f	3	48.5	
49	2990		Left Leg	2-back	1.0	2024_Aug_02_1737	1.9875371999805793	r		171.88736930000596		SS MRS	25.0	2	f	3	48.5	
50	2990		Left Leg	2-back	1.0	2024_Aug_02_1737	1.9876266000792384	r	2	173.8873397000134	0.5133942000102252	SS MRS	37.5	2	f	3	48.5	
51	2990		Left Leg	2-back	1.0	2024_Aug_02_1737	1.988045500125736	r	2	175.88714600005187	0.5800239000236616	SS MRS	50.0	2	f	3	48.5	
52	2990		Left Leg	2-back	1.0	2024_Aug_02_1737	1.9879530001198873	r	0	177.88721559999976	0.3971093000145629	SS MRS	62.5	2	f	3	48.5	
53	2990		Left Leg	2-back	1.0	2024_Aug_02_1737	1.9877897000405937	r	2	179.88732059998438	0.8637768999906257	SS MRS	75.0	2	f	3	48.5	
54	2990		Left Leg	2-back	1.0	2024_Aug_02_1737	1.9879260000307113	r	2	181.88728260004427	0.650651799980551	SS MRS	87.5	2	f	3	48.5	
55	2990		Left Leg	2-back	1.0	2024_Aug_02_1737	1.9875799000728875	r	0	183.8874378000619	0.49699160002637655	SS MRS	100.0	2	f	3	48.5	
56	2990	48.0	Left Leg	ScoreReport		2024_Aug_02_1737	5.001677399966866	r		185.89712910004891		SS MRS		2	f	3		
57	2990	8	Left Leg	Post-trial Jitter		2024_Aug_02_1737	7.001637300127186	r		190.95555710000917		SS MRS		2	f	3		
58	2990	20	Left Leg	PainBinary		2024_Aug_02_1737	5.003944299998693	r		197.9711475999793	1.1836789000080898	SS MRS		2	f	3		1.0
59	2990	21	Left Leg	IntensityRating		2024_Aug_02_1737	5.01322700001765	r		202.9915953000309	3.866855299915187	SS MRS		2	f	3		24.876543209876544
60	2990	23	Left Leg	DistractBinary		2024_Aug_02_1737	5.004068600013852	r		208.02122350002173	1.5029185999883339	SS MRS		2	f	3		1.0
61	2990	9	Left Leg	Post-Q-Jitter		2024_Aug_02_1737	6.994520000065677	r		213.02599049999844		SS MRS		2	f	3		
62	2990	51	Left Leg	Expectancy		2024_Aug_02_1737	5.013831099960953	r		220.2497330000624	3.133408399997279	SS MRS		2	f	3		37.407407407407405
63	2990	44	Left Leg	0-back Instruction		2024_Aug_02_1737	5.004321600077674	r		225.6546164000174		SS MRS		2	f	3		
64	2990	7	Left Leg	Pre-Trial Jitter		2024_Aug_02_1737	7.001307100057602	r		230.664529300062		SS MRS		2	f	3		
65	2990	44.0	Left Leg	pretrialfixation		2024_Aug_02_1737	1.0050040000351146	r		237.95439920003992		SS MRS		2	f	3		
66	2990		Left Leg	0-back	1.0	2024_Aug_02_1737	1.9870440000668168	r	0.0	238.9633998000063	0.6465173000469804	SS MRS	12.5	2	f	3	48.5	
67	2990		Left Leg	0-back	1.0	2024_Aug_02_1737	1.9881696000229567	r	0.0	240.9711941999849	0.34686169994529337	SS MRS	25.0	2	f	3	48.5	
68	2990		Left Leg	0-back	1.0	2024_Aug_02_1737	1.9888168999459594	r	0.0	242.97089230001438	0.3968375000404194	SS MRS	37.5	2	f	3	48.5	
69	2990		Left Leg	0-back	1.0	2024_Aug_02_1737	1.988806699984707	r	0.0	244.9709183999803	0.36390310002025217	SS MRS	50.0	2	f	3	48.5	
70	2990		Left Leg	0-back	1.0	2024_Aug_02_1737	1.9882308000233024	r	0.0	246.97123540006578	0.31385819998104125	SS MRS	62.5	2	f	3	48.5	
71	2990		Left Leg	0-back	1.0	2024_Aug_02_1737	1.9882545000873506	r	0.0	248.97124530002475	0.35095320001710206	SS MRS	75.0	2	f	3	48.5	
72	2990		Left Leg	0-back	1.0	2024_Aug_02_1737	1.9891272999811918	r	0.0	250.97081089997664	0.31383629993069917	SS MRS	87.5	2	f	3	48.5	
73	2990		Left Leg	0-back	1.0	2024_Aug_02_1737	1.9889951000222936	r	0.0	252.9709228000138	0.48466880002524704	SS MRS	100.0	2	f	3	48.5	
74	2990	48.0	Left Leg	ScoreReport		2024_Aug_02_1737	5.00415619998239	r		254.98004459997173		SS MRS		2	f	3		
75	2990	8	Left Leg	Post-Trial Jitter		2024_Aug_02_1737	4.996707599959336	r		260.0421556000365		SS MRS		2	f	3		
76	2990	20	Left Leg	PainBinary		2024_Aug_02_1737	5.003896399983205	r		265.0552890000399	1.0669919000938535	SS MRS		2	f	3		1.0
77	2990	21	Left Leg	IntensityRating		2024_Aug_02_1737	5.012609000084922	r		270.07598439999856	3.2501022999640554	SS MRS		2	f	3		33.395061728395056
78	2990	23	Left Leg	DistractBinary		2024_Aug_02_1737	5.002714900067076	r		275.105992399971	2.0336499999975786	SS MRS		2	f	3		1.0
79	2990	9	Left Leg	Post-Q-Jitter		2024_Aug_02_1737	4.994893700117245	r		280.1099636000581		SS MRS		2	f	3		
80	2990	51	Left Leg	Expectancy		2024_Aug_02_1737	5.0158891001483425	r		285.97453480004333	3.616791900014505	SS MRS		2	f	3		40.0
81	2990	44	Left Leg	0-back Instruction		2024_Aug_02_1737	5.0029998001409695	r		291.38936769997235		SS MRS		2	f	3		
82	2990	7	Left Leg	Pre-Trial Jitter		2024_Aug_02_1737	9.002959900069982	r		296.3978434000164		SS MRS		2	f	3		
83	2990	44.0	Left Leg	pretrialfixation		2024_Aug_02_1737	0.9964517999906093	r		305.6928086000262		SS MRS		2	f	3		
84	2990		Left Leg	0-back	1.0	2024_Aug_02_1737	1.9897745000198483	r	0.0	306.69616509997286	0.5636286999797449	SS MRS	12.5	2	f	3	48.5	
85	2990		Left Leg	0-back	1.0	2024_Aug_02_1737	1.988428800017573	r	0.0	308.70519210002385	0.4136509000090882	SS MRS	25.0	2	f	3	48.5	
86	2990		Left Leg	0-back	1.0	2024_Aug_02_1737	1.9892127000493929	r	0.0	310.70481540006585	0.3471171000273898	SS MRS	37.5	2	f	3	48.5	
87	2990		Left Leg	0-back	1.0	2024_Aug_02_1737	1.989047099952586	r	0.0	312.70491940004285	0.38054929999634624	SS MRS	50.0	2	f	3	48.5	
88	2990		Left Leg	0-back	1.0	2024_Aug_02_1737	1.9894665001193061	r	0.0	314.704737400054	0.333719199988991	SS MRS	62.5	2	f	3	48.5	
89	2990		Left Leg	0-back	1.0	2024_Aug_02_1737	1.9893244000850245	r	0.0	316.7048285000492	0.3304962000111118	SS MRS	75.0	2	f	3	48.5	
90	2990		Left Leg	0-back	1.0	2024_Aug_02_1737	1.9892461999552324	r	0.0	318.7048883000389	0.38048590009566396	SS MRS	87.5	2	f	3	48.5	
91	2990		Left Leg	0-back	1.0	2024_Aug_02_1737	1.989201399963349	r	0.0	320.7049419999821	0.3804721999913454	SS MRS	100.0	2	f	3	48.5	
92	2990	48.0	Left Leg	ScoreReport		2024_Aug_02_1737	5.004415999981575	r		322.7140420000069		SS MRS		2	f	3		
93	2990	8	Left Leg	Post-Trial Jitter		2024_Aug_02_1737	5.002512700040825	r		327.7733992000576		SS MRS		2	f	3		
94	2990	20	Left Leg	PainBinary		2024_Aug_02_1737	5.004138899967074	r		332.7892966000363	1.2003382000839338	SS MRS		2	f	3		1.0
95	2990	21	Left Leg	IntensityRating		2024_Aug_02_1737	5.011368700070307	r		337.81075220007915	4.033358899992891	SS MRS		2	f	3		35.80246913580247
96	2990	23	Left Leg	DistractBinary		2024_Aug_02_1737	5.004061099956743	r		342.8394609000534	1.2003130000084639	SS MRS		2	f	3		1.0
97	2990	9	Left Leg	Post-Q-Jitter		2024_Aug_02_1737	4.9946999999228865	r		347.84417549998034		SS MRS		2	f	3		
98	2990	43	Left Leg	2-back Instruction		2024_Aug_02_1737	5.0075192000949755	r		352.862830099999		SS MRS		2	f	3		
99	2990	7	Left Leg	Pre-trial Jitter		2024_Aug_02_1737	9.003173100063577	r		357.88174980005715		SS MRS		2	f	3		
100	2990	44.0	Left Leg	pretrialfixation		2024_Aug_02_1737	1.0050554999615997	r		367.1475473999744		SS MRS		2	f	3		
101	2990		Left Leg	2-back	1.0	2024_Aug_02_1737	1.9877505000913516	r		368.16455840005074		SS MRS	12.5	2	f	3	32.0	
102	2990		Left Leg	2-back	1.0	2024_Aug_02_1737	1.9868442999431863	r		370.17336410004646		SS MRS	25.0	2	f	3	32.0	
103	2990		Left Leg	2-back	1.0	2024_Aug_02_1737	1.987920599989593	r	0	372.17284969997127	0.41391220001969486	SS MRS	37.5	2	f	3	32.0	
104	2990		Left Leg	2-back	1.0	2024_Aug_02_1737	1.9877637999597937	r	2	374.172957999981	0.5503506999230012	SS MRS	50.0	2	f	3	32.0	
105	2990		Left Leg	2-back	1.0	2024_Aug_02_1737	1.9879405000247061	r	2	376.1728839999996	0.6302713999757543	SS MRS	62.5	2	f	3	32.0	
106	2990		Left Leg	2-back	1.0	2024_Aug_02_1737	1.9881069998955354	r	2	378.1728287000442	0.5174021000275388	SS MRS	75.0	2	f	3	32.0	
107	2990		Left Leg	2-back	1.0	2024_Aug_02_1737	1.9877128000371158	r	2	380.1730505999876	0.4971847999840975	SS MRS	87.5	2	f	3	32.0	
108	2990		Left Leg	2-back	1.0	2024_Aug_02_1737	1.9874826000304893	r	2	382.1731787000317	0.6173749000299722	SS MRS	100.0	2	f	3	32.0	
109	2990	48.0	Left Leg	ScoreReport		2024_Aug_02_1737	5.00137089996133	r		384.18294730002526		SS MRS		2	f	3		
110	2990	8	Left Leg	Post-trial Jitter		2024_Aug_02_1737	5.001018400071189	r		389.24151730001904		SS MRS		2	f	3		
111	2990	43	Left Leg	2-back Instruction		2024_Aug_02_1737	5.008814600063488	r		394.2626846000785		SS MRS		2	f	3		
112	2990	7	Left Leg	Pre-trial Jitter		2024_Aug_02_1737	9.000998700037599	r		399.2833222000627		SS MRS		2	f	3		
113	2990	44.0	Left Leg	pretrialfixation		2024_Aug_02_1737	1.0101040001027286	r		408.55384649999905		SS MRS		2	f	3		
114	2990		Left Leg	2-back	1.0	2024_Aug_02_1737	1.9895730999996886	r		409.56413549999706		SS MRS	12.5	2	f	3	32.0	
115	2990		Left Leg	2-back	1.0	2024_Aug_02_1737	1.9862043999601156	r		411.5741646999959		SS MRS	25.0	2	f	3	32.0	
116	2990		Left Leg	2-back	1.0	2024_Aug_02_1737	1.9875969999702647	r	2	413.5734830000438	0.513872200041078	SS MRS	37.5	2	f	3	32.0	
117	2990		Left Leg	2-back	1.0	2024_Aug_02_1737	1.9875510000856593	r	2	415.57353819999844	0.5670497000683099	SS MRS	50.0	2	f	3	32.0	
118	2990		Left Leg	2-back	1.0	2024_Aug_02_1737	1.9874430000782013	r	0	417.5736006000079	0.4305154000176117	SS MRS	62.5	2	f	3	32.0	
119	2990		Left Leg	2-back	0.0	2024_Aug_02_1737	1.987470600171946	r	2	419.57362150005065	0.4472494999645278	SS MRS	62.5	2	f	3	32.0	
120	2990		Left Leg	2-back	1.0	2024_Aug_02_1737	1.9872996000340208	r	2	421.5737367999973	0.8804624000331387	SS MRS	75.0	2	f	3	32.0	
121	2990		Left Leg	2-back	1.0	2024_Aug_02_1737	1.9875093000009656	r	2	423.57363990007434	0.8467287999810651	SS MRS	87.5	2	f	3	32.0	
122	2990	48.0	Left Leg	ScoreReport		2024_Aug_02_1737	5.009511700016446	r		425.58767959999386		SS MRS		2	f	3		
123	2990	8	Left Leg	Post-trial Jitter		2024_Aug_02_1737	6.9981109000509605	r		430.6434628000716		SS MRS		2	f	3		
124	2990	51	Left Leg	Expectancy		2024_Aug_02_1737	5.006311200209893	r		438.53943000000436	2.8337121999356896	SS MRS		2	f	3		44.44444444444444
125	2990	44	Left Leg	0-back Instruction		2024_Aug_02_1737	5.017939300159924	r		443.94202269997913		SS MRS		2	f	3		
126	2990	7	Left Leg	Pre-Trial Jitter		2024_Aug_02_1737	7.003057700116187	r		448.96620250004344		SS MRS		2	f	3		
127	2990	44.0	Left Leg	pretrialfixation		2024_Aug_02_1737	1.0121058000950143	r		456.2534018000588		SS MRS		2	f	3		
128	2990		Left Leg	0-back	1.0	2024_Aug_02_1737	1.9907453999621794	r	0.0	457.26409319997765	0.6301287000533193	SS MRS	12.5	2	f	3	48.5	
129	2990		Left Leg	0-back	1.0	2024_Aug_02_1737	1.9882406999822706	r	0.0	459.27371530001983	0.3805341999977827	SS MRS	25.0	2	f	3	48.5	
130	2990		Left Leg	0-back	1.0	2024_Aug_02_1737	1.9888781999470666	r	0.0	461.27341260004323	0.38057329994626343	SS MRS	37.5	2	f	3	48.5	
131	2990		Left Leg	0-back	1.0	2024_Aug_02_1737	1.9890333998482674	r	0.0	463.2733598999912	0.4138972000218928	SS MRS	50.0	2	f	3	48.5	
132	2990		Left Leg	0-back	1.0	2024_Aug_02_1737	1.9883937000995502	r	0.0	465.27370750007685	0.4136964000063017	SS MRS	62.5	2	f	3	48.5	
133	2990		Left Leg	0-back	1.0	2024_Aug_02_1737	1.9886688999831676	r	0.0	467.2735919000115	0.347246199962683	SS MRS	75.0	2	f	3	48.5	
134	2990		Left Leg	0-back	1.0	2024_Aug_02_1737	1.9888402000069618	r	0.0	469.27348630002234	0.33052720001433045	SS MRS	87.5	2	f	3	48.5	
135	2990		Left Leg	0-back	1.0	2024_Aug_02_1737	1.9893292000051588	r	0.0	471.2733007000061	0.3505130000412464	SS MRS	100.0	2	f	3	48.5	
136	2990	48.0	Left Leg	ScoreReport		2024_Aug_02_1737	5.004584899987094	r		473.2823624999728		SS MRS		2	f	3		
137	2990	8	Left Leg	Post-Trial Jitter		2024_Aug_02_1737	6.999143599998206	r		478.34349890006706		SS MRS		2	f	3		
138	2990	20	Left Leg	PainBinary		2024_Aug_02_1737	5.00284509989433	r		485.3583906000713	1.0837023999774829	SS MRS		2	f	3		1.0
139	2990	21	Left Leg	IntensityRating		2024_Aug_02_1737	5.011394800036214	r		490.3791700999718	3.7667111000046134	SS MRS		2	f	3		28.086419753086417
140	2990	23	Left Leg	DistractBinary		2024_Aug_02_1737	5.004966299980879	r		495.40747079998255	1.4667141999816522	SS MRS		2	f	3		1.0
141	2990	9	Left Leg	Post-Q-Jitter		2024_Aug_02_1737	6.9942753000650555	r		500.41287270002067		SS MRS		2	f	3		
142	2990	51	Left Leg	Expectancy		2024_Aug_02_1737	5.014230599976145	r		508.31129990005866	3.383511699968949	SS MRS		2	f	3		44.567901234567906
143	2990	44	Left Leg	0-back Instruction		2024_Aug_02_1737	5.000903300009668	r		513.7263698000461		SS MRS		2	f	3		
144	2990	7	Left Leg	Pre-Trial Jitter		2024_Aug_02_1737	7.000796200009063	r		518.7348365000216		SS MRS		2	f	3		
145	2990	44.0	Left Leg	pretrialfixation		2024_Aug_02_1737	1.008180300006643	r		526.0561754000373		SS MRS		2	f	3		
146	2990		Left Leg	0-back	1.0	2024_Aug_02_1737	1.9905104000354186	r	0.0	527.0650324000744	0.47973690007347614	SS MRS	12.5	2	f	3	48.5	
147	2990		Left Leg	0-back	1.0	2024_Aug_02_1737	1.9881700000260025	r	0.0	529.0745501000201	0.3841404999839142	SS MRS	25.0	2	f	3	48.5	
148	2990		Left Leg	0-back	1.0	2024_Aug_02_1737	1.988959199981764	r	0.0	531.0741853000363	0.3634020999306813	SS MRS	37.5	2	f	3	48.5	
149	2990		Left Leg	0-back	1.0	2024_Aug_02_1737	1.9890798000851646	r	0.0	533.0741578000598	0.34694800002034754	SS MRS	50.0	2	f	3	48.5	
150	2990		Left Leg	0-back	1.0	2024_Aug_02_1737	1.9885006999829784	r	0.0	535.0744174000574	0.35003540001343936	SS MRS	62.5	2	f	3	48.5	
151	2990		Left Leg	0-back	1.0	2024_Aug_02_1737	1.9890099000185728	r	0.0	537.0742368000792	0.34709639998618513	SS MRS	75.0	2	f	3	48.5	
152	2990		Left Leg	0-back	1.0	2024_Aug_02_1737	1.988993699895218	r	0.0	539.074262100039	0.3803697000257671	SS MRS	87.5	2	f	3	48.5	
153	2990		Left Leg	0-back	1.0	2024_Aug_02_1737	1.9890683999983594	r	0.0	541.0742403999902	0.3342372999759391	SS MRS	100.0	2	f	3	48.5	
154	2990	48.0	Left Leg	ScoreReport		2024_Aug_02_1737	5.00480160000734	r		543.0830929999938		SS MRS		2	f	3		
155	2990	8	Left Leg	Post-Trial Jitter		2024_Aug_02_1737	8.998822300112806	r		548.1445040000835		SS MRS		2	f	3		
156	2990	20	Left Leg	PainBinary		2024_Aug_02_1737	5.000874500023201	r		557.1602298000362	1.119414500077255	SS MRS		2	f	3		1.0
157	2990	21	Left Leg	IntensityRating		2024_Aug_02_1737	5.013161200098693	r		562.1791368999984	3.769019900006242	SS MRS		2	f	3		32.96296296296297
158	2990	23	Left Leg	DistractBinary		2024_Aug_02_1737	5.003228300018236	r		567.2091586000752	1.3003661000402644	SS MRS		2	f	3		1.0
159	2990	9	Left Leg	Post-Q-Jitter		2024_Aug_02_1737	9.009100600029342	r		572.21464130003		SS MRS		2	f	3		
160	2990	51	Left Leg	Expectancy		2024_Aug_02_1737	5.0132142001530156	r		582.1626616000431	4.3501351999584585	SS MRS		2	f	3		44.1358024691358
161	2990	45	Left Leg	2-back Instruction		2024_Aug_02_1737	4.999784100102261	r		587.577779800049		SS MRS		2	f	3		
162	2990	7	Left Leg	Pre-trial Jitter		2024_Aug_02_1737	5.003077000030316	r		592.5845349000301		SS MRS		2	f	3		
163	2990	44.0	Left Leg	pretrialfixation		2024_Aug_02_1737	1.0136663999874145	r		597.9042752999812		SS MRS		2	f	3		
164	2990		Left Leg	2-back	1.0	2024_Aug_02_1737	1.9881038999883458	r		598.9170411999803		SS MRS	12.5	2	f	3	48.5	
165	2990		Left Leg	2-back	1.0	2024_Aug_02_1737	1.9874913999810815	r		600.9257460000226		SS MRS	25.0	2	f	3	48.5	
166	2990		Left Leg	2-back	1.0	2024_Aug_02_1737	1.9874829000327736	r	0	602.9252980999881	0.4304547000210732	SS MRS	37.5	2	f	3	48.5	
167	2990		Left Leg	2-back	1.0	2024_Aug_02_1737	1.9876947000157088	r	2	604.9247920999769	0.6637491999426857	SS MRS	50.0	2	f	3	48.5	
168	2990		Left Leg	2-back	0.0	2024_Aug_02_1737	1.988831700058654	r	0	606.9247383000329	0.6478189999470487	SS MRS	50.0	2	f	3	48.5	
169	2990		Left Leg	2-back	1.0	2024_Aug_02_1737	1.988075100001879	r	2	608.9255600000033	0.5137974000535905	SS MRS	62.5	2	f	3	48.5	
170	2990		Left Leg	2-back	1.0	2024_Aug_02_1737	1.987818600027822	r	0	610.9257536000805	1.1472631000215188	SS MRS	75.0	2	f	3	48.5	
171	2990		Left Leg	2-back	1.0	2024_Aug_02_1737	1.9877069999929518	r	0	612.925775700016	0.8306784000014886	SS MRS	87.5	2	f	3	48.5	
172	2990	48.0	Left Leg	ScoreReport		2024_Aug_02_1737	5.011081500095315	r		614.9391319999704		SS MRS		2	f	3		
173	2990	8	Left Leg	Post-trial Jitter		2024_Aug_02_1737	5.000882200081833	r		619.9942822000012		SS MRS		2	f	3		
174	2990	20	Left Leg	PainBinary		2024_Aug_02_1737	5.003967000171542	r		625.009479100001	1.3504952000221238	SS MRS		2	f	3		1.0
175	2990	21	Left Leg	IntensityRating		2024_Aug_02_1737	5.010525400051847	r		630.0313095999882		SS MRS		2	f	3		26.851851851851855
176	2990	23	Left Leg	DistractBinary		2024_Aug_02_1737	5.00239490007516	r		635.0603873999789	1.2836152999661863	SS MRS		2	f	3		1.0
177	2990	9	Left Leg	Post-Q-Jitter		2024_Aug_02_1737	4.994495500111952	r		640.064387600054		SS MRS		2	f	3		
178	2990	51	Left Leg	Expectancy		2024_Aug_02_1737	5.009682700037956	r		646.0235182000324	4.250327000045218	SS MRS		2	f	3		36.23456790123456
179	2990	45	Left Leg	2-back Instruction		2024_Aug_02_1737	5.005092000006698	r		651.4342262999853		SS MRS		2	f	3		
180	2990	7	Left Leg	Pre-trial Jitter		2024_Aug_02_1737	9.001643699943088	r		656.45269559999		SS MRS		2	f	3		
181	2990	44.0	Left Leg	pretrialfixation		2024_Aug_02_1737	1.0118929999880493	r		665.7559999000514		SS MRS		2	f	3		
182	2990		Left Leg	2-back	1.0	2024_Aug_02_1737	1.9884958999464288	r		666.7677165999776		SS MRS	12.5	2	f	3	48.5	
183	2990		Left Leg	2-back	1.0	2024_Aug_02_1737	1.9872839999152347	r		668.7766524000326		SS MRS	25.0	2	f	3	48.5	
184	2990		Left Leg	2-back	1.0	2024_Aug_02_1737	1.9884059000760317	r	0	670.776122600073	0.5638785000192001	SS MRS	37.5	2	f	3	48.5	
185	2990		Left Leg	2-back	1.0	2024_Aug_02_1737	1.988123600021936	r	2	672.7762893000618	0.5139157999074087	SS MRS	50.0	2	f	3	48.5	
186	2990		Left Leg	2-back	1.0	2024_Aug_02_1737	1.9880315999034792	r	2	674.7763677000767	1.0503311000065878	SS MRS	62.5	2	f	3	48.5	
187	2990		Left Leg	2-back	1.0	2024_Aug_02_1737	1.988053800072521	r	2	676.7763799000531	0.7974372000899166	SS MRS	75.0	2	f	3	48.5	
188	2990		Left Leg	2-back	1.0	2024_Aug_02_1737	1.9880781000247225	r	0	678.7763764000265	0.4637563999276608	SS MRS	87.5	2	f	3	48.5	
189	2990		Left Leg	2-back	1.0	2024_Aug_02_1737	1.9877147001679987	r	2	680.7766085000476	0.7635625000111759	SS MRS	100.0	2	f	3	48.5	
190	2990	48.0	Left Leg	ScoreReport		2024_Aug_02_1737	5.001195600023493	r		682.7865558000049		SS MRS		2	f	3		
191	2990	8	Left Leg	Post-trial Jitter		2024_Aug_02_1737	7.000777600100264	r		687.8451836999739		SS MRS		2	f	3		
192	2990	20	Left Leg	PainBinary		2024_Aug_02_1737	5.001764100044966	r		694.8614366999827	1.1170647999970242	SS MRS		2	f	3		1.0
193	2990	21	Left Leg	IntensityRating		2024_Aug_02_1737	5.012178300064988	r		699.8812669999897	3.716727799968794	SS MRS		2	f	3		22.962962962962962
194	2990	23	Left Leg	DistractBinary		2024_Aug_02_1737	5.002812899998389	r		704.9110101000406	2.600351499975659	SS MRS		2	f	3		1.0
195	2990	9	Left Leg	Post-Q-Jitter		2024_Aug_02_1737	6.994997700094245	r		709.9149700000416		SS MRS		2	f	3		
196	2990	26	Left Leg	ComfortRating		2024_Aug_02_1737	5.693636000156403	r		716.9324551000027	5.652908500051126	SS MRS		2	f	3		-5.555555555555543
197	2990	24	Left Leg	ValenceRating		2024_Aug_02_1737	5.422818299965002	r		722.6511356000556	5.399954300024547	SS MRS		2	f	3		24.135802469135804
198	2990	26	Left Leg	IntensityRating		2024_Aug_02_1737	3.147478000028059	r		728.097186799976	3.1343996999785304	SS MRS		2	f	3		43.14814814814815
199	2990	27	Left Leg	AvoidanceRating		2024_Aug_02_1737	5.109724800102413	r		731.266254200018	5.0835059999953955	SS MRS		2	f	3		30.12345679012344
200	2990	28	Left Leg	RelaxationRating		2024_Aug_02_1737	4.081716799992137	r		736.3969752000412	4.067032799939625	SS MRS		2	f	3		20.74074074074074
201	2990	29	Left Leg	AttentionRating		2024_Aug_02_1737	4.656239700154401	r		740.501437400002	4.6335346000269055	SS MRS		2	f	3		49.25925925925927
202	2990	30	Left Leg	BoredomRating		2024_Aug_02_1737	5.213143199915066	r		745.1813760000514	5.183569699991494	SS MRS		2	f	3		4.444444444444443
203	2990	31	Left Leg	AlertnessRating		2024_Aug_02_1737	5.080781599972397	r		750.4142726999708	5.050185399944894	SS MRS		2	f	3		42.71604938271605
204	2990	32	Left Leg	PosThxRating		2024_Aug_02_1737	2.860500300070271	r		755.5161367000546	2.833509700023569	SS MRS		2	f	3		-1.1111111111111143
205	2990	33	Left Leg	NegThxRating		2024_Aug_02_1737	2.409313000040129	r		758.4000838000793	2.3834842999931425	SS MRS		2	f	3		0.0
206	2990	34	Left Leg	SelfRating		2024_Aug_02_1737	2.4771323000313714	r		760.8328706000466	2.4502890000585467	SS MRS		2	f	3		0.0
207	2990	35	Left Leg	OtherRating		2024_Aug_02_1737	2.545734200044535	r		763.3319350000238	2.5168436999665573	SS MRS		2	f	3		0.0
208	2990	32	Left Leg	ImageryRating		2024_Aug_02_1737	8.621916000032797	r		765.9022349000443	8.600133100058883	SS MRS		2	f	3		-77.1604938271605
209	2990	37	Left Leg	PresentRating		2024_Aug_02_1737	6.720160000142641	r		774.5532004000852	6.700381899951026	SS MRS		2	f	3		93.82716049382717
