	SID	biopac_channel	body_site	condition	correct	date	duration	handedness	mouseclick	onset	rt	scanner	score	session	sex	skin_site	temperature	value
0	3086	43	Left Leg	2-back Instruction		2024_Nov_14_1854	5.003997889143648	r		2.778052800014848		JD SS		3	f	2		
1	3086	7	Left Leg	Pre-trial Jitter		2024_Nov_14_1854	5.007126970012905	r		7.784498599998187		JD SS		3	f	2		
2	3086	44.0	Left Leg	pretrialfixation		2024_Nov_14_1854	0.9993672499840613	r		13.029721800005063		JD SS		3	f	2		
3	3086		Left Leg	2-back	1.0	2024_Nov_14_1854	1.9902678699872922	r		14.03469950001454		JD SS	12.5	3	f	2	32.0	
4	3086		Left Leg	2-back	1.0	2024_Nov_14_1854	1.9871840700216126	r		16.044563500006916		JD SS	25.0	3	f	2	32.0	
5	3086		Left Leg	2-back	1.0	2024_Nov_14_1854	1.9880697699845769	r	0	18.044151400012197	0.36342800001148134	JD SS	37.5	3	f	2	32.0	
6	3086		Left Leg	2-back	1.0	2024_Nov_14_1854	1.9877621699706651	r	2	20.04433780000545	0.43031409999821335	JD SS	50.0	3	f	2	32.0	
7	3086		Left Leg	2-back	1.0	2024_Nov_14_1854	1.9875368700304534	r	2	22.04446169998846	0.4470693000184838	JD SS	62.5	3	f	2	32.0	
8	3086		Left Leg	2-back	1.0	2024_Nov_14_1854	1.9880252699949779	r	2	24.044246300007217	0.43391560000600293	JD SS	75.0	3	f	2	32.0	
9	3086		Left Leg	2-back	1.0	2024_Nov_14_1854	1.986673370032804	r	2	26.04495740000857	0.41367819998413324	JD SS	87.5	3	f	2	32.0	
10	3086		Left Leg	2-back	1.0	2024_Nov_14_1854	1.987247369979741	r	2	28.0446884999983	0.5471417999942787	JD SS	100.0	3	f	2	32.0	
11	3086	48.0	Left Leg	ScoreReport		2024_Nov_14_1854	5.002193470019847	r		30.05391369998688		JD SS		3	f	2		
12	3086	8	Left Leg	Post-trial Jitter		2024_Nov_14_1854	6.996310980000999	r		35.1151833999902		JD SS		3	f	2		
13	3086	43	Left Leg	2-back Instruction		2024_Nov_14_1854	5.008517140027834	r		42.134209300013026		JD SS		3	f	2		
14	3086	7	Left Leg	Pre-trial Jitter		2024_Nov_14_1854	7.003285369981313	r		47.15359719999833		JD SS		3	f	2		
15	3086	44.0	Left Leg	pretrialfixation		2024_Nov_14_1854	1.0097600499575492	r		54.40001839998877		JD SS		3	f	2		
16	3086		Left Leg	2-back	1.0	2024_Nov_14_1854	1.9907238699670415	r		55.41828949999763		JD SS	12.5	3	f	2	32.0	
17	3086		Left Leg	2-back	1.0	2024_Nov_14_1854	1.987231070001144	r		57.428388500004075		JD SS	25.0	3	f	2	32.0	
18	3086		Left Leg	2-back	1.0	2024_Nov_14_1854	1.9883822700066958	r	2	59.42784340001526	0.5638437999878079	JD SS	37.5	3	f	2	32.0	
19	3086		Left Leg	2-back	1.0	2024_Nov_14_1854	1.9877595699799713	r	2	61.42813469999237	0.5472077000013087	JD SS	50.0	3	f	2	32.0	
20	3086		Left Leg	2-back	1.0	2024_Nov_14_1854	1.9878984699898865	r	0	63.42813290000777	0.5673091000062414	JD SS	62.5	3	f	2	32.0	
21	3086		Left Leg	2-back	1.0	2024_Nov_14_1854	1.9871423699951265	r	0	65.42855280000367	0.5340561000048183	JD SS	75.0	3	f	2	32.0	
22	3086		Left Leg	2-back	1.0	2024_Nov_14_1854	1.9875084699888248	r	2	67.4283296999929	0.4971969999896828	JD SS	87.5	3	f	2	32.0	
23	3086		Left Leg	2-back	1.0	2024_Nov_14_1854	1.988115470012417	r	2	69.42808889999287	0.530477799999062	JD SS	100.0	3	f	2	32.0	
24	3086	48.0	Left Leg	ScoreReport		2024_Nov_14_1854	5.0019773700332735	r		71.43788069998845		JD SS		3	f	2		
25	3086	8	Left Leg	Post-trial Jitter		2024_Nov_14_1854	8.999870180006837	r		76.49727459999849		JD SS		3	f	2		
26	3086	51	Left Leg	Expectancy		2024_Nov_14_1854	5.01331902993843	r		86.46406739999657	2.819598700007191	JD SS		3	f	2		37.098765432098766
27	3086	44	Left Leg	0-back Instruction		2024_Nov_14_1854	5.012195010000141	r		91.84072790000937		JD SS		3	f	2		
28	3086	7	Left Leg	Pre-Trial Jitter		2024_Nov_14_1854	5.003266070008976	r		96.85420830000658		JD SS		3	f	2		
29	3086	44.0	Left Leg	pretrialfixation		2024_Nov_14_1854	1.0013637599768117	r		102.14639760000864		JD SS		3	f	2		
30	3086		Left Leg	0-back	1.0	2024_Nov_14_1854	1.9921962700027507	r	0.0	103.15148629999021	0.39682140000513755	JD SS	12.5	3	f	2	47.5	
31	3086		Left Leg	0-back	1.0	2024_Nov_14_1854	1.9880436700186692	r	0.0	105.16191550000804	0.26381959998980165	JD SS	25.0	3	f	2	47.5	
32	3086		Left Leg	0-back	1.0	2024_Nov_14_1854	1.9884426700009499	r	0.0	107.16171509999549	0.2636476999905426	JD SS	37.5	3	f	2	47.5	
33	3086		Left Leg	0-back	1.0	2024_Nov_14_1854	1.989042069966672	r	0.0	109.16147580000688	0.23052960002678446	JD SS	50.0	3	f	2	47.5	
34	3086		Left Leg	0-back	1.0	2024_Nov_14_1854	1.9888923699909355	r	0.0	111.16157349999412	0.24699789998703636	JD SS	62.5	3	f	2	47.5	
35	3086		Left Leg	0-back	1.0	2024_Nov_14_1854	1.9890206699783448	r	0.0	113.16153640000266	0.30092229999718256	JD SS	75.0	3	f	2	47.5	
36	3086		Left Leg	0-back	1.0	2024_Nov_14_1854	1.988534169999184	r	0.0	115.16178659998695	0.31682370000635274	JD SS	87.5	3	f	2	47.5	
37	3086		Left Leg	0-back	1.0	2024_Nov_14_1854	1.9891860700154211	r	0.0	117.16149279999081	0.36386230000061914	JD SS	100.0	3	f	2	47.5	
38	3086	48.0	Left Leg	ScoreReport		2024_Nov_14_1854	5.005169269948965	r		119.17021330000716		JD SS		3	f	2		
39	3086	8	Left Leg	Post-Trial Jitter		2024_Nov_14_1854	8.998573479999322	r		124.23183730000164		JD SS		3	f	2		
40	3086	20	Left Leg	PainBinary		2024_Nov_14_1854	5.0056778399739414	r		133.24509290000424	0.8502738000242971	JD SS		3	f	2		1.0
41	3086	21	Left Leg	IntensityRating		2024_Nov_14_1854	5.000597940001171	r		138.26436999998987	2.850332800007891	JD SS		3	f	2		34.69135802469136
42	3086	23	Left Leg	DistractBinary		2024_Nov_14_1854	5.003922439995222	r		143.27943799999775	0.9528737000073306	JD SS		3	f	2		1.0
43	3086	9	Left Leg	Post-Q-Jitter		2024_Nov_14_1854	9.0107778700185	r		148.28447129999404		JD SS		3	f	2		
44	3086	51	Left Leg	Expectancy		2024_Nov_14_1854	5.002689489978366	r		158.22868860000744	2.7836651999969035	JD SS		3	f	2		42.59259259259259
45	3086	44	Left Leg	0-back Instruction		2024_Nov_14_1854	5.0092288099986035	r		163.5931150999968		JD SS		3	f	2		
46	3086	7	Left Leg	Pre-Trial Jitter		2024_Nov_14_1854	5.003178469982231	r		168.6051548999967		JD SS		3	f	2		
47	3086	44.0	Left Leg	pretrialfixation		2024_Nov_14_1854	1.0051095599774271	r		173.89542990000336		JD SS		3	f	2		
48	3086		Left Leg	0-back	1.0	2024_Nov_14_1854	1.991743470018264	r	0.0	174.90261479999754	0.9634817000187468	JD SS	12.5	3	f	2	47.5	
49	3086		Left Leg	0-back	1.0	2024_Nov_14_1854	1.9880945699987933	r	0.0	176.9127856999985	0.2804783000028692	JD SS	25.0	3	f	2	47.5	
50	3086		Left Leg	0-back	1.0	2024_Nov_14_1854	1.9889435700024478	r	0.0	178.91238600001088	0.30077249999158084	JD SS	37.5	3	f	2	47.5	
51	3086		Left Leg	0-back	1.0	2024_Nov_14_1854	1.9887794700043742	r	0.0	180.9124892000109	0.1971579999953974	JD SS	50.0	3	f	2	47.5	
52	3086		Left Leg	0-back	1.0	2024_Nov_14_1854	1.9894046699628234	r	0.0	182.91222019999987	0.23030309999012388	JD SS	62.5	3	f	2	47.5	
53	3086		Left Leg	0-back	1.0	2024_Nov_14_1854	1.988633970002411	r	0.0	184.91260989999864	0.31355639998218976	JD SS	75.0	3	f	2	47.5	
54	3086		Left Leg	0-back	1.0	2024_Nov_14_1854	1.9886988699727226	r	0.0	186.91260209999746	0.2638139000046067	JD SS	87.5	3	f	2	47.5	
55	3086		Left Leg	0-back	1.0	2024_Nov_14_1854	1.9891372699930798	r	0.0	188.91244139999617	0.313792500004638	JD SS	100.0	3	f	2	47.5	
56	3086	48.0	Left Leg	ScoreReport		2024_Nov_14_1854	5.005003269965528	r		190.92117630000575		JD SS		3	f	2		
57	3086	8	Left Leg	Post-Trial Jitter		2024_Nov_14_1854	7.002333179989364	r		195.98085739999078		JD SS		3	f	2		
58	3086	20	Left Leg	PainBinary		2024_Nov_14_1854	5.005697439977666	r		202.99596400000155	1.8004273000115063	JD SS		3	f	2		1.0
59	3086	21	Left Leg	IntensityRating		2024_Nov_14_1854	5.015424939978402	r		208.01618710000184	1.9502308999944944	JD SS		3	f	2		26.358024691358022
60	3086	23	Left Leg	DistractBinary		2024_Nov_14_1854	5.006743939971784	r		213.04560199999833	1.3336375000071712	JD SS		3	f	2		-1.0
61	3086	9	Left Leg	Post-Q-Jitter		2024_Nov_14_1854	7.0114071700081695	r		218.05168830000912		JD SS		3	f	2		
62	3086	51	Left Leg	Expectancy		2024_Nov_14_1854	5.013560399936978	r		226.0490095000132	3.683601800003089	JD SS		3	f	2		34.69135802469136
63	3086	45	Left Leg	2-back Instruction		2024_Nov_14_1854	5.015173309977399	r		231.42431360000046		JD SS		3	f	2		
64	3086	7	Left Leg	Pre-trial Jitter		2024_Nov_14_1854	7.002111170004355	r		236.4398904000118		JD SS		3	f	2		
65	3086	44.0	Left Leg	pretrialfixation		2024_Nov_14_1854	1.0041847599786706	r		243.73843140000827		JD SS		3	f	2		
66	3086		Left Leg	2-back	1.0	2024_Nov_14_1854	1.9908911699894816	r		244.7539068000042		JD SS	12.5	3	f	2	47.5	
67	3086		Left Leg	2-back	1.0	2024_Nov_14_1854	1.9873642699967604	r		246.76402309999685		JD SS	25.0	3	f	2	47.5	
68	3086		Left Leg	2-back	1.0	2024_Nov_14_1854	1.9878499700280372	r	0	248.76381380000385	0.4304384999850299	JD SS	37.5	3	f	2	47.5	
69	3086		Left Leg	2-back	1.0	2024_Nov_14_1854	1.9879286699870136	r	2	250.76376800000435	0.39711939997505397	JD SS	50.0	3	f	2	47.5	
70	3086		Left Leg	2-back	1.0	2024_Nov_14_1854	1.988187070004642	r	2	252.76369230001	0.48050330000114627	JD SS	62.5	3	f	2	47.5	
71	3086		Left Leg	2-back	1.0	2024_Nov_14_1854	1.987839969980996	r	2	254.763896199991	0.39710530001320876	JD SS	75.0	3	f	2	47.5	
72	3086		Left Leg	2-back	1.0	2024_Nov_14_1854	1.9874394700163975	r	2	256.76411809999263	0.5007551000162493	JD SS	87.5	3	f	2	47.5	
73	3086		Left Leg	2-back	1.0	2024_Nov_14_1854	1.9875896699959412	r	2	258.7640665000072	0.5137998000136577	JD SS	100.0	3	f	2	47.5	
74	3086	48.0	Left Leg	ScoreReport		2024_Nov_14_1854	5.002720570017118	r		260.77321899999515		JD SS		3	f	2		
75	3086	8	Left Leg	Post-trial Jitter		2024_Nov_14_1854	8.998953880014597	r		265.83339310000883		JD SS		3	f	2		
76	3086	20	Left Leg	PainBinary		2024_Nov_14_1854	5.006396639975719	r		274.84647560000303	2.400422600010643	JD SS		3	f	2		1.0
77	3086	21	Left Leg	IntensityRating		2024_Nov_14_1854	4.998853639990557	r		279.8670786000148		JD SS		3	f	2		36.23456790123456
78	3086	23	Left Leg	DistractBinary		2024_Nov_14_1854	5.006100440019509	r		284.8801301000058	2.683740799984662	JD SS		3	f	2		-1.0
79	3086	9	Left Leg	Post-Q-Jitter		2024_Nov_14_1854	9.01112296996871	r		289.88607229999616		JD SS		3	f	2		
80	3086	51	Left Leg	Expectancy		2024_Nov_14_1854	5.008547459932743	r		299.84417240001494	3.63366930000484	JD SS		3	f	2		34.01234567901235
81	3086	45	Left Leg	2-back Instruction		2024_Nov_14_1854	5.012870309990831	r		305.20972469999106		JD SS		3	f	2		
82	3086	7	Left Leg	Pre-trial Jitter		2024_Nov_14_1854	5.00118857002235	r		310.22458080001525		JD SS		3	f	2		
83	3086	44.0	Left Leg	pretrialfixation		2024_Nov_14_1854	1.0038892899465282	r		315.4978150000097		JD SS		3	f	2		
84	3086		Left Leg	2-back	1.0	2024_Nov_14_1854	1.9899438699649181	r		316.5052757000085		JD SS	12.5	3	f	2	47.5	
85	3086		Left Leg	2-back	1.0	2024_Nov_14_1854	1.987523069983581	r		318.5148557999928		JD SS	25.0	3	f	2	47.5	
86	3086		Left Leg	2-back	1.0	2024_Nov_14_1854	1.98847377000493	r	0	320.5143970999925	0.49697560002096	JD SS	37.5	3	f	2	47.5	
87	3086		Left Leg	2-back	1.0	2024_Nov_14_1854	1.9881328699702863	r	2	322.5145981000096	0.4137520000222139	JD SS	50.0	3	f	2	47.5	
88	3086		Left Leg	2-back	1.0	2024_Nov_14_1854	1.988157469953876	r	2	324.5146001999965	0.44716529999277554	JD SS	62.5	3	f	2	47.5	
89	3086		Left Leg	2-back	1.0	2024_Nov_14_1854	1.9881263700081035	r	2	326.51465910000843	0.41714790000696667	JD SS	75.0	3	f	2	47.5	
90	3086		Left Leg	2-back	0.0	2024_Nov_14_1854	1.9879378699697554	r	2	328.51474780001445	0.4341293999750633	JD SS	75.0	3	f	2	47.5	
91	3086		Left Leg	2-back	1.0	2024_Nov_14_1854	1.9877591699769255	r	2	330.5148832999985	0.5137845000135712	JD SS	87.5	3	f	2	47.5	
92	3086	48.0	Left Leg	ScoreReport		2024_Nov_14_1854	5.012548739963677	r		332.52750140000717		JD SS		3	f	2		
93	3086	8	Left Leg	Post-trial Jitter		2024_Nov_14_1854	5.000028879963793	r		337.58377570001176		JD SS		3	f	2		
94	3086	20	Left Leg	PainBinary		2024_Nov_14_1854	5.0064573400013614	r		342.5973256000143	1.1669732999871485	JD SS		3	f	2		1.0
95	3086	21	Left Leg	IntensityRating		2024_Nov_14_1854	5.0133165400184225	r		347.61902099999133		JD SS		3	f	2		25.37037037037037
96	3086	23	Left Leg	DistractBinary		2024_Nov_14_1854	5.008399440033827	r		352.6464978000149	3.9835666000144556	JD SS		3	f	2		1.0
97	3086	9	Left Leg	Post-Q-Jitter		2024_Nov_14_1854	4.9935469700430986	r		357.6539984999981		JD SS		3	f	2		
98	3086	42	Left Leg	0-back Instruction		2024_Nov_14_1854	5.009211439988576	r		362.6712053999945		JD SS		3	f	2		
99	3086	7	Left Leg	Pre-Trial Jitter		2024_Nov_14_1854	9.004183869983535	r		367.69051350001246		JD SS		3	f	2		
100	3086	44.0	Left Leg	pretrialfixation		2024_Nov_14_1854	1.0012492499954533	r		376.93330330000026		JD SS		3	f	2		
101	3086		Left Leg	0-back	1.0	2024_Nov_14_1854	1.9894045700202696	r	0.0	377.93966179998824	0.48023129999637604	JD SS	12.5	3	f	2	32.0	
102	3086		Left Leg	0-back	1.0	2024_Nov_14_1854	1.9882850699941628	r	0.0	379.94857649999904	0.23362869999255054	JD SS	25.0	3	f	2	32.0	
103	3086		Left Leg	0-back	1.0	2024_Nov_14_1854	1.9894872699806	r	0.0	381.94799740001326	0.3140322999970522	JD SS	37.5	3	f	2	32.0	
104	3086		Left Leg	0-back	1.0	2024_Nov_14_1854	1.9894123699923512	r	0.0	383.9480498000048	0.39718480000738055	JD SS	50.0	3	f	2	32.0	
105	3086		Left Leg	0-back	1.0	2024_Nov_14_1854	1.9891353699786123	r	0.0	385.94821140001295	0.2835089000000153	JD SS	62.5	3	f	2	32.0	
106	3086		Left Leg	0-back	1.0	2024_Nov_14_1854	1.9891433700104244	r	0.0	387.9482252000016	0.3637948000105098	JD SS	75.0	3	f	2	32.0	
107	3086		Left Leg	0-back	1.0	2024_Nov_14_1854	1.989177169976756	r	0.0	389.94825019998825	0.33034269997733645	JD SS	87.5	3	f	2	32.0	
108	3086		Left Leg	0-back	1.0	2024_Nov_14_1854	1.9895871700136922	r	0.0	391.9480734000099	0.30069199998979457	JD SS	100.0	3	f	2	32.0	
109	3086	48.0	Left Leg	ScoreReport		2024_Nov_14_1854	5.0055872699886095	r		393.9567766000109		JD SS		3	f	2		
110	3086	8	Left Leg	Post-Trial Jitter		2024_Nov_14_1854	8.999915579974186	r		399.01795700000366		JD SS		3	f	2		
111	3086	42	Left Leg	0-back Instruction		2024_Nov_14_1854	5.009313639980974	r		408.0384008999972		JD SS		3	f	2		
112	3086	7	Left Leg	Pre-Trial Jitter		2024_Nov_14_1854	5.002530769997975	r		413.05855610000435		JD SS		3	f	2		
113	3086	44.0	Left Leg	pretrialfixation		2024_Nov_14_1854	1.0079028500185814	r		418.30550059999223		JD SS		3	f	2		
114	3086		Left Leg	0-back	0.0	2024_Nov_14_1854	1.9924293700023554	r		419.3219999000139		JD SS	0.0	3	f	2	32.0	
115	3086		Left Leg	0-back	1.0	2024_Nov_14_1854	1.9872883700300008	r	0	421.3329037000076	0.21362569998018444	JD SS	12.5	3	f	2	32.0	
116	3086		Left Leg	0-back	1.0	2024_Nov_14_1854	1.9872240700060502	r	0	423.33296930001234	0.2971570000227075	JD SS	25.0	3	f	2	32.0	
117	3086		Left Leg	0-back	1.0	2024_Nov_14_1854	1.9880062699667178	r	0	425.3326105999877	0.23040589998709038	JD SS	37.5	3	f	2	32.0	
118	3086		Left Leg	0-back	1.0	2024_Nov_14_1854	1.986928269994678	r	0	427.3331754000101	0.1304377999913413	JD SS	50.0	3	f	2	32.0	
119	3086		Left Leg	0-back	1.0	2024_Nov_14_1854	1.987722269986989	r	0	429.33280549998744	0.29727869998896495	JD SS	62.5	3	f	2	32.0	
120	3086		Left Leg	0-back	1.0	2024_Nov_14_1854	1.9868340700049885	r	0	431.33327199998894	0.2638642000092659	JD SS	75.0	3	f	2	32.0	
121	3086		Left Leg	0-back	1.0	2024_Nov_14_1854	1.9875182700052392	r	0	433.33295250000083	0.2677813000045717	JD SS	87.5	3	f	2	32.0	
122	3086	48.0	Left Leg	ScoreReport		2024_Nov_14_1854	5.011465840012534	r		435.3459881999879		JD SS		3	f	2		
123	3086	8	Left Leg	Post-Trial Jitter		2024_Nov_14_1854	9.000161979987752	r		440.4016704999958		JD SS		3	f	2		
124	3086	51	Left Leg	Expectancy		2024_Nov_14_1854	4.999375519983005	r		450.31736079999246	3.2836476000084076	JD SS		3	f	2		37.96296296296296
125	3086	44	Left Leg	0-back Instruction		2024_Nov_14_1854	5.018039110000245	r		455.68402389998664		JD SS		3	f	2		
126	3086	7	Left Leg	Pre-Trial Jitter		2024_Nov_14_1854	5.003087069984758	r		460.70885460000136		JD SS		3	f	2		
127	3086	44.0	Left Leg	pretrialfixation		2024_Nov_14_1854	1.0056458899925929	r		465.9821755999874		JD SS		3	f	2		
128	3086		Left Leg	0-back	1.0	2024_Nov_14_1854	1.990985370008275	r	0.0	466.98998220000067	0.6304252999834716	JD SS	12.5	3	f	2	47.5	
129	3086		Left Leg	0-back	1.0	2024_Nov_14_1854	1.9881228699814528	r	0.0	468.9997641000082	0.24709379998967052	JD SS	25.0	3	f	2	47.5	
130	3086		Left Leg	0-back	1.0	2024_Nov_14_1854	1.988847069995245	r	0.0	470.99943140000687	0.213416699989466	JD SS	37.5	3	f	2	47.5	
131	3086		Left Leg	0-back	1.0	2024_Nov_14_1854	1.9892024699947797	r	0.0	472.9992681000149	0.3137637000181712	JD SS	50.0	3	f	2	47.5	
132	3086		Left Leg	0-back	1.0	2024_Nov_14_1854	1.9887036699801683	r	0.0	474.99954610000714	0.4841683999984525	JD SS	62.5	3	f	2	47.5	
133	3086		Left Leg	0-back	1.0	2024_Nov_14_1854	1.9892765700060409	r	0.0	476.9992750000092	0.31379630000446923	JD SS	75.0	3	f	2	47.5	
134	3086		Left Leg	0-back	1.0	2024_Nov_14_1854	1.9887724700383842	r	0.0	478.99955169999157	0.26366220001364127	JD SS	87.5	3	f	2	47.5	
135	3086		Left Leg	0-back	1.0	2024_Nov_14_1854	1.9892611699760891	r	0.0	480.9993542000011	0.38050359999760985	JD SS	100.0	3	f	2	47.5	
136	3086	48.0	Left Leg	ScoreReport		2024_Nov_14_1854	5.005099170026369	r		483.0081202000147		JD SS		3	f	2		
137	3086	8	Left Leg	Post-Trial Jitter		2024_Nov_14_1854	9.0012518800213	r		488.0683929999941		JD SS		3	f	2		
138	3086	20	Left Leg	PainBinary		2024_Nov_14_1854	5.005143740010681	r		497.0832531999913	1.3003144999966025	JD SS		3	f	2		-1.0
139	3086	21	Left Leg	IntensityRating		2024_Nov_14_1854	4.998352140013594	r		502.1033812999958	2.916927799989935	JD SS		3	f	2		16.11111111111111
140	3086	9	Left Leg	Post-Q-Jitter		2024_Nov_14_1854	8.994907569984207	r		507.1052220000129		JD SS		3	f	2		
141	3086	51	Left Leg	Expectancy		2024_Nov_14_1854	5.0065909099939745	r		516.9646814000153	2.8836296999943443	JD SS		3	f	2		32.28395061728395
142	3086	44	Left Leg	0-back Instruction		2024_Nov_14_1854	5.012084109999705	r		522.3378526000015		JD SS		3	f	2		
143	3086	7	Left Leg	Pre-Trial Jitter		2024_Nov_14_1854	5.002618270053063	r		527.3599281999923		JD SS		3	f	2		
144	3086	44.0	Left Leg	pretrialfixation		2024_Nov_14_1854	0.9974163899896666	r		532.6371074999915		JD SS		3	f	2		
145	3086		Left Leg	0-back	1.0	2024_Nov_14_1854	1.9900915699836332	r	0.0	533.641248400003	0.5137041000125464	JD SS	12.5	3	f	2	47.5	
146	3086		Left Leg	0-back	1.0	2024_Nov_14_1854	1.9883973700052593	r	0.0	535.650461000012	0.2139051000121981	JD SS	25.0	3	f	2	47.5	
147	3086		Left Leg	0-back	1.0	2024_Nov_14_1854	1.9890882699983194	r	0.0	537.6501272000023	0.23047330000554211	JD SS	37.5	3	f	2	47.5	
148	3086		Left Leg	0-back	1.0	2024_Nov_14_1854	1.989247070014244	r	0.0	539.6500908999878	0.33064400000148453	JD SS	50.0	3	f	2	47.5	
149	3086		Left Leg	0-back	1.0	2024_Nov_14_1854	1.9891623700095806	r	0.0	541.6501512000104	0.31387759998324327	JD SS	62.5	3	f	2	47.5	
150	3086		Left Leg	0-back	1.0	2024_Nov_14_1854	1.9891202700382564	r	0.0	543.6501979999884	0.43052689998876303	JD SS	75.0	3	f	2	47.5	
151	3086		Left Leg	0-back	1.0	2024_Nov_14_1854	1.98921086997143	r	0.0	545.6501871999935	0.28050490000168793	JD SS	87.5	3	f	2	47.5	
152	3086		Left Leg	0-back	1.0	2024_Nov_14_1854	1.9889403699780814	r	0.0	547.6503298000025	0.2801045999804046	JD SS	100.0	3	f	2	47.5	
153	3086	48.0	Left Leg	ScoreReport		2024_Nov_14_1854	5.004965469968738	r		549.6590193000156		JD SS		3	f	2		
154	3086	8	Left Leg	Post-Trial Jitter		2024_Nov_14_1854	9.001832780020777	r		554.7189359999902		JD SS		3	f	2		
155	3086	20	Left Leg	PainBinary		2024_Nov_14_1854	5.00602303998312	r		563.7336574000074	2.083547100017313	JD SS		3	f	2		1.0
156	3086	21	Left Leg	IntensityRating		2024_Nov_14_1854	4.99784474002081	r		568.7544695000106	2.968121499987319	JD SS		3	f	2		17.901234567901238
157	3086	23	Left Leg	DistractBinary		2024_Nov_14_1854	5.007564339990495	r		573.766343700001	1.9668309999979101	JD SS		3	f	2		-1.0
158	3086	9	Left Leg	Post-Q-Jitter		2024_Nov_14_1854	8.9949021700304	r		578.7727901999897		JD SS		3	f	2		
159	3086	51	Left Leg	Expectancy		2024_Nov_14_1854	5.007053189940052	r		588.7069406000082		JD SS		3	f	2		28.39506172839506
160	3086	45	Left Leg	2-back Instruction		2024_Nov_14_1854	5.004123309976421	r		594.0843902000051		JD SS		3	f	2		
161	3086	7	Left Leg	Pre-trial Jitter		2024_Nov_14_1854	5.002348169975448	r		599.0943036999961		JD SS		3	f	2		
162	3086	44.0	Left Leg	pretrialfixation		2024_Nov_14_1854	1.0072105599974748	r		604.3831169999903		JD SS		3	f	2		
163	3086		Left Leg	2-back	1.0	2024_Nov_14_1854	1.9899901699682232	r		605.3922147999983		JD SS	12.5	3	f	2	47.5	
164	3086		Left Leg	2-back	1.0	2024_Nov_14_1854	1.9874511700181756	r		607.4018225999898		JD SS	25.0	3	f	2	47.5	
165	3086		Left Leg	2-back	1.0	2024_Nov_14_1854	1.9878202700056136	r	2	609.4016628999962	0.36367279998376034	JD SS	37.5	3	f	2	47.5	
166	3086		Left Leg	2-back	1.0	2024_Nov_14_1854	1.9875531700090505	r	2	611.4018234999967	0.3637927999952808	JD SS	50.0	3	f	2	47.5	
167	3086		Left Leg	2-back	1.0	2024_Nov_14_1854	1.9878878699964844	r	0	613.401672100008	0.5137992999807466	JD SS	62.5	3	f	2	47.5	
168	3086		Left Leg	2-back	1.0	2024_Nov_14_1854	1.9880928700149525	r	0	615.4015960000106	0.5468759999785107	JD SS	75.0	3	f	2	47.5	
169	3086		Left Leg	2-back	1.0	2024_Nov_14_1854	1.9881109699781518	r	2	617.401629800006	0.48046469999826513	JD SS	87.5	3	f	2	47.5	
170	3086		Left Leg	2-back	1.0	2024_Nov_14_1854	1.9872079699707683	r	2	619.402084900008	0.5968838999979198	JD SS	100.0	3	f	2	47.5	
171	3086	48.0	Left Leg	ScoreReport		2024_Nov_14_1854	5.001539970020531	r		621.4116495999915		JD SS		3	f	2		
172	3086	8	Left Leg	Post-trial Jitter		2024_Nov_14_1854	8.998619279969716	r		626.4714417000068		JD SS		3	f	2		
173	3086	20	Left Leg	PainBinary		2024_Nov_14_1854	5.005277739983285	r		635.4849266000092	2.1673265999997966	JD SS		3	f	2		1.0
174	3086	21	Left Leg	IntensityRating		2024_Nov_14_1854	5.00061344000278	r		640.5039741999935	2.9007913000241388	JD SS		3	f	2		24.753086419753085
175	3086	23	Left Leg	DistractBinary		2024_Nov_14_1854	5.0075678400171455	r		645.5172337999975	2.9669669000140857	JD SS		3	f	2		-1.0
176	3086	9	Left Leg	Post-Q-Jitter		2024_Nov_14_1854	9.009974569984479	r		650.5244864000124		JD SS		3	f	2		
177	3086	51	Left Leg	Expectancy		2024_Nov_14_1854	5.006864979950478	r		660.5826973000076	4.317004699987592	JD SS		3	f	2		28.950617283950614
178	3086	45	Left Leg	2-back Instruction		2024_Nov_14_1854	5.01437570998678	r		665.9468253999949		JD SS		3	f	2		
179	3086	7	Left Leg	Pre-trial Jitter		2024_Nov_14_1854	5.003668470017146	r		670.9611952000123		JD SS		3	f	2		
180	3086	44.0	Left Leg	pretrialfixation		2024_Nov_14_1854	1.0084778599848505	r		676.2583569000126		JD SS		3	f	2		
181	3086		Left Leg	2-back	1.0	2024_Nov_14_1854	1.9916403699899092	r		677.2756223999895		JD SS	12.5	3	f	2	47.5	
182	3086		Left Leg	2-back	1.0	2024_Nov_14_1854	1.9870017700013705	r		679.2862697000091		JD SS	25.0	3	f	2	47.5	
183	3086		Left Leg	2-back	1.0	2024_Nov_14_1854	1.9878001699980814	r	0	681.2859313999943	0.43059299999731593	JD SS	37.5	3	f	2	47.5	
184	3086		Left Leg	2-back	1.0	2024_Nov_14_1854	1.987982769991504	r	2	683.2858464999881	0.6470010000048205	JD SS	50.0	3	f	2	47.5	
185	3086		Left Leg	2-back	1.0	2024_Nov_14_1854	1.9880604700301774	r	2	685.2858356999932	0.43381159999989904	JD SS	62.5	3	f	2	47.5	
186	3086		Left Leg	2-back	1.0	2024_Nov_14_1854	1.9880815700162202	r	2	687.2858586999937	0.4133502999902703	JD SS	75.0	3	f	2	47.5	
187	3086		Left Leg	2-back	1.0	2024_Nov_14_1854	1.987755570007721	r	0	689.2860450000153	0.4668039999960456	JD SS	87.5	3	f	2	47.5	
188	3086		Left Leg	2-back	1.0	2024_Nov_14_1854	1.987948870024411	r	2	691.2859561000078	0.53030059998855	JD SS	100.0	3	f	2	47.5	
189	3086	48.0	Left Leg	ScoreReport		2024_Nov_14_1854	5.00222016996122	r		693.2954927000101		JD SS		3	f	2		
190	3086	8	Left Leg	Post-trial Jitter		2024_Nov_14_1854	5.011359079973772	r		698.3576235999935		JD SS		3	f	2		
191	3086	20	Left Leg	PainBinary		2024_Nov_14_1854	5.005446440016385	r		703.3857041000156	1.83362489999854	JD SS		3	f	2		1.0
192	3086	21	Left Leg	IntensityRating		2024_Nov_14_1854	5.014237640018109	r		708.4063103999943	4.2502910000039265	JD SS		3	f	2		18.765432098765434
193	3086	23	Left Leg	DistractBinary		2024_Nov_14_1854	5.006401939986972	r		713.4353053999948	1.716910099989036	JD SS		3	f	2		-1.0
194	3086	9	Left Leg	Post-Q-Jitter		2024_Nov_14_1854	4.994952070032014	r		718.4411618000013		JD SS		3	f	2		
195	3086	26	Left Leg	ComfortRating		2024_Nov_14_1854	3.399542539991671	r		723.4556106000091	3.3837888999842107	JD SS		3	f	2		24.814814814814824
196	3086	24	Left Leg	ValenceRating		2024_Nov_14_1854	2.646450040017953	r		726.8738487999944	2.6169057000079192	JD SS		3	f	2		42.65432098765432
197	3086	26	Left Leg	IntensityRating		2024_Nov_14_1854	2.7517807399854064	r		729.537897000002	2.7194238000083715	JD SS		3	f	2		46.04938271604939
198	3086	27	Left Leg	AvoidanceRating		2024_Nov_14_1854	3.5637091400276404	r		732.3069719999912	3.5335758000146598	JD SS		3	f	2		-6.543209876543216
199	3086	28	Left Leg	RelaxationRating		2024_Nov_14_1854	2.271567940013483	r		735.8863975999993	2.2504007999959867	JD SS		3	f	2		65.55555555555556
200	3086	29	Left Leg	AttentionRating		2024_Nov_14_1854	2.7631574400002137	r		738.1739656999998	2.733576800004812	JD SS		3	f	2		37.71604938271605
201	3086	30	Left Leg	BoredomRating		2024_Nov_14_1854	1.7035776400007308	r		740.9538010999968	1.683661300019594	JD SS		3	f	2		61.23456790123457
202	3086	31	Left Leg	AlertnessRating		2024_Nov_14_1854	2.4694602399831638	r		742.67089020001	2.4503260999917984	JD SS		3	f	2		-43.20987654320988
203	3086	32	Left Leg	PosThxRating		2024_Nov_14_1854	2.282617740012938	r		745.1560308999906	2.2670425999967847	JD SS		3	f	2		50.37037037037038
204	3086	33	Left Leg	NegThxRating		2024_Nov_14_1854	1.579974240012234	r		747.4573670999962	1.5502151000255253	JD SS		3	f	2		-41.604938271604944
205	3086	34	Left Leg	SelfRating		2024_Nov_14_1854	1.5835721399926115	r		749.0555856999999	1.5671139999758452	JD SS		3	f	2		48.02469135802468
206	3086	35	Left Leg	OtherRating		2024_Nov_14_1854	2.301731940009631	r		750.6548629000026	2.2836825999838766	JD SS		3	f	2		25.80246913580247
207	3086	32	Left Leg	ImageryRating		2024_Nov_14_1854	3.262652139965212	r		752.9744349000102	3.2335846000059973	JD SS		3	f	2		51.111111111111114
208	3086	37	Left Leg	PresentRating		2024_Nov_14_1854	3.7783079400251154	r		756.258307799988	3.7502400999946985	JD SS		3	f	2		-47.037037037037045
