	order	onset	duration	rt	correct
0	2		0.0	[]	[]
1	2		0.0	[]	[]
2	2		0.0	[]	[]
3	2		0.0	[]	[]
4	2		0.0	[]	[]
5	2		0.0	[]	[]
6	2		0.0	[]	[]
7	2		0.0	[]	[]
8	2		0.0	[]	[]
9	2		0.0	[]	[]
10	2		0.0	[]	[]
11	2		0.0	[]	[]
12	2		0.0	[]	[]
13	2	120.23531899997033	0.1837952706264332		0
14	2	120.41865150001831	1.99098467011936		1
15	2	122.41865670005791	1.9899763701250777		1
16	2	124.41868530004285	1.9906478701159358		1
17	2	126.41870260005817	1.9908866699552163		1
18	2	128.41871040000115	1.9909653699724004		1
19	2	130.41872820002027	1.99117746995762		1
20	2	132.41874460002873	1.9908944700146094	0.8170473999343812	1
21	2	134.41873589996248	1.9911799699766561		1
22	2	136.41875019995496	1.990904669975862		1
23	2	138.41876729996875	1.9911291700555012	0.5336929999757558	1
24	2	140.41880179999862	1.9908353700302541		1
25	2	142.4188189000124	1.9910274699795991		1
26	2	144.41882370004896	1.9910626700147986		1
27	2	146.41885909996927	1.9908383700530976		1
28	2	148.41885749995708	1.9911392700159922		1
29	2	150.41888070001733	1.9901052699424326	0.4836714999983087	1
30	2	152.41888430004474	1.9908783700084314		1
31	2	154.4189113000175	1.9910673699341714	0.9003231999231502	0
32	2	156.41891030000988	1.991006370051764	1.2035206999862567	1
33	2	158.41893000004347	1.991214669891633		1
34	2	160.41894840006717	1.9912006700178608		1
35	2	162.41896170005202	1.990978269954212		1
36	2	164.41896709997673	1.991011569974944		1
37	2	166.41899090004154	1.9908877700800076		1
38	2	168.41901029995643	1.9908314700005576	0.5336732000578195	1
39	2	170.419019700028	1.9910201700404286		1
40	2	172.4190378000494	1.9912596700014547		1
41	2	174.41905779996887	1.9911400700220838	0.7668999000452459	1
42	2	176.41905070003122	1.9902259700465947		1
43	2	178.41908110002987	1.990931470063515	0.5502756999339908	0
44	2	180.41910589998588	1.9910874699708074		1
45	2	182.41910900000948	1.9909434700384736		1
46	2	184.4191276000347	1.991171170026064		1
47	2	186.41914410004392	1.9907113700173795		1
48	2	188.41916240006685	1.9910063699353486	0.5002617000136524	1
49	2	190.4191566000227	1.9911986698862165		1
50	2	192.419267600053	1.9910483700223267		1
51	2	194.4192034000298	1.9912007700186223	0.5502807999728248	1
52	2	196.41921359999105	1.9907510700868443		1
53	2	198.41923010000028	1.990780770080164		1
54	2	200.41924179997295	1.9909479699563235		1
55	2	202.41926710004918	1.9910196700366214		1
56	2	204.41926460003015	1.9912315699039027	0.4169868999160826	1
57	2	206.41929310001433	1.990905369981192		1
58	2	208.41930970002431	1.991202270030044		1
59	2	210.41931599995587	1.9912423699861392		1
60	2	212.41932430001907	1.9912898699985817		1
61	2	214.41935460001696	1.9908773698844016	0.5669254999374971	0
62	2	216.4193769999547	1.9906433699652553		1
63	2	218.41937779996078	1.9910622700117528		1
64	2	220.4193990000058	1.9910007698927075		1
65	2	222.4194140000036	1.991119569982402	0.4002529999706894	1
66	2	224.41941980004776	1.990861069993116		1
67	2	226.4194665000541	1.9909858700120822		1
68	2	228.41946010000538	1.991335769998841		1
69	2	230.4194840999553	1.9910949700279161	0.8003176000202075	0
70	2	232.4194903000025	1.99136887001805	1.0836562999757007	1
71	2	234.4194995999569	1.9910451701143757		1
72	2	236.41951939999126	1.9907807699637488		1
73	2	238.41953269997612	1.9908931700047106	0.6169448000146076	1
74	2	240.41955280001275	1.9910685700597242		1
75	2	242.41956800001208	1.9907460699323565		1
76	2	244.41957370005548	1.9910331699065864		1
77	2	246.41959179996047	1.9909395701251924		1
78	2	248.4196214999538	1.990678770118393		1
79	2	250.41961460001767	1.9910847699502483		1
80	2	252.41963670006953	1.9908255700720474	0.7030117000686005	1
81	2	254.41965219995473	1.9909302699379623		1
82	2	256.4196624000324	1.9908946700161323		1
83	2	258.4196840999648	1.9908149699913338	0.4003212000243366	1
84	2	260.41916990000755	1.9910349699202925		1
85	2	262.4197087000357	1.9912559700896963		1
86	2	264.4197305999696	1.991206070058979		1
87	2	266.419729599962	1.9897987699368969		1
88	2	268.4197534000268	1.9910645700292662		1
89	2	270.41977220005356	1.9910098700784147	0.3670058000134304	1
90	2	272.4197736000642	1.9906714700628072	0.7336294000269845	0
91	2	274.4197742000688	1.9911087699001655	0.7836873000487685	0
92	2	276.41981930006295	1.990939470124431	1.4537052999949083	1
93	2	278.4197979000164	1.9910409700823948		1
94	2	280.41983659996185	1.991242670104839		1
95	2	282.4198618000373	1.9910533700603992		1
96	2	284.4198838999728	1.990844069980085		1
97	2	286.4198795000557	1.9908166700042784		1
98	2	288.4198835999705	1.9910898699890822	0.4697773000225425	1
99	2	290.41993390000425	1.990723569993861		1
100	2	292.41991810000036	1.990261169965379		1
101	2	294.41994759999216	1.991141470032744	0.9837303999811411	1
102	2	296.41996309999377	1.990764670073986		1
103	2	298.41996490000747	1.9911860700231045		1
104	2	300.41997709998395	1.9904755699681118		1
105	2	302.42001490003895	1.9909310700604692		1
106	2	304.41999179997947	1.9902533700224012		1
107	2	306.420032300055	1.9910443699918687		1
108	2	308.4200534999836	1.9910817699274048	0.616948000038974	1
109	2	310.4200700999936	1.9911612699506804		1
110	2	312.42008159996476	1.9910711700795218		1
111	2	314.42009410005994	1.9912817699369043	0.367384200100787	1
112	2	316.4201156999916	1.9909879700280726		1
113	2	318.4201200000243	1.9911584700457752	0.5170812999131158	0
114	2	320.42021260003094	1.9908634700113907		1
115	2	322.4201608999865	1.9910172700183466		1
116	2	324.4201735999668	1.9907679700991139	0.4170446000061929	1
117	2	326.4201888999669	1.9907262700144202		1
118	2	328.4202019000659	1.991054269950837		1
119	2	330.4202161000576	1.9912262699799612		1
