	SID	date	sex	session	handedness	scanner	onset	duration	repetition	rating	body_site	keys	temperature	conditionrt	mouseclick	biopac_channel	condition	rt	value	skin_site
0	3012	2024_Aug_30_1839	m	2	r	MS SS	2.781933299964294	5.015190511709079			Left Leg					41	Regulation Instruction			3
1	3012	2024_Aug_30_1839	m	2	r	MS SS	8.105919599998742	7.0118639001157135			Left Leg					7	Pre-Trial Jitter			3
2	3012	2024_Aug_30_1839	m	2	r	MS SS	15.145027099875733	13.000485999975353			Left Leg		48.5			15	Heat-Stimulation			3
3	3012	2024_Aug_30_1839	m	2	r	MS SS	28.186552800005302	7.001018199836835			Left Leg					8	Post-Trial Jitter			3
4	3012	2024_Aug_30_1839	m	2	r	MS SS	35.21446209982969	5.012036500032991			Left Leg					20	PainBinary	2.3833918999880552	1.0	3
5	3012	2024_Aug_30_1839	m	2	r	MS SS	40.249477199977264	5.008777600014582			Left Leg					21	IntensityRating	2.466754199936986	26.97530864197531	3
6	3012	2024_Aug_30_1839	m	2	r	MS SS	45.28247360000387	5.0095666002016515			Left Leg					52	AcceptBinary	3.2834449999500066	1.0	3
7	3012	2024_Aug_30_1839	m	2	r	MS SS	50.29955769982189	9.00893809995614			Left Leg					9	Post-Q-Jitter			3
8	3012	2024_Aug_30_1839	m	2	r	MS SS	59.52845319989137	7.001412300160155			Left Leg					7	Pre-Trial Jitter			3
9	3012	2024_Aug_30_1839	m	2	r	MS SS	66.58497689990327	13.005234999815002			Left Leg		48.5			15	Heat-Stimulation			3
10	3012	2024_Aug_30_1839	m	2	r	MS SS	79.63563989987597	9.004091199953109			Left Leg					8	Post-Trial Jitter			3
11	3012	2024_Aug_30_1839	m	2	r	MS SS	88.66440189979039	4.99673300026916			Left Leg					20	PainBinary	1.1668936999049038	1.0	3
12	3012	2024_Aug_30_1839	m	2	r	MS SS	93.68086909991689	5.014029199955985			Left Leg					21	IntensityRating	1.9169888000469655	26.172839506172842	3
13	3012	2024_Aug_30_1839	m	2	r	MS SS	98.723129699938	5.013012900017202			Left Leg					52	AcceptBinary	0.8029260998591781	1.0	3
14	3012	2024_Aug_30_1839	m	2	r	MS SS	103.73363559995778	9.00883479998447			Left Leg					9	Post-Q-Jitter			3
15	3012	2024_Aug_30_1839	m	2	r	MS SS	113.56988590001129	5.003457600483671			Left Leg					7	Pre-Trial Jitter			3
16	3012	2024_Aug_30_1839	m	2	r	MS SS	118.61245049978606	13.00162130012177			Left Leg		48.5			15	Heat-Stimulation			3
17	3012	2024_Aug_30_1839	m	2	r	MS SS	131.65230589988641	7.0054938001558185			Left Leg					8	Post-Trial Jitter			3
18	3012	2024_Aug_30_1839	m	2	r	MS SS	138.6826454999391	4.994984900113195			Left Leg					20	PainBinary	0.9341184000950307	1.0	3
19	3012	2024_Aug_30_1839	m	2	r	MS SS	143.6998652999755	5.010696100071073			Left Leg					21	IntensityRating	1.801793600199744	25.80246913580247	3
20	3012	2024_Aug_30_1839	m	2	r	MS SS	148.72746619977988	5.005624599987641			Left Leg					52	AcceptBinary	0.7669682998675853	1.0	3
21	3012	2024_Aug_30_1839	m	2	r	MS SS	153.73485209979117	9.007657600101084			Left Leg					9	Post-Q-Jitter			3
22	3012	2024_Aug_30_1839	m	2	r	MS SS	163.74215289996937	7.010293300729245			Left Leg					7	Pre-Trial Jitter			3
23	3012	2024_Aug_30_1839	m	2	r	MS SS	170.79271549987607	13.009099999675527			Left Leg		48.5			15	Heat-Stimulation			3
24	3012	2024_Aug_30_1839	m	2	r	MS SS	183.83550329995342	9.007138899993151			Left Leg					8	Post-Trial Jitter			3
25	3012	2024_Aug_30_1839	m	2	r	MS SS	192.86552059999667	4.997313200030476			Left Leg					20	PainBinary	1.2503864001482725	1.0	3
26	3012	2024_Aug_30_1839	m	2	r	MS SS	197.8818353000097	4.998147900216281			Left Leg					21	IntensityRating	1.2504825999494642	28.14814814814815	3
27	3012	2024_Aug_30_1839	m	2	r	MS SS	202.89498799992725	5.00528350006789			Left Leg					52	AcceptBinary	0.8000845999922603	1.0	3
28	3012	2024_Aug_30_1839	m	2	r	MS SS	207.9020339997951	7.0080412002280354			Left Leg					9	Post-Q-Jitter			3
29	3012	2024_Aug_30_1839	m	2	r	MS SS	215.8104880999308	5.008268400793895			Left Leg					7	Pre-Trial Jitter			3
30	3012	2024_Aug_30_1839	m	2	r	MS SS	220.84063009987585	13.01460859994404			Left Leg		48.5			15	Heat-Stimulation			3
31	3012	2024_Aug_30_1839	m	2	r	MS SS	233.88636499992572	7.006672099931166			Left Leg					8	Post-Trial Jitter			3
32	3012	2024_Aug_30_1839	m	2	r	MS SS	240.91798389982432	5.01026470027864			Left Leg					20	PainBinary	1.6667383001185954	1.0	3
33	3012	2024_Aug_30_1839	m	2	r	MS SS	245.94984189979732	5.013368600280955			Left Leg					21	IntensityRating	1.8022345998324454	26.97530864197531	3
34	3012	2024_Aug_30_1839	m	2	r	MS SS	250.97809009999037	5.00699850008823			Left Leg					52	AcceptBinary	0.7668575001880527	1.0	3
35	3012	2024_Aug_30_1839	m	2	r	MS SS	255.98521879990585	5.009518600068986			Left Leg					9	Post-Q-Jitter			3
36	3012	2024_Aug_30_1839	m	2	r	MS SS	261.92066659987904	7.005764600588009			Left Leg					7	Pre-Trial Jitter			3
37	3012	2024_Aug_30_1839	m	2	r	MS SS	268.94381039985456	13.009428100194782			Left Leg		48.5			15	Heat-Stimulation			3
38	3012	2024_Aug_30_1839	m	2	r	MS SS	281.9881253999192	7.004397900076583			Left Leg					8	Post-Trial Jitter			3
39	3012	2024_Aug_30_1839	m	2	r	MS SS	289.01726849982515	5.012944800313562			Left Leg					20	PainBinary	1.2337626998778433	1.0	3
40	3012	2024_Aug_30_1839	m	2	r	MS SS	294.0508036999963	5.012649399926886			Left Leg					21	IntensityRating	0.8860320998355746	28.456790123456795	3
41	3012	2024_Aug_30_1839	m	2	r	MS SS	299.0792674999684	5.0058327002916485			Left Leg					52	AcceptBinary	0.6669247001409531	1.0	3
42	3012	2024_Aug_30_1839	m	2	r	MS SS	304.08633339987136	7.008554999949411			Left Leg					9	Post-Q-Jitter			3
43	3012	2024_Aug_30_1839	m	2	r	MS SS	312.2080989999231	7.015560900559649			Left Leg					7	Pre-Trial Jitter			3
44	3012	2024_Aug_30_1839	m	2	r	MS SS	319.2417529998347	13.014791700057685			Left Leg		48.5			15	Heat-Stimulation			3
45	3012	2024_Aug_30_1839	m	2	r	MS SS	332.29035239992663	9.001221999991685			Left Leg					8	Post-Trial Jitter			3
46	3012	2024_Aug_30_1839	m	2	r	MS SS	341.31889659981243	5.010980400256813			Left Leg					20	PainBinary	0.7168099000118673	1.0	3
47	3012	2024_Aug_30_1839	m	2	r	MS SS	346.3505298998207	4.997840600321069			Left Leg					21	IntensityRating	1.5503331001382321	28.456790123456795	3
48	3012	2024_Aug_30_1839	m	2	r	MS SS	351.36353179998696	5.005314300069585			Left Leg					52	AcceptBinary	1.6669862000271678	1.0	3
49	3012	2024_Aug_30_1839	m	2	r	MS SS	356.37028709985316	5.008556700311601			Left Leg					9	Post-Q-Jitter			3
50	3012	2024_Aug_30_1839	m	2	r	MS SS	362.46932399994694	5.011018700664863			Left Leg					7	Pre-Trial Jitter			3
51	3012	2024_Aug_30_1839	m	2	r	MS SS	367.51614819979295	13.00057759997435			Left Leg		48.5			15	Heat-Stimulation			3
52	3012	2024_Aug_30_1839	m	2	r	MS SS	380.555273699807	5.005897399969399			Left Leg					8	Post-Trial Jitter			3
53	3012	2024_Aug_30_1839	m	2	r	MS SS	385.5848148998339	4.996949100168422			Left Leg					20	PainBinary	1.1003507000859827	1.0	3
54	3012	2024_Aug_30_1839	m	2	r	MS SS	390.60121459979564	5.014296300010756			Left Leg					21	IntensityRating	1.8502015999983996	29.197530864197535	3
55	3012	2024_Aug_30_1839	m	2	r	MS SS	395.63019449985586	5.00646230019629			Left Leg					52	AcceptBinary	0.6500703999772668	1.0	3
56	3012	2024_Aug_30_1839	m	2	r	MS SS	400.636764699826	4.993430499918759			Left Leg					9	Post-Q-Jitter			3
57	3012	2024_Aug_30_1839	m	2	r	MS SS	406.7095315998886	9.015114700421691			Left Leg					7	Pre-Trial Jitter			3
58	3012	2024_Aug_30_1839	m	2	r	MS SS	415.74340389994904	13.013956299982965			Left Leg		48.5			15	Heat-Stimulation			3
59	3012	2024_Aug_30_1839	m	2	r	MS SS	428.79008039995097	5.004187100101262			Left Leg					8	Post-Trial Jitter			3
60	3012	2024_Aug_30_1839	m	2	r	MS SS	433.8195122999605	5.0121014004107565			Left Leg					20	PainBinary	1.1835481999441981	1.0	3
61	3012	2024_Aug_30_1839	m	2	r	MS SS	438.8516849000007	5.014544399920851			Left Leg					21	IntensityRating	1.0667383999098092	27.469135802469136	3
62	3012	2024_Aug_30_1839	m	2	r	MS SS	443.88116649980657	5.005721200024709			Left Leg					52	AcceptBinary	0.7336571000050753	1.0	3
63	3012	2024_Aug_30_1839	m	2	r	MS SS	448.88783399993554	8.992548000067472			Left Leg					9	Post-Q-Jitter			3
64	3012	2024_Aug_30_1839	m	2	r	MS SS	458.9686694999691	8.99814770091325			Left Leg					7	Pre-Trial Jitter			3
65	3012	2024_Aug_30_1839	m	2	r	MS SS	468.0274810998235	13.013795000268146			Left Leg		48.5			15	Heat-Stimulation			3
66	3012	2024_Aug_30_1839	m	2	r	MS SS	481.07299089990556	7.006368200061843			Left Leg					8	Post-Trial Jitter			3
67	3012	2024_Aug_30_1839	m	2	r	MS SS	488.10321249999106	4.996098500210792			Left Leg					20	PainBinary	0.8529704001266509	1.0	3
68	3012	2024_Aug_30_1839	m	2	r	MS SS	493.1191136999987	5.014470699708909			Left Leg					21	IntensityRating	2.000121399993077	28.024691358024693	3
69	3012	2024_Aug_30_1839	m	2	r	MS SS	498.1485735999886	5.005665099946782			Left Leg					52	AcceptBinary	1.1003449000418186	1.0	3
70	3012	2024_Aug_30_1839	m	2	r	MS SS	503.15481929993257	8.99317800020799			Left Leg					9	Post-Q-Jitter			3
71	3012	2024_Aug_30_1839	m	2	r	MS SS	513.2232267998625	7.006942200707272			Left Leg					7	Pre-Trial Jitter			3
72	3012	2024_Aug_30_1839	m	2	r	MS SS	520.258673099801	13.002729900181293			Left Leg		48.5			15	Heat-Stimulation			3
73	3012	2024_Aug_30_1839	m	2	r	MS SS	533.3079316997901	9.004482000134885			Left Leg					8	Post-Trial Jitter			3
74	3012	2024_Aug_30_1839	m	2	r	MS SS	542.3377787999343	5.011646299855784			Left Leg					20	PainBinary	0.8668258998077363	1.0	3
75	3012	2024_Aug_30_1839	m	2	r	MS SS	547.3695184998214	4.998287300113589			Left Leg					21	IntensityRating	1.3511580999474972	25.864197530864196	3
76	3012	2024_Aug_30_1839	m	2	r	MS SS	552.3840182998683	5.002766099991277			Left Leg					52	AcceptBinary	0.9836528999730945	1.0	3
77	3012	2024_Aug_30_1839	m	2	r	MS SS	557.3891546998639	5.009270400041714			Left Leg					9	Post-Q-Jitter			3
78	3012	2024_Aug_30_1839	m	2	r	MS SS	563.5115050999448	5.015109300613403			Left Leg					7	Pre-Trial Jitter			3
79	3012	2024_Aug_30_1839	m	2	r	MS SS	568.5786152000073	13.014091199962422			Left Leg		48.5			15	Heat-Stimulation			3
80	3012	2024_Aug_30_1839	m	2	r	MS SS	581.6251893998124	5.004467400023714			Left Leg					8	Post-Trial Jitter			3
81	3012	2024_Aug_30_1839	m	2	r	MS SS	586.654174799798	4.996635599993169			Left Leg					20	PainBinary	0.9836836000904441	1.0	3
82	3012	2024_Aug_30_1839	m	2	r	MS SS	591.6701594998594	5.014810500200838			Left Leg					21	IntensityRating	0.9335809999611229	28.888888888888893	3
83	3012	2024_Aug_30_1839	m	2	r	MS SS	596.6994111998938	5.006436499999836			Left Leg					52	AcceptBinary	0.683419399894774	1.0	3
84	3012	2024_Aug_30_1839	m	2	r	MS SS	601.7072402997874	7.007464700145647			Left Leg					9	Post-Q-Jitter			3
85	3012	2024_Aug_30_1839	m	2	r	MS SS	609.7195164998993	9.000124000711367			Left Leg					7	Pre-Trial Jitter			3
86	3012	2024_Aug_30_1839	m	2	r	MS SS	618.7800674999598	13.01244379975833			Left Leg		48.5			15	Heat-Stimulation			3
87	3012	2024_Aug_30_1839	m	2	r	MS SS	631.8251576998737	9.005898699862882			Left Leg					8	Post-Trial Jitter			3
88	3012	2024_Aug_30_1839	m	2	r	MS SS	640.8551890999079	4.995996900135651			Left Leg					20	PainBinary	0.9677767001558095	1.0	3
89	3012	2024_Aug_30_1839	m	2	r	MS SS	645.8710187999532	5.014479000121355			Left Leg					21	IntensityRating	1.4335272999014705	28.333333333333332	3
90	3012	2024_Aug_30_1839	m	2	r	MS SS	650.9000066998415	5.006617699982598			Left Leg					52	AcceptBinary	0.6836341000162065	1.0	3
91	3012	2024_Aug_30_1839	m	2	r	MS SS	655.9068111998495	8.993155700154603			Left Leg					9	Post-Q-Jitter			3
92	3012	2024_Aug_30_1839	m	2	r	MS SS	666.0108890999109	5.0022495007142425			Left Leg					7	Pre-Trial Jitter			3
93	3012	2024_Aug_30_1839	m	2	r	MS SS	671.0421873999294	13.006187400082126			Left Leg		48.5			15	Heat-Stimulation			3
94	3012	2024_Aug_30_1839	m	2	r	MS SS	684.0940856998786	9.002666599815711			Left Leg					8	Post-Trial Jitter			3
95	3012	2024_Aug_30_1839	m	2	r	MS SS	693.1225872999057	4.995812600012869			Left Leg					20	PainBinary	0.9836710998788476	1.0	3
96	3012	2024_Aug_30_1839	m	2	r	MS SS	698.1379815000109	4.998500400222838			Left Leg					21	IntensityRating	1.4175668999087065	27.77777777777778	3
97	3012	2024_Aug_30_1839	m	2	r	MS SS	703.1515840999782	5.004755400121212			Left Leg					52	AcceptBinary	0.6836420998442918	1.0	3
98	3012	2024_Aug_30_1839	m	2	r	MS SS	708.1569513999857	4.994144400116056			Left Leg					9	Post-Q-Jitter			3
99	3012	2024_Aug_30_1839	m	2	r	MS SS	713.4055062998086	4.997237800387666			Left Leg					7	Pre-Trial Jitter			3
100	3012	2024_Aug_30_1839	m	2	r	MS SS	718.4659918998368	13.009734299965203			Left Leg		48.5			15	Heat-Stimulation			3
101	3012	2024_Aug_30_1839	m	2	r	MS SS	731.5108543999959	9.003631599945948			Left Leg					8	Post-Trial Jitter			3
102	3012	2024_Aug_30_1839	m	2	r	MS SS	740.5402487998363	5.011703500058502			Left Leg					20	PainBinary	0.766850900137797	1.0	3
103	3012	2024_Aug_30_1839	m	2	r	MS SS	745.5724229998887	4.997481400379911			Left Leg					21	IntensityRating	0.9834922000300139	27.530864197530864	3
104	3012	2024_Aug_30_1839	m	2	r	MS SS	750.5850776999723	5.005641499999911			Left Leg					52	AcceptBinary	0.7836436999496073	1.0	3
105	3012	2024_Aug_30_1839	m	2	r	MS SS	755.5916197998449	7.009357800008729			Left Leg					9	Post-Q-Jitter			3
106	3012	2024_Aug_30_1839	m	2	r	MS SS	763.477817799896	5.00406700046733			Left Leg					7	Pre-Trial Jitter			3
107	3012	2024_Aug_30_1839	m	2	r	MS SS	768.5257959999144	13.008067300077528			Left Leg		48.5			15	Heat-Stimulation			3
108	3012	2024_Aug_30_1839	m	2	r	MS SS	781.5774675998837	9.004987200023606			Left Leg					8	Post-Trial Jitter			3
109	3012	2024_Aug_30_1839	m	2	r	MS SS	790.6071655999403	5.012373700272292			Left Leg					20	PainBinary	1.2830425000283867	1.0	3
110	3012	2024_Aug_30_1839	m	2	r	MS SS	795.6395906999242	4.997660200111568			Left Leg					21	IntensityRating	1.4337942998390645	26.79012345679012	3
111	3012	2024_Aug_30_1839	m	2	r	MS SS	800.6531287999824	5.0041304000187665			Left Leg					52	AcceptBinary	0.7003068998456001	1.0	3
112	3012	2024_Aug_30_1839	m	2	r	MS SS	805.6588825997896	9.009450700134039			Left Leg					9	Post-Q-Jitter			3
113	3012	2024_Aug_30_1839	m	2	r	MS SS	814.6990367998369	5.012769400142133			Left Leg					26	ComfortRating	4.9834791999310255	33.827160493827165	3
114	3012	2024_Aug_30_1839	m	2	r	MS SS	819.7306949999183	2.349513800116256			Left Leg					24	ValenceRating	2.31673049996607	33.51851851851852	3
115	3012	2024_Aug_30_1839	m	2	r	MS SS	822.0900440998375	1.4142360002733767			Left Leg					26	IntensityRating	1.4004524999763817	36.23456790123456	3
116	3012	2024_Aug_30_1839	m	2	r	MS SS	823.5249993999023	3.444402400171384			Left Leg					27	AvoidanceRating	3.40284140012227	-19.01234567901234	3
117	3012	2024_Aug_30_1839	m	2	r	MS SS	826.9861417999491	2.6555132002104074			Left Leg					28	RelaxationRating	2.633776200003922	39.44444444444444	3
118	3012	2024_Aug_30_1839	m	2	r	MS SS	829.657625899883	3.7126217999029905			Left Leg					29	AttentionRating	3.6835596999153495	83.58024691358024	3
119	3012	2024_Aug_30_1839	m	2	r	MS SS	833.3868910998572	2.770848700311035			Left Leg					30	BoredomRating	2.7503925000783056	32.28395061728395	3
120	3012	2024_Aug_30_1839	m	2	r	MS SS	836.1724660999607	1.9830961001571268			Left Leg					31	AlertnessRating	1.9671126001048833	83.2098765432099	3
121	3012	2024_Aug_30_1839	m	2	r	MS SS	838.1733277998865	2.181435199920088			Left Leg					32	PosThxRating	2.153173599857837	100.0	3
122	3012	2024_Aug_30_1839	m	2	r	MS SS	840.3726794999093	2.3327744000125676			Left Leg					33	NegThxRating	2.3170082001015544	-96.91358024691358	3
123	3012	2024_Aug_30_1839	m	2	r	MS SS	842.7223157999106	3.0668681000825018			Left Leg					34	SelfRating	3.0503605001140386	92.46913580246911	3
124	3012	2024_Aug_30_1839	m	2	r	MS SS	845.8051395998336	2.101307400036603			Left Leg					35	OtherRating	2.08367079985328	-100.0	3
125	3012	2024_Aug_30_1839	m	2	r	MS SS	847.9230770999566	6.132279300130904			Left Leg					32	ImageryRating	6.117180299945176	100.0	3
126	3012	2024_Aug_30_1839	m	2	r	MS SS	854.0756450998597	2.6438833998981863			Left Leg					37	PresentRating	2.61688240012154	-94.32098765432099	3
