	SID	day	sex	session	handedness	scanner	onset	duration	value	body_site	skin_site	temperature	condition	keys	rt	phase	biopac_channel
0	2170	2	M	02	R	MH	2.774475699989125	5.000975920353085		Chest	2	48.5	Instructions			Control	19
1	2170	2	M	02	R	MH	7.9396951999515295	5.001746500027366	32.77777777777778	Chest	2	48.5	Expectancy		1.9836473000468686	Control	51
2	2170	2	M	02	R	MH	13.333788899937645	1.9969819399993867		Chest	2	48.5	Cue			Control	6
3	2170	2	M	02	R	MH	15.336511599947698	4.008207860169932		Chest	2	48.5	Pre-Jitter			Control	7
4	2170	2	M	02	R	MH	19.377033799886703	15.010645680013113		Chest	2	48.5	Control Heat 			Control	17
5	2170	2	M	02	R	MH	34.38397509988863	6.996986859943718		Chest	2	48.5	Mid-Jitter			Control	8
6	2170	2	M	02	R	MH	41.40183799993247	5.011398319969885	1.0	Chest	2	48.5	PainBinary		1.0499612999847159	Control	20
7	2170	2	M	02	R	MH	46.434431699919514	4.99636032001581	32.34567901234568	Chest	2	48.5	IntensityRating		4.050762999919243	Control	21
8	2170	2	M	02	R	MH	51.436509599909186	7.008975259843282		Chest	2	48.5	Post-Q-Jitter			Control	9
9	2170	2	M	02	R	MH	59.05597369989846	5.003553720074706	33.7037037037037	Chest	2	48.5	Expectancy		2.900304100010544	Control	51
10	2170	2	M	02	R	MH	64.4426501999842	2.0136019400088117		Chest	2	48.5	Cue			Control	6
11	2170	2	M	02	R	MH	66.45316749997437	6.009113759966567		Chest	2	48.5	Pre-Jitter			Control	7
12	2170	2	M	02	R	MH	72.51629309996497	14.999748939997517		Chest	2	48.5	Control Heat 			Control	17
13	2170	2	M	02	R	MH	87.51752629992552	4.997588159982115		Chest	2	48.5	Mid-Jitter			Control	8
14	2170	2	M	02	R	MH	92.53578239993658	5.011189420009032	1.0	Chest	2	48.5	PainBinary		1.149983000010252	Control	20
15	2170	2	M	02	R	MH	97.56778879999183	4.997285219840705	33.888888888888886	Chest	2	48.5	IntensityRating		2.6511408999795094	Control	21
16	2170	2	M	02	R	MH	102.57122219994199	5.007053159992211		Chest	2	48.5	Post-Q-Jitter			Control	9
17	2170	2	M	02	R	MH	107.7261083999183	5.014072800055146	29.074074074074076	Chest	2	48.5	Expectancy		4.317003099946305	Control	51
18	2170	2	M	02	R	MH	113.12176439992618	2.006326840026304		Chest	2	48.5	Cue			Control	6
19	2170	2	M	02	R	MH	115.13630369992461	7.993936560000293		Chest	2	48.5	Pre-Jitter			Control	7
20	2170	2	M	02	R	MH	123.17471609998029	15.000684580067173		Chest	2	48.5	Control Heat 			Control	17
21	2170	2	M	02	R	MH	138.18521219992545	4.9965429599396884		Chest	2	48.5	Mid-Jitter			Control	8
22	2170	2	M	02	R	MH	143.2042565998854	5.008539419970475	1.0	Chest	2	48.5	PainBinary		1.1666965000331402	Control	20
23	2170	2	M	02	R	MH	148.23618949996307	5.011517719947733	27.469135802469136	Chest	2	48.5	IntensityRating		2.816640500095673	Control	21
24	2170	2	M	02	R	MH	153.25573809992056	5.005882860044949		Chest	2	48.5	Post-Q-Jitter			Control	9
25	2170	2	M	02	R	MH	158.83319149992894	5.0011227001668885	30.37037037037037	Chest	2	48.5	Expectancy		2.9673890999983996	Control	51
26	2170	2	M	02	R	MH	164.2019350999035	1.9969968799268827		Chest	2	48.5	Cue			Control	6
27	2170	2	M	02	R	MH	166.20398689992726	4.009539659949951		Chest	2	48.5	Pre-Jitter			Control	7
28	2170	2	M	02	R	MH	170.25450499996077	15.008730979869142		Chest	2	48.5	Control Heat 			Control	17
29	2170	2	M	02	R	MH	185.2685793999117	6.997471460024826		Chest	2	48.5	Mid-Jitter			Control	8
30	2170	2	M	02	R	MH	192.28707599989139	5.0105547200655565	1.0	Chest	2	48.5	PainBinary		1.066652899957262	Control	20
31	2170	2	M	02	R	MH	197.31831339991186	4.998183519928716	28.950617283950614	Chest	2	48.5	IntensityRating		3.4841828999342397	Control	21
32	2170	2	M	02	R	MH	202.32113049994223	7.0093047600239515		Chest	2	48.5	Post-Q-Jitter			Control	9
33	2170	2	M	02	R	MH	209.4854701999575	4.997475399984978	31.41975308641975	Chest	2	48.5	Expectancy		3.867512100026943	Control	51
34	2170	2	M	02	R	MH	214.85424359992612	2.0100311801070347		Chest	2	48.5	Cue			Control	6
35	2170	2	M	02	R	MH	216.87120149994735	6.009367960039526		Chest	2	48.5	Pre-Jitter			Control	7
36	2170	2	M	02	R	MH	222.9463804999832	15.009203599882312		Chest	2	48.5	Control Heat 			Control	17
37	2170	2	M	02	R	MH	237.95257089997176	6.99701496004127		Chest	2	48.5	Mid-Jitter			Control	8
38	2170	2	M	02	R	MH	244.9714908999158	5.009330420056358	1.0	Chest	2	48.5	PainBinary		1.016653100028634	Control	20
39	2170	2	M	02	R	MH	250.00256089994218	4.997407119954005	31.97530864197531	Chest	2	48.5	IntensityRating		4.317843200056814	Control	21
40	2170	2	M	02	R	MH	255.00521569990087	7.008877259911969		Chest	2	48.5	Post-Q-Jitter			Control	9
41	2170	2	M	02	R	MH	262.1679177999031	5.000310800038278	31.790123456790127	Chest	2	48.5	Expectancy		3.0503415999701247	Control	51
42	2170	2	M	02	R	MH	267.54871879995335	2.0054829398868605		Chest	2	48.5	Cue			Control	6
43	2170	2	M	02	R	MH	269.5555802999297	6.008433360024355		Chest	2	48.5	Pre-Jitter			Control	7
44	2170	2	M	02	R	MH	275.6035313999746	14.996065079816617		Chest	2	48.5	Control Heat 			Control	17
45	2170	2	M	02	R	MH	290.6031233998947	4.997067859862		Chest	2	48.5	Mid-Jitter			Control	8
46	2170	2	M	02	R	MH	295.6213593999855	5.010725419851951	1.0	Chest	2	48.5	PainBinary		1.133323699934408	Control	20
47	2170	2	M	02	R	MH	300.65344989998266	4.996654519927688	31.41975308641975	Chest	2	48.5	IntensityRating		2.5167698999866843	Control	21
48	2170	2	M	02	R	MH	305.65569379995577	5.008909560041502		Chest	2	48.5	Post-Q-Jitter			Control	9
49	2170	2	M	02	R	MH	310.6948648999678	3.9140707799233496	-11.604938271604937	Chest	2	48.5	ComfortRating		3.8836613999446854	Control	26
50	2170	2	M	02	R	MH	314.6243900998961	2.0550652199890465	66.72839506172839	Chest	2	48.5	ValenceRating		2.019228299963288	Control	24
51	2170	2	M	02	R	MH	316.70271659991704	1.5484626198885962	73.64197530864197	Chest	2	48.5	IntensityRating		1.5336727000540122	Control	26
52	2170	2	M	02	R	MH	318.2704141999129	3.4131429200060666	45.30864197530863	Chest	2	48.5	AvoidanceRating		3.4004700999939814	Control	27
53	2170	2	M	02	R	MH	321.6993594999658	3.5553197199478745	31.851851851851855	Chest	2	48.5	RelaxationRating		3.533829899970442	Control	28
54	2170	2	M	02	R	MH	325.27106769999955	2.578622319852002	69.5679012345679	Chest	2	48.5	AttentionRating		2.5499866000609472	Control	29
55	2170	2	M	02	R	MH	327.8673457999248	2.4861233200645074	65.61728395061729	Chest	2	48.5	BoredomRating		2.452545900014229	Control	30
56	2170	2	M	02	R	MH	330.3686277999077	2.7836104199523106	33.456790123456784	Chest	2	48.5	AlertnessRating		2.7669841999886557	Control	31
57	2170	2	M	02	R	MH	333.1693407999119	2.748869020026177	17.283950617283963	Chest	2	48.5	PosThxRating		2.7335972000146285	Control	32
58	2170	2	M	02	R	MH	335.9345569999423	1.401791019947268	-26.666666666666657	Chest	2	48.5	NegThxRating		1.3836098000174388	Control	33
59	2170	2	M	02	R	MH	337.35118169989437	1.835281620034948	34.81481481481481	Chest	2	48.5	SelfRating		1.8170712999999523	Control	34
60	2170	2	M	02	R	MH	339.2010946999071	1.218852419871837	-29.75308641975309	Chest	2	48.5	OtherRating		1.2003260999917984	Control	35
61	2170	2	M	02	R	MH	340.43611379992217	2.882182020111941	27.53086419753086	Chest	2	48.5	ImageryRating		2.8528062999248505	Control	32
62	2170	2	M	02	R	MH	343.3365818999009	2.0646399200195447	36.66666666666666	Chest	2	48.5	PresentRating		2.05077520001214	Control	37
