square,location,corrAns,trials_2.thisRepN,trials_2.thisTrialN,trials_2.thisN,trials_2.thisIndex,fixation_1.started,fixation_1.stopped,response_2.x,response_2.y,response_2.leftButton,grid_lines_2.started,grid_lines_2.stopped,target_square_2.started,target_square_2.stopped,fixation_3.started,fixation_3.stopped,response_2.click,response_2.corr,response_2.started,response_2.stopped,ScoreReportText.started,ScoreReportText.stopped,ScoreReportResponse.keys,ScoreReportResponse.started,ScoreReportResponse.stopped,BodySiteInstructionText.started,BodySiteImg.started,BodySiteImg.stopped,BodySiteInstructionRead.keys,BodySiteInstructionRead.rt,BodySiteInstructionRead.started,BodySiteInstructionRead.stopped,fixation_rest.started,fixation_rest.stopped,IntensityRating.response,IntensityRating.rt,IntensityRating.started,IntensityRating.stopped,subject number,gender,distractMap first- or second-half (1 or 2),session,handedness,scanner,bodysite1 temp,bodysite2 temp,date,psychopyVersion,expName,frameRate,body_site_order,
6,"[0.2, 0]",None,0,0,0,0,123.48534050001763,None,None,None,"[0, 0, 0]",124.50200820015743,None,124.50200820015743,125.50200129998848,125.485367000103,126.48535610013641,"[0, 0, 0]",1,124.50200820015743,None,,,,,,,,,,,,,,,,,,,7,f,1,18,r,MH,49,49,2022_Aug_01_1501,2020.2.10,distractmap1,59.988002336111215,"['Right Face', 'Left Face', 'Right Face', 'Left Face']",
7,"[-0.2, -0.2]",None,0,1,1,1,,,None,None,"[0, 0, 0]",126.50201350008138,128.50202500005253,126.50201350008138,127.5020163001027,127.4853644000832,128.4853614999447,"[0, 0, 0]",1,126.50201350008138,128.50202500005253,,,,,,,,,,,,,,,,,,,7,f,1,18,r,MH,49,49,2022_Aug_01_1501,2020.2.10,distractmap1,59.988002336111215,"['Right Face', 'Left Face', 'Right Face', 'Left Face']",
6,"[0.2, 0]",1,0,2,2,2,,,None,None,"[0, 0, 0]",128.51869460009038,130.5187153001316,128.51869460009038,129.51869930000976,129.5020404001698,130.5020548000466,"[0, 0, 0]",1,128.51869460009038,130.5187153001316,,,,,,,,,,,,,,,,,,,7,f,1,18,r,MH,49,49,2022_Aug_01_1501,2020.2.10,distractmap1,59.988002336111215,"['Right Face', 'Left Face', 'Right Face', 'Left Face']",
2,"[0, 0.2]",0,0,3,3,3,,,None,None,"[0, 0, 0]",130.53540239995345,132.53542400011793,130.53540239995345,131.53540779999457,131.51872520009056,132.5187222000677,"[0, 0, 0]",0,130.53540239995345,132.53542400011793,,,,,,,,,,,,,,,,,,,7,f,1,18,r,MH,49,49,2022_Aug_01_1501,2020.2.10,distractmap1,59.988002336111215,"['Right Face', 'Left Face', 'Right Face', 'Left Face']",
5,"[0, 0]",0,0,4,4,4,,,None,None,"[0, 0, 0]",132.5520572999958,134.5521635999903,132.5520572999958,133.55207030009478,133.53539840015583,134.53541490016505,"[0, 0, 0]",0,132.5520572999958,134.5521635999903,,,,,,,,,,,,,,,,,,,7,f,1,18,r,MH,49,49,2022_Aug_01_1501,2020.2.10,distractmap1,59.988002336111215,"['Right Face', 'Left Face', 'Right Face', 'Left Face']",
4,"[-0.2, 0]",0,0,5,5,5,,,None,None,"[0, 0, 0]",134.568757600151,136.56875740014948,134.568757600151,135.56874560005963,135.55207760003395,136.55209890007973,"[0, 0, 0]",1,134.568757600151,136.56875740014948,,,,,,,,,,,,,,,,,,,7,f,1,18,r,MH,49,49,2022_Aug_01_1501,2020.2.10,distractmap1,59.988002336111215,"['Right Face', 'Left Face', 'Right Face', 'Left Face']",
4,"[-0.2, 0]",0,0,6,6,6,,,None,None,"[0, 0, 0]",136.5854303999804,138.58546170010231,136.5854303999804,137.5854325001128,137.56877380004153,138.5687752000522,"[0, 0, 0]",0,136.5854303999804,138.58546170010231,,,,,,,,,,,,,,,,,,,7,f,1,18,r,MH,49,49,2022_Aug_01_1501,2020.2.10,distractmap1,59.988002336111215,"['Right Face', 'Left Face', 'Right Face', 'Left Face']",
7,"[-0.2, -0.2]",0,0,7,7,7,,,None,None,"[0, 0, 0]",138.60211460012943,140.60212650010362,138.60211460012943,139.6021170001477,139.585467700148,140.58548210002482,"[0, 0, 0]",0,138.60211460012943,140.60212650010362,,,,,,,,,,,,,,,,,,,7,f,1,18,r,MH,49,49,2022_Aug_01_1501,2020.2.10,distractmap1,59.988002336111215,"['Right Face', 'Left Face', 'Right Face', 'Left Face']",
4,"[-0.2, 0]",1,0,8,8,8,,,None,None,"[0, 0, 0]",140.61878839996643,142.61882490012795,140.61878839996643,141.61879750015214,141.6021571001038,142.60216530016623,"[0, 0, 0]",1,140.61878839996643,142.61882490012795,,,,,,,,,,,,,,,,,,,7,f,1,18,r,MH,49,49,2022_Aug_01_1501,2020.2.10,distractmap1,59.988002336111215,"['Right Face', 'Left Face', 'Right Face', 'Left Face']",
3,"[0.2, 0.2]",0,0,9,9,9,,,None,None,"[0, 0, 0]",142.63548890012316,144.63549380004406,142.63548890012316,143.63548679999076,143.61881430004723,144.61882410012186,"[0, 0, 0]",0,142.63548890012316,144.63549380004406,,,,,,,,,,,,,,,,,,,7,f,1,18,r,MH,49,49,2022_Aug_01_1501,2020.2.10,distractmap1,59.988002336111215,"['Right Face', 'Left Face', 'Right Face', 'Left Face']",
5,"[0, 0]",0,0,10,10,10,,,None,None,"[0, 0, 0]",144.65215690014884,146.6521865001414,144.65215690014884,145.65216600010172,145.6355143999681,146.63554330007173,"[0, 0, 0]",0,144.65215690014884,146.6521865001414,,,,,,,,,,,,,,,,,,,7,f,1,18,r,MH,49,49,2022_Aug_01_1501,2020.2.10,distractmap1,59.988002336111215,"['Right Face', 'Left Face', 'Right Face', 'Left Face']",
3,"[0.2, 0.2]",1,0,11,11,11,,,None,None,"[0, 0, 0]",146.6688425000757,148.66885680006817,146.6688425000757,147.66885010013357,147.65218740003183,148.65221330011263,"[0, 0, 0]",1,146.6688425000757,148.66885680006817,,,,,,,,,,,,,,,,,,,7,f,1,18,r,MH,49,49,2022_Aug_01_1501,2020.2.10,distractmap1,59.988002336111215,"['Right Face', 'Left Face', 'Right Face', 'Left Face']",
1,"[-0.2, 0.2]",0,0,12,12,12,,,None,None,"[0, 0, 0]",148.68554259999655,150.68556619994342,148.68554259999655,149.68551989994012,149.66886600013822,150.66888980008662,"[0, 0, 0]",0,148.68554259999655,150.68556619994342,,,,,,,,,,,,,,,,,,,7,f,1,18,r,MH,49,49,2022_Aug_01_1501,2020.2.10,distractmap1,59.988002336111215,"['Right Face', 'Left Face', 'Right Face', 'Left Face']",
9,"[0.2, -0.2]",0,0,13,13,13,,,None,None,"[0, 0, 0]",150.70224090013653,152.70228500012308,150.70224090013653,151.70222390000708,151.6855764000211,152.685569900088,"[0, 0, 0]",0,150.70224090013653,152.70228500012308,,,,,,,,,,,,,,,,,,,7,f,1,18,r,MH,49,49,2022_Aug_01_1501,2020.2.10,distractmap1,59.988002336111215,"['Right Face', 'Left Face', 'Right Face', 'Left Face']",
9,"[0.2, -0.2]",0,0,14,14,14,,,None,None,"[0, 0, 0]",152.71888860012405,154.71891309996136,152.71888860012405,153.7188989999704,153.7021825001575,154.7022441001609,"[0, 0, 0]",1,152.71888860012405,154.71891309996136,,,,,,,,,,,,,,,,,,,7,f,1,18,r,MH,49,49,2022_Aug_01_1501,2020.2.10,distractmap1,59.988002336111215,"['Right Face', 'Left Face', 'Right Face', 'Left Face']",
8,"[0, -0.2]",0,0,15,15,15,,,None,None,"[0, 0, 0]",154.735604000045,156.73561840015464,154.735604000045,155.7356108999811,155.7189195000101,156.71892270003445,"[0, 0, 0]",0,154.735604000045,156.73561840015464,,,,,,,,,,,,,,,,,,,7,f,1,18,r,MH,49,49,2022_Aug_01_1501,2020.2.10,distractmap1,59.988002336111215,"['Right Face', 'Left Face', 'Right Face', 'Left Face']",
6,"[0.2, 0]",0,0,16,16,16,,,None,None,"[0, 0, 0]",156.7522828001529,158.75229760003276,156.7522828001529,157.75218980014324,157.73562930012122,158.7356296000071,"[0, 0, 0]",0,156.7522828001529,158.75229760003276,,,,,,,,,,,,,,,,,,,7,f,1,18,r,MH,49,49,2022_Aug_01_1501,2020.2.10,distractmap1,59.988002336111215,"['Right Face', 'Left Face', 'Right Face', 'Left Face']",
3,"[0.2, 0.2]",0,0,17,17,17,,,None,None,"[0, 0, 0]",158.76894310000353,160.7689584000036,158.76894310000353,159.76895190007053,159.7522835000418,160.75229380000383,"[0, 0, 0]",1,158.76894310000353,160.7689584000036,,,,,,,,,,,,,,,,,,,7,f,1,18,r,MH,49,49,2022_Aug_01_1501,2020.2.10,distractmap1,59.988002336111215,"['Right Face', 'Left Face', 'Right Face', 'Left Face']",
6,"[0.2, 0]",1,0,18,18,18,,,None,None,"[0, 0, 0]",160.78551640012302,162.78565860004164,160.78551640012302,161.78563609998673,161.76896689995192,162.76898099994287,"[0, 0, 0]",0,160.78551640012302,162.78565860004164,,,,,,,,,,,,,,,,,,,7,f,1,18,r,MH,49,49,2022_Aug_01_1501,2020.2.10,distractmap1,59.988002336111215,"['Right Face', 'Left Face', 'Right Face', 'Left Face']",
5,"[0, 0]",0,0,19,19,19,,,None,None,"[0, 0, 0]",162.80232020001858,164.8023241001647,162.80232020001858,163.80232960009016,163.78566389996558,164.78566249995492,"[0, 0, 0]",0,162.80232020001858,164.8023241001647,,,,,,,,,,,,,,,,,,,7,f,1,18,r,MH,49,49,2022_Aug_01_1501,2020.2.10,distractmap1,59.988002336111215,"['Right Face', 'Left Face', 'Right Face', 'Left Face']",
7,"[-0.2, -0.2]",0,0,20,20,20,,,None,None,"[0, 0, 0]",164.81898980005644,166.81901019997895,164.81898980005644,165.81899749999866,165.80235510016792,166.8023639000021,"[0, 0, 0]",1,164.81898980005644,166.81901019997895,,,,,,,,,,,,,,,,,,,7,f,1,18,r,MH,49,49,2022_Aug_01_1501,2020.2.10,distractmap1,59.988002336111215,"['Right Face', 'Left Face', 'Right Face', 'Left Face']",
5,"[0, 0]",1,0,21,21,21,,,None,None,"[0, 0, 0]",166.83569269999862,168.83572269999422,166.83569269999862,167.8357035999652,167.81901400000788,168.819033900043,"[0, 0, 0]",0,166.83569269999862,168.83572269999422,,,,,,,,,,,,,,,,,,,7,f,1,18,r,MH,49,49,2022_Aug_01_1501,2020.2.10,distractmap1,59.988002336111215,"['Right Face', 'Left Face', 'Right Face', 'Left Face']",
1,"[-0.2, 0.2]",0,0,22,22,22,,,None,None,"[0, 0, 0]",168.85237219999544,170.85239979997277,168.85237219999544,169.8523752000183,169.835716499947,170.8357498999685,"[0, 0, 0]",0,168.85237219999544,170.85239979997277,,,,,,,,,,,,,,,,,,,7,f,1,18,r,MH,49,49,2022_Aug_01_1501,2020.2.10,distractmap1,59.988002336111215,"['Right Face', 'Left Face', 'Right Face', 'Left Face']",
7,"[-0.2, -0.2]",0,0,23,23,23,,,None,None,"[0, 0, 0]",170.86904949997552,172.8690721001476,170.86904949997552,171.86905240011401,171.85240860003978,172.85241489997134,"[0, 0, 0]",1,170.86904949997552,172.8690721001476,,,,,,,,,,,,,,,,,,,7,f,1,18,r,MH,49,49,2022_Aug_01_1501,2020.2.10,distractmap1,59.988002336111215,"['Right Face', 'Left Face', 'Right Face', 'Left Face']",
9,"[0.2, -0.2]",0,0,24,24,24,,,None,None,"[0, 0, 0]",172.88572650006972,174.8857485000044,172.88572650006972,173.88576540001668,173.86907040001824,174.86908420012332,"[0, 0, 0]",0,172.88572650006972,174.8857485000044,,,,,,,,,,,,,,,,,,,7,f,1,18,r,MH,49,49,2022_Aug_01_1501,2020.2.10,distractmap1,59.988002336111215,"['Right Face', 'Left Face', 'Right Face', 'Left Face']",
3,"[0.2, 0.2]",0,0,25,25,25,,,None,None,"[0, 0, 0]",174.90243010013364,176.90244180010632,174.90243010013364,175.90243370016105,175.88574209995568,176.8857577999588,"[0, 0, 0]",0,174.90243010013364,176.90244180010632,,,,,,,,,,,,,,,,,,,7,f,1,18,r,MH,49,49,2022_Aug_01_1501,2020.2.10,distractmap1,59.988002336111215,"['Right Face', 'Left Face', 'Right Face', 'Left Face']",
9,"[0.2, -0.2]",1,0,26,26,26,,,None,None,"[0, 0, 0]",176.91910850000568,178.91911280015483,176.91910850000568,177.9191142001655,177.90245830011554,178.90245519997552,"[0, 0, 0]",0,176.91910850000568,178.91911280015483,,,,,,,,,,,,,,,,,,,7,f,1,18,r,MH,49,49,2022_Aug_01_1501,2020.2.10,distractmap1,59.988002336111215,"['Right Face', 'Left Face', 'Right Face', 'Left Face']",
6,"[0.2, 0]",0,0,27,27,27,,,None,None,"[0, 0, 0]",178.9358143999707,180.93579210015014,178.9358143999707,179.93581950012594,179.91913160006516,180.91912850015797,"[0, 0, 0]",0,178.9358143999707,180.93579210015014,,,,,,,,,,,,,,,,,,,7,f,1,18,r,MH,49,49,2022_Aug_01_1501,2020.2.10,distractmap1,59.988002336111215,"['Right Face', 'Left Face', 'Right Face', 'Left Face']",
2,"[0, 0.2]",0,0,28,28,28,,,None,None,"[0, 0, 0]",180.9524751000572,182.95249420008622,180.9524751000572,181.95248119998723,181.93581059994176,182.93582380004227,"[0, 0, 0]",0,180.9524751000572,182.95249420008622,,,,,,,,,,,,,,,,,,,7,f,1,18,r,MH,49,49,2022_Aug_01_1501,2020.2.10,distractmap1,59.988002336111215,"['Right Face', 'Left Face', 'Right Face', 'Left Face']",
5,"[0, 0]",0,0,29,29,29,,,None,None,"[0, 0, 0]",182.96914970013313,184.9691578000784,182.96914970013313,183.9691674001515,183.9524976001121,184.95250400016084,"[0, 0, 0]",1,182.96914970013313,184.9691578000784,,,,,,,,,,,,,,,,,,,7,f,1,18,r,MH,49,49,2022_Aug_01_1501,2020.2.10,distractmap1,59.988002336111215,"['Right Face', 'Left Face', 'Right Face', 'Left Face']",
,,,,,,,,,,,,,,,,,,,,,,184.9858164000325,None,space,184.9858164000325,None,,,,,,,,,,,,,,7,f,1,18,r,MH,49,49,2022_Aug_01_1501,2020.2.10,distractmap1,59.988002336111215,"['Right Face', 'Left Face', 'Right Face', 'Left Face']",
6,"[0.2, 0]",None,0,0,0,0,228.8695326000452,None,None,None,"[0, 0, 0]",229.88623280008323,None,229.88623280008323,230.8862360001076,230.86954640015028,231.86957000009716,"[0, 0, 0]",1,229.88623280008323,None,,,,,,,,,,,,,,,,,,,7,f,1,18,r,MH,49,49,2022_Aug_01_1501,2020.2.10,distractmap1,59.988002336111215,"['Right Face', 'Left Face', 'Right Face', 'Left Face']",
7,"[-0.2, -0.2]",None,0,1,1,1,,,None,None,"[0, 0, 0]",231.88622220000252,233.88626269996166,231.88622220000252,232.886239600135,232.86958530009724,233.86957930005156,"[0, 0, 0]",1,231.88622220000252,233.88626269996166,,,,,,,,,,,,,,,,,,,7,f,1,18,r,MH,49,49,2022_Aug_01_1501,2020.2.10,distractmap1,59.988002336111215,"['Right Face', 'Left Face', 'Right Face', 'Left Face']",
6,"[0.2, 0]",1,0,2,2,2,,,None,None,"[0, 0, 0]",233.90291039994918,235.90293540013954,233.90291039994918,234.90295969997533,234.88618950010277,235.88625600002706,"[0, 0, 0]",1,233.90291039994918,235.90293540013954,,,,,,,,,,,,,,,,,,,7,f,1,18,r,MH,49,49,2022_Aug_01_1501,2020.2.10,distractmap1,59.988002336111215,"['Right Face', 'Left Face', 'Right Face', 'Left Face']",
2,"[0, 0.2]",0,0,3,3,3,,,None,None,"[0, 0, 0]",235.91959269996732,237.91961890016682,235.91959269996732,236.9196176000405,236.90293970005587,237.9029484000057,"[0, 0, 0]",0,235.91959269996732,237.91961890016682,,,,,,,,,,,,,,,,,,,7,f,1,18,r,MH,49,49,2022_Aug_01_1501,2020.2.10,distractmap1,59.988002336111215,"['Right Face', 'Left Face', 'Right Face', 'Left Face']",
5,"[0, 0]",0,0,4,4,4,,,None,None,"[0, 0, 0]",237.93629740015604,239.9363182000816,237.93629740015604,238.93629380012862,238.91961360001005,239.91963410004973,"[0, 0, 0]",1,237.93629740015604,239.9363182000816,,,,,,,,,,,,,,,,,,,7,f,1,18,r,MH,49,49,2022_Aug_01_1501,2020.2.10,distractmap1,59.988002336111215,"['Right Face', 'Left Face', 'Right Face', 'Left Face']",
4,"[-0.2, 0]",0,0,5,5,5,,,None,None,"[0, 0, 0]",239.95296790008433,241.9529889000114,239.95296790008433,240.95296530006453,240.93632450001314,241.9363180999644,"[0, 0, 0]",1,239.95296790008433,241.9529889000114,,,,,,,,,,,,,,,,,,,7,f,1,18,r,MH,49,49,2022_Aug_01_1501,2020.2.10,distractmap1,59.988002336111215,"['Right Face', 'Left Face', 'Right Face', 'Left Face']",
4,"[-0.2, 0]",0,0,6,6,6,,,None,None,"[0, 0, 0]",241.9696456999518,243.96965650003403,241.9696456999518,242.9692786000669,242.95298169995658,243.9529905000236,"[0, 0, 0]",1,241.9696456999518,243.96965650003403,,,,,,,,,,,,,,,,,,,7,f,1,18,r,MH,49,49,2022_Aug_01_1501,2020.2.10,distractmap1,59.988002336111215,"['Right Face', 'Left Face', 'Right Face', 'Left Face']",
7,"[-0.2, -0.2]",0,0,7,7,7,,,None,None,"[0, 0, 0]",243.98632410005666,245.98633210011758,243.98632410005666,244.98634020006284,244.96968080010265,245.96969030005857,"[0, 0, 0]",1,243.98632410005666,245.98633210011758,,,,,,,,,,,,,,,,,,,7,f,1,18,r,MH,49,49,2022_Aug_01_1501,2020.2.10,distractmap1,59.988002336111215,"['Right Face', 'Left Face', 'Right Face', 'Left Face']",
4,"[-0.2, 0]",1,0,8,8,8,,,None,None,"[0, 0, 0]",246.00300260004587,248.00303909997456,246.00300260004587,247.0030173000414,246.9862649999559,247.98636560002342,"[0, 0, 0]",0,246.00300260004587,248.00303909997456,,,,,,,,,,,,,,,,,,,7,f,1,18,r,MH,49,49,2022_Aug_01_1501,2020.2.10,distractmap1,59.988002336111215,"['Right Face', 'Left Face', 'Right Face', 'Left Face']",
3,"[0.2, 0.2]",0,0,9,9,9,,,None,None,"[0, 0, 0]",248.01969590014778,250.0197287001647,248.01969590014778,249.01970360009,249.00304610002786,250.00305179995485,"[0, 0, 0]",1,248.01969590014778,250.0197287001647,,,,,,,,,,,,,,,,,,,7,f,1,18,r,MH,49,49,2022_Aug_01_1501,2020.2.10,distractmap1,59.988002336111215,"['Right Face', 'Left Face', 'Right Face', 'Left Face']",
5,"[0, 0]",0,0,10,10,10,,,None,None,"[0, 0, 0]",250.03639270015992,252.03639649995603,250.03639270015992,251.03641579998657,251.01997410017066,252.01973460009322,"[0, 0, 0]",1,250.03639270015992,252.03639649995603,,,,,,,,,,,,,,,,,,,7,f,1,18,r,MH,49,49,2022_Aug_01_1501,2020.2.10,distractmap1,59.988002336111215,"['Right Face', 'Left Face', 'Right Face', 'Left Face']",
3,"[0.2, 0.2]",1,0,11,11,11,,,None,None,"[0, 0, 0]",252.05297329998575,254.0530777000822,252.05297329998575,253.05306589999236,253.03640570002608,254.03636509994976,"[0, 0, 0]",1,252.05297329998575,254.0530777000822,,,,,,,,,,,,,,,,,,,7,f,1,18,r,MH,49,49,2022_Aug_01_1501,2020.2.10,distractmap1,59.988002336111215,"['Right Face', 'Left Face', 'Right Face', 'Left Face']",
1,"[-0.2, 0.2]",0,0,12,12,12,,,None,None,"[0, 0, 0]",254.06975689996034,256.06977130007,254.06975689996034,255.06976490002126,255.05308949993923,256.05309000005946,"[0, 0, 0]",1,254.06975689996034,256.06977130007,,,,,,,,,,,,,,,,,,,7,f,1,18,r,MH,49,49,2022_Aug_01_1501,2020.2.10,distractmap1,59.988002336111215,"['Right Face', 'Left Face', 'Right Face', 'Left Face']",
9,"[0.2, -0.2]",0,0,13,13,13,,,None,None,"[0, 0, 0]",256.08642429998145,258.0864457001444,256.08642429998145,257.08644240000285,257.06977940001525,258.0697763999924,"[0, 0, 0]",1,256.08642429998145,258.0864457001444,,,,,,,,,,,,,,,,,,,7,f,1,18,r,MH,49,49,2022_Aug_01_1501,2020.2.10,distractmap1,59.988002336111215,"['Right Face', 'Left Face', 'Right Face', 'Left Face']",
9,"[0.2, -0.2]",0,0,14,14,14,,,None,None,"[0, 0, 0]",258.1031268001534,260.10315590002574,258.1031268001534,259.1031283000484,259.0863741999492,260.08635370014235,"[0, 0, 0]",1,258.1031268001534,260.10315590002574,,,,,,,,,,,,,,,,,,,7,f,1,18,r,MH,49,49,2022_Aug_01_1501,2020.2.10,distractmap1,59.988002336111215,"['Right Face', 'Left Face', 'Right Face', 'Left Face']",
8,"[0, -0.2]",0,0,15,15,15,,,None,None,"[0, 0, 0]",260.11985050002113,262.1193250999786,260.11985050002113,261.11975189996883,261.1031573000364,262.10315430001356,"[0, 0, 0]",1,260.11985050002113,262.1193250999786,,,,,,,,,,,,,,,,,,,7,f,1,18,r,MH,49,49,2022_Aug_01_1501,2020.2.10,distractmap1,59.988002336111215,"['Right Face', 'Left Face', 'Right Face', 'Left Face']",
6,"[0.2, 0]",0,0,16,16,16,,,None,None,"[0, 0, 0]",262.13649019994773,264.13642990007065,262.13649019994773,263.136491100071,263.11990169994533,264.1198253999464,"[0, 0, 0]",1,262.13649019994773,264.13642990007065,,,,,,,,,,,,,,,,,,,7,f,1,18,r,MH,49,49,2022_Aug_01_1501,2020.2.10,distractmap1,59.988002336111215,"['Right Face', 'Left Face', 'Right Face', 'Left Face']",
3,"[0.2, 0.2]",0,0,17,17,17,,,None,None,"[0, 0, 0]",264.15318170003593,266.1532328000758,264.15318170003593,265.1531839000527,265.13651820016094,266.13652820000425,"[0, 0, 0]",1,264.15318170003593,266.1532328000758,,,,,,,,,,,,,,,,,,,7,f,1,18,r,MH,49,49,2022_Aug_01_1501,2020.2.10,distractmap1,59.988002336111215,"['Right Face', 'Left Face', 'Right Face', 'Left Face']",
6,"[0.2, 0]",1,0,18,18,18,,,None,None,"[0, 0, 0]",266.1693582001608,268.1698580000084,266.1693582001608,267.1698637001682,267.15319540002383,268.1532153999433,"[0, 0, 0]",1,266.1693582001608,268.1698580000084,,,,,,,,,,,,,,,,,,,7,f,1,18,r,MH,49,49,2022_Aug_01_1501,2020.2.10,distractmap1,59.988002336111215,"['Right Face', 'Left Face', 'Right Face', 'Left Face']",
5,"[0, 0]",0,0,19,19,19,,,None,None,"[0, 0, 0]",268.18654439994134,270.18656169995666,268.18654439994134,269.1865348999854,269.1698696000967,270.16988270008005,"[0, 0, 0]",1,268.18654439994134,270.18656169995666,,,,,,,,,,,,,,,,,,,7,f,1,18,r,MH,49,49,2022_Aug_01_1501,2020.2.10,distractmap1,59.988002336111215,"['Right Face', 'Left Face', 'Right Face', 'Left Face']",
7,"[-0.2, -0.2]",0,0,20,20,20,,,None,None,"[0, 0, 0]",270.20321800000966,272.2032300999854,270.20321800000966,271.2032294999808,271.18657000013627,272.18658940005116,"[0, 0, 0]",1,270.20321800000966,272.2032300999854,,,,,,,,,,,,,,,,,,,7,f,1,18,r,MH,49,49,2022_Aug_01_1501,2020.2.10,distractmap1,59.988002336111215,"['Right Face', 'Left Face', 'Right Face', 'Left Face']",
5,"[0, 0]",1,0,21,21,21,,,None,None,"[0, 0, 0]",272.21989760012366,274.21992209996097,272.21989760012366,273.219921000069,273.20316600007936,274.20325250015594,"[0, 0, 0]",1,272.21989760012366,274.21992209996097,,,,,,,,,,,,,,,,,,,7,f,1,18,r,MH,49,49,2022_Aug_01_1501,2020.2.10,distractmap1,59.988002336111215,"['Right Face', 'Left Face', 'Right Face', 'Left Face']",
1,"[-0.2, 0.2]",0,0,22,22,22,,,None,None,"[0, 0, 0]",274.2365866000764,276.2366088000126,274.2365866000764,275.2366280001588,275.21992009994574,276.2198298999574,"[0, 0, 0]",1,274.2365866000764,276.2366088000126,,,,,,,,,,,,,,,,,,,7,f,1,18,r,MH,49,49,2022_Aug_01_1501,2020.2.10,distractmap1,59.988002336111215,"['Right Face', 'Left Face', 'Right Face', 'Left Face']",
7,"[-0.2, -0.2]",0,0,23,23,23,,,None,None,"[0, 0, 0]",276.2532755001448,278.25324380001985,276.2532755001448,277.25327720004134,277.23661749996245,278.2366277000401,"[0, 0, 0]",0,276.2532755001448,278.25324380001985,,,,,,,,,,,,,,,,,,,7,f,1,18,r,MH,49,49,2022_Aug_01_1501,2020.2.10,distractmap1,59.988002336111215,"['Right Face', 'Left Face', 'Right Face', 'Left Face']",
9,"[0.2, -0.2]",0,0,24,24,24,,,None,None,"[0, 0, 0]",278.2699657001067,280.26996870012954,278.2699657001067,279.26998520013876,279.2533007999882,280.2532959000673,"[0, 0, 0]",1,278.2699657001067,280.26996870012954,,,,,,,,,,,,,,,,,,,7,f,1,18,r,MH,49,49,2022_Aug_01_1501,2020.2.10,distractmap1,59.988002336111215,"['Right Face', 'Left Face', 'Right Face', 'Left Face']",
3,"[0.2, 0.2]",0,0,25,25,25,,,None,None,"[0, 0, 0]",280.2866504001431,282.28666530014016,280.2866504001431,281.28665650007315,281.2699794000946,282.26999090006575,"[0, 0, 0]",1,280.2866504001431,282.28666530014016,,,,,,,,,,,,,,,,,,,7,f,1,18,r,MH,49,49,2022_Aug_01_1501,2020.2.10,distractmap1,59.988002336111215,"['Right Face', 'Left Face', 'Right Face', 'Left Face']",
9,"[0.2, -0.2]",1,0,26,26,26,,,None,None,"[0, 0, 0]",282.3033130001277,284.30333909997717,282.3033130001277,283.3033207000699,283.28666220000014,284.2866660000291,"[0, 0, 0]",1,282.3033130001277,284.30333909997717,,,,,,,,,,,,,,,,,,,7,f,1,18,r,MH,49,49,2022_Aug_01_1501,2020.2.10,distractmap1,59.988002336111215,"['Right Face', 'Left Face', 'Right Face', 'Left Face']",
6,"[0.2, 0]",0,0,27,27,27,,,None,None,"[0, 0, 0]",284.3199930000119,286.32003840012476,284.3199930000119,285.3195666000247,285.30333909997717,286.30334670003504,"[0, 0, 0]",0,284.3199930000119,286.32003840012476,,,,,,,,,,,,,,,,,,,7,f,1,18,r,MH,49,49,2022_Aug_01_1501,2020.2.10,distractmap1,59.988002336111215,"['Right Face', 'Left Face', 'Right Face', 'Left Face']",
2,"[0, 0.2]",0,0,28,28,28,,,None,None,"[0, 0, 0]",286.33668720000423,288.3367171001155,286.33668720000423,287.33671590010636,287.3200557001401,288.32003609999083,"[0, 0, 0]",1,286.33668720000423,288.3367171001155,,,,,,,,,,,,,,,,,,,7,f,1,18,r,MH,49,49,2022_Aug_01_1501,2020.2.10,distractmap1,59.988002336111215,"['Right Face', 'Left Face', 'Right Face', 'Left Face']",
5,"[0, 0]",0,0,29,29,29,,,None,None,"[0, 0, 0]",288.35337519994937,290.35339240008034,288.35337519994937,289.3533728001639,289.3367194000166,290.33673460013233,"[0, 0, 0]",1,288.35337519994937,290.35339240008034,,,,,,,,,,,,,,,,,,,7,f,1,18,r,MH,49,49,2022_Aug_01_1501,2020.2.10,distractmap1,59.988002336111215,"['Right Face', 'Left Face', 'Right Face', 'Left Face']",
,,,,,,,,,,,,,,,,,,,,,,290.3700566000771,None,space,290.3700566000771,None,,,,,,,,,,,,,,7,f,1,18,r,MH,49,49,2022_Aug_01_1501,2020.2.10,distractmap1,59.988002336111215,"['Right Face', 'Left Face', 'Right Face', 'Left Face']",
,,,,,,,484.5383715000935,None,,,,,,,,,,,,,,,,,,,339.67073699994944,339.67073699994944,None,space,92.94962379988283,339.67073699994944,None,464.5382071000058,None,20.308641975308642,453.0842628001701,,,7,f,1,18,r,MH,49,49,2022_Aug_01_1501,2020.2.10,distractmap1,59.988002336111215,"['Right Face', 'Left Face', 'Right Face', 'Left Face']",
,,,,,,,519.5553348001558,None,,,,,,,,,,,,,,,,,,,,,,,,,,499.5551859000698,None,36.54320987654321,490.0517516999971,0.015217499807476997,5.013371999841183,7,f,1,18,r,MH,49,49,2022_Aug_01_1501,2020.2.10,distractmap1,59.988002336111215,"['Right Face', 'Left Face', 'Right Face', 'Left Face']",
,,,,,,,554.5723010001238,None,,,,,,,,,,,,,,,,,,,,,,,,,,534.5721370000392,None,42.34567901234568,525.1187372000422,0.014693500008434057,5.0122526998165995,7,f,1,18,r,MH,49,49,2022_Aug_01_1501,2020.2.10,distractmap1,59.988002336111215,"['Right Face', 'Left Face', 'Right Face', 'Left Face']",
3,"[0.2, 0.2]",None,0,0,0,0,569.6224478001241,None,None,None,"[0, 0, 0]",574.6216696000192,576.6225008999463,574.6216696000192,575.6224869000725,575.6224869000725,576.6225008999463,"[0, 0, 0]",1,574.6216696000192,576.6225008999463,,,,,,,,,,,,,,,,,0.014658800093457103,5.012271400075406,7,f,1,18,r,MH,49,49,2022_Aug_01_1501,2020.2.10,distractmap1,59.988002336111215,"['Right Face', 'Left Face', 'Right Face', 'Left Face']",
3,"[0.2, 0.2]",None,0,1,1,1,,,None,None,"[0, 0, 0]",576.6391724999994,578.6391813000664,576.6391724999994,577.6391704999842,577.6225064001046,578.6225161999464,"[0, 0, 0]",0,576.6391724999994,578.6391813000664,,,,,,,,,,,,,,,,,,,7,f,1,18,r,MH,49,49,2022_Aug_01_1501,2020.2.10,distractmap1,59.988002336111215,"['Right Face', 'Left Face', 'Right Face', 'Left Face']",
5,"[0, 0]",0,0,2,2,2,,,None,None,"[0, 0, 0]",578.6558946000878,580.6558902000543,578.6558946000878,579.6558960000984,579.6391898000147,580.6391941001639,"[0, 0, 0]",0,578.6558946000878,580.6558902000543,,,,,,,,,,,,,,,,,,,7,f,1,18,r,MH,49,49,2022_Aug_01_1501,2020.2.10,distractmap1,59.988002336111215,"['Right Face', 'Left Face', 'Right Face', 'Left Face']",
1,"[-0.2, 0.2]",0,0,3,3,3,,,None,None,"[0, 0, 0]",580.6725421000738,582.6725602999795,580.6725421000738,581.6725435000844,581.6558833001181,582.6559180000331,"[0, 0, 0]",1,580.6725421000738,582.6725602999795,,,,,,,,,,,,,,,,,,,7,f,1,18,r,MH,49,49,2022_Aug_01_1501,2020.2.10,distractmap1,59.988002336111215,"['Right Face', 'Left Face', 'Right Face', 'Left Face']",
5,"[0, 0]",1,0,4,4,4,,,None,None,"[0, 0, 0]",582.6892216000706,584.6892342001665,582.6892216000706,583.6892272001132,583.6725592999719,584.672569300048,"[0, 0, 0]",1,582.6892216000706,584.6892342001665,,,,,,,,,,,,,,,,,,,7,f,1,18,r,MH,49,49,2022_Aug_01_1501,2020.2.10,distractmap1,59.988002336111215,"['Right Face', 'Left Face', 'Right Face', 'Left Face']",
8,"[0, -0.2]",0,0,5,5,5,,,None,None,"[0, 0, 0]",584.7059236001223,586.705936399987,584.7059236001223,585.7059288001619,585.689243900124,586.6892548000906,"[0, 0, 0]",1,584.7059236001223,586.705936399987,,,,,,,,,,,,,,,,,,,7,f,1,18,r,MH,49,49,2022_Aug_01_1501,2020.2.10,distractmap1,59.988002336111215,"['Right Face', 'Left Face', 'Right Face', 'Left Face']",
5,"[0, 0]",1,0,6,6,6,,,None,None,"[0, 0, 0]",586.7225981999654,588.722607200034,586.7225981999654,587.7226029001176,587.7059681999963,588.705961599946,"[0, 0, 0]",1,586.7225981999654,588.722607200034,,,,,,,,,,,,,,,,,,,7,f,1,18,r,MH,49,49,2022_Aug_01_1501,2020.2.10,distractmap1,59.988002336111215,"['Right Face', 'Left Face', 'Right Face', 'Left Face']",
7,"[-0.2, -0.2]",0,0,7,7,7,,,None,None,"[0, 0, 0]",588.7392772999592,590.7392965001054,588.7392772999592,589.7392707001418,589.7225596001372,590.7226172999945,"[0, 0, 0]",1,588.7392772999592,590.7392965001054,,,,,,,,,,,,,,,,,,,7,f,1,18,r,MH,49,49,2022_Aug_01_1501,2020.2.10,distractmap1,59.988002336111215,"['Right Face', 'Left Face', 'Right Face', 'Left Face']",
5,"[0, 0]",1,0,8,8,8,,,None,None,"[0, 0, 0]",590.755985799944,592.7559816001449,590.755985799944,591.7559738000855,591.739288700046,592.739301700145,"[0, 0, 0]",1,590.755985799944,592.7559816001449,,,,,,,,,,,,,,,,,,,7,f,1,18,r,MH,49,49,2022_Aug_01_1501,2020.2.10,distractmap1,59.988002336111215,"['Right Face', 'Left Face', 'Right Face', 'Left Face']",
7,"[-0.2, -0.2]",1,0,9,9,9,,,None,None,"[0, 0, 0]",592.7726431000046,594.7726541999727,592.7726431000046,593.77266040002,593.7560207999777,594.7559893000871,"[0, 0, 0]",1,592.7726431000046,594.7726541999727,,,,,,,,,,,,,,,,,,,7,f,1,18,r,MH,49,49,2022_Aug_01_1501,2020.2.10,distractmap1,59.988002336111215,"['Right Face', 'Left Face', 'Right Face', 'Left Face']",
,,,,,,,,,,,,,,,,,,,,,,594.8559946999885,None,,,,,,,,,,,,,,,,,7,f,1,18,r,MH,49,49,2022_Aug_01_1501,2020.2.10,distractmap1,59.988002336111215,"['Right Face', 'Left Face', 'Right Face', 'Left Face']",
6,"[0.2, 0]",None,0,0,0,0,604.8727529000025,None,None,None,"[0, 0, 0]",609.8727872001473,611.8728145000059,609.8727872001473,610.8728141000029,610.8728141000029,611.8728145000059,"[0, 0, 0]",1,609.8727872001473,611.8728145000059,,,,,,,,,,,,,,,,,,,7,f,1,18,r,MH,49,49,2022_Aug_01_1501,2020.2.10,distractmap1,59.988002336111215,"['Right Face', 'Left Face', 'Right Face', 'Left Face']",
1,"[-0.2, 0.2]",None,0,1,1,1,,,None,None,"[0, 0, 0]",611.8894672000315,613.8894887000788,611.8894672000315,612.8894827000331,612.8728317001369,613.8728269999847,"[0, 0, 0]",0,611.8894672000315,613.8894887000788,,,,,,,,,,,,,,,,,,,7,f,1,18,r,MH,49,49,2022_Aug_01_1501,2020.2.10,distractmap1,59.988002336111215,"['Right Face', 'Left Face', 'Right Face', 'Left Face']",
6,"[0.2, 0]",1,0,2,2,2,,,None,None,"[0, 0, 0]",613.9061499000527,615.9061724001076,613.9061499000527,614.9060551000293,614.8894057001453,615.8895129000302,"[0, 0, 0]",1,613.9061499000527,615.9061724001076,,,,,,,,,,,,,,,,,,,7,f,1,18,r,MH,49,49,2022_Aug_01_1501,2020.2.10,distractmap1,59.988002336111215,"['Right Face', 'Left Face', 'Right Face', 'Left Face']",
4,"[-0.2, 0]",0,0,3,3,3,,,None,None,"[0, 0, 0]",615.9228457999416,617.9228728001472,615.9228457999416,616.9228817000985,616.906197299948,617.9061910000164,"[0, 0, 0]",1,615.9228457999416,617.9228728001472,,,,,,,,,,,,,,,,,,,7,f,1,18,r,MH,49,49,2022_Aug_01_1501,2020.2.10,distractmap1,59.988002336111215,"['Right Face', 'Left Face', 'Right Face', 'Left Face']",
1,"[-0.2, 0.2]",0,0,4,4,4,,,None,None,"[0, 0, 0]",617.9395250000525,619.9395514000207,617.9395250000525,618.9395952001214,618.9230754999444,619.9228909001686,"[0, 0, 0]",0,617.9395250000525,619.9395514000207,,,,,,,,,,,,,,,,,,,7,f,1,18,r,MH,49,49,2022_Aug_01_1501,2020.2.10,distractmap1,59.988002336111215,"['Right Face', 'Left Face', 'Right Face', 'Left Face']",
8,"[0, -0.2]",0,0,5,5,5,,,None,None,"[0, 0, 0]",619.9562151001301,621.9562419999857,619.9562151001301,620.9562979999464,620.9395459000953,621.9395747999661,"[0, 0, 0]",1,619.9562151001301,621.9562419999857,,,,,,,,,,,,,,,,,,,7,f,1,18,r,MH,49,49,2022_Aug_01_1501,2020.2.10,distractmap1,59.988002336111215,"['Right Face', 'Left Face', 'Right Face', 'Left Face']",
1,"[-0.2, 0.2]",1,0,6,6,6,,,None,None,"[0, 0, 0]",621.9729132000357,623.9729347999673,621.9729132000357,622.9729105001315,622.9562606001273,623.9562544999644,"[0, 0, 0]",1,621.9729132000357,623.9729347999673,,,,,,,,,,,,,,,,,,,7,f,1,18,r,MH,49,49,2022_Aug_01_1501,2020.2.10,distractmap1,59.988002336111215,"['Right Face', 'Left Face', 'Right Face', 'Left Face']",
8,"[0, -0.2]",1,0,7,7,7,,,None,None,"[0, 0, 0]",623.9895705999807,625.9896269999444,623.9895705999807,624.9895850999746,624.9729174000677,625.9729242001195,"[0, 0, 0]",1,623.9895705999807,625.9896269999444,,,,,,,,,,,,,,,,,,,7,f,1,18,r,MH,49,49,2022_Aug_01_1501,2020.2.10,distractmap1,59.988002336111215,"['Right Face', 'Left Face', 'Right Face', 'Left Face']",
1,"[-0.2, 0.2]",1,0,8,8,8,,,None,None,"[0, 0, 0]",626.0063122999854,628.0062796000857,626.0063122999854,627.0062698000111,626.9895997000858,627.9896162999794,"[0, 0, 0]",1,626.0063122999854,628.0062796000857,,,,,,,,,,,,,,,,,,,7,f,1,18,r,MH,49,49,2022_Aug_01_1501,2020.2.10,distractmap1,59.988002336111215,"['Right Face', 'Left Face', 'Right Face', 'Left Face']",
6,"[0.2, 0]",0,0,9,9,9,,,None,None,"[0, 0, 0]",628.0229462001007,630.0229879999533,628.0229462001007,629.0229746000841,629.0062704000156,630.006287000142,"[0, 0, 0]",1,628.0229462001007,630.0229879999533,,,,,,,,,,,,,,,,,,,7,f,1,18,r,MH,49,49,2022_Aug_01_1501,2020.2.10,distractmap1,59.988002336111215,"['Right Face', 'Left Face', 'Right Face', 'Left Face']",
,,,,,,,,,,,,,,,,,,,,,,630.0396374000702,None,,,,,,,,,,,,,,,,,7,f,1,18,r,MH,49,49,2022_Aug_01_1501,2020.2.10,distractmap1,59.988002336111215,"['Right Face', 'Left Face', 'Right Face', 'Left Face']",
7,"[-0.2, -0.2]",None,0,0,0,0,642.0564109000843,None,None,None,"[0, 0, 0]",645.0563239001203,647.0564374001697,645.0563239001203,646.0564423000906,646.0564423000906,647.0564374001697,"[0, 0, 0]",0,645.0563239001203,647.0564374001697,,,,,,,,,,,,,,,,,,,7,f,1,18,r,MH,49,49,2022_Aug_01_1501,2020.2.10,distractmap1,59.988002336111215,"['Right Face', 'Left Face', 'Right Face', 'Left Face']",
7,"[-0.2, -0.2]",None,0,1,1,1,,,None,None,"[0, 0, 0]",647.0731045000721,649.0731290001422,647.0731045000721,648.0730410001706,648.0564642001409,649.056465000147,"[0, 0, 0]",0,647.0731045000721,649.0731290001422,,,,,,,,,,,,,,,,,,,7,f,1,18,r,MH,49,49,2022_Aug_01_1501,2020.2.10,distractmap1,59.988002336111215,"['Right Face', 'Left Face', 'Right Face', 'Left Face']",
7,"[-0.2, -0.2]",1,0,2,2,2,,,None,None,"[0, 0, 0]",649.0898084000219,651.0898078000173,649.0898084000219,650.0898098000325,650.0731313000433,651.0731436000206,"[0, 0, 0]",1,649.0898084000219,651.0898078000173,,,,,,,,,,,,,,,,,,,7,f,1,18,r,MH,49,49,2022_Aug_01_1501,2020.2.10,distractmap1,59.988002336111215,"['Right Face', 'Left Face', 'Right Face', 'Left Face']",
5,"[0, 0]",0,0,3,3,3,,,None,None,"[0, 0, 0]",651.1064899000339,653.1065077001695,651.1064899000339,652.1064798999578,652.0898427001666,653.0898287999444,"[0, 0, 0]",1,651.1064899000339,653.1065077001695,,,,,,,,,,,,,,,,,,,7,f,1,18,r,MH,49,49,2022_Aug_01_1501,2020.2.10,distractmap1,59.988002336111215,"['Right Face', 'Left Face', 'Right Face', 'Left Face']",
1,"[-0.2, 0.2]",0,0,4,4,4,,,None,None,"[0, 0, 0]",653.1231637001038,655.1231724000536,653.1231637001038,654.1231639999896,654.106504100142,655.1065150001086,"[0, 0, 0]",1,653.1231637001038,655.1231724000536,,,,,,,,,,,,,,,,,,,7,f,1,18,r,MH,49,49,2022_Aug_01_1501,2020.2.10,distractmap1,59.988002336111215,"['Right Face', 'Left Face', 'Right Face', 'Left Face']",
6,"[0.2, 0]",0,0,5,5,5,,,None,None,"[0, 0, 0]",655.1398442999925,657.139872000087,655.1398442999925,656.1398714000825,656.1231872001663,657.1231891000643,"[0, 0, 0]",1,655.1398442999925,657.139872000087,,,,,,,,,,,,,,,,,,,7,f,1,18,r,MH,49,49,2022_Aug_01_1501,2020.2.10,distractmap1,59.988002336111215,"['Right Face', 'Left Face', 'Right Face', 'Left Face']",
1,"[-0.2, 0.2]",1,0,6,6,6,,,None,None,"[0, 0, 0]",657.156558800023,659.1565409000032,657.156558800023,658.1565468001645,658.1398738999851,659.1398821000475,"[0, 0, 0]",1,657.156558800023,659.1565409000032,,,,,,,,,,,,,,,,,,,7,f,1,18,r,MH,49,49,2022_Aug_01_1501,2020.2.10,distractmap1,59.988002336111215,"['Right Face', 'Left Face', 'Right Face', 'Left Face']",
7,"[-0.2, -0.2]",0,0,7,7,7,,,None,None,"[0, 0, 0]",659.1732074001338,661.1732254000381,659.1732074001338,660.173231099965,660.156582799973,661.1565598000307,"[0, 0, 0]",1,659.1732074001338,661.1732254000381,,,,,,,,,,,,,,,,,,,7,f,1,18,r,MH,49,49,2022_Aug_01_1501,2020.2.10,distractmap1,59.988002336111215,"['Right Face', 'Left Face', 'Right Face', 'Left Face']",
6,"[0.2, 0]",0,0,8,8,8,,,None,None,"[0, 0, 0]",661.1899070001673,663.1899115000851,661.1899070001673,662.1899272000883,662.1732369000092,663.1732433999423,"[0, 0, 0]",0,661.1899070001673,663.1899115000851,,,,,,,,,,,,,,,,,,,7,f,1,18,r,MH,49,49,2022_Aug_01_1501,2020.2.10,distractmap1,59.988002336111215,"['Right Face', 'Left Face', 'Right Face', 'Left Face']",
7,"[-0.2, -0.2]",1,0,9,9,9,,,None,None,"[0, 0, 0]",663.2065902999602,665.2066083999816,663.2065902999602,664.2066024001688,664.1899236000609,665.189948100131,"[0, 0, 0]",1,663.2065902999602,665.2066083999816,,,,,,,,,,,,,,,,,,,7,f,1,18,r,MH,49,49,2022_Aug_01_1501,2020.2.10,distractmap1,59.988002336111215,"['Right Face', 'Left Face', 'Right Face', 'Left Face']",
,,,,,,,,,,,,,,,,,,,,,,665.223287000088,None,,,,,,,,,,,,,,,,,7,f,1,18,r,MH,49,49,2022_Aug_01_1501,2020.2.10,distractmap1,59.988002336111215,"['Right Face', 'Left Face', 'Right Face', 'Left Face']",
4,"[-0.2, 0]",None,0,0,0,0,675.4737134999596,None,None,None,"[0, 0, 0]",680.2566023999825,682.2567374999635,680.2566023999825,681.2567384999711,681.2567384999711,682.2567374999635,"[0, 0, 0]",1,680.2566023999825,682.2567374999635,,,,,,,,,,,,,,,,,,,7,f,1,18,r,MH,49,49,2022_Aug_01_1501,2020.2.10,distractmap1,59.988002336111215,"['Right Face', 'Left Face', 'Right Face', 'Left Face']",
5,"[0, 0]",None,0,1,1,1,,,None,None,"[0, 0, 0]",682.2733970000409,684.2734006000683,682.2733970000409,683.272911200067,683.256755300099,684.2568649000023,"[0, 0, 0]",1,682.2733970000409,684.2734006000683,,,,,,,,,,,,,,,,,,,7,f,1,18,r,MH,49,49,2022_Aug_01_1501,2020.2.10,distractmap1,59.988002336111215,"['Right Face', 'Left Face', 'Right Face', 'Left Face']",
6,"[0.2, 0]",0,0,2,2,2,,,None,None,"[0, 0, 0]",684.290094200056,686.2901161001064,684.290094200056,685.2901306001004,685.2734248000197,686.2734097000211,"[0, 0, 0]",1,684.290094200056,686.2901161001064,,,,,,,,,,,,,,,,,,,7,f,1,18,r,MH,49,49,2022_Aug_01_1501,2020.2.10,distractmap1,59.988002336111215,"['Right Face', 'Left Face', 'Right Face', 'Left Face']",
1,"[-0.2, 0.2]",0,0,3,3,3,,,None,None,"[0, 0, 0]",686.3066686000675,688.306812300114,686.3066686000675,687.3067906000651,687.2901169001125,688.2901288000867,"[0, 0, 0]",1,686.3066686000675,688.306812300114,,,,,,,,,,,,,,,,,,,7,f,1,18,r,MH,49,49,2022_Aug_01_1501,2020.2.10,distractmap1,59.988002336111215,"['Right Face', 'Left Face', 'Right Face', 'Left Face']",
6,"[0.2, 0]",1,0,4,4,4,,,None,None,"[0, 0, 0]",688.3901297000702,None,688.3901297000702,689.3901387001388,689.3734723001253,None,"[0, 0, 0]",1,688.3901297000702,None,,,,,,,,,,,,,,,,,,,7,f,1,18,r,MH,49,49,2022_Aug_01_1501,2020.2.10,distractmap1,59.988002336111215,"['Right Face', 'Left Face', 'Right Face', 'Left Face']",
1,"[-0.2, 0.2]",1,0,5,5,5,,,None,None,"[0, 0, 0]",690.3401589000132,692.3401508999523,690.3401589000132,691.3401576001197,691.3234878999647,692.3234970001504,"[0, 0, 0]",1,690.3401589000132,692.3401508999523,,,,,,,,,,,,,,,,,,,7,f,1,18,r,MH,49,49,2022_Aug_01_1501,2020.2.10,distractmap1,59.988002336111215,"['Right Face', 'Left Face', 'Right Face', 'Left Face']",
2,"[0, 0.2]",0,0,6,6,6,,,None,None,"[0, 0, 0]",692.3568357001059,694.3568655999843,692.3568357001059,693.356841100147,693.3401742000133,694.3401741001289,"[0, 0, 0]",1,692.3568357001059,694.3568655999843,,,,,,,,,,,,,,,,,,,7,f,1,18,r,MH,49,49,2022_Aug_01_1501,2020.2.10,distractmap1,59.988002336111215,"['Right Face', 'Left Face', 'Right Face', 'Left Face']",
3,"[0.2, 0.2]",0,0,7,7,7,,,None,None,"[0, 0, 0]",694.3735227000434,696.3735452999827,694.3735227000434,695.3735255999491,695.3568669001106,696.3568689001258,"[0, 0, 0]",1,694.3735227000434,696.3735452999827,,,,,,,,,,,,,,,,,,,7,f,1,18,r,MH,49,49,2022_Aug_01_1501,2020.2.10,distractmap1,59.988002336111215,"['Right Face', 'Left Face', 'Right Face', 'Left Face']",
6,"[0.2, 0]",0,0,8,8,8,,,None,None,"[0, 0, 0]",696.3901907000691,698.3902221000753,696.3901907000691,697.3902255999856,697.373546600109,698.3735897000879,"[0, 0, 0]",1,696.3901907000691,698.3902221000753,,,,,,,,,,,,,,,,,,,7,f,1,18,r,MH,49,49,2022_Aug_01_1501,2020.2.10,distractmap1,59.988002336111215,"['Right Face', 'Left Face', 'Right Face', 'Left Face']",
3,"[0.2, 0.2]",1,0,9,9,9,,,None,None,"[0, 0, 0]",698.4069114001468,700.4069231001195,698.4069114001468,699.4069105000235,699.3901351999957,700.3902513999492,"[0, 0, 0]",1,698.4069114001468,700.4069231001195,,,,,,,,,,,,,,,,,,,7,f,1,18,r,MH,49,49,2022_Aug_01_1501,2020.2.10,distractmap1,59.988002336111215,"['Right Face', 'Left Face', 'Right Face', 'Left Face']",
,,,,,,,,,,,,,,,,,,,,,,700.4402499999851,None,,,,,,,,,,,,,,,,,7,f,1,18,r,MH,49,49,2022_Aug_01_1501,2020.2.10,distractmap1,59.988002336111215,"['Right Face', 'Left Face', 'Right Face', 'Left Face']",
,,,,,,,,,,,,,,,,,,,,,,,,,,,,,,,,,,,,43.888888888888886,672.988516600104,,,7,f,1,18,r,MH,49,49,2022_Aug_01_1501,2020.2.10,distractmap1,59.988002336111215,"['Right Face', 'Left Face', 'Right Face', 'Left Face']",
2,"[0, 0.2]",None,0,0,0,0,717.7073081000708,None,None,None,"[0, 0, 0]",720.4570331999566,722.4571180001367,720.4570331999566,721.4570939000696,721.4570939000696,722.4571180001367,"[0, 0, 0]",1,720.4570331999566,722.4571180001367,,,,,,,,,,,,,,,,,0.012851200066506863,5.008665200090036,7,f,1,18,r,MH,49,49,2022_Aug_01_1501,2020.2.10,distractmap1,59.988002336111215,"['Right Face', 'Left Face', 'Right Face', 'Left Face']",
5,"[0, 0]",None,0,1,1,1,,,None,None,"[0, 0, 0]",722.4737619999796,724.4737857000437,722.4737619999796,723.4737854001578,723.4571279000957,724.4571178001352,"[0, 0, 0]",1,722.4737619999796,724.4737857000437,,,,,,,,,,,,,,,,,,,7,f,1,18,r,MH,49,49,2022_Aug_01_1501,2020.2.10,distractmap1,59.988002336111215,"['Right Face', 'Left Face', 'Right Face', 'Left Face']",
6,"[0.2, 0]",0,0,2,2,2,,,None,None,"[0, 0, 0]",724.4904569000937,726.490471499972,724.4904569000937,725.4904541999567,725.473798400024,726.4737889999524,"[0, 0, 0]",1,724.4904569000937,726.490471499972,,,,,,,,,,,,,,,,,,,7,f,1,18,r,MH,49,49,2022_Aug_01_1501,2020.2.10,distractmap1,59.988002336111215,"['Right Face', 'Left Face', 'Right Face', 'Left Face']",
1,"[-0.2, 0.2]",0,0,3,3,3,,,None,None,"[0, 0, 0]",726.5071223999839,728.5071569001302,726.5071223999839,727.507135800086,727.4904770001303,728.4904863000847,"[0, 0, 0]",1,726.5071223999839,728.5071569001302,,,,,,,,,,,,,,,,,,,7,f,1,18,r,MH,49,49,2022_Aug_01_1501,2020.2.10,distractmap1,59.988002336111215,"['Right Face', 'Left Face', 'Right Face', 'Left Face']",
6,"[0.2, 0]",1,0,4,4,4,,,None,None,"[0, 0, 0]",728.5736783000175,None,728.5736783000175,729.5738181001507,729.557168800151,None,"[0, 0, 0]",1,728.5736783000175,None,,,,,,,,,,,,,,,,,,,7,f,1,18,r,MH,49,49,2022_Aug_01_1501,2020.2.10,distractmap1,59.988002336111215,"['Right Face', 'Left Face', 'Right Face', 'Left Face']",
6,"[0.2, 0]",0,0,5,5,5,,,None,None,"[0, 0, 0]",730.5404976001009,732.5405147001147,730.5404976001009,731.5405051000416,731.5237207999453,732.5238620999735,"[0, 0, 0]",1,730.5404976001009,732.5405147001147,,,,,,,,,,,,,,,,,,,7,f,1,18,r,MH,49,49,2022_Aug_01_1501,2020.2.10,distractmap1,59.988002336111215,"['Right Face', 'Left Face', 'Right Face', 'Left Face']",
9,"[0.2, -0.2]",0,0,6,6,6,,,None,None,"[0, 0, 0]",732.5571920000948,734.5571964001283,732.5571920000948,733.5571984001435,733.5405292999931,734.5405294999946,"[0, 0, 0]",1,732.5571920000948,734.5571964001283,,,,,,,,,,,,,,,,,,,7,f,1,18,r,MH,49,49,2022_Aug_01_1501,2020.2.10,distractmap1,59.988002336111215,"['Right Face', 'Left Face', 'Right Face', 'Left Face']",
6,"[0.2, 0]",1,0,7,7,7,,,None,None,"[0, 0, 0]",734.5738830999471,736.5739025999792,734.5738830999471,735.5739399001468,735.5572166000493,736.5572095001116,"[0, 0, 0]",1,734.5738830999471,736.5739025999792,,,,,,,,,,,,,,,,,,,7,f,1,18,r,MH,49,49,2022_Aug_01_1501,2020.2.10,distractmap1,59.988002336111215,"['Right Face', 'Left Face', 'Right Face', 'Left Face']",
3,"[0.2, 0.2]",0,0,8,8,8,,,None,None,"[0, 0, 0]",736.5905556001235,738.5905621000566,736.5905556001235,737.5905520000961,737.5738901000004,738.573918600101,"[0, 0, 0]",1,736.5905556001235,738.5905621000566,,,,,,,,,,,,,,,,,,,7,f,1,18,r,MH,49,49,2022_Aug_01_1501,2020.2.10,distractmap1,59.988002336111215,"['Right Face', 'Left Face', 'Right Face', 'Left Face']",
9,"[0.2, -0.2]",0,0,9,9,9,,,None,None,"[0, 0, 0]",738.607232700102,740.6072504001204,738.607232700102,739.6072405001614,739.5905767001677,740.5905804000795,"[0, 0, 0]",0,738.607232700102,740.6072504001204,,,,,,,,,,,,,,,,,,,7,f,1,18,r,MH,49,49,2022_Aug_01_1501,2020.2.10,distractmap1,59.988002336111215,"['Right Face', 'Left Face', 'Right Face', 'Left Face']",
,,,,,,,,,,,,,,,,,,,,,,740.6239271000959,None,,,,,,,,,,,,,,,,,7,f,1,18,r,MH,49,49,2022_Aug_01_1501,2020.2.10,distractmap1,59.988002336111215,"['Right Face', 'Left Face', 'Right Face', 'Left Face']",
,,,,,,,,,,,,,,,,,,,,,,,,,,,,,,,,,,,,38.82716049382716,713.1715169998351,,,7,f,1,18,r,MH,49,49,2022_Aug_01_1501,2020.2.10,distractmap1,59.988002336111215,"['Right Face', 'Left Face', 'Right Face', 'Left Face']",
3,"[0.2, 0.2]",None,0,0,0,0,757.8742025000975,None,None,None,"[0, 0, 0]",760.6573352999985,762.6574403999839,760.6573352999985,761.6574482000433,761.6574482000433,762.6574403999839,"[0, 0, 0]",1,760.6573352999985,762.6574403999839,,,,,,,,,,,,,,,,,0.013548500137403607,5.010076500009745,7,f,1,18,r,MH,49,49,2022_Aug_01_1501,2020.2.10,distractmap1,59.988002336111215,"['Right Face', 'Left Face', 'Right Face', 'Left Face']",
9,"[0.2, -0.2]",None,0,1,1,1,,,None,None,"[0, 0, 0]",762.6741286001634,764.674125400139,762.6741286001634,763.6741196000949,763.6574619000312,764.6574554999825,"[0, 0, 0]",1,762.6741286001634,764.674125400139,,,,,,,,,,,,,,,,,,,7,f,1,18,r,MH,49,49,2022_Aug_01_1501,2020.2.10,distractmap1,59.988002336111215,"['Right Face', 'Left Face', 'Right Face', 'Left Face']",
3,"[0.2, 0.2]",1,0,2,2,2,,,None,None,"[0, 0, 0]",764.690830500098,766.690830900101,764.690830500098,765.6908307000995,765.6741432000417,766.6741431001574,"[0, 0, 0]",1,764.690830500098,766.690830900101,,,,,,,,,,,,,,,,,,,7,f,1,18,r,MH,49,49,2022_Aug_01_1501,2020.2.10,distractmap1,59.988002336111215,"['Right Face', 'Left Face', 'Right Face', 'Left Face']",
7,"[-0.2, -0.2]",0,0,3,3,3,,,None,None,"[0, 0, 0]",766.7074927000795,768.7074945000932,766.7074927000795,767.7074927999638,767.6908265000675,768.6908291000873,"[0, 0, 0]",1,766.7074927000795,768.7074945000932,,,,,,,,,,,,,,,,,,,7,f,1,18,r,MH,49,49,2022_Aug_01_1501,2020.2.10,distractmap1,59.988002336111215,"['Right Face', 'Left Face', 'Right Face', 'Left Face']",
8,"[0, -0.2]",0,0,4,4,4,,,None,None,"[0, 0, 0]",768.7414731001481,None,768.7414731001481,769.7408441000152,769.7241706999484,770.7241752000991,"[0, 0, 0]",1,768.7414731001481,None,,,,,,,,,,,,,,,,,,,7,f,1,18,r,MH,49,49,2022_Aug_01_1501,2020.2.10,distractmap1,59.988002336111215,"['Right Face', 'Left Face', 'Right Face', 'Left Face']",
4,"[-0.2, 0]",0,0,5,5,5,,,None,None,"[0, 0, 0]",770.7408601001371,772.7408627001569,770.7408601001371,771.740866499953,771.724182800157,772.7242078001145,"[0, 0, 0]",1,770.7408601001371,772.7408627001569,,,,,,,,,,,,,,,,,,,7,f,1,18,r,MH,49,49,2022_Aug_01_1501,2020.2.10,distractmap1,59.988002336111215,"['Right Face', 'Left Face', 'Right Face', 'Left Face']",
4,"[-0.2, 0]",0,0,6,6,6,,,None,None,"[0, 0, 0]",772.7575272000395,774.7575449000578,772.7575272000395,773.7575493000913,773.7408924000338,774.7408966000658,"[0, 0, 0]",1,772.7575272000395,774.7575449000578,,,,,,,,,,,,,,,,,,,7,f,1,18,r,MH,49,49,2022_Aug_01_1501,2020.2.10,distractmap1,59.988002336111215,"['Right Face', 'Left Face', 'Right Face', 'Left Face']",
1,"[-0.2, 0.2]",0,0,7,7,7,,,None,None,"[0, 0, 0]",774.7742157001048,776.7742298999801,774.7742157001048,775.7745459999423,775.75757360016,776.7575679000001,"[0, 0, 0]",1,774.7742157001048,776.7742298999801,,,,,,,,,,,,,,,,,,,7,f,1,18,r,MH,49,49,2022_Aug_01_1501,2020.2.10,distractmap1,59.988002336111215,"['Right Face', 'Left Face', 'Right Face', 'Left Face']",
4,"[-0.2, 0]",1,0,8,8,8,,,None,None,"[0, 0, 0]",776.7908970001154,778.7909323000349,776.7908970001154,777.7909266999923,777.7742502000183,778.7742487001233,"[0, 0, 0]",1,776.7908970001154,778.7909323000349,,,,,,,,,,,,,,,,,,,7,f,1,18,r,MH,49,49,2022_Aug_01_1501,2020.2.10,distractmap1,59.988002336111215,"['Right Face', 'Left Face', 'Right Face', 'Left Face']",
8,"[0, -0.2]",0,0,9,9,9,,,None,None,"[0, 0, 0]",778.8075957000256,780.8076112000272,778.8075957000256,779.8076037000865,779.7909413999878,780.7909554999787,"[0, 0, 0]",1,778.8075957000256,780.8076112000272,,,,,,,,,,,,,,,,,,,7,f,1,18,r,MH,49,49,2022_Aug_01_1501,2020.2.10,distractmap1,59.988002336111215,"['Right Face', 'Left Face', 'Right Face', 'Left Face']",
,,,,,,,,,,,,,,,,,,,,,,780.8242619000375,None,,,,,,,,,,,,,,,,,7,f,1,18,r,MH,49,49,2022_Aug_01_1501,2020.2.10,distractmap1,59.988002336111215,"['Right Face', 'Left Face', 'Right Face', 'Left Face']",
,,,,,,,,,,,,,,,,,,,,,,,,,,,,,,,,,,,,74.38271604938271,749.3722067000344,,,7,f,1,18,r,MH,49,49,2022_Aug_01_1501,2020.2.10,distractmap1,59.988002336111215,"['Right Face', 'Left Face', 'Right Face', 'Left Face']",
,,,,,,,815.8412456000224,None,,,,,,,,,,,,,,,,,,,,,,,,,,795.8410742001142,None,32.65432098765432,784.3870332005899,0.013177799992263317,5.009351099841297,7,f,1,18,r,MH,49,49,2022_Aug_01_1501,2020.2.10,distractmap1,59.988002336111215,"['Right Face', 'Left Face', 'Right Face', 'Left Face']",
,,,,,,,850.8582297000103,None,,,,,,,,,,,,,,,,,,,,,,,,,,830.8580341001507,None,35.18518518518518,819.0705975000747,0.015295599587261677,5.013567299582064,7,f,1,18,r,MH,49,49,2022_Aug_01_1501,2020.2.10,distractmap1,59.988002336111215,"['Right Face', 'Left Face', 'Right Face', 'Left Face']",
,,,,,,,885.8751833999995,None,,,,,,,,,,,,,,,,,,,,,,,,,,865.8750329001341,None,50.0,853.0881415002514,0.015371900051832199,5.013600700069219,7,f,1,18,r,MH,49,49,2022_Aug_01_1501,2020.2.10,distractmap1,59.988002336111215,"['Right Face', 'Left Face', 'Right Face', 'Left Face']",
2,"[0, 0.2]",None,0,0,0,0,993.1427681001369,None,None,None,"[0, 0, 0]",995.9094922000077,997.90951830009,995.9094922000077,996.9094976000488,996.9094976000488,997.90951830009,"[0, 0, 0]",1,995.9094922000077,997.90951830009,,,,,,,,,,,,,960.8757941999938,None,,,0.01479079993441701,5.012441099854186,7,f,1,18,r,MH,49,49,2022_Aug_01_1501,2020.2.10,distractmap1,59.988002336111215,"['Right Face', 'Left Face', 'Right Face', 'Left Face']",
5,"[0, 0]",None,0,1,1,1,,,None,None,"[0, 0, 0]",997.9261864,999.9261878000107,997.9261864,998.9261877001263,998.9095141999424,999.9095249001402,"[0, 0, 0]",1,997.9261864,999.9261878000107,,,,,,,,,,,,,,,,,,,7,f,1,18,r,MH,49,49,2022_Aug_01_1501,2020.2.10,distractmap1,59.988002336111215,"['Right Face', 'Left Face', 'Right Face', 'Left Face']",
3,"[0.2, 0.2]",0,0,2,2,2,,,None,None,"[0, 0, 0]",999.9428491001017,1001.9428830000106,999.9428491001017,1000.9428672001231,1000.92649480002,1001.9262264999561,"[0, 0, 0]",1,999.9428491001017,1001.9428830000106,,,,,,,,,,,,,,,,,,,7,f,1,18,r,MH,49,49,2022_Aug_01_1501,2020.2.10,distractmap1,59.988002336111215,"['Right Face', 'Left Face', 'Right Face', 'Left Face']",
5,"[0, 0]",1,0,3,3,3,,,None,None,"[0, 0, 0]",1001.9595570999663,1003.9595635000151,1001.9595570999663,1002.9595531001687,1002.9429210000671,1003.9429138000123,"[0, 0, 0]",1,1001.9595570999663,1003.9595635000151,,,,,,,,,,,,,,,,,,,7,f,1,18,r,MH,49,49,2022_Aug_01_1501,2020.2.10,distractmap1,59.988002336111215,"['Right Face', 'Left Face', 'Right Face', 'Left Face']",
2,"[0, 0.2]",0,0,4,4,4,,,None,None,"[0, 0, 0]",1004.0433292000089,None,1004.0433292000089,1005.0429148001131,1005.0262360000052,None,"[0, 0, 0]",1,1004.0433292000089,None,,,,,,,,,,,,,,,,,,,7,f,1,18,r,MH,49,49,2022_Aug_01_1501,2020.2.10,distractmap1,59.988002336111215,"['Right Face', 'Left Face', 'Right Face', 'Left Face']",
8,"[0, -0.2]",0,0,5,5,5,,,None,None,"[0, 0, 0]",1005.9929266001564,1007.9929377001245,1005.9929266001564,1006.9929192001,1006.9762636001687,1007.9762485001702,"[0, 0, 0]",1,1005.9929266001564,1007.9929377001245,,,,,,,,,,,,,,,,,,,7,f,1,18,r,MH,49,49,2022_Aug_01_1501,2020.2.10,distractmap1,59.988002336111215,"['Right Face', 'Left Face', 'Right Face', 'Left Face']",
4,"[-0.2, 0]",0,0,6,6,6,,,None,None,"[0, 0, 0]",1008.0095927000511,1010.0096146999858,1008.0095927000511,1009.0096144999843,1008.9929512001108,1009.9929384000134,"[0, 0, 0]",1,1008.0095927000511,1010.0096146999858,,,,,,,,,,,,,,,,,,,7,f,1,18,r,MH,49,49,2022_Aug_01_1501,2020.2.10,distractmap1,59.988002336111215,"['Right Face', 'Left Face', 'Right Face', 'Left Face']",
8,"[0, -0.2]",1,0,7,7,7,,,None,None,"[0, 0, 0]",1010.0262931000907,1012.0262519000098,1010.0262931000907,1011.0262850001454,1011.0096167000011,1012.0096226001624,"[0, 0, 0]",1,1010.0262931000907,1012.0262519000098,,,,,,,,,,,,,,,,,,,7,f,1,18,r,MH,49,49,2022_Aug_01_1501,2020.2.10,distractmap1,59.988002336111215,"['Right Face', 'Left Face', 'Right Face', 'Left Face']",
7,"[-0.2, -0.2]",0,0,8,8,8,,,None,None,"[0, 0, 0]",1012.0429738000967,1014.0429987001698,1012.0429738000967,1013.0429841000587,1013.0263533000834,1014.0263167000376,"[0, 0, 0]",1,1012.0429738000967,1014.0429987001698,,,,,,,,,,,,,,,,,,,7,f,1,18,r,MH,49,49,2022_Aug_01_1501,2020.2.10,distractmap1,59.988002336111215,"['Right Face', 'Left Face', 'Right Face', 'Left Face']",
8,"[0, -0.2]",1,0,9,9,9,,,None,None,"[0, 0, 0]",1014.0596537000965,1016.0596632000525,1014.0596537000965,1015.0596696999855,1015.0429919001181,1016.0430189999752,"[0, 0, 0]",1,1014.0596537000965,1016.0596632000525,,,,,,,,,,,,,,,,,,,7,f,1,18,r,MH,49,49,2022_Aug_01_1501,2020.2.10,distractmap1,59.988002336111215,"['Right Face', 'Left Face', 'Right Face', 'Left Face']",
,,,,,,,,,,,,,,,,,,,,,,1016.0763249001466,None,,,,,,,,,,,,,,,,,7,f,1,18,r,MH,49,49,2022_Aug_01_1501,2020.2.10,distractmap1,59.988002336111215,"['Right Face', 'Left Face', 'Right Face', 'Left Face']",
,,,,,,,,,,,,,,,,,,,,,,,,,,,,,,,,,,,,31.97530864197531,987.9742200002074,,,7,f,1,18,r,MH,49,49,2022_Aug_01_1501,2020.2.10,distractmap1,59.988002336111215,"['Right Face', 'Left Face', 'Right Face', 'Left Face']",
2,"[0, 0.2]",None,0,0,0,0,1033.3265981001314,None,None,None,"[0, 0, 0]",1036.1098405001685,1038.1098665001336,1036.1098405001685,1037.1098454000894,1037.1098454000894,1038.1098665001336,"[0, 0, 0]",1,1036.1098405001685,1038.1098665001336,,,,,,,,,,,,,,,,,0.013252999866381288,5.0093388999812305,7,f,1,18,r,MH,49,49,2022_Aug_01_1501,2020.2.10,distractmap1,59.988002336111215,"['Right Face', 'Left Face', 'Right Face', 'Left Face']",
2,"[0, 0.2]",None,0,1,1,1,,,None,None,"[0, 0, 0]",1038.1265239000786,1040.1265517000575,1038.1265239000786,1039.1265329001471,1039.1098893000744,1040.1098730000667,"[0, 0, 0]",1,1038.1265239000786,1040.1265517000575,,,,,,,,,,,,,,,,,,,7,f,1,18,r,MH,49,49,2022_Aug_01_1501,2020.2.10,distractmap1,59.988002336111215,"['Right Face', 'Left Face', 'Right Face', 'Left Face']",
2,"[0, 0.2]",1,0,2,2,2,,,None,None,"[0, 0, 0]",1040.143218100071,1042.1432260000147,1040.143218100071,1041.1432259001303,1041.1265503000468,1042.1265708000865,"[0, 0, 0]",1,1040.143218100071,1042.1432260000147,,,,,,,,,,,,,,,,,,,7,f,1,18,r,MH,49,49,2022_Aug_01_1501,2020.2.10,distractmap1,59.988002336111215,"['Right Face', 'Left Face', 'Right Face', 'Left Face']",
8,"[0, -0.2]",0,0,3,3,3,,,None,None,"[0, 0, 0]",1042.1599357000086,1044.1599349000026,1042.1599357000086,1043.1599234000314,1043.1432302000467,1044.1432404001243,"[0, 0, 0]",1,1042.1599357000086,1044.1599349000026,,,,,,,,,,,,,,,,,,,7,f,1,18,r,MH,49,49,2022_Aug_01_1501,2020.2.10,distractmap1,59.988002336111215,"['Right Face', 'Left Face', 'Right Face', 'Left Face']",
2,"[0, 0.2]",1,0,4,4,4,,,None,None,"[0, 0, 0]",1044.2268028999679,None,1044.2268028999679,1045.2265904999804,1045.2099256000947,None,"[0, 0, 0]",1,1044.2268028999679,None,,,,,,,,,,,,,,,,,,,7,f,1,18,r,MH,49,49,2022_Aug_01_1501,2020.2.10,distractmap1,59.988002336111215,"['Right Face', 'Left Face', 'Right Face', 'Left Face']",
5,"[0, 0]",0,0,5,5,5,,,None,None,"[0, 0, 0]",1046.1932977000251,1048.1932787001133,1046.1932977000251,1047.1932767999824,1047.176605900051,1048.1766121000983,"[0, 0, 0]",1,1046.1932977000251,1048.1932787001133,,,,,,,,,,,,,,,,,,,7,f,1,18,r,MH,49,49,2022_Aug_01_1501,2020.2.10,distractmap1,59.988002336111215,"['Right Face', 'Left Face', 'Right Face', 'Left Face']",
1,"[-0.2, 0.2]",0,0,6,6,6,,,None,None,"[0, 0, 0]",1048.2099470000248,1050.209983699955,1048.2099470000248,1049.2099705999717,1049.1932845001575,1050.1932926001027,"[0, 0, 0]",1,1048.2099470000248,1050.209983699955,,,,,,,,,,,,,,,,,,,7,f,1,18,r,MH,49,49,2022_Aug_01_1501,2020.2.10,distractmap1,59.988002336111215,"['Right Face', 'Left Face', 'Right Face', 'Left Face']",
1,"[-0.2, 0.2]",0,0,7,7,7,,,None,None,"[0, 0, 0]",1050.2266520999838,1052.2266514999792,1050.2266520999838,1051.2266369001009,1051.2099746000022,1052.2099848000798,"[0, 0, 0]",1,1050.2266520999838,1052.2266514999792,,,,,,,,,,,,,,,,,,,7,f,1,18,r,MH,49,49,2022_Aug_01_1501,2020.2.10,distractmap1,59.988002336111215,"['Right Face', 'Left Face', 'Right Face', 'Left Face']",
6,"[0.2, 0]",0,0,8,8,8,,,None,None,"[0, 0, 0]",1052.2433148999698,1054.2433464999776,1052.2433148999698,1053.2433391001541,1053.226672400022,1054.2266659000888,"[0, 0, 0]",1,1052.2433148999698,1054.2433464999776,,,,,,,,,,,,,,,,,,,7,f,1,18,r,MH,49,49,2022_Aug_01_1501,2020.2.10,distractmap1,59.988002336111215,"['Right Face', 'Left Face', 'Right Face', 'Left Face']",
1,"[-0.2, 0.2]",1,0,9,9,9,,,None,None,"[0, 0, 0]",1054.2600221999455,1056.2600281001069,1054.2600221999455,1055.26002590009,1055.2433388000354,1056.2433546001557,"[0, 0, 0]",1,1054.2600221999455,1056.2600281001069,,,,,,,,,,,,,,,,,,,7,f,1,18,r,MH,49,49,2022_Aug_01_1501,2020.2.10,distractmap1,59.988002336111215,"['Right Face', 'Left Face', 'Right Face', 'Left Face']",
,,,,,,,,,,,,,,,,,,,,,,1056.2766981001478,None,,,,,,,,,,,,,,,,,7,f,1,18,r,MH,49,49,2022_Aug_01_1501,2020.2.10,distractmap1,59.988002336111215,"['Right Face', 'Left Face', 'Right Face', 'Left Face']",
,,,,,,,,,,,,,,,,,,,,,,,,,,,,,,,,,,,,55.12345679012346,1024.8245137000922,,,7,f,1,18,r,MH,49,49,2022_Aug_01_1501,2020.2.10,distractmap1,59.988002336111215,"['Right Face', 'Left Face', 'Right Face', 'Left Face']",
3,"[0.2, 0.2]",None,0,0,0,0,1070.3437999000307,None,None,None,"[0, 0, 0]",1076.3101922001224,1078.3102212999947,1076.3101922001224,1077.3102035999764,1077.2935436000116,1078.293542600004,"[0, 0, 0]",1,1076.3101922001224,1078.3102212999947,,,,,,,,,,,,,,,,,0.013264199951663613,5.009479399770498,7,f,1,18,r,MH,49,49,2022_Aug_01_1501,2020.2.10,distractmap1,59.988002336111215,"['Right Face', 'Left Face', 'Right Face', 'Left Face']",
3,"[0.2, 0.2]",None,0,1,1,1,,,None,None,"[0, 0, 0]",1078.3269092000555,1080.3268544999883,1078.3269092000555,1079.3268852001056,1079.310225600144,1080.3102259000298,"[0, 0, 0]",1,1078.3269092000555,1080.3268544999883,,,,,,,,,,,,,,,,,,,7,f,1,18,r,MH,49,49,2022_Aug_01_1501,2020.2.10,distractmap1,59.988002336111215,"['Right Face', 'Left Face', 'Right Face', 'Left Face']",
5,"[0, 0]",0,0,2,2,2,,,None,None,"[0, 0, 0]",1080.3435667001177,1082.3435820001177,1080.3435667001177,1081.3435800999869,1081.3269406000618,1082.3269344000146,"[0, 0, 0]",1,1080.3435667001177,1082.3435820001177,,,,,,,,,,,,,,,,,,,7,f,1,18,r,MH,49,49,2022_Aug_01_1501,2020.2.10,distractmap1,59.988002336111215,"['Right Face', 'Left Face', 'Right Face', 'Left Face']",
1,"[-0.2, 0.2]",0,0,3,3,3,,,None,None,"[0, 0, 0]",1082.3602683001664,1084.3602623001207,1082.3602683001664,1083.3602530001663,1083.343648500042,1084.3435963999946,"[0, 0, 0]",1,1082.3602683001664,1084.3602623001207,,,,,,,,,,,,,,,,,,,7,f,1,18,r,MH,49,49,2022_Aug_01_1501,2020.2.10,distractmap1,59.988002336111215,"['Right Face', 'Left Face', 'Right Face', 'Left Face']",
5,"[0, 0]",1,0,4,4,4,,,None,None,"[0, 0, 0]",1084.4269801001064,None,1084.4269801001064,1085.4269523001276,1085.410275500035,None,"[0, 0, 0]",1,1084.4269801001064,None,,,,,,,,,,,,,,,,,,,7,f,1,18,r,MH,49,49,2022_Aug_01_1501,2020.2.10,distractmap1,59.988002336111215,"['Right Face', 'Left Face', 'Right Face', 'Left Face']",
8,"[0, -0.2]",0,0,5,5,5,,,None,None,"[0, 0, 0]",1086.3936306000687,1088.3936369000003,1086.3936306000687,1087.3936271001585,1087.376960300142,1088.3769410999957,"[0, 0, 0]",1,1086.3936306000687,1088.3936369000003,,,,,,,,,,,,,,,,,,,7,f,1,18,r,MH,49,49,2022_Aug_01_1501,2020.2.10,distractmap1,59.988002336111215,"['Right Face', 'Left Face', 'Right Face', 'Left Face']",
5,"[0, 0]",1,0,6,6,6,,,None,None,"[0, 0, 0]",1088.410294200061,1090.4103250000626,1088.410294200061,1089.4103068001568,1089.393648599973,1090.3936650000978,"[0, 0, 0]",1,1088.410294200061,1090.4103250000626,,,,,,,,,,,,,,,,,,,7,f,1,18,r,MH,49,49,2022_Aug_01_1501,2020.2.10,distractmap1,59.988002336111215,"['Right Face', 'Left Face', 'Right Face', 'Left Face']",
7,"[-0.2, -0.2]",0,0,7,7,7,,,None,None,"[0, 0, 0]",1090.4269982001279,1092.4270123001188,1090.4269982001279,1091.4270071000792,1091.4103300001007,1092.4102555999998,"[0, 0, 0]",1,1090.4269982001279,1092.4270123001188,,,,,,,,,,,,,,,,,,,7,f,1,18,r,MH,49,49,2022_Aug_01_1501,2020.2.10,distractmap1,59.988002336111215,"['Right Face', 'Left Face', 'Right Face', 'Left Face']",
5,"[0, 0]",1,0,8,8,8,,,None,None,"[0, 0, 0]",1092.4436810000334,1094.4437072,1092.4436810000334,1093.443681600038,1093.4270272001158,1094.427020800067,"[0, 0, 0]",1,1092.4436810000334,1094.4437072,,,,,,,,,,,,,,,,,,,7,f,1,18,r,MH,49,49,2022_Aug_01_1501,2020.2.10,distractmap1,59.988002336111215,"['Right Face', 'Left Face', 'Right Face', 'Left Face']",
7,"[-0.2, -0.2]",1,0,9,9,9,,,None,None,"[0, 0, 0]",1094.460363799939,1096.460383299971,1094.460363799939,1095.4603752000257,1095.4437083001249,1096.443711000029,"[0, 0, 0]",1,1094.460363799939,1096.460383299971,,,,,,,,,,,,,,,,,,,7,f,1,18,r,MH,49,49,2022_Aug_01_1501,2020.2.10,distractmap1,59.988002336111215,"['Right Face', 'Left Face', 'Right Face', 'Left Face']",
,,,,,,,,,,,,,,,,,,,,,,1096.4770383001305,None,,,,,,,,,,,,,,,,,7,f,1,18,r,MH,49,49,2022_Aug_01_1501,2020.2.10,distractmap1,59.988002336111215,"['Right Face', 'Left Face', 'Right Face', 'Left Face']",
,,,,,,,,,,,,,,,,,,,,,,,,,,,,,,,,,,,,39.93827160493827,1064.4248711003456,,,7,f,1,18,r,MH,49,49,2022_Aug_01_1501,2020.2.10,distractmap1,59.988002336111215,"['Right Face', 'Left Face', 'Right Face', 'Left Face']",
,,,,,,,1454.446854900103,None,,,,,,,,,,,,,,,,,,,1222.0114941000938,1222.0114941000938,None,space,100.92126980004832,1222.0114941000938,None,1434.4466630001552,None,35.24691358024691,1426.974673700286,0.01325229974463582,5.009348599705845,7,f,1,18,r,MH,49,49,2022_Aug_01_1501,2020.2.10,distractmap1,59.988002336111215,"['Right Face', 'Left Face', 'Right Face', 'Left Face']",
,,,,,,,1489.4638173000421,None,,,,,,,,,,,,,,,,,,,,,,,,,,1469.4636472000275,None,36.91358024691358,1460.0082696001045,0.01662489981390536,5.016101299785078,7,f,1,18,r,MH,49,49,2022_Aug_01_1501,2020.2.10,distractmap1,59.988002336111215,"['Right Face', 'Left Face', 'Right Face', 'Left Face']",
,,,,,,,1524.4807971001137,None,,,,,,,,,,,,,,,,,,,,,,,,,,1504.4806181001477,None,36.54320987654321,1493.027480600169,0.01663720002397895,5.016246899962425,7,f,1,18,r,MH,49,49,2022_Aug_01_1501,2020.2.10,distractmap1,59.988002336111215,"['Right Face', 'Left Face', 'Right Face', 'Left Face']",
6,"[0.2, 0]",None,0,0,0,0,1538.5309387000743,None,None,None,"[0, 0, 0]",1544.5142020001076,None,1544.5142020001076,1545.5143220999744,1545.4976457001176,1546.497665300034,"[0, 0, 0]",1,1544.5142020001076,None,,,,,,,,,,,,,,,,,0.014410099945962429,5.011823300039396,7,f,1,18,r,MH,49,49,2022_Aug_01_1501,2020.2.10,distractmap1,59.988002336111215,"['Right Face', 'Left Face', 'Right Face', 'Left Face']",
1,"[-0.2, 0.2]",None,0,1,1,1,,,None,None,"[0, 0, 0]",1546.5143307000399,1548.5143653000705,1546.5143307000399,1547.514348299941,1547.4976625000127,1548.4977160000708,"[0, 0, 0]",1,1546.5143307000399,1548.5143653000705,,,,,,,,,,,,,,,,,,,7,f,1,18,r,MH,49,49,2022_Aug_01_1501,2020.2.10,distractmap1,59.988002336111215,"['Right Face', 'Left Face', 'Right Face', 'Left Face']",
6,"[0.2, 0]",1,0,2,2,2,,,None,None,"[0, 0, 0]",1548.531006900128,1550.5310248001479,1548.531006900128,1549.5310249000322,1549.5143508000765,1550.5143733001314,"[0, 0, 0]",1,1548.531006900128,1550.5310248001479,,,,,,,,,,,,,,,,,,,7,f,1,18,r,MH,49,49,2022_Aug_01_1501,2020.2.10,distractmap1,59.988002336111215,"['Right Face', 'Left Face', 'Right Face', 'Left Face']",
4,"[-0.2, 0]",0,0,3,3,3,,,None,None,"[0, 0, 0]",1550.547704000026,1552.5477090999484,1550.547704000026,1551.5477378000505,1551.5310347001068,1552.5310496999882,"[0, 0, 0]",1,1550.547704000026,1552.5477090999484,,,,,,,,,,,,,,,,,,,7,f,1,18,r,MH,49,49,2022_Aug_01_1501,2020.2.10,distractmap1,59.988002336111215,"['Right Face', 'Left Face', 'Right Face', 'Left Face']",
1,"[-0.2, 0.2]",0,0,4,4,4,,,None,None,"[0, 0, 0]",1552.6144232000224,None,1552.6144232000224,1553.6144107000437,1553.5977127000224,None,"[0, 0, 0]",0,1552.6144232000224,None,,,,,,,,,,,,,,,,,,,7,f,1,18,r,MH,49,49,2022_Aug_01_1501,2020.2.10,distractmap1,59.988002336111215,"['Right Face', 'Left Face', 'Right Face', 'Left Face']",
8,"[0, -0.2]",0,0,5,5,5,,,None,None,"[0, 0, 0]",1554.5810587001033,1556.5810981001705,1554.5810587001033,1555.5810865000822,1555.5644148001447,1556.5644315001555,"[0, 0, 0]",1,1554.5810587001033,1556.5810981001705,,,,,,,,,,,,,,,,,,,7,f,1,18,r,MH,49,49,2022_Aug_01_1501,2020.2.10,distractmap1,59.988002336111215,"['Right Face', 'Left Face', 'Right Face', 'Left Face']",
1,"[-0.2, 0.2]",1,0,6,6,6,,,None,None,"[0, 0, 0]",1556.5977370999753,1558.5977638000622,1556.5977370999753,1557.597748799948,1557.581097900169,1558.581100899959,"[0, 0, 0]",1,1556.5977370999753,1558.5977638000622,,,,,,,,,,,,,,,,,,,7,f,1,18,r,MH,49,49,2022_Aug_01_1501,2020.2.10,distractmap1,59.988002336111215,"['Right Face', 'Left Face', 'Right Face', 'Left Face']",
8,"[0, -0.2]",1,0,7,7,7,,,None,None,"[0, 0, 0]",1558.6144247001503,1560.6144483999815,1558.6144247001503,1559.6144435000606,1559.5972911000717,1560.5977938000578,"[0, 0, 0]",1,1558.6144247001503,1560.6144483999815,,,,,,,,,,,,,,,,,,,7,f,1,18,r,MH,49,49,2022_Aug_01_1501,2020.2.10,distractmap1,59.988002336111215,"['Right Face', 'Left Face', 'Right Face', 'Left Face']",
1,"[-0.2, 0.2]",1,0,8,8,8,,,None,None,"[0, 0, 0]",1560.631109500071,1562.631146900123,1560.631109500071,1561.6311260999646,1561.6144680001307,1562.6144761999603,"[0, 0, 0]",1,1560.631109500071,1562.631146900123,,,,,,,,,,,,,,,,,,,7,f,1,18,r,MH,49,49,2022_Aug_01_1501,2020.2.10,distractmap1,59.988002336111215,"['Right Face', 'Left Face', 'Right Face', 'Left Face']",
6,"[0.2, 0]",0,0,9,9,9,,,None,None,"[0, 0, 0]",1562.6477989000268,1564.6478267000057,1562.6477989000268,1563.647820000071,1563.6311536000576,1564.631177800009,"[0, 0, 0]",1,1562.6477989000268,1564.6478267000057,,,,,,,,,,,,,,,,,,,7,f,1,18,r,MH,49,49,2022_Aug_01_1501,2020.2.10,distractmap1,59.988002336111215,"['Right Face', 'Left Face', 'Right Face', 'Left Face']",
,,,,,,,,,,,,,,,,,,,,,,1564.664480900159,None,,,,,,,,,,,,,,,,,7,f,1,18,r,MH,49,49,2022_Aug_01_1501,2020.2.10,distractmap1,59.988002336111215,"['Right Face', 'Left Face', 'Right Face', 'Left Face']",
,,,,,,,,,,,,,,,,,,,,,,,,,,,,,,,,,,,,36.41975308641975,1533.9459783001803,,,7,f,1,18,r,MH,49,49,2022_Aug_01_1501,2020.2.10,distractmap1,59.988002336111215,"['Right Face', 'Left Face', 'Right Face', 'Left Face']",
7,"[-0.2, -0.2]",None,0,0,0,0,1579.931356200017,None,None,None,"[0, 0, 0]",1584.6980008999817,1586.6980215001386,1584.6980008999817,1585.6980165001005,1585.6813487000763,1586.6813469000626,"[0, 0, 0]",1,1584.6980008999817,1586.6980215001386,,,,,,,,,,,,,,,,,0.01294309995137155,5.00870730006136,7,f,1,18,r,MH,49,49,2022_Aug_01_1501,2020.2.10,distractmap1,59.988002336111215,"['Right Face', 'Left Face', 'Right Face', 'Left Face']",
7,"[-0.2, -0.2]",None,0,1,1,1,,,None,None,"[0, 0, 0]",1586.7146787999664,1588.714699300006,1586.7146787999664,1587.7146878000349,1587.6980223001447,1588.6980423000641,"[0, 0, 0]",1,1586.7146787999664,1588.714699300006,,,,,,,,,,,,,,,,,,,7,f,1,18,r,MH,49,49,2022_Aug_01_1501,2020.2.10,distractmap1,59.988002336111215,"['Right Face', 'Left Face', 'Right Face', 'Left Face']",
7,"[-0.2, -0.2]",1,0,2,2,2,,,None,None,"[0, 0, 0]",1588.7313868999481,1590.7308726999909,1588.7313868999481,1589.731388400076,1589.7147052001674,1590.7146972001065,"[0, 0, 0]",1,1588.7313868999481,1590.7308726999909,,,,,,,,,,,,,,,,,,,7,f,1,18,r,MH,49,49,2022_Aug_01_1501,2020.2.10,distractmap1,59.988002336111215,"['Right Face', 'Left Face', 'Right Face', 'Left Face']",
5,"[0, 0]",0,0,3,3,3,,,None,None,"[0, 0, 0]",1590.7480804000515,1592.7480895000044,1590.7480804000515,1591.7480593000073,1591.7314112000167,1592.731403700076,"[0, 0, 0]",1,1590.7480804000515,1592.7480895000044,,,,,,,,,,,,,,,,,,,7,f,1,18,r,MH,49,49,2022_Aug_01_1501,2020.2.10,distractmap1,59.988002336111215,"['Right Face', 'Left Face', 'Right Face', 'Left Face']",
1,"[-0.2, 0.2]",0,0,4,4,4,,,None,None,"[0, 0, 0]",1592.7984581000637,None,1592.7984581000637,1593.798073900165,1593.7813946001697,None,"[0, 0, 0]",1,1592.7984581000637,None,,,,,,,,,,,,,,,,,,,7,f,1,18,r,MH,49,49,2022_Aug_01_1501,2020.2.10,distractmap1,59.988002336111215,"['Right Face', 'Left Face', 'Right Face', 'Left Face']",
6,"[0.2, 0]",0,0,5,5,5,,,None,None,"[0, 0, 0]",1594.7814193000086,1596.7815096999984,1594.7814193000086,1595.7814379001502,1595.7647702000104,1596.7647782000713,"[0, 0, 0]",1,1594.7814193000086,1596.7815096999984,,,,,,,,,,,,,,,,,,,7,f,1,18,r,MH,49,49,2022_Aug_01_1501,2020.2.10,distractmap1,59.988002336111215,"['Right Face', 'Left Face', 'Right Face', 'Left Face']",
1,"[-0.2, 0.2]",1,0,6,6,6,,,None,None,"[0, 0, 0]",1596.7981112999842,1598.7981219000649,1596.7981112999842,1597.7981285001151,1597.7814448999707,1598.7814450000878,"[0, 0, 0]",1,1596.7981112999842,1598.7981219000649,,,,,,,,,,,,,,,,,,,7,f,1,18,r,MH,49,49,2022_Aug_01_1501,2020.2.10,distractmap1,59.988002336111215,"['Right Face', 'Left Face', 'Right Face', 'Left Face']",
7,"[-0.2, -0.2]",0,0,7,7,7,,,None,None,"[0, 0, 0]",1598.8147982000373,1600.8148052000906,1598.8147982000373,1599.8147945001256,1599.798147200141,1600.7981364000589,"[0, 0, 0]",1,1598.8147982000373,1600.8148052000906,,,,,,,,,,,,,,,,,,,7,f,1,18,r,MH,49,49,2022_Aug_01_1501,2020.2.10,distractmap1,59.988002336111215,"['Right Face', 'Left Face', 'Right Face', 'Left Face']",
6,"[0.2, 0]",0,0,8,8,8,,,None,None,"[0, 0, 0]",1600.831474200124,1602.8314879001118,1600.831474200124,1601.8314775000326,1601.814812600147,1602.8148305001669,"[0, 0, 0]",1,1600.831474200124,1602.8314879001118,,,,,,,,,,,,,,,,,,,7,f,1,18,r,MH,49,49,2022_Aug_01_1501,2020.2.10,distractmap1,59.988002336111215,"['Right Face', 'Left Face', 'Right Face', 'Left Face']",
7,"[-0.2, -0.2]",1,0,9,9,9,,,None,None,"[0, 0, 0]",1602.8481550000142,1604.8482131999917,1602.8481550000142,1603.8481863001361,1603.8314964000601,1604.8315056001302,"[0, 0, 0]",1,1602.8481550000142,1604.8482131999917,,,,,,,,,,,,,,,,,,,7,f,1,18,r,MH,49,49,2022_Aug_01_1501,2020.2.10,distractmap1,59.988002336111215,"['Right Face', 'Left Face', 'Right Face', 'Left Face']",
,,,,,,,,,,,,,,,,,,,,,,1604.8647879001219,None,,,,,,,,,,,,,,,,,7,f,1,18,r,MH,49,49,2022_Aug_01_1501,2020.2.10,distractmap1,59.988002336111215,"['Right Face', 'Left Face', 'Right Face', 'Left Face']",
,,,,,,,,,,,,,,,,,,,,,,,,,,,,,,,,,,,,35.18518518518518,1575.913379700156,,,7,f,1,18,r,MH,49,49,2022_Aug_01_1501,2020.2.10,distractmap1,59.988002336111215,"['Right Face', 'Left Face', 'Right Face', 'Left Face']",
4,"[-0.2, 0]",None,0,0,0,0,1622.1141931000166,None,None,None,"[0, 0, 0]",1624.8983636000194,None,1624.8983636000194,1625.8983766001184,1625.8816959001124,1626.8817112001125,"[0, 0, 0]",1,1624.8983636000194,None,,,,,,,,,,,,,,,,,0.012578199850395322,5.00800669984892,7,f,1,18,r,MH,49,49,2022_Aug_01_1501,2020.2.10,distractmap1,59.988002336111215,"['Right Face', 'Left Face', 'Right Face', 'Left Face']",
5,"[0, 0]",None,0,1,1,1,,,None,None,"[0, 0, 0]",1626.8983679001685,1628.8983865999617,1626.8983679001685,1627.8983920000028,1627.8817025001626,1628.8817294000182,"[0, 0, 0]",1,1626.8983679001685,1628.8983865999617,,,,,,,,,,,,,,,,,,,7,f,1,18,r,MH,49,49,2022_Aug_01_1501,2020.2.10,distractmap1,59.988002336111215,"['Right Face', 'Left Face', 'Right Face', 'Left Face']",
6,"[0.2, 0]",0,0,2,2,2,,,None,None,"[0, 0, 0]",1628.9150533000939,1630.9150807000697,1628.9150533000939,1629.9150823000818,1629.8983988000546,1630.8984262000304,"[0, 0, 0]",1,1628.9150533000939,1630.9150807000697,,,,,,,,,,,,,,,,,,,7,f,1,18,r,MH,49,49,2022_Aug_01_1501,2020.2.10,distractmap1,59.988002336111215,"['Right Face', 'Left Face', 'Right Face', 'Left Face']",
1,"[-0.2, 0.2]",0,0,3,3,3,,,None,None,"[0, 0, 0]",1630.931731000077,1632.9317676001228,1630.931731000077,1631.9317334999796,1631.9150833999738,1632.9150933001656,"[0, 0, 0]",1,1630.931731000077,1632.9317676001228,,,,,,,,,,,,,,,,,,,7,f,1,18,r,MH,49,49,2022_Aug_01_1501,2020.2.10,distractmap1,59.988002336111215,"['Right Face', 'Left Face', 'Right Face', 'Left Face']",
6,"[0.2, 0]",1,0,4,4,4,,,None,None,"[0, 0, 0]",1632.9818160000723,None,1632.9818160000723,1633.9817586999852,1633.965108799981,None,"[0, 0, 0]",1,1632.9818160000723,None,,,,,,,,,,,,,,,,,,,7,f,1,18,r,MH,49,49,2022_Aug_01_1501,2020.2.10,distractmap1,59.988002336111215,"['Right Face', 'Left Face', 'Right Face', 'Left Face']",
1,"[-0.2, 0.2]",1,0,5,5,5,,,None,None,"[0, 0, 0]",1634.9651246999856,1636.9651403001044,1634.9651246999856,1635.9651336001698,1635.9484478000086,1636.9484521001577,"[0, 0, 0]",1,1634.9651246999856,1636.9651403001044,,,,,,,,,,,,,,,,,,,7,f,1,18,r,MH,49,49,2022_Aug_01_1501,2020.2.10,distractmap1,59.988002336111215,"['Right Face', 'Left Face', 'Right Face', 'Left Face']",
2,"[0, 0.2]",0,0,6,6,6,,,None,None,"[0, 0, 0]",1636.9817932001315,1638.9818116000388,1636.9817932001315,1637.9817957000341,1637.9651425001211,1638.965144700138,"[0, 0, 0]",1,1636.9817932001315,1638.9818116000388,,,,,,,,,,,,,,,,,,,7,f,1,18,r,MH,49,49,2022_Aug_01_1501,2020.2.10,distractmap1,59.988002336111215,"['Right Face', 'Left Face', 'Right Face', 'Left Face']",
3,"[0.2, 0.2]",0,0,7,7,7,,,None,None,"[0, 0, 0]",1638.9984742000233,1640.9984973000828,1638.9984742000233,1639.9984888001345,1639.981818200089,1640.981822800124,"[0, 0, 0]",1,1638.9984742000233,1640.9984973000828,,,,,,,,,,,,,,,,,,,7,f,1,18,r,MH,49,49,2022_Aug_01_1501,2020.2.10,distractmap1,59.988002336111215,"['Right Face', 'Left Face', 'Right Face', 'Left Face']",
6,"[0.2, 0]",0,0,8,8,8,,,None,None,"[0, 0, 0]",1641.0151919999626,1643.0151816001162,1641.0151919999626,1642.0151752000675,1641.9985041001346,1642.9985090000555,"[0, 0, 0]",1,1641.0151919999626,1643.0151816001162,,,,,,,,,,,,,,,,,,,7,f,1,18,r,MH,49,49,2022_Aug_01_1501,2020.2.10,distractmap1,59.988002336111215,"['Right Face', 'Left Face', 'Right Face', 'Left Face']",
3,"[0.2, 0.2]",1,0,9,9,9,,,None,None,"[0, 0, 0]",1643.0318460999988,1645.0318591999821,1643.0318460999988,1644.0318521000445,1644.015214700019,1645.015214700019,"[0, 0, 0]",1,1643.0318460999988,1645.0318591999821,,,,,,,,,,,,,,,,,,,7,f,1,18,r,MH,49,49,2022_Aug_01_1501,2020.2.10,distractmap1,59.988002336111215,"['Right Face', 'Left Face', 'Right Face', 'Left Face']",
,,,,,,,,,,,,,,,,,,,,,,1645.0484267999418,None,,,,,,,,,,,,,,,,,7,f,1,18,r,MH,49,49,2022_Aug_01_1501,2020.2.10,distractmap1,59.988002336111215,"['Right Face', 'Left Face', 'Right Face', 'Left Face']",
,,,,,,,,,,,,,,,,,,,,,,,,,,,,,,,,,,,,38.20987654320988,1612.5297574000433,,,7,f,1,18,r,MH,49,49,2022_Aug_01_1501,2020.2.10,distractmap1,59.988002336111215,"['Right Face', 'Left Face', 'Right Face', 'Left Face']",
2,"[0, 0.2]",None,0,0,0,0,1658.065330900019,None,None,None,"[0, 0, 0]",1665.0653836999554,1667.065403799992,1665.0653836999554,1666.0654052000027,1666.0654052000027,1667.065403799992,"[0, 0, 0]",1,1665.0653836999554,1667.065403799992,,,,,,,,,,,,,,,,,0.013173500075936317,5.00919619994238,7,f,1,18,r,MH,49,49,2022_Aug_01_1501,2020.2.10,distractmap1,59.988002336111215,"['Right Face', 'Left Face', 'Right Face', 'Left Face']",
5,"[0, 0]",None,0,1,1,1,,,None,None,"[0, 0, 0]",1667.0819755999837,1669.0820782000665,1667.0819755999837,1668.0820627999492,1668.0654212001245,1669.065410700161,"[0, 0, 0]",1,1667.0819755999837,1669.0820782000665,,,,,,,,,,,,,,,,,,,7,f,1,18,r,MH,49,49,2022_Aug_01_1501,2020.2.10,distractmap1,59.988002336111215,"['Right Face', 'Left Face', 'Right Face', 'Left Face']",
6,"[0.2, 0]",0,0,2,2,2,,,None,None,"[0, 0, 0]",1669.0987432999536,1671.0987659001257,1669.0987432999536,1670.0987446999643,1670.0820852001198,1671.0820889000315,"[0, 0, 0]",1,1669.0987432999536,1671.0987659001257,,,,,,,,,,,,,,,,,,,7,f,1,18,r,MH,49,49,2022_Aug_01_1501,2020.2.10,distractmap1,59.988002336111215,"['Right Face', 'Left Face', 'Right Face', 'Left Face']",
1,"[-0.2, 0.2]",0,0,3,3,3,,,None,None,"[0, 0, 0]",1671.115441000089,1673.1154690999538,1671.115441000089,1672.115450100042,1672.09876600001,1673.09877469996,"[0, 0, 0]",1,1671.115441000089,1673.1154690999538,,,,,,,,,,,,,,,,,,,7,f,1,18,r,MH,49,49,2022_Aug_01_1501,2020.2.10,distractmap1,59.988002336111215,"['Right Face', 'Left Face', 'Right Face', 'Left Face']",
6,"[0.2, 0]",1,0,4,4,4,,,None,None,"[0, 0, 0]",1673.1321093000006,1675.1321453000419,1673.1321093000006,1674.1321207000874,1674.1154712999705,1675.115481800167,"[0, 0, 0]",1,1673.1321093000006,1675.1321453000419,,,,,,,,,,,,,,,,,,,7,f,1,18,r,MH,49,49,2022_Aug_01_1501,2020.2.10,distractmap1,59.988002336111215,"['Right Face', 'Left Face', 'Right Face', 'Left Face']",
6,"[0.2, 0]",0,0,5,5,5,,,None,None,"[0, 0, 0]",1675.1488107000478,1677.1488114001695,1675.1488107000478,1676.1488060001284,1676.1321374999825,1677.1321437000297,"[0, 0, 0]",1,1675.1488107000478,1677.1488114001695,,,,,,,,,,,,,,,,,,,7,f,1,18,r,MH,49,49,2022_Aug_01_1501,2020.2.10,distractmap1,59.988002336111215,"['Right Face', 'Left Face', 'Right Face', 'Left Face']",
9,"[0.2, -0.2]",0,0,6,6,6,,,None,None,"[0, 0, 0]",1677.1654775000643,1679.1654161999468,1677.1654775000643,1678.1654970999807,1678.1488247001544,1679.148842799943,"[0, 0, 0]",1,1677.1654775000643,1679.1654161999468,,,,,,,,,,,,,,,,,,,7,f,1,18,r,MH,49,49,2022_Aug_01_1501,2020.2.10,distractmap1,59.988002336111215,"['Right Face', 'Left Face', 'Right Face', 'Left Face']",
6,"[0.2, 0]",1,0,7,7,7,,,None,None,"[0, 0, 0]",1679.1821918000933,1681.1821853001602,1679.1821918000933,1680.1821825001389,1680.1656019999646,1681.1655242000706,"[0, 0, 0]",1,1679.1821918000933,1681.1821853001602,,,,,,,,,,,,,,,,,,,7,f,1,18,r,MH,49,49,2022_Aug_01_1501,2020.2.10,distractmap1,59.988002336111215,"['Right Face', 'Left Face', 'Right Face', 'Left Face']",
3,"[0.2, 0.2]",0,0,8,8,8,,,None,None,"[0, 0, 0]",1681.1988489001524,1683.1988735001069,1681.1988489001524,1682.1989504001103,1682.1822045000736,1683.1822125001345,"[0, 0, 0]",1,1681.1988489001524,1683.1988735001069,,,,,,,,,,,,,,,,,,,7,f,1,18,r,MH,49,49,2022_Aug_01_1501,2020.2.10,distractmap1,59.988002336111215,"['Right Face', 'Left Face', 'Right Face', 'Left Face']",
9,"[0.2, -0.2]",0,0,9,9,9,,,None,None,"[0, 0, 0]",1683.2155480000656,1685.2155800000764,1683.2155480000656,1684.2155435001478,1684.1988882999867,1685.1988955000415,"[0, 0, 0]",0,1683.2155480000656,1685.2155800000764,,,,,,,,,,,,,,,,,,,7,f,1,18,r,MH,49,49,2022_Aug_01_1501,2020.2.10,distractmap1,59.988002336111215,"['Right Face', 'Left Face', 'Right Face', 'Left Face']",
,,,,,,,,,,,,,,,,,,,,,,1685.2322291000746,None,,,,,,,,,,,,,,,,,7,f,1,18,r,MH,49,49,2022_Aug_01_1501,2020.2.10,distractmap1,59.988002336111215,"['Right Face', 'Left Face', 'Right Face', 'Left Face']",
3,"[0.2, 0.2]",None,0,0,0,0,1697.2490066001192,None,None,None,"[0, 0, 0]",1700.2490251001436,None,1700.2490251001436,1701.2490261001512,1701.2323797000572,1702.2323821999598,"[0, 0, 0]",1,1700.2490251001436,None,,,,,,,,,,,,,,,,,,,7,f,1,18,r,MH,49,49,2022_Aug_01_1501,2020.2.10,distractmap1,59.988002336111215,"['Right Face', 'Left Face', 'Right Face', 'Left Face']",
9,"[0.2, -0.2]",None,0,1,1,1,,,None,None,"[0, 0, 0]",1702.2490557001438,1704.2490513999946,1702.2490557001438,1703.2490487999748,1703.2323851000983,1704.232404800132,"[0, 0, 0]",1,1702.2490557001438,1704.2490513999946,,,,,,,,,,,,,,,,,,,7,f,1,18,r,MH,49,49,2022_Aug_01_1501,2020.2.10,distractmap1,59.988002336111215,"['Right Face', 'Left Face', 'Right Face', 'Left Face']",
3,"[0.2, 0.2]",1,0,2,2,2,,,None,None,"[0, 0, 0]",1704.2657188000157,1706.2657429000828,1704.2657188000157,1705.2657282999717,1705.2490759000648,1706.2490755000617,"[0, 0, 0]",1,1704.2657188000157,1706.2657429000828,,,,,,,,,,,,,,,,,,,7,f,1,18,r,MH,49,49,2022_Aug_01_1501,2020.2.10,distractmap1,59.988002336111215,"['Right Face', 'Left Face', 'Right Face', 'Left Face']",
7,"[-0.2, -0.2]",0,0,3,3,3,,,None,None,"[0, 0, 0]",1706.2824135001283,1708.282445800025,1706.2824135001283,1707.2824188000523,1707.2656960999593,1708.26576700015,"[0, 0, 0]",1,1706.2824135001283,1708.282445800025,,,,,,,,,,,,,,,,,,,7,f,1,18,r,MH,49,49,2022_Aug_01_1501,2020.2.10,distractmap1,59.988002336111215,"['Right Face', 'Left Face', 'Right Face', 'Left Face']",
8,"[0, -0.2]",0,0,4,4,4,,,None,None,"[0, 0, 0]",1708.299084499944,1710.2991160000674,1708.299084499944,1709.2991108000278,1709.2824432000052,1710.2824614001438,"[0, 0, 0]",1,1708.299084499944,1710.2991160000674,,,,,,,,,,,,,,,,,,,7,f,1,18,r,MH,49,49,2022_Aug_01_1501,2020.2.10,distractmap1,59.988002336111215,"['Right Face', 'Left Face', 'Right Face', 'Left Face']",
4,"[-0.2, 0]",0,0,5,5,5,,,None,None,"[0, 0, 0]",1710.3157943000551,1712.31579230004,1710.3157943000551,1711.315779000055,1711.29911849997,1712.299143700162,"[0, 0, 0]",1,1710.3157943000551,1712.31579230004,,,,,,,,,,,,,,,,,,,7,f,1,18,r,MH,49,49,2022_Aug_01_1501,2020.2.10,distractmap1,59.988002336111215,"['Right Face', 'Left Face', 'Right Face', 'Left Face']",
4,"[-0.2, 0]",0,0,6,6,6,,,None,None,"[0, 0, 0]",1712.3324709001463,1714.332537499955,1712.3324709001463,1713.3324680000078,1713.315817200113,1714.315820600139,"[0, 0, 0]",1,1712.3324709001463,1714.332537499955,,,,,,,,,,,,,,,,,,,7,f,1,18,r,MH,49,49,2022_Aug_01_1501,2020.2.10,distractmap1,59.988002336111215,"['Right Face', 'Left Face', 'Right Face', 'Left Face']",
1,"[-0.2, 0.2]",0,0,7,7,7,,,None,None,"[0, 0, 0]",1714.349159900099,1716.3491774001159,1714.349159900099,1715.3491601001006,1715.332489500055,1716.332495199982,"[0, 0, 0]",1,1714.349159900099,1716.3491774001159,,,,,,,,,,,,,,,,,,,7,f,1,18,r,MH,49,49,2022_Aug_01_1501,2020.2.10,distractmap1,59.988002336111215,"['Right Face', 'Left Face', 'Right Face', 'Left Face']",
4,"[-0.2, 0]",1,0,8,8,8,,,None,None,"[0, 0, 0]",1716.3658259999938,1718.3658583001234,1716.3658259999938,1717.3658388000913,1717.349180500023,1718.3491893999744,"[0, 0, 0]",1,1716.3658259999938,1718.3658583001234,,,,,,,,,,,,,,,,,,,7,f,1,18,r,MH,49,49,2022_Aug_01_1501,2020.2.10,distractmap1,59.988002336111215,"['Right Face', 'Left Face', 'Right Face', 'Left Face']",
8,"[0, -0.2]",0,0,9,9,9,,,None,None,"[0, 0, 0]",1718.3825141999405,1720.3825330000836,1718.3825141999405,1719.3825608000625,1719.3658541999757,1720.365860800026,"[0, 0, 0]",1,1718.3825141999405,1720.3825330000836,,,,,,,,,,,,,,,,,,,7,f,1,18,r,MH,49,49,2022_Aug_01_1501,2020.2.10,distractmap1,59.988002336111215,"['Right Face', 'Left Face', 'Right Face', 'Left Face']",
,,,,,,,,,,,,,,,,,,,,,,1720.3991553001106,None,,,,,,,,,,,,,,,,,7,f,1,18,r,MH,49,49,2022_Aug_01_1501,2020.2.10,distractmap1,59.988002336111215,"['Right Face', 'Left Face', 'Right Face', 'Left Face']",
2,"[0, 0.2]",None,0,0,0,0,1728.4159473001491,None,None,None,"[0, 0, 0]",1735.4159979000688,None,1735.4159979000688,1736.416005300125,1736.3993447001558,1737.399363100063,"[0, 0, 0]",1,1735.4159979000688,None,,,,,,,,,,,,,,,,,,,7,f,1,18,r,MH,49,49,2022_Aug_01_1501,2020.2.10,distractmap1,59.988002336111215,"['Right Face', 'Left Face', 'Right Face', 'Left Face']",
5,"[0, 0]",None,0,1,1,1,,,None,None,"[0, 0, 0]",1737.4160281999502,1739.4160329001024,1737.4160281999502,1738.4160352000035,1738.3993695999961,1739.3993695999961,"[0, 0, 0]",1,1737.4160281999502,1739.4160329001024,,,,,,,,,,,,,,,,,,,7,f,1,18,r,MH,49,49,2022_Aug_01_1501,2020.2.10,distractmap1,59.988002336111215,"['Right Face', 'Left Face', 'Right Face', 'Left Face']",
3,"[0.2, 0.2]",0,0,2,2,2,,,None,None,"[0, 0, 0]",1739.4326955999713,1741.4327320000157,1739.4326955999713,1740.4327082000673,1740.4160502001178,1741.4160520001315,"[0, 0, 0]",1,1739.4326955999713,1741.4327320000157,,,,,,,,,,,,,,,,,,,7,f,1,18,r,MH,49,49,2022_Aug_01_1501,2020.2.10,distractmap1,59.988002336111215,"['Right Face', 'Left Face', 'Right Face', 'Left Face']",
5,"[0, 0]",1,0,3,3,3,,,None,None,"[0, 0, 0]",1741.4494034999516,1743.4494052999653,1741.4494034999516,1742.4492806999478,1742.43273520004,1743.4327372000553,"[0, 0, 0]",1,1741.4494034999516,1743.4494052999653,,,,,,,,,,,,,,,,,,,7,f,1,18,r,MH,49,49,2022_Aug_01_1501,2020.2.10,distractmap1,59.988002336111215,"['Right Face', 'Left Face', 'Right Face', 'Left Face']",
2,"[0, 0.2]",0,0,4,4,4,,,None,None,"[0, 0, 0]",1743.4660847000778,1745.4661215001252,1743.4660847000778,1744.4661139999516,1744.4489039001055,1745.4493458999787,"[0, 0, 0]",1,1743.4660847000778,1745.4661215001252,,,,,,,,,,,,,,,,,,,7,f,1,18,r,MH,49,49,2022_Aug_01_1501,2020.2.10,distractmap1,59.988002336111215,"['Right Face', 'Left Face', 'Right Face', 'Left Face']",
8,"[0, -0.2]",0,0,5,5,5,,,None,None,"[0, 0, 0]",1745.4827584000304,1747.482768600108,1745.4827584000304,1746.4827626000624,1746.4661276000552,1747.4661414001603,"[0, 0, 0]",1,1745.4827584000304,1747.482768600108,,,,,,,,,,,,,,,,,,,7,f,1,18,r,MH,49,49,2022_Aug_01_1501,2020.2.10,distractmap1,59.988002336111215,"['Right Face', 'Left Face', 'Right Face', 'Left Face']",
4,"[-0.2, 0]",0,0,6,6,6,,,None,None,"[0, 0, 0]",1747.499445399968,1749.4995367999654,1747.499445399968,1748.4994407000486,1748.4827885001432,1749.4827883001417,"[0, 0, 0]",1,1747.499445399968,1749.4995367999654,,,,,,,,,,,,,,,,,,,7,f,1,18,r,MH,49,49,2022_Aug_01_1501,2020.2.10,distractmap1,59.988002336111215,"['Right Face', 'Left Face', 'Right Face', 'Left Face']",
8,"[0, -0.2]",1,0,7,7,7,,,None,None,"[0, 0, 0]",1749.516159000108,1751.5161320001353,1749.516159000108,1750.516218099976,1750.4994826000184,1751.4994894999545,"[0, 0, 0]",1,1749.516159000108,1751.5161320001353,,,,,,,,,,,,,,,,,,,7,f,1,18,r,MH,49,49,2022_Aug_01_1501,2020.2.10,distractmap1,59.988002336111215,"['Right Face', 'Left Face', 'Right Face', 'Left Face']",
7,"[-0.2, -0.2]",0,0,8,8,8,,,None,None,"[0, 0, 0]",1751.5328067999799,1753.5328403001186,1751.5328067999799,1752.5328270001337,1752.5161689999513,1753.516202900093,"[0, 0, 0]",1,1751.5328067999799,1753.5328403001186,,,,,,,,,,,,,,,,,,,7,f,1,18,r,MH,49,49,2022_Aug_01_1501,2020.2.10,distractmap1,59.988002336111215,"['Right Face', 'Left Face', 'Right Face', 'Left Face']",
8,"[0, -0.2]",1,0,9,9,9,,,None,None,"[0, 0, 0]",1753.54951120005,1755.5495043001138,1753.54951120005,1754.5495009999722,1754.5327427999582,1755.5328530000988,"[0, 0, 0]",1,1753.54951120005,1755.5495043001138,,,,,,,,,,,,,,,,,,,7,f,1,18,r,MH,49,49,2022_Aug_01_1501,2020.2.10,distractmap1,59.988002336111215,"['Right Face', 'Left Face', 'Right Face', 'Left Face']",
,,,,,,,,,,,,,,,,,,,,,,1755.5661844001152,None,,,,,,,,,,,,,,,,,7,f,1,18,r,MH,49,49,2022_Aug_01_1501,2020.2.10,distractmap1,59.988002336111215,"['Right Face', 'Left Face', 'Right Face', 'Left Face']",
,,,,,,,1785.5831075999886,None,,,,,,,,,,,,,,,,,,,,,,,,,,1765.5829354000743,None,39.62962962962963,1753.4458701002877,,,7,f,1,18,r,MH,49,49,2022_Aug_01_1501,2020.2.10,distractmap1,59.988002336111215,"['Right Face', 'Left Face', 'Right Face', 'Left Face']",
,,,,,,,1820.600104900077,None,,,,,,,,,,,,,,,,,,,,,,,,,,1800.5999438001309,None,43.7037037037037,1786.7966057003941,0.014996999874711037,5.012849499704316,7,f,1,18,r,MH,49,49,2022_Aug_01_1501,2020.2.10,distractmap1,59.988002336111215,"['Right Face', 'Left Face', 'Right Face', 'Left Face']",
,,,,,,,1855.6170908000786,None,,,,,,,,,,,,,,,,,,,,,,,,,,1835.6168992000166,None,41.604938271604944,1822.3135261002462,0.014554999768733978,5.012083899695426,7,f,1,18,r,MH,49,49,2022_Aug_01_1501,2020.2.10,distractmap1,59.988002336111215,"['Right Face', 'Left Face', 'Right Face', 'Left Face']",
2,"[0, 0.2]",None,0,0,0,0,1868.8674753999803,None,None,None,"[0, 0, 0]",1875.633906400064,None,1875.633906400064,1876.633925500093,1876.6172683001496,1877.6172784999944,"[0, 0, 0]",1,1875.633906400064,None,,,,,,,,,,,,,,,,,0.014603399904444814,5.012036699801683,7,f,1,18,r,MH,49,49,2022_Aug_01_1501,2020.2.10,distractmap1,59.988002336111215,"['Right Face', 'Left Face', 'Right Face', 'Left Face']",
2,"[0, 0.2]",None,0,1,1,1,,,None,None,"[0, 0, 0]",1877.633933100151,1879.6339478001464,1877.633933100151,1878.6339408999775,1878.6172724999487,1879.6173203999642,"[0, 0, 0]",1,1877.633933100151,1879.6339478001464,,,,,,,,,,,,,,,,,,,7,f,1,18,r,MH,49,49,2022_Aug_01_1501,2020.2.10,distractmap1,59.988002336111215,"['Right Face', 'Left Face', 'Right Face', 'Left Face']",
2,"[0, 0.2]",1,0,2,2,2,,,None,None,"[0, 0, 0]",1879.6506121000275,1881.6506382001098,1879.6506121000275,1880.6506225001067,1880.633960600011,1881.6339784001466,"[0, 0, 0]",1,1879.6506121000275,1881.6506382001098,,,,,,,,,,,,,,,,,,,7,f,1,18,r,MH,49,49,2022_Aug_01_1501,2020.2.10,distractmap1,59.988002336111215,"['Right Face', 'Left Face', 'Right Face', 'Left Face']",
8,"[0, -0.2]",0,0,3,3,3,,,None,None,"[0, 0, 0]",1881.6671905999538,1883.6673280000687,1881.6671905999538,1882.667301400099,1882.6506378001068,1883.6506505999714,"[0, 0, 0]",1,1881.6671905999538,1883.6673280000687,,,,,,,,,,,,,,,,,,,7,f,1,18,r,MH,49,49,2022_Aug_01_1501,2020.2.10,distractmap1,59.988002336111215,"['Right Face', 'Left Face', 'Right Face', 'Left Face']",
2,"[0, 0.2]",1,0,4,4,4,,,None,None,"[0, 0, 0]",1883.7177047000732,None,1883.7177047000732,1884.7173495001625,1884.7006596000865,None,"[0, 0, 0]",1,1883.7177047000732,None,,,,,,,,,,,,,,,,,,,7,f,1,18,r,MH,49,49,2022_Aug_01_1501,2020.2.10,distractmap1,59.988002336111215,"['Right Face', 'Left Face', 'Right Face', 'Left Face']",
5,"[0, 0]",0,0,5,5,5,,,None,None,"[0, 0, 0]",1885.7006757000927,1887.7006882000715,1885.7006757000927,1886.7006759000942,1886.684011900099,1887.6840292001143,"[0, 0, 0]",1,1885.7006757000927,1887.7006882000715,,,,,,,,,,,,,,,,,,,7,f,1,18,r,MH,49,49,2022_Aug_01_1501,2020.2.10,distractmap1,59.988002336111215,"['Right Face', 'Left Face', 'Right Face', 'Left Face']",
1,"[-0.2, 0.2]",0,0,6,6,6,,,None,None,"[0, 0, 0]",1887.7173580001108,1889.7173945000395,1887.7173580001108,1888.717374900123,1888.7006965000182,1889.700702900067,"[0, 0, 0]",1,1887.7173580001108,1889.7173945000395,,,,,,,,,,,,,,,,,,,7,f,1,18,r,MH,49,49,2022_Aug_01_1501,2020.2.10,distractmap1,59.988002336111215,"['Right Face', 'Left Face', 'Right Face', 'Left Face']",
1,"[-0.2, 0.2]",0,0,7,7,7,,,None,None,"[0, 0, 0]",1889.7340425001457,1891.7340540001169,1889.7340425001457,1890.7340480999555,1890.7173929000273,1891.7173973000608,"[0, 0, 0]",1,1889.7340425001457,1891.7340540001169,,,,,,,,,,,,,,,,,,,7,f,1,18,r,MH,49,49,2022_Aug_01_1501,2020.2.10,distractmap1,59.988002336111215,"['Right Face', 'Left Face', 'Right Face', 'Left Face']",
6,"[0.2, 0]",0,0,8,8,8,,,None,None,"[0, 0, 0]",1891.750719500007,1893.7507488999981,1891.750719500007,1892.7507305000909,1892.7340679001063,1893.7340749001596,"[0, 0, 0]",1,1891.750719500007,1893.7507488999981,,,,,,,,,,,,,,,,,,,7,f,1,18,r,MH,49,49,2022_Aug_01_1501,2020.2.10,distractmap1,59.988002336111215,"['Right Face', 'Left Face', 'Right Face', 'Left Face']",
1,"[-0.2, 0.2]",1,0,9,9,9,,,None,None,"[0, 0, 0]",1893.767432600027,1895.7674257000908,1893.767432600027,1894.7674271001015,1894.7507497000042,1895.7507583000697,"[0, 0, 0]",1,1893.767432600027,1895.7674257000908,,,,,,,,,,,,,,,,,,,7,f,1,18,r,MH,49,49,2022_Aug_01_1501,2020.2.10,distractmap1,59.988002336111215,"['Right Face', 'Left Face', 'Right Face', 'Left Face']",
,,,,,,,,,,,,,,,,,,,,,,1895.7841058000922,None,,,,,,,,,,,,,,,,,7,f,1,18,r,MH,49,49,2022_Aug_01_1501,2020.2.10,distractmap1,59.988002336111215,"['Right Face', 'Left Face', 'Right Face', 'Left Face']",
,,,,,,,,,,,,,,,,,,,,,,,,,,,,,,,,,,,,37.03703703703704,1866.149243199965,,,7,f,1,18,r,MH,49,49,2022_Aug_01_1501,2020.2.10,distractmap1,59.988002336111215,"['Right Face', 'Left Face', 'Right Face', 'Left Face']",
3,"[0.2, 0.2]",None,0,0,0,0,1911.0509037000593,None,None,None,"[0, 0, 0]",1915.817511799978,1917.817621000111,1915.817511799978,1916.8176047001034,1916.8009445001371,1917.8009721001144,"[0, 0, 0]",1,1915.817511799978,1917.817621000111,,,,,,,,,,,,,,,,,0.012625900097191334,5.008083299966529,7,f,1,18,r,MH,49,49,2022_Aug_01_1501,2020.2.10,distractmap1,59.988002336111215,"['Right Face', 'Left Face', 'Right Face', 'Left Face']",
3,"[0.2, 0.2]",None,0,1,1,1,,,None,None,"[0, 0, 0]",1917.8342882001307,1919.834306300152,1917.8342882001307,1918.8343110999558,1918.8176429001614,1919.8176677001175,"[0, 0, 0]",1,1917.8342882001307,1919.834306300152,,,,,,,,,,,,,,,,,,,7,f,1,18,r,MH,49,49,2022_Aug_01_1501,2020.2.10,distractmap1,59.988002336111215,"['Right Face', 'Left Face', 'Right Face', 'Left Face']",
5,"[0, 0]",0,0,2,2,2,,,None,None,"[0, 0, 0]",1919.8509661999997,1921.851006400073,1919.8509661999997,1920.851103699999,1920.8344161000568,1921.8343623001128,"[0, 0, 0]",1,1919.8509661999997,1921.851006400073,,,,,,,,,,,,,,,,,,,7,f,1,18,r,MH,49,49,2022_Aug_01_1501,2020.2.10,distractmap1,59.988002336111215,"['Right Face', 'Left Face', 'Right Face', 'Left Face']",
1,"[-0.2, 0.2]",0,0,3,3,3,,,None,None,"[0, 0, 0]",1921.8676559000742,1923.8676859999541,1921.8676559000742,1922.8676764999982,1922.851006400073,1923.8510211999528,"[0, 0, 0]",1,1921.8676559000742,1923.8676859999541,,,,,,,,,,,,,,,,,,,7,f,1,18,r,MH,49,49,2022_Aug_01_1501,2020.2.10,distractmap1,59.988002336111215,"['Right Face', 'Left Face', 'Right Face', 'Left Face']",
5,"[0, 0]",1,0,4,4,4,,,None,None,"[0, 0, 0]",1923.9510530000553,None,1923.9510530000553,1924.95101780002,1924.9343866000418,None,"[0, 0, 0]",1,1923.9510530000553,None,,,,,,,,,,,,,,,,,,,7,f,1,18,r,MH,49,49,2022_Aug_01_1501,2020.2.10,distractmap1,59.988002336111215,"['Right Face', 'Left Face', 'Right Face', 'Left Face']",
8,"[0, -0.2]",0,0,5,5,5,,,None,None,"[0, 0, 0]",1925.901031400077,1927.901052000001,1925.901031400077,1926.9010481999721,1926.8843614000361,1927.884375500027,"[0, 0, 0]",1,1925.901031400077,1927.901052000001,,,,,,,,,,,,,,,,,,,7,f,1,18,r,MH,49,49,2022_Aug_01_1501,2020.2.10,distractmap1,59.988002336111215,"['Right Face', 'Left Face', 'Right Face', 'Left Face']",
5,"[0, 0]",1,0,6,6,6,,,None,None,"[0, 0, 0]",1927.917707100045,1929.917722800048,1927.917707100045,1928.917730400106,1928.901054300135,1929.901074100053,"[0, 0, 0]",1,1927.917707100045,1929.917722800048,,,,,,,,,,,,,,,,,,,7,f,1,18,r,MH,49,49,2022_Aug_01_1501,2020.2.10,distractmap1,59.988002336111215,"['Right Face', 'Left Face', 'Right Face', 'Left Face']",
7,"[-0.2, -0.2]",0,0,7,7,7,,,None,None,"[0, 0, 0]",1929.9343965000007,1931.934426800115,1929.9343965000007,1930.9344208999537,1930.9177403999493,1931.9177502000239,"[0, 0, 0]",1,1929.9343965000007,1931.934426800115,,,,,,,,,,,,,,,,,,,7,f,1,18,r,MH,49,49,2022_Aug_01_1501,2020.2.10,distractmap1,59.988002336111215,"['Right Face', 'Left Face', 'Right Face', 'Left Face']",
5,"[0, 0]",1,0,8,8,8,,,None,None,"[0, 0, 0]",1931.9510921000037,1933.9511047000997,1931.9510921000037,1932.9510898001026,1932.9344232000876,1933.9344453001395,"[0, 0, 0]",1,1931.9510921000037,1933.9511047000997,,,,,,,,,,,,,,,,,,,7,f,1,18,r,MH,49,49,2022_Aug_01_1501,2020.2.10,distractmap1,59.988002336111215,"['Right Face', 'Left Face', 'Right Face', 'Left Face']",
7,"[-0.2, -0.2]",1,0,9,9,9,,,None,None,"[0, 0, 0]",1933.96778549999,1935.9677900001407,1933.96778549999,1934.9677858001087,1934.9511072000023,1935.951127000153,"[0, 0, 0]",1,1933.96778549999,1935.9677900001407,,,,,,,,,,,,,,,,,,,7,f,1,18,r,MH,49,49,2022_Aug_01_1501,2020.2.10,distractmap1,59.988002336111215,"['Right Face', 'Left Face', 'Right Face', 'Left Face']",
,,,,,,,,,,,,,,,,,,,,,,1935.984452500008,None,,,,,,,,,,,,,,,,,7,f,1,18,r,MH,49,49,2022_Aug_01_1501,2020.2.10,distractmap1,59.988002336111215,"['Right Face', 'Left Face', 'Right Face', 'Left Face']",
,,,,,,,,,,,,,,,,,,,,,,,,,,,,,,,,,,,,36.7283950617284,1907.0158878003713,,,7,f,1,18,r,MH,49,49,2022_Aug_01_1501,2020.2.10,distractmap1,59.988002336111215,"['Right Face', 'Left Face', 'Right Face', 'Left Face']",
6,"[0.2, 0]",None,0,0,0,0,1954.1346744000912,None,None,None,"[0, 0, 0]",1956.0179687000345,1958.0179135000799,1956.0179687000345,1957.0179735999554,1957.0013095999602,1958.0013139999937,"[0, 0, 0]",1,1956.0179687000345,1958.0179135000799,,,,,,,,,,,,,,,,,0.012917599640786648,5.008657699683681,7,f,1,18,r,MH,49,49,2022_Aug_01_1501,2020.2.10,distractmap1,59.988002336111215,"['Right Face', 'Left Face', 'Right Face', 'Left Face']",
1,"[-0.2, 0.2]",None,0,1,1,1,,,None,None,"[0, 0, 0]",1958.0346480000298,1960.034662900027,1958.0346480000298,1959.0346572001,1959.0180029999465,1960.017996400129,"[0, 0, 0]",1,1958.0346480000298,1960.034662900027,,,,,,,,,,,,,,,,,,,7,f,1,18,r,MH,49,49,2022_Aug_01_1501,2020.2.10,distractmap1,59.988002336111215,"['Right Face', 'Left Face', 'Right Face', 'Left Face']",
6,"[0.2, 0]",1,0,2,2,2,,,None,None,"[0, 0, 0]",1960.0513506999705,1962.0513766000513,1960.0513506999705,1961.0513671999797,1961.0346741001122,1962.0346901000012,"[0, 0, 0]",1,1960.0513506999705,1962.0513766000513,,,,,,,,,,,,,,,,,,,7,f,1,18,r,MH,49,49,2022_Aug_01_1501,2020.2.10,distractmap1,59.988002336111215,"['Right Face', 'Left Face', 'Right Face', 'Left Face']",
4,"[-0.2, 0]",0,0,3,3,3,,,None,None,"[0, 0, 0]",1962.068016000092,1964.0680432999507,1962.068016000092,1963.068028199952,1963.0513718000147,1964.0513933999464,"[0, 0, 0]",1,1962.068016000092,1964.0680432999507,,,,,,,,,,,,,,,,,,,7,f,1,18,r,MH,49,49,2022_Aug_01_1501,2020.2.10,distractmap1,59.988002336111215,"['Right Face', 'Left Face', 'Right Face', 'Left Face']",
1,"[-0.2, 0.2]",0,0,4,4,4,,,None,None,"[0, 0, 0]",1964.1516801000107,None,1964.1516801000107,1965.1514588999562,1965.1347199999727,None,"[0, 0, 0]",0,1964.1516801000107,None,,,,,,,,,,,,,,,,,,,7,f,1,18,r,MH,49,49,2022_Aug_01_1501,2020.2.10,distractmap1,59.988002336111215,"['Right Face', 'Left Face', 'Right Face', 'Left Face']",
8,"[0, -0.2]",0,0,5,5,5,,,None,None,"[0, 0, 0]",1966.101414800156,1968.1014303001575,1966.101414800156,1967.101400700165,1967.0847333001439,1968.0847400000785,"[0, 0, 0]",1,1966.101414800156,1968.1014303001575,,,,,,,,,,,,,,,,,,,7,f,1,18,r,MH,49,49,2022_Aug_01_1501,2020.2.10,distractmap1,59.988002336111215,"['Right Face', 'Left Face', 'Right Face', 'Left Face']",
1,"[-0.2, 0.2]",1,0,6,6,6,,,None,None,"[0, 0, 0]",1968.1180863000918,1970.1180976000614,1968.1180863000918,1969.1179965001065,1969.101417900063,1970.1014374000952,"[0, 0, 0]",1,1968.1180863000918,1970.1180976000614,,,,,,,,,,,,,,,,,,,7,f,1,18,r,MH,49,49,2022_Aug_01_1501,2020.2.10,distractmap1,59.988002336111215,"['Right Face', 'Left Face', 'Right Face', 'Left Face']",
8,"[0, -0.2]",1,0,7,7,7,,,None,None,"[0, 0, 0]",1970.1347562000155,1972.1347746001557,1970.1347562000155,1971.1347648999654,1971.1181135999504,1972.1181217001285,"[0, 0, 0]",1,1970.1347562000155,1972.1347746001557,,,,,,,,,,,,,,,,,,,7,f,1,18,r,MH,49,49,2022_Aug_01_1501,2020.2.10,distractmap1,59.988002336111215,"['Right Face', 'Left Face', 'Right Face', 'Left Face']",
1,"[-0.2, 0.2]",1,0,8,8,8,,,None,None,"[0, 0, 0]",1972.1514584000688,1974.151475199964,1972.1514584000688,1973.1514594999608,1973.1348073000554,1974.1347906000447,"[0, 0, 0]",1,1972.1514584000688,1974.151475199964,,,,,,,,,,,,,,,,,,,7,f,1,18,r,MH,49,49,2022_Aug_01_1501,2020.2.10,distractmap1,59.988002336111215,"['Right Face', 'Left Face', 'Right Face', 'Left Face']",
6,"[0.2, 0]",0,0,9,9,9,,,None,None,"[0, 0, 0]",1974.1681244999636,1976.1680678999983,1974.1681244999636,1975.1681395000778,1975.1514942001086,1976.1514926000964,"[0, 0, 0]",1,1974.1681244999636,1976.1680678999983,,,,,,,,,,,,,,,,,,,7,f,1,18,r,MH,49,49,2022_Aug_01_1501,2020.2.10,distractmap1,59.988002336111215,"['Right Face', 'Left Face', 'Right Face', 'Left Face']",
,,,,,,,,,,,,,,,,,,,,,,1976.184821400093,None,,,,,,,,,,,,,,,,,7,f,1,18,r,MH,49,49,2022_Aug_01_1501,2020.2.10,distractmap1,59.988002336111215,"['Right Face', 'Left Face', 'Right Face', 'Left Face']",
,,,,,,,,,,,,,,,,,,,,,,,,,,,,,,,,,,,,38.76543209876544,1946.7329628001899,,,7,f,1,18,r,MH,49,49,2022_Aug_01_1501,2020.2.10,distractmap1,59.988002336111215,"['Right Face', 'Left Face', 'Right Face', 'Left Face']",
7,"[-0.2, -0.2]",None,0,0,0,0,2129.8028595000505,None,None,None,"[0, 0, 0]",2136.8028369001113,2138.8029202001635,2136.8028369001113,2137.8029175000265,2137.786249500001,2138.7862563000526,"[0, 0, 0]",1,2136.8028369001113,2138.8029202001635,,,,,,2075.5857029000763,2075.5857029000763,None,space,34.4034766999539,2075.5857029000763,None,,,,,0.012974999845027924,5.008926399983466,7,f,1,18,r,MH,49,49,2022_Aug_01_1501,2020.2.10,distractmap1,59.988002336111215,"['Right Face', 'Left Face', 'Right Face', 'Left Face']",
