	onset	duration	rt	response	correct	bodySite	temperature	condition	pretrial-jitter
0	2.767544599948451	7.783338299952447				Right Face	47.5	2back Instructions	
1	14.792059700004756	1.999385500093922			1.0	Right Face	32.0	2back-nostim	
2	16.803815399995074	2.009237000020221			1.0	Right Face	32.0	2back-nostim	7.0
3	18.82100889994763	2.0082419998943806	0.41687429999001324	0.0	1.0	Right Face	32.0	2back-nostim	
4	20.836642500013113	2.010351800126955	0.0	2.0	1.0	Right Face	32.0	2back-nostim	
5	22.853675399906933	2.0096463998779655	0.0	2.0	1.0	Right Face	32.0	2back-nostim	
6	24.869963200064376	2.01044060010463	0.0	2.0	1.0	Right Face	32.0	2back-nostim	
7	26.886647399980575	2.0104379998520017	0.5502059999853373	0.0	1.0	Right Face	32.0	2back-nostim	
8	28.903599499957636	2.0098933998961	0.0	2.0	1.0	Right Face	32.0	2back-nostim	
9	30.919964799890295	2.0105578997172415	0.0	2.0	1.0	Right Face	32.0	2back-nostim	
10	32.9372338000685	2.009364200057462	0.5335540999658406	0.0	1.0	Right Face	32.0	2back-nostim	
11	37.96057890006341	42.9670124000404				Right Face	47.5	2back Instructions	
12	49.97576569998637	1.9992931997403502			1.0	Right Face	32.0	2back-nostim	
13	51.98760069999844	2.0089767000172287			1.0	Right Face	32.0	2back-nostim	7.0
14	54.003772400086746	2.0099922996014357	0.0	2.0	1.0	Right Face	32.0	2back-nostim	
15	56.0204632000532	2.009995199739933	0.0	2.0	1.0	Right Face	32.0	2back-nostim	
16	58.03692610003054	2.0104643998201936	0.4502256999257952	0.0	1.0	Right Face	32.0	2back-nostim	
17	60.05372349987738	2.0102180996909738	0.7835615000221878	0.0	1.0	Right Face	32.0	2back-nostim	
18	62.07045489992015	2.010096200276166	0.0	2.0	1.0	Right Face	32.0	2back-nostim	
19	64.08706149994396	2.01032210001722	0.0	2.0	1.0	Right Face	32.0	2back-nostim	
20	66.1040785999503	2.009596300078556	0.0	2.0	1.0	Right Face	32.0	2back-nostim	
21	68.12037359992974	2.010358499828726	0.46688030008226633	0.0	1.0	Right Face	32.0	2back-nostim	
22	77.14548989990726	82.15060599986464				Right Face	47.5	2back Instructions	
23	85.1590678000357	1.9999744999222457			1.0	Right Face	32.0	2back-nostim	
24	87.17090869997628	2.009632100118324			1.0	Right Face	32.0	2back-nostim	3.0
25	89.18772939988412	2.0094157999847084	0.0	2.0	1.0	Right Face	32.0	2back-nostim	
26	91.20499129989184	2.0082339998334646	0.0	2.0	1.0	Right Face	32.0	2back-nostim	
27	93.22050360008143	2.010590099962428	0.45022740005515516	0.0	1.0	Right Face	32.0	2back-nostim	
28	95.23735619988292	2.010242400225252	0.0	2.0	1.0	Right Face	32.0	2back-nostim	
29	97.25429459987208	2.00970990001224	0.0	2.0	1.0	Right Face	32.0	2back-nostim	
30	99.27059309999458	2.0104751996695995	0.5671069000381976	0.0	1.0	Right Face	32.0	2back-nostim	
31	101.28743049991317	2.0102024998050183	0.0	2.0	1.0	Right Face	32.0	2back-nostim	
32	103.30427780002356	2.009875999763608	0.0	2.0	1.0	Right Face	32.0	2back-nostim	
33	110.32790769985877	115.33423639996909				Right Face	32.0	2back Instructions	
34	120.34253929997794	1.9836278001312166			1.0	Right Face	47.5	2back-stim	
35	122.33801790000871	2.009406399913132			1.0	Right Face	47.5	2back-stim	5.0
36	124.35420639999211	2.010372499935329	0.6835752001497895	0.0	1.0	Right Face	47.5	2back-stim	
37	126.37087049987167	2.0104209997225553	0.0	2.0	1.0	Right Face	47.5	2back-stim	
38	128.4169347998686	1.968317599967122	0.0	2.0	1.0	Right Face	47.5	2back-stim	
39	130.40445140004158	2.010007199831307	0.0	2.0	1.0	Right Face	47.5	2back-stim	
40	132.4212040998973	2.009858699981123	0.0	2.0	1.0	Right Face	47.5	2back-stim	
41	134.43765920004807	2.0103104999288917	0.0	2.0	1.0	Right Face	47.5	2back-stim	
42	136.4541901999619	2.0105230000335723	0.4502566000446677	0.0	1.0	Right Face	47.5	2back-stim	
43	138.47093770001084	2.010489499894902	0.0	2.0	1.0	Right Face	47.5	2back-stim	
44	147.4891512999311	5.007939499802887		36.66666666666667		Right Face	47.5	2back-stim Rating	7.0
45	152.4944392000325	157.50147949997336				Right Face	32.0	2back Instructions	
46	160.52626329986379	2.0002520997077227			1.0	Right Face	47.5	2back-stim	
47	162.53845879994333	2.0092320998664945			1.0	Right Face	47.5	2back-stim	3.0
48	164.55479569989257	2.0097993998788297	0.0	2.0	1.0	Right Face	47.5	2back-stim	
49	166.57113509997725	2.010588899953291	0.4170138998888433	0.0	1.0	Right Face	47.5	2back-stim	
50	168.61502470006235	1.9728766998741776	0.0	2.0	1.0	Right Face	47.5	2back-stim	
51	170.60507629998028	2.0094903998542577	0.0	2.0	1.0	Right Face	47.5	2back-stim	
52	172.62135079992004	2.0102826999500394	0.0	2.0	1.0	Right Face	47.5	2back-stim	
53	174.6382257998921	2.009916699724272	0.6835832002107054	0.0	1.0	Right Face	47.5	2back-stim	
54	176.6547819999978	2.0101264999248087	0.0	2.0	1.0	Right Face	47.5	2back-stim	
55	178.6713830998633	2.010320299770683	0.33354949997738004	0.0	1.0	Right Face	47.5	2back-stim	
56	183.68858750001527	5.0097064999863505		37.592592592592595		Right Face	47.5	2back-stim Rating	3.0
57	188.69380060001276	193.70203669997863				Right Face	32.0	2back Instructions	
58	200.72655380005017	2.000359799945727			1.0	Right Face	47.5	2back-stim	
59	202.73867099988274	2.0095311999320984			1.0	Right Face	47.5	2back-stim	7.0
60	204.7549642000813	2.010295599931851	0.4835363000165671	0.0	1.0	Right Face	47.5	2back-stim	
61	206.77152050007135	2.010552299907431	0.0	2.0	1.0	Right Face	47.5	2back-stim	
62	208.82706739986315	1.966153700137511	0.3668752000667155	0.0	1.0	Right Face	47.5	2back-stim	
63	210.8051839999389	2.0099656998645514	0.0	2.0	1.0	Right Face	47.5	2back-stim	
64	212.82214819989167	2.009390599792823	0.0	2.0	1.0	Right Face	47.5	2back-stim	
65	214.83841830003075	2.010236500063911	0.0	2.0	1.0	Right Face	47.5	2back-stim	
66	216.8551717000082	2.0101127999369055	0.0	2.0	1.0	Right Face	47.5	2back-stim	
67	218.87168069998734	2.0104506998322904	0.4335719000082463	0.0	1.0	Right Face	47.5	2back-stim	
68	227.88949649990536	5.008661499712616		40.49382716049383		Right Face	47.5	2back-stim Rating	7.0
69	235.88736109994352	20.012858900008723				Right Face	32.0	Rest-NoStim	3.0
70	255.88716390007176	3.01343910000287				Right Face		PostTrialFixation	
71	265.8873833999969	20.013353099813685				Right Face	32.0	Rest-NoStim	7.0
72	285.88717480003834	3.0139911000151187				Right Face		PostTrialFixation	
73	295.887394499965	20.01379429968074				Right Face	32.0	Rest-NoStim	7.0
74	315.88819470000453	5.012475499883294				Right Face		PostTrialFixation	
75	325.9029121999629	20.00003289990127				Right Face	47.5	Rest-Stim	5.0
76	345.90309239993803	3.0165203001815826				Right Face		PostTrialFixation	
77	348.90565479989164	5.011781599838287		35.67901234567901		Right Face	47.5	Rest-Stim Rating	3.0
78	360.9198922999203	20.000021999701858				Right Face	47.5	Rest-Stim	7.0
79	380.92009590007365	3.0165037997066975				Right Face		PostTrialFixation	
80	383.92223679996096	5.012619199696928		43.58024691358025		Right Face	47.5	Rest-Stim Rating	3.0
81	395.9368702999782	20.000021199695766				Right Face	47.5	Rest-Stim	7.0
82	415.93706779996864	7.0165529998485				Right Face		PostTrialFixation	
83	422.939184299903	5.012759299715981		46.48148148148148		Right Face	47.5	Rest-Stim Rating	7.0
84	427.94671649998054	432.95401149988174				Right Face	32.0	2back Instructions	
85	435.97900910000317	1.9996516001410782			1.0	Right Face	47.5	2back-stim	
86	437.9910202999599	2.008981900056824			1.0	Right Face	47.5	2back-stim	3.0
87	440.00702850008383	2.0103710999246687	0.0	2.0	1.0	Right Face	47.5	2back-stim	
88	442.0237549999729	2.010261399904266	0.0	2.0	1.0	Right Face	47.5	2back-stim	
89	444.070970099885	1.982538599986583	0.4833072000183165	0.0	1.0	Right Face	47.5	2back-stim	
90	446.0571103999391	2.0103081001434475	0.0	2.0	1.0	Right Face	47.5	2back-stim	
91	448.07369420002215	2.010501499986276	0.7002389999106526	0.0	1.0	Right Face	47.5	2back-stim	
92	450.09037859993987	2.0104962000623345	0.0	2.0	1.0	Right Face	47.5	2back-stim	
93	452.1073098999914	2.0100079998373985	0.5835426000412554	0.0	1.0	Right Face	47.5	2back-stim	
94	454.1238474000711	2.0103102999273688	0.5835489998571575	0.0	1.0	Right Face	47.5	2back-stim	
95	463.1414272999391	5.008998199831694		39.93827160493827		Right Face	47.5	2back-stim Rating	7.0
96	468.1467826999724	473.1550274998881				Right Face	32.0	2back Instructions	
97	476.1791006999556	2.0002007000148296			1.0	Right Face	47.5	2back-stim	
98	478.191146499943	2.0094795001205057			1.0	Right Face	47.5	2back-stim	3.0
99	480.207576100016	2.0098974998109043	0.4835359000135213	0.0	1.0	Right Face	47.5	2back-stim	
100	482.2243224000558	2.0098650997970253	0.0	2.0	1.0	Right Face	47.5	2back-stim	
101	484.31303060008213	1.9324839997570962	0.550328099867329	0.0	0.0	Right Face	47.5	2back-stim	
102	486.257566699991	2.0101445999462157	0.0	2.0	1.0	Right Face	47.5	2back-stim	
103	488.2742367000319	2.010162299964577	0.38355719996616244	0.0	1.0	Right Face	47.5	2back-stim	
104	490.29107989999466	2.009768599877134	0.6835728001315147	0.0	1.0	Right Face	47.5	2back-stim	
105	492.3074684999883	2.0104461999144405	0.6169080000836402	0.0	1.0	Right Face	47.5	2back-stim	
106	494.32418109988794	2.0102914997842163	0.0	2.0	1.0	Right Face	47.5	2back-stim	
107	503.3412250999827	5.010131000075489		41.79012345679013		Right Face	47.5	2back-stim Rating	7.0
108	508.3477938999422	513.3545393000823				Right Face	32.0	2back Instructions	
109	516.3627500000875	1.9836170999333262			1.0	Right Face	47.5	2back-stim	
110	518.3582460999023	2.0093642997089773			1.0	Right Face	47.5	2back-stim	3.0
111	520.3751254000235	2.0089349998161197	0.8669046999420971	0.0	1.0	Right Face	47.5	2back-stim	
112	522.391020399984	2.010406999848783	0.0	2.0	1.0	Right Face	47.5	2back-stim	
113	524.4345678999089	1.9734866002108902	0.0	2.0	1.0	Right Face	47.5	2back-stim	
114	526.4245637999848	2.0101703996770084	0.0	2.0	1.0	Right Face	47.5	2back-stim	
115	528.4417729000561	2.0091311000287533	0.40020569995976985	0.0	1.0	Right Face	47.5	2back-stim	
116	530.4577085999772	2.0106322998180985	0.0	2.0	1.0	Right Face	47.5	2back-stim	
117	532.4746695000213	2.0100799000356346	0.0	2.0	1.0	Right Face	47.5	2back-stim	
118	534.4913155999966	2.010166499763727	0.433596899965778	0.0	1.0	Right Face	47.5	2back-stim	
119	539.5089199000504	5.008732500020415		39.567901234567906		Right Face	47.5	2back-stim Rating	3.0
120	551.5216035000049	20.00003739981912				Right Face	47.5	Rest-Stim	7.0
121	571.5218028998934	6.999881600029767				Right Face		PostTrialFixation	
122	578.5222151998896	5.016149299684912		43.39506172839506		Right Face	47.5	Rest-Stim Rating	7.0
123	586.5385837000795	20.000047400128096				Right Face	47.5	Rest-Stim	3.0
124	606.5387701999862	6.999913400039077				Right Face		PostTrialFixation	
125	613.5392040999141	5.016035599866882		40.67901234567901		Right Face	47.5	Rest-Stim Rating	7.0
126	621.5555674999487	20.000026499619707				Right Face	47.5	Rest-Stim	3.0
127	641.5557466000319	6.999892999883741				Right Face		PostTrialFixation	
128	648.5562052999157	5.016117199789733		45.74074074074074		Right Face	47.5	Rest-Stim Rating	7.0
