	SID	biopac_channel	body_site	condition	correct	date	duration	handedness	mouseclick	onset	rt	scanner	score	session	sex	skin_site	temperature	value
0	2541	51	Left Leg	Expectancy		2023_Jan_26_1129	5.007344611454755	R		3.0649956001434475	3.6837005000561476	MS SP		2541	M	99		16.85185185185185
1	2541	44	Left Leg	0-back Instruction		2023_Jan_26_1129	5.001384649425745	R		8.474030300043523		MS SP		2541	M	99		
2	2541	7	Left Leg	Pre-Trial Jitter		2023_Jan_26_1129	5.004663469735533	R		13.480720200110227		MS SP		2541	M	99		
3	2541	44.0	Left Leg	pretrialfixation		2023_Jan_26_1129	1.0146410297602415	R		18.78413480008021		MS SP		2541	M	99		
4	2541		Left Leg	0-back	1.0	2023_Jan_26_1129	1.9887081696651876	R	0.0	19.79711200017482	0.5296250998508185	MS SP	12.5	2541	M	99	48.5	
5	2541		Left Leg	0-back	1.0	2023_Jan_26_1129	1.9877520699519664	R	0.0	21.805930600035936	0.29703120002523065	MS SP	25.0	2541	M	99	48.5	
6	2541		Left Leg	0-back	1.0	2023_Jan_26_1129	1.9888553698547184	R	0.0	23.805409100139514	0.29673999990336597	MS SP	37.5	2541	M	99	48.5	
7	2541		Left Leg	0-back	1.0	2023_Jan_26_1129	1.9883414700161666	R	0.0	25.805689700180665	0.29707260010764003	MS SP	50.0	2541	M	99	48.5	
8	2541		Left Leg	0-back	1.0	2023_Jan_26_1129	1.9888637699186802	R	0.0	27.805451299995184	0.31687560002319515	MS SP	62.5	2541	M	99	48.5	
9	2541		Left Leg	0-back	1.0	2023_Jan_26_1129	1.9891378697939217	R	0.0	29.805316400015727	0.267079200129956	MS SP	75.0	2541	M	99	48.5	
10	2541		Left Leg	0-back	1.0	2023_Jan_26_1129	1.9880929698701948	R	0.0	31.805861300090328	0.32986690010875463	MS SP	87.5	2541	M	99	48.5	
11	2541		Left Leg	0-back	1.0	2023_Jan_26_1129	1.9888604700099677	R	0.0	33.80550180003047	0.39717140002176166	MS SP	100.0	2541	M	99	48.5	
12	2541	48.0	Left Leg	ScoreReport		2023_Jan_26_1129	5.003942070063204	R		35.81467680004425		MS SP		2541	M	99		
13	2541	8	Left Leg	Post-Trial Jitter		2023_Jan_26_1129	8.99441067990847	R		40.87786080013029		MS SP		2541	M	99		
14	2541	20	Left Leg	PainBinary		2023_Jan_26_1129	5.004050340270624	R		49.889793700072914	1.1675081001594663	MS SP		2541	M	99		1.0
15	2541	21	Left Leg	IntensityRating		2023_Jan_26_1129	4.99756053998135	R		54.9097317000851	2.9836794999428093	MS SP		2541	M	99		20.185185185185183
16	2541	23	Left Leg	DistractBinary		2023_Jan_26_1129	5.005596039816737	R		59.922430800041184	1.550275499932468	MS SP		2541	M	99		1.0
17	2541	9	Left Leg	Post-Q-Jitter		2023_Jan_26_1129	8.99752516974695	R		64.9265582000371		MS SP		2541	M	99		
18	2541	51	Left Leg	Expectancy		2023_Jan_26_1129	5.010530489496887	R		74.1868267999962	3.553119899937883	MS SP		2541	M	99		19.753086419753085
19	2541	44	Left Leg	0-back Instruction		2023_Jan_26_1129	5.005631579551846	R		79.58099060016684		MS SP		2541	M	99		
20	2541	7	Left Leg	Pre-Trial Jitter		2023_Jan_26_1129	5.003512169932947	R		84.59871970000677		MS SP		2541	M	99		
21	2541	44.0	Left Leg	pretrialfixation		2023_Jan_26_1129	0.9934391598217189	R		89.89549550018273		MS SP		2541	M	99		
22	2541		Left Leg	0-back	1.0	2023_Jan_26_1129	1.9896079699974507	R	0.0	90.89739530021325	0.363150899996981	MS SP	12.5	2541	M	99	48.5	
23	2541		Left Leg	0-back	1.0	2023_Jan_26_1129	1.9876329698599875	R	0.0	92.90673730010167	0.3503088001161814	MS SP	25.0	2541	M	99	48.5	
24	2541		Left Leg	0-back	1.0	2023_Jan_26_1129	1.9884861700702459	R	0.0	94.90636300016195	0.2637881999835372	MS SP	37.5	2541	M	99	48.5	
25	2541		Left Leg	0-back	1.0	2023_Jan_26_1129	1.988685370190069	R	0.0	96.90627540019341	0.3971273999195546	MS SP	50.0	2541	M	99	48.5	
26	2541		Left Leg	0-back	1.0	2023_Jan_26_1129	1.9880249698180705	R	0.0	98.90661180019379	0.39664149982854724	MS SP	62.5	2541	M	99	48.5	
27	2541		Left Leg	0-back	1.0	2023_Jan_26_1129	1.9888660698197782	R	0.0	100.90620690002106	0.3301880001090467	MS SP	75.0	2541	M	99	48.5	
28	2541		Left Leg	0-back	1.0	2023_Jan_26_1129	1.9891833700239658	R	0.0	102.90605440014042	0.3136164001189172	MS SP	87.5	2541	M	99	48.5	
29	2541		Left Leg	0-back	1.0	2023_Jan_26_1129	1.9893724699504673	R	0.0	104.90599070000462	0.4168297001160681	MS SP	100.0	2541	M	99	48.5	
30	2541	48.0	Left Leg	ScoreReport		2023_Jan_26_1129	5.00401026988402	R		106.91539490013383		MS SP		2541	M	99		
31	2541	8	Left Leg	Post-Trial Jitter		2023_Jan_26_1129	7.003628479782492	R		111.97397040016949		MS SP		2541	M	99		
32	2541	20	Left Leg	PainBinary		2023_Jan_26_1129	5.002977140014991	R		118.99103170004673	0.8836121000349522	MS SP		2541	M	99		1.0
33	2541	21	Left Leg	IntensityRating		2023_Jan_26_1129	5.014541640179232	R		124.01030170009471	2.6333590000867844	MS SP		2541	M	99		19.814814814814817
34	2541	23	Left Leg	DistractBinary		2023_Jan_26_1129	5.007804039865732	R		129.03870999999344	1.3003010000102222	MS SP		2541	M	99		1.0
35	2541	9	Left Leg	Post-Q-Jitter		2023_Jan_26_1129	6.995951669756323	R		134.0446958001703		MS SP		2541	M	99		
36	2541	43	Left Leg	2-back Instruction		2023_Jan_26_1129	5.008451740257442	R		141.06350950011984		MS SP		2541	M	99		
37	2541	7	Left Leg	Pre-trial Jitter		2023_Jan_26_1129	7.004707669606432	R		146.08209530008025		MS SP		2541	M	99		
38	2541	44.0	Left Leg	pretrialfixation		2023_Jan_26_1129	1.0143297899048775	R		153.35236310004257		MS SP		2541	M	99		
39	2541		Left Leg	2-back	1.0	2023_Jan_26_1129	1.9913846699055284	R		154.3638321000617		MS SP	12.5	2541	M	99	32.0	
40	2541		Left Leg	2-back	1.0	2023_Jan_26_1129	1.9872322699520737	R		156.37426160019822		MS SP	25.0	2541	M	99	32.0	
41	2541		Left Leg	2-back	1.0	2023_Jan_26_1129	1.9878557699266821	R	0	158.3739793000277	0.46383260004222393	MS SP	37.5	2541	M	99	32.0	
42	2541		Left Leg	2-back	1.0	2023_Jan_26_1129	1.9876470700837672	R	2	160.3741072001867	0.39703130000270903	MS SP	50.0	2541	M	99	32.0	
43	2541		Left Leg	2-back	1.0	2023_Jan_26_1129	1.987888169940561	R	2	162.37400350021198	0.36377749987877905	MS SP	62.5	2541	M	99	32.0	
44	2541		Left Leg	2-back	1.0	2023_Jan_26_1129	1.9875974697060883	R	2	164.37415869999677	0.7303162000607699	MS SP	75.0	2541	M	99	32.0	
45	2541		Left Leg	2-back	1.0	2023_Jan_26_1129	1.9874623699579388	R	0	166.37426760001108	0.7972158999182284	MS SP	87.5	2541	M	99	32.0	
46	2541		Left Leg	2-back	1.0	2023_Jan_26_1129	1.987787569873035	R	0	168.37410910008475	0.9799023999366909	MS SP	100.0	2541	M	99	32.0	
47	2541	48.0	Left Leg	ScoreReport		2023_Jan_26_1129	5.001187169691548	R		170.3840971000027		MS SP		2541	M	99		
48	2541	8	Left Leg	Post-trial Jitter		2023_Jan_26_1129	6.999843480065465	R		175.44317380012944		MS SP		2541	M	99		
49	2541	43	Left Leg	2-back Instruction		2023_Jan_26_1129	5.007989240111783	R		182.46417200006545		MS SP		2541	M	99		
50	2541	7	Left Leg	Pre-trial Jitter		2023_Jan_26_1129	7.002261770190671	R		187.4837660000194		MS SP		2541	M	99		
51	2541	44.0	Left Leg	pretrialfixation		2023_Jan_26_1129	1.0088533195666969	R		194.74721610010602		MS SP		2541	M	99		
52	2541		Left Leg	2-back	1.0	2023_Jan_26_1129	1.9894088697619736	R		195.76524590002373		MS SP	12.5	2541	M	99	32.0	
53	2541		Left Leg	2-back	1.0	2023_Jan_26_1129	1.9864750697743148	R		197.77506840019487		MS SP	25.0	2541	M	99	32.0	
54	2541		Left Leg	2-back	1.0	2023_Jan_26_1129	1.988353269873187	R	2	199.77414640015922	0.5971047999337316	MS SP	37.5	2541	M	99	32.0	
55	2541		Left Leg	2-back	1.0	2023_Jan_26_1129	1.9876786698587239	R	0	201.77453640010208	0.5637813000939786	MS SP	50.0	2541	M	99	32.0	
56	2541		Left Leg	2-back	1.0	2023_Jan_26_1129	1.9879464698024094	R	2	203.7743979000952	0.7506392998620868	MS SP	62.5	2541	M	99	32.0	
57	2541		Left Leg	2-back	1.0	2023_Jan_26_1129	1.9873340697959065	R	2	205.77473639999516	0.6302769999019802	MS SP	75.0	2541	M	99	32.0	
58	2541		Left Leg	2-back	1.0	2023_Jan_26_1129	1.987601569853723	R	2	207.7746145001147	0.5301698998082429	MS SP	87.5	2541	M	99	32.0	
59	2541		Left Leg	2-back	1.0	2023_Jan_26_1129	1.9878623699769378	R	0	209.77450000005774	0.697155199944973	MS SP	100.0	2541	M	99	32.0	
60	2541	48.0	Left Leg	ScoreReport		2023_Jan_26_1129	5.001169069902971	R		211.78455580002628		MS SP		2541	M	99		
61	2541	8	Left Leg	Post-trial Jitter		2023_Jan_26_1129	5.000418179901317	R		216.84331140015274		MS SP		2541	M	99		
62	2541	51	Left Leg	Expectancy		2023_Jan_26_1129	5.0010835595894605	R		222.12638310017064	3.583654200192541	MS SP		2541	M	99		20.61728395061728
63	2541	45	Left Leg	2-back Instruction		2023_Jan_26_1129	5.014571649488062	R		227.5197121000383		MS SP		2541	M	99		
64	2541	7	Left Leg	Pre-trial Jitter		2023_Jan_26_1129	9.001289770007133	R		232.5347426000517		MS SP		2541	M	99		
65	2541	44.0	Left Leg	pretrialfixation		2023_Jan_26_1129	1.0127546696458012	R		241.8707638999913		MS SP		2541	M	99		
66	2541		Left Leg	2-back	1.0	2023_Jan_26_1129	1.99157097004354	R		242.88134309998713		MS SP	12.5	2541	M	99	48.5	
67	2541		Left Leg	2-back	1.0	2023_Jan_26_1129	1.9877702698577195	R		244.89155370020308		MS SP	25.0	2541	M	99	48.5	
68	2541		Left Leg	2-back	1.0	2023_Jan_26_1129	1.9883221699856222	R	2	246.89132350008003	0.6136384999845177	MS SP	37.5	2541	M	99	48.5	
69	2541		Left Leg	2-back	1.0	2023_Jan_26_1129	1.9877887698821723	R	0	248.89160940004513	0.3967603000346571	MS SP	50.0	2541	M	99	48.5	
70	2541		Left Leg	2-back	1.0	2023_Jan_26_1129	1.9879051698371768	R	2	250.89156750007533	0.7302151001058519	MS SP	62.5	2541	M	99	48.5	
71	2541		Left Leg	2-back	1.0	2023_Jan_26_1129	1.9876707699149847	R	2	252.89172419998795	0.7470451998524368	MS SP	75.0	2541	M	99	48.5	
72	2541		Left Leg	2-back	1.0	2023_Jan_26_1129	1.9880405699368566	R	2	254.89154990017414	0.4137103999964893	MS SP	87.5	2541	M	99	48.5	
73	2541		Left Leg	2-back	1.0	2023_Jan_26_1129	1.9877009696792811	R	0	256.8917484001722	0.38036519987508655	MS SP	100.0	2541	M	99	48.5	
74	2541	48.0	Left Leg	ScoreReport		2023_Jan_26_1129	5.002137570176274	R		258.90120390011		MS SP		2541	M	99		
75	2541	8	Left Leg	Post-trial Jitter		2023_Jan_26_1129	5.00068547995761	R		263.9603262001183		MS SP		2541	M	99		
76	2541	20	Left Leg	PainBinary		2023_Jan_26_1129	5.001918140100315	R		268.9764523000922	0.9836669999640435	MS SP		2541	M	99		1.0
77	2541	21	Left Leg	IntensityRating		2023_Jan_26_1129	5.010413639945909	R		273.99725900008343	3.0000179999042302	MS SP		2541	M	99		20.185185185185183
78	2541	23	Left Leg	DistractBinary		2023_Jan_26_1129	5.003998039988801	R		279.0255169000011	1.4359183998312801	MS SP		2541	M	99		1.0
79	2541	9	Left Leg	Post-Q-Jitter		2023_Jan_26_1129	4.993439469952136	R		284.0308257001452		MS SP		2541	M	99		
80	2541	51	Left Leg	Expectancy		2023_Jan_26_1129	5.0137029299512506	R		289.32911380007863	2.8503439999185503	MS SP		2541	M	99		20.61728395061728
81	2541	45	Left Leg	2-back Instruction		2023_Jan_26_1129	5.010415949625894	R		294.73916310002096		MS SP		2541	M	99		
82	2541	7	Left Leg	Pre-trial Jitter		2023_Jan_26_1129	9.00321766990237	R		299.7511133002117		MS SP		2541	M	99		
83	2541	44.0	Left Leg	pretrialfixation		2023_Jan_26_1129	1.0044356596190482	R		309.05059900018387		MS SP		2541	M	99		
84	2541		Left Leg	2-back	1.0	2023_Jan_26_1129	1.9899463700130582	R		310.06616630009376		MS SP	12.5	2541	M	99	48.5	
85	2541		Left Leg	2-back	1.0	2023_Jan_26_1129	1.9870982696302235	R		312.07594620017335		MS SP	25.0	2541	M	99	48.5	
86	2541		Left Leg	2-back	1.0	2023_Jan_26_1129	1.988296669907868	R	0	314.07537620002404	0.5971068998333067	MS SP	37.5	2541	M	99	48.5	
87	2541		Left Leg	2-back	1.0	2023_Jan_26_1129	1.9883331700693816	R	2	316.0753236000892	0.5136185998562723	MS SP	50.0	2541	M	99	48.5	
88	2541		Left Leg	2-back	1.0	2023_Jan_26_1129	1.9878377700224519	R	2	318.0756460002158	0.5638014001306146	MS SP	62.5	2541	M	99	48.5	
89	2541		Left Leg	2-back	1.0	2023_Jan_26_1129	1.986975869629532	R	2	320.0760982001666	0.517366100102663	MS SP	75.0	2541	M	99	48.5	
90	2541		Left Leg	2-back	1.0	2023_Jan_26_1129	1.9874626698438078	R	0	322.0758849000558	0.5304845999926329	MS SP	87.5	2541	M	99	48.5	
91	2541		Left Leg	2-back	1.0	2023_Jan_26_1129	1.9869818701408803	R	2	324.0761451001745	0.5970530998893082	MS SP	100.0	2541	M	99	48.5	
92	2541	48.0	Left Leg	ScoreReport		2023_Jan_26_1129	5.001336569665	R		326.08565670019016		MS SP		2541	M	99		
93	2541	8	Left Leg	Post-trial Jitter		2023_Jan_26_1129	7.000000380212441	R		331.14470649999566		MS SP		2541	M	99		
94	2541	20	Left Leg	PainBinary		2023_Jan_26_1129	5.00120194000192	R		338.1608424000442	1.0861581999342889	MS SP		2541	M	99		1.0
95	2541	21	Left Leg	IntensityRating		2023_Jan_26_1129	5.010700640035793	R		343.1811656001955	2.8833108998369426	MS SP		2541	M	99		15.123456790123457
96	2541	23	Left Leg	DistractBinary		2023_Jan_26_1129	5.003138039959595	R		348.20999120012857	1.3168402998708189	MS SP		2541	M	99		1.0
97	2541	9	Left Leg	Post-Q-Jitter		2023_Jan_26_1129	6.993248570011929	R		353.21498180017807		MS SP		2541	M	99		
98	2541	51	Left Leg	Expectancy		2023_Jan_26_1129	5.011781729990616	R		360.5058102000039	3.333661000011489	MS SP		2541	M	99		19.19753086419753
99	2541	44	Left Leg	0-back Instruction		2023_Jan_26_1129	5.00155887962319	R		365.9026545002125		MS SP		2541	M	99		
100	2541	7	Left Leg	Pre-Trial Jitter		2023_Jan_26_1129	7.001994869904593	R		370.91916889999993		MS SP		2541	M	99		
101	2541	44.0	Left Leg	pretrialfixation		2023_Jan_26_1129	1.0048256295267493	R		378.2261574000586		MS SP		2541	M	99		
102	2541		Left Leg	0-back	1.0	2023_Jan_26_1129	1.989209369989112	R	0.0	379.2339246000629	0.43007669993676245	MS SP	12.5	2541	M	99	48.5	
103	2541		Left Leg	0-back	1.0	2023_Jan_26_1129	1.9879664699546993	R	0.0	381.24290000018664	0.4675312000326812	MS SP	25.0	2541	M	99	48.5	
104	2541		Left Leg	0-back	1.0	2023_Jan_26_1129	1.9892781700473279	R	0.0	383.2422548001632	0.4803245000075549	MS SP	37.5	2541	M	99	48.5	
105	2541		Left Leg	0-back	1.0	2023_Jan_26_1129	1.9894770698156208	R	0.0	385.2421883000061	0.3304008000995964	MS SP	50.0	2541	M	99	48.5	
106	2541		Left Leg	0-back	1.0	2023_Jan_26_1129	1.9894081698730588	R	0.0	387.2422625001054	0.34706449997611344	MS SP	62.5	2541	M	99	48.5	
107	2541		Left Leg	0-back	1.0	2023_Jan_26_1129	1.989347469760105	R	0.0	389.24229940003715	0.2970793000422418	MS SP	75.0	2541	M	99	48.5	
108	2541		Left Leg	0-back	1.0	2023_Jan_26_1129	1.9889982698950917	R	0.0	391.24251030012965	0.3471975999418646	MS SP	87.5	2541	M	99	48.5	
109	2541		Left Leg	0-back	1.0	2023_Jan_26_1129	1.989290070021525	R	0.0	393.2423386001028	0.36747689987532794	MS SP	100.0	2541	M	99	48.5	
110	2541	48.0	Left Leg	ScoreReport		2023_Jan_26_1129	5.004689069930464	R		395.2513552000746		MS SP		2541	M	99		
111	2541	8	Left Leg	Post-Trial Jitter		2023_Jan_26_1129	5.004136380041018	R		400.31002310011536		MS SP		2541	M	99		
112	2541	20	Left Leg	PainBinary		2023_Jan_26_1129	5.0008955399971455	R		405.3283798000775	0.8504387000575662	MS SP		2541	M	99		1.0
113	2541	21	Left Leg	IntensityRating		2023_Jan_26_1129	5.012453339993954	R		410.34767330018803	2.333428400103003	MS SP		2541	M	99		19.259259259259256
114	2541	23	Left Leg	DistractBinary		2023_Jan_26_1129	5.0019117400515825	R		415.37798460014164	1.0337098001036793	MS SP		2541	M	99		1.0
115	2541	9	Left Leg	Post-Q-Jitter		2023_Jan_26_1129	5.009538670070469	R		420.3825476001948		MS SP		2541	M	99		
116	2541	51	Left Leg	Expectancy		2023_Jan_26_1129	5.000359718455002	R		426.48730600019917	2.3836316999513656	MS SP		2541	M	99		18.148148148148145
117	2541	44	Left Leg	0-back Instruction		2023_Jan_26_1129	5.016434649238363	R		431.8875933000818		MS SP		2541	M	99		
118	2541	7	Left Leg	Pre-Trial Jitter		2023_Jan_26_1129	9.001242669764906	R		436.90354960015975		MS SP		2541	M	99		
119	2541	44.0	Left Leg	pretrialfixation		2023_Jan_26_1129	0.9975866295862943	R		446.21378880017437		MS SP		2541	M	99		
120	2541		Left Leg	0-back	1.0	2023_Jan_26_1129	1.9905842700973153	R	0.0	447.217276400188	0.49666130007244647	MS SP	12.5	2541	M	99	48.5	
121	2541		Left Leg	0-back	1.0	2023_Jan_26_1129	1.9879985698498785	R	0.0	449.2269485001452	0.29718670016154647	MS SP	25.0	2541	M	99	48.5	
122	2541		Left Leg	0-back	1.0	2023_Jan_26_1129	1.9892346698325127	R	0.0	451.2263346000109	0.330629900097847	MS SP	37.5	2541	M	99	48.5	
123	2541		Left Leg	0-back	1.0	2023_Jan_26_1129	1.9883304699324071	R	0.0	453.22684850008227	0.2676335999276489	MS SP	50.0	2541	M	99	48.5	
124	2541		Left Leg	0-back	1.0	2023_Jan_26_1129	1.988580970093608	R	0.0	455.2266982002184	0.2635788999032229	MS SP	62.5	2541	M	99	48.5	
125	2541		Left Leg	0-back	1.0	2023_Jan_26_1129	1.9888685699552298	R	0.0	457.2265798000153	0.2637094999663532	MS SP	75.0	2541	M	99	48.5	
126	2541		Left Leg	0-back	1.0	2023_Jan_26_1129	1.9886465701274574	R	0.0	459.2267028000206	0.31751690013334155	MS SP	87.5	2541	M	99	48.5	
127	2541		Left Leg	0-back	1.0	2023_Jan_26_1129	1.9888124698773026	R	0.0	461.22666850010864	0.4336576000787318	MS SP	100.0	2541	M	99	48.5	
128	2541	48.0	Left Leg	ScoreReport		2023_Jan_26_1129	5.004317570012063	R		463.23554360005073		MS SP		2541	M	99		
129	2541	8	Left Leg	Post-Trial Jitter		2023_Jan_26_1129	4.997639080043882	R		468.29726510006003		MS SP		2541	M	99		
130	2541	20	Left Leg	PainBinary		2023_Jan_26_1129	5.000529039883986	R		473.31260589999147	0.883661299943924	MS SP		2541	M	99		1.0
131	2541	21	Left Leg	IntensityRating		2023_Jan_26_1129	5.011905839899555	R		478.3319821001496	1.6499821001198143	MS SP		2541	M	99		19.444444444444446
132	2541	23	Left Leg	DistractBinary		2023_Jan_26_1129	5.002233040053397	R		483.3618580000475	1.2198928999714553	MS SP		2541	M	99		1.0
133	2541	9	Left Leg	Post-Q-Jitter		2023_Jan_26_1129	4.993805569829419	R		488.3661151002161		MS SP		2541	M	99		
134	2541	42	Left Leg	0-back Instruction		2023_Jan_26_1129	5.007249040063471	R		493.3844519001432		MS SP		2541	M	99		
135	2541	7	Left Leg	Pre-Trial Jitter		2023_Jan_26_1129	9.00192176969722	R		498.4038583000656		MS SP		2541	M	99		
136	2541	44.0	Left Leg	pretrialfixation		2023_Jan_26_1129	1.0065365196205676	R		507.66829180018976		MS SP		2541	M	99		
137	2541		Left Leg	0-back	1.0	2023_Jan_26_1129	1.9908680696971714	R	0.0	508.68444900005125	0.4123718000482768	MS SP	12.5	2541	M	99	32.0	
138	2541		Left Leg	0-back	1.0	2023_Jan_26_1129	1.9877165700308979	R	0.0	510.6943860000465	0.39700230001471937	MS SP	25.0	2541	M	99	32.0	
139	2541		Left Leg	0-back	1.0	2023_Jan_26_1129	1.9892424698919058	R	0.0	512.6936396001838	0.2669973000884056	MS SP	37.5	2541	M	99	32.0	
140	2541		Left Leg	0-back	1.0	2023_Jan_26_1129	1.988322669873014	R	0.0	514.6941279000603	0.31712620006874204	MS SP	50.0	2541	M	99	32.0	
141	2541		Left Leg	0-back	1.0	2023_Jan_26_1129	1.98914326983504	R	0.0	516.6937415001448	0.43363219988532364	MS SP	62.5	2541	M	99	32.0	
142	2541		Left Leg	0-back	1.0	2023_Jan_26_1129	1.9880861698184162	R	0.0	518.6942739000078	0.3802530998364091	MS SP	75.0	2541	M	99	32.0	
143	2541		Left Leg	0-back	1.0	2023_Jan_26_1129	1.9889316698536277	R	0.0	520.6938807000406	0.39711309992708266	MS SP	87.5	2541	M	99	32.0	
144	2541		Left Leg	0-back	1.0	2023_Jan_26_1129	1.9888356698211282	R	0.0	522.6939331002068	0.2838787999935448	MS SP	100.0	2541	M	99	32.0	
145	2541	48.0	Left Leg	ScoreReport		2023_Jan_26_1129	5.004671769915149	R		524.7027255001012		MS SP		2541	M	99		
146	2541	8	Left Leg	Post-Trial Jitter		2023_Jan_26_1129	8.996557179838419	R		529.7651823000051		MS SP		2541	M	99		
147	2541	42	Left Leg	0-back Instruction		2023_Jan_26_1129	5.006789640057832	R		538.7851445002016		MS SP		2541	M	99		
148	2541	7	Left Leg	Pre-Trial Jitter		2023_Jan_26_1129	5.001665769843385	R		543.8044471000321		MS SP		2541	M	99		
149	2541	44.0	Left Leg	pretrialfixation		2023_Jan_26_1129	1.0071130194701254	R		549.0684219000395		MS SP		2541	M	99		
150	2541		Left Leg	0-back	1.0	2023_Jan_26_1129	1.9897331700194627	R	0.0	550.0854423001874	0.43003869988024235	MS SP	12.5	2541	M	99	32.0	
151	2541		Left Leg	0-back	1.0	2023_Jan_26_1129	1.9883822698611766	R	0.0	552.0944845001213	0.25084879994392395	MS SP	25.0	2541	M	99	32.0	
152	2541		Left Leg	0-back	1.0	2023_Jan_26_1129	1.9891702698078007	R	0.0	554.0941095000599	0.2804748001508415	MS SP	37.5	2541	M	99	32.0	
153	2541		Left Leg	0-back	1.0	2023_Jan_26_1129	1.9889466697350144	R	0.0	556.0942273000255	0.2968780000228435	MS SP	50.0	2541	M	99	32.0	
154	2541		Left Leg	0-back	1.0	2023_Jan_26_1129	1.9890808698255569	R	0.0	558.0941879001912	0.2802858001086861	MS SP	62.5	2541	M	99	32.0	
155	2541		Left Leg	0-back	1.0	2023_Jan_26_1129	1.9893448697403073	R	0.0	560.0940840002149	0.26364560006186366	MS SP	75.0	2541	M	99	32.0	
156	2541		Left Leg	0-back	1.0	2023_Jan_26_1129	1.989522869931534	R	0.0	562.0940065002069	0.313639999832958	MS SP	87.5	2541	M	99	32.0	
157	2541		Left Leg	0-back	1.0	2023_Jan_26_1129	1.9892288697883487	R	0.0	564.0941871001851	0.4675239999778569	MS SP	100.0	2541	M	99	32.0	
158	2541	48.0	Left Leg	ScoreReport		2023_Jan_26_1129	5.004822569899261	R		566.1030691000633		MS SP		2541	M	99		
159	2541	8	Left Leg	Post-Trial Jitter		2023_Jan_26_1129	8.999175179982558	R		571.1643165000714		MS SP		2541	M	99		
160	2541	51	Left Leg	Expectancy		2023_Jan_26_1129	5.004872229648754	R		580.461571500171	4.88365860003978	MS SP		2541	M	99		18.333333333333336
161	2541	45	Left Leg	2-back Instruction		2023_Jan_26_1129	5.005912779830396	R		585.852790400153		MS SP		2541	M	99		
162	2541	7	Left Leg	Pre-trial Jitter		2023_Jan_26_1129	5.002307469723746	R		590.8712701001205		MS SP		2541	M	99		
163	2541	44.0	Left Leg	pretrialfixation		2023_Jan_26_1129	1.003099629888311	R		596.1875976000447		MS SP		2541	M	99		
164	2541		Left Leg	2-back	1.0	2023_Jan_26_1129	1.9895184698980302	R		597.2027046000585		MS SP	12.5	2541	M	99	48.5	
165	2541		Left Leg	2-back	1.0	2023_Jan_26_1129	1.9869021698832512	R		599.2123548001982		MS SP	25.0	2541	M	99	48.5	
166	2541		Left Leg	2-back	1.0	2023_Jan_26_1129	1.9879851697478443	R	2	601.2118412000127	0.49713899986818433	MS SP	37.5	2541	M	99	48.5	
167	2541		Left Leg	2-back	1.0	2023_Jan_26_1129	1.9878202700056136	R	2	603.2119620000012	0.6003910999279469	MS SP	50.0	2541	M	99	48.5	
168	2541		Left Leg	2-back	1.0	2023_Jan_26_1129	1.9878071697894484	R	0	605.2119849000592	0.39709759992547333	MS SP	62.5	2541	M	99	48.5	
169	2541		Left Leg	2-back	1.0	2023_Jan_26_1129	1.9873281698673964	R	0	607.2122377001215	0.5996399000287056	MS SP	75.0	2541	M	99	48.5	
170	2541		Left Leg	2-back	1.0	2023_Jan_26_1129	1.9876450698357075	R	2	609.2120661002118	0.6133038999978453	MS SP	87.5	2541	M	99	48.5	
171	2541		Left Leg	2-back	1.0	2023_Jan_26_1129	1.9873199700377882	R	2	611.2123032000381	0.5839408000465482	MS SP	100.0	2541	M	99	48.5	
172	2541	48.0	Left Leg	ScoreReport		2023_Jan_26_1129	5.001560669625178	R		613.2218701001257		MS SP		2541	M	99		
173	2541	8	Left Leg	Post-trial Jitter		2023_Jan_26_1129	4.999885979807004	R		618.2810521000065		MS SP		2541	M	99		
174	2541	20	Left Leg	PainBinary		2023_Jan_26_1129	5.001407540170476	R		623.2970045001712	0.9669598999898881	MS SP		2541	M	99		1.0
175	2541	21	Left Leg	IntensityRating		2023_Jan_26_1129	5.011004040017724	R		628.3173303001095	3.166817900026217	MS SP		2541	M	99		15.370370370370367
176	2541	23	Left Leg	DistractBinary		2023_Jan_26_1129	5.001881339820102	R		633.3469372000545	1.133671599905938	MS SP		2541	M	99		1.0
177	2541	9	Left Leg	Post-Q-Jitter		2023_Jan_26_1129	4.993948169751093	R		638.3509502001107		MS SP		2541	M	99		
178	2541	51	Left Leg	Expectancy		2023_Jan_26_1129	5.016019229777157	R		643.6399984001182	3.68330750009045	MS SP		2541	M	99		15.185185185185182
179	2541	45	Left Leg	2-back Instruction		2023_Jan_26_1129	5.012857549823821	R		649.0416515001561		MS SP		2541	M	99		
180	2541	7	Left Leg	Pre-trial Jitter		2023_Jan_26_1129	9.000261969864368	R		654.0562896002084		MS SP		2541	M	99		
181	2541	44.0	Left Leg	pretrialfixation		2023_Jan_26_1129	0.9952095695771277	R		663.4005774001125		MS SP		2541	M	99		
182	2541		Left Leg	2-back	1.0	2023_Jan_26_1129	1.9902160700876266	R		664.4030085999984		MS SP	12.5	2541	M	99	48.5	
183	2541		Left Leg	2-back	1.0	2023_Jan_26_1129	1.987506170058623	R		666.412772500189		MS SP	25.0	2541	M	99	48.5	
184	2541		Left Leg	2-back	1.0	2023_Jan_26_1129	1.9882091698236763	R	2	668.4124383002054	0.5469943999778479	MS SP	37.5	2541	M	99	48.5	
185	2541		Left Leg	2-back	1.0	2023_Jan_26_1129	1.9880690698046237	R	2	670.4125295002013	0.5507972000632435	MS SP	50.0	2541	M	99	48.5	
186	2541		Left Leg	2-back	1.0	2023_Jan_26_1129	1.9878682696726173	R	0	672.4126570001245	0.3470445000566542	MS SP	62.5	2541	M	99	48.5	
187	2541		Left Leg	2-back	1.0	2023_Jan_26_1129	1.9879910699091852	R	2	674.4126203001942	0.6967988999094814	MS SP	75.0	2541	M	99	48.5	
188	2541		Left Leg	2-back	1.0	2023_Jan_26_1129	1.988050369778648	R	2	676.4125987000298	0.663718500174582	MS SP	87.5	2541	M	99	48.5	
189	2541		Left Leg	2-back	1.0	2023_Jan_26_1129	1.9878740697167814	R	0	678.4127029001247	0.41376639995723963	MS SP	100.0	2541	M	99	48.5	
190	2541	48.0	Left Leg	ScoreReport		2023_Jan_26_1129	5.0020561697892845	R		680.4223205000162		MS SP		2541	M	99		
191	2541	8	Left Leg	Post-trial Jitter		2023_Jan_26_1129	6.999742079991847	R		685.4818856001366		MS SP		2541	M	99		
192	2541	20	Left Leg	PainBinary		2023_Jan_26_1129	4.999627940123901	R		692.498677900061	1.1169786001555622	MS SP		2541	M	99		1.0
193	2541	21	Left Leg	IntensityRating		2023_Jan_26_1129	5.0101355402730405	R		697.5184719001409	3.2500428000930697	MS SP		2541	M	99		14.25925925925926
194	2541	23	Left Leg	DistractBinary		2023_Jan_26_1129	5.003131940262392	R		702.5470243000891	1.4170597998891026	MS SP		2541	M	99		1.0
195	2541	9	Left Leg	Post-Q-Jitter		2023_Jan_26_1129	6.993314769817516	R		707.551971900044		MS SP		2541	M	99		
196	2541	26	Left Leg	ComfortRating		2023_Jan_26_1129	2.81149773998186	R		714.5680033001117	2.783401600085199	MS SP		2541	M	99		10.740740740740733
197	2541	24	Left Leg	ValenceRating		2023_Jan_26_1129	3.1916250397916883	R		717.4029779001139	3.1667198999784887	MS SP		2541	M	99		33.086419753086425
198	2541	26	Left Leg	IntensityRating		2023_Jan_26_1129	1.9647845400031656	R		720.6163957000244	1.9504032998811454	MS SP		2541	M	99		29.074074074074076
199	2541	27	Left Leg	AvoidanceRating		2023_Jan_26_1129	3.159965439932421	R		722.6021583001129	3.133373700082302	MS SP		2541	M	99		-49.25925925925926
200	2541	28	Left Leg	RelaxationRating		2023_Jan_26_1129	2.2328109401278198	R		725.7824537002016	2.2026219998952	MS SP		2541	M	99		56.54320987654321
201	2541	29	Left Leg	AttentionRating		2023_Jan_26_1129	2.8599793401081115	R		728.0355766001157	2.833398299990222	MS SP		2541	M	99		73.88888888888889
202	2541	30	Left Leg	BoredomRating		2023_Jan_26_1129	2.1659758402965963	R		730.9159464000259	2.1358789999503642	MS SP		2541	M	99		30.308641975308642
203	2541	31	Left Leg	AlertnessRating		2023_Jan_26_1129	3.06491114012897	R		733.0998313000891	3.0504309001844376	MS SP		2541	M	99		45.06172839506172
204	2541	32	Left Leg	PosThxRating		2023_Jan_26_1129	2.2460951399989426	R		736.1842659001704	2.2167142999824136	MS SP		2541	M	99		20.86419753086419
205	2541	33	Left Leg	NegThxRating		2023_Jan_26_1129	2.0465593398548663	R		738.4507337000687	2.0166523000225425	MS SP		2541	M	99		-55.061728395061735
206	2541	34	Left Leg	SelfRating		2023_Jan_26_1129	3.162491840077564	R		740.517789100064	3.118470699992031	MS SP		2541	M	99		14.444444444444457
207	2541	35	Left Leg	OtherRating		2023_Jan_26_1129	1.530730240046978	R		743.7003523001913	1.5001207999885082	MS SP		2541	M	99		-41.35802469135802
208	2541	32	Left Leg	ImageryRating		2023_Jan_26_1129	3.9753185398876667	R		745.2530738001224	3.950037600006908	MS SP		2541	M	99		49.87654320987653
209	2541	37	Left Leg	PresentRating		2023_Jan_26_1129	2.7074686400592327	R		749.2536949000787	2.6835417000111192	MS SP		2541	M	99		57.53086419753089
