square,location,corrAns,trials_2.thisRepN,trials_2.thisTrialN,trials_2.thisN,trials_2.thisIndex,fixation_1.started,fixation_1.stopped,response_2.x,response_2.y,response_2.leftButton,grid_lines_2.started,grid_lines_2.stopped,target_square_2.started,target_square_2.stopped,fixation_3.started,fixation_3.stopped,response_2.click,response_2.corr,response_2.started,response_2.stopped,ScoreReportText.started,ScoreReportText.stopped,ScoreReportResponse.keys,ScoreReportResponse.started,ScoreReportResponse.stopped,BodySiteInstructionText.started,BodySiteImg.started,BodySiteImg.stopped,BodySiteInstructionRead.keys,BodySiteInstructionRead.rt,BodySiteInstructionRead.started,BodySiteInstructionRead.stopped,IntensityRating.response,IntensityRating.rt,IntensityRating.started,IntensityRating.stopped,fixation_rest.started,fixation_rest.stopped,subject number,gender,distractMap first- or second-half (1 or 2),session,handedness,scanner,bodysite1 temp,bodysite2 temp,date,psychopyVersion,expName,frameRate,body_site_order,
6,"[0.2, 0]",None,0,0,0,0,41.93565150001086,None,None,None,"[0, 0, 0]",42.95233860006556,None,42.95233860006556,43.95233180001378,43.93567220005207,44.93558100005612,"[0, 0, 0]",1,42.95233860006556,None,,,,,,,,,,,,,,,,,,,4,M,1,20,l,MH SK,49,49,2022_Jul_26_1238,2020.2.10,distractmap1,59.97692090060416,"['Left Face', 'Right Arm', 'Left Face', 'Right Arm']",
7,"[-0.2, -0.2]",None,0,1,1,1,,,None,None,"[0, 0, 0]",44.95232279994525,46.952334800036624,44.95232279994525,45.95234839990735,45.93568079988472,46.93569780001417,"[0, 0, 0]",1,44.95232279994525,46.952334800036624,,,,,,,,,,,,,,,,,,,4,M,1,20,l,MH SK,49,49,2022_Jul_26_1238,2020.2.10,distractmap1,59.97692090060416,"['Left Face', 'Right Arm', 'Left Face', 'Right Arm']",
6,"[0.2, 0]",1,0,2,2,2,,,None,None,"[0, 0, 0]",46.969020100077614,48.96907179988921,46.969020100077614,47.969139399938285,47.95237169996835,48.95238239993341,"[0, 0, 0]",1,46.969020100077614,48.96907179988921,,,,,,,,,,,,,,,,,,,4,M,1,20,l,MH SK,49,49,2022_Jul_26_1238,2020.2.10,distractmap1,59.97692090060416,"['Left Face', 'Right Arm', 'Left Face', 'Right Arm']",
2,"[0, 0.2]",0,0,3,3,3,,,None,None,"[0, 0, 0]",48.985700600082055,50.985716900089756,48.985700600082055,49.98573389998637,49.96909140003845,50.96908039995469,"[0, 0, 0]",1,48.985700600082055,50.985716900089756,,,,,,,,,,,,,,,,,,,4,M,1,20,l,MH SK,49,49,2022_Jul_26_1238,2020.2.10,distractmap1,59.97692090060416,"['Left Face', 'Right Arm', 'Left Face', 'Right Arm']",
5,"[0, 0]",0,0,4,4,4,,,None,None,"[0, 0, 0]",51.00238299998455,53.00240999995731,51.00238299998455,52.00240319990553,51.98573120008223,52.98572520003654,"[0, 0, 0]",1,51.00238299998455,53.00240999995731,,,,,,,,,,,,,,,,,,,4,M,1,20,l,MH SK,49,49,2022_Jul_26_1238,2020.2.10,distractmap1,59.97692090060416,"['Left Face', 'Right Arm', 'Left Face', 'Right Arm']",
4,"[-0.2, 0]",0,0,5,5,5,,,None,None,"[0, 0, 0]",53.01908820006065,55.01909859990701,53.01908820006065,54.019097100012004,54.00241499999538,55.00242340005934,"[0, 0, 0]",1,53.01908820006065,55.01909859990701,,,,,,,,,,,,,,,,,,,4,M,1,20,l,MH SK,49,49,2022_Jul_26_1238,2020.2.10,distractmap1,59.97692090060416,"['Left Face', 'Right Arm', 'Left Face', 'Right Arm']",
4,"[-0.2, 0]",0,0,6,6,6,,,None,None,"[0, 0, 0]",55.03576190001331,57.03578959987499,55.03576190001331,56.03576619992964,56.01910739997402,57.01909329998307,"[0, 0, 0]",1,55.03576190001331,57.03578959987499,,,,,,,,,,,,,,,,,,,4,M,1,20,l,MH SK,49,49,2022_Jul_26_1238,2020.2.10,distractmap1,59.97692090060416,"['Left Face', 'Right Arm', 'Left Face', 'Right Arm']",
7,"[-0.2, -0.2]",0,0,7,7,7,,,None,None,"[0, 0, 0]",57.052458399906754,59.05245379987173,57.052458399906754,58.05243969988078,58.035782400052994,59.0357868000865,"[0, 0, 0]",1,57.052458399906754,59.05245379987173,,,,,,,,,,,,,,,,,,,4,M,1,20,l,MH SK,49,49,2022_Jul_26_1238,2020.2.10,distractmap1,59.97692090060416,"['Left Face', 'Right Arm', 'Left Face', 'Right Arm']",
4,"[-0.2, 0]",1,0,8,8,8,,,None,None,"[0, 0, 0]",59.06912610004656,61.06912970007397,59.06912610004656,60.06913339998573,60.05247860006057,61.05247680004686,"[0, 0, 0]",1,59.06912610004656,61.06912970007397,,,,,,,,,,,,,,,,,,,4,M,1,20,l,MH SK,49,49,2022_Jul_26_1238,2020.2.10,distractmap1,59.97692090060416,"['Left Face', 'Right Arm', 'Left Face', 'Right Arm']",
3,"[0.2, 0.2]",0,0,9,9,9,,,None,None,"[0, 0, 0]",61.08579499996267,63.08582410006784,61.08579499996267,62.08582379994914,62.069149899994954,63.069161399966106,"[0, 0, 0]",1,61.08579499996267,63.08582410006784,,,,,,,,,,,,,,,,,,,4,M,1,20,l,MH SK,49,49,2022_Jul_26_1238,2020.2.10,distractmap1,59.97692090060416,"['Left Face', 'Right Arm', 'Left Face', 'Right Arm']",
5,"[0, 0]",0,0,10,10,10,,,None,None,"[0, 0, 0]",63.102492100093514,65.10251279990189,63.102492100093514,64.10250520007685,64.08583800005727,65.08585999999195,"[0, 0, 0]",1,63.102492100093514,65.10251279990189,,,,,,,,,,,,,,,,,,,4,M,1,20,l,MH SK,49,49,2022_Jul_26_1238,2020.2.10,distractmap1,59.97692090060416,"['Left Face', 'Right Arm', 'Left Face', 'Right Arm']",
3,"[0.2, 0.2]",1,0,11,11,11,,,None,None,"[0, 0, 0]",65.11918650008738,67.11919700005092,65.11918650008738,66.1191741998773,66.10255769989453,67.1025286000222,"[0, 0, 0]",1,65.11918650008738,67.11919700005092,,,,,,,,,,,,,,,,,,,4,M,1,20,l,MH SK,49,49,2022_Jul_26_1238,2020.2.10,distractmap1,59.97692090060416,"['Left Face', 'Right Arm', 'Left Face', 'Right Arm']",
1,"[-0.2, 0.2]",0,0,12,12,12,,,None,None,"[0, 0, 0]",67.13586149993353,69.1358853999991,67.13586149993353,68.13587279990315,68.11921259993687,69.11920229997486,"[0, 0, 0]",1,67.13586149993353,69.1358853999991,,,,,,,,,,,,,,,,,,,4,M,1,20,l,MH SK,49,49,2022_Jul_26_1238,2020.2.10,distractmap1,59.97692090060416,"['Left Face', 'Right Arm', 'Left Face', 'Right Arm']",
9,"[0.2, -0.2]",0,0,13,13,13,,,None,None,"[0, 0, 0]",69.15253790002316,71.15257199993357,69.15253790002316,70.15256810002029,70.13589020003565,71.1359043000266,"[0, 0, 0]",1,69.15253790002316,71.15257199993357,,,,,,,,,,,,,,,,,,,4,M,1,20,l,MH SK,49,49,2022_Jul_26_1238,2020.2.10,distractmap1,59.97692090060416,"['Left Face', 'Right Arm', 'Left Face', 'Right Arm']",
9,"[0.2, -0.2]",0,0,14,14,14,,,None,None,"[0, 0, 0]",71.16923270002007,73.16924159997143,71.16923270002007,72.16924079996534,72.15255780005828,73.15256679989398,"[0, 0, 0]",1,71.16923270002007,73.16924159997143,,,,,,,,,,,,,,,,,,,4,M,1,20,l,MH SK,49,49,2022_Jul_26_1238,2020.2.10,distractmap1,59.97692090060416,"['Left Face', 'Right Arm', 'Left Face', 'Right Arm']",
8,"[0, -0.2]",0,0,15,15,15,,,None,None,"[0, 0, 0]",73.18591329990886,75.18593359994702,73.18591329990886,74.18592959991656,74.1692506999243,75.16926279990003,"[0, 0, 0]",1,73.18591329990886,75.18593359994702,,,,,,,,,,,,,,,,,,,4,M,1,20,l,MH SK,49,49,2022_Jul_26_1238,2020.2.10,distractmap1,59.97692090060416,"['Left Face', 'Right Arm', 'Left Face', 'Right Arm']",
6,"[0.2, 0]",0,0,16,16,16,,,None,None,"[0, 0, 0]",75.20260010007769,77.2026104000397,75.20260010007769,76.20260469987988,76.18592579988763,77.18595129996538,"[0, 0, 0]",1,75.20260010007769,77.2026104000397,,,,,,,,,,,,,,,,,,,4,M,1,20,l,MH SK,49,49,2022_Jul_26_1238,2020.2.10,distractmap1,59.97692090060416,"['Left Face', 'Right Arm', 'Left Face', 'Right Arm']",
3,"[0.2, 0.2]",0,0,17,17,17,,,None,None,"[0, 0, 0]",77.21926969988272,79.21930780005641,77.21926969988272,78.21928029996343,78.20260800002143,79.20263250009157,"[0, 0, 0]",1,77.21926969988272,79.21930780005641,,,,,,,,,,,,,,,,,,,4,M,1,20,l,MH SK,49,49,2022_Jul_26_1238,2020.2.10,distractmap1,59.97692090060416,"['Left Face', 'Right Arm', 'Left Face', 'Right Arm']",
6,"[0.2, 0]",1,0,18,18,18,,,None,None,"[0, 0, 0]",79.23597580008209,81.23598299990408,79.23597580008209,80.23597769998014,80.21930040000007,81.21930329990573,"[0, 0, 0]",1,79.23597580008209,81.23598299990408,,,,,,,,,,,,,,,,,,,4,M,1,20,l,MH SK,49,49,2022_Jul_26_1238,2020.2.10,distractmap1,59.97692090060416,"['Left Face', 'Right Arm', 'Left Face', 'Right Arm']",
5,"[0, 0]",0,0,19,19,19,,,None,None,"[0, 0, 0]",81.25266129989177,83.25268070003949,81.25266129989177,82.25267169997096,82.23599299998023,83.23600120004267,"[0, 0, 0]",1,81.25266129989177,83.25268070003949,,,,,,,,,,,,,,,,,,,4,M,1,20,l,MH SK,49,49,2022_Jul_26_1238,2020.2.10,distractmap1,59.97692090060416,"['Left Face', 'Right Arm', 'Left Face', 'Right Arm']",
7,"[-0.2, -0.2]",0,0,20,20,20,,,None,None,"[0, 0, 0]",83.26933400006965,85.26935059996322,83.26933400006965,84.26934139989316,84.25267389998771,85.25268829986453,"[0, 0, 0]",1,83.26933400006965,85.26935059996322,,,,,,,,,,,,,,,,,,,4,M,1,20,l,MH SK,49,49,2022_Jul_26_1238,2020.2.10,distractmap1,59.97692090060416,"['Left Face', 'Right Arm', 'Left Face', 'Right Arm']",
5,"[0, 0]",1,0,21,21,21,,,None,None,"[0, 0, 0]",85.28600339987315,87.28602360002697,85.28600339987315,86.28602540004067,86.26936089992523,87.26937150000595,"[0, 0, 0]",1,85.28600339987315,87.28602360002697,,,,,,,,,,,,,,,,,,,4,M,1,20,l,MH SK,49,49,2022_Jul_26_1238,2020.2.10,distractmap1,59.97692090060416,"['Left Face', 'Right Arm', 'Left Face', 'Right Arm']",
1,"[-0.2, 0.2]",0,0,22,22,22,,,None,None,"[0, 0, 0]",87.30271980003454,89.3027296999935,87.30271980003454,88.30271509988233,88.28602829994634,89.2860512000043,"[0, 0, 0]",1,87.30271980003454,89.3027296999935,,,,,,,,,,,,,,,,,,,4,M,1,20,l,MH SK,49,49,2022_Jul_26_1238,2020.2.10,distractmap1,59.97692090060416,"['Left Face', 'Right Arm', 'Left Face', 'Right Arm']",
7,"[-0.2, -0.2]",0,0,23,23,23,,,None,None,"[0, 0, 0]",89.31937110004947,91.31944140000269,89.31937110004947,90.31940350006334,90.30274329986423,91.3027393000666,"[0, 0, 0]",1,89.31937110004947,91.31944140000269,,,,,,,,,,,,,,,,,,,4,M,1,20,l,MH SK,49,49,2022_Jul_26_1238,2020.2.10,distractmap1,59.97692090060416,"['Left Face', 'Right Arm', 'Left Face', 'Right Arm']",
9,"[0.2, -0.2]",0,0,24,24,24,,,None,None,"[0, 0, 0]",91.33607649989426,93.3360806000419,91.33607649989426,92.3359560999088,92.31942659989,93.31942950002849,"[0, 0, 0]",1,91.33607649989426,93.3360806000419,,,,,,,,,,,,,,,,,,,4,M,1,20,l,MH SK,49,49,2022_Jul_26_1238,2020.2.10,distractmap1,59.97692090060416,"['Left Face', 'Right Arm', 'Left Face', 'Right Arm']",
3,"[0.2, 0.2]",0,0,25,25,25,,,None,None,"[0, 0, 0]",93.35277009988204,95.35278309998102,93.35277009988204,94.35277389991097,94.33609790005721,95.33608409995213,"[0, 0, 0]",1,93.35277009988204,95.35278309998102,,,,,,,,,,,,,,,,,,,4,M,1,20,l,MH SK,49,49,2022_Jul_26_1238,2020.2.10,distractmap1,59.97692090060416,"['Left Face', 'Right Arm', 'Left Face', 'Right Arm']",
9,"[0.2, -0.2]",1,0,26,26,26,,,None,None,"[0, 0, 0]",95.36943989992142,97.3694585999474,95.36943989992142,96.36944200005382,96.35279470006935,97.35278069996275,"[0, 0, 0]",0,95.36943989992142,97.3694585999474,,,,,,,,,,,,,,,,,,,4,M,1,20,l,MH SK,49,49,2022_Jul_26_1238,2020.2.10,distractmap1,59.97692090060416,"['Left Face', 'Right Arm', 'Left Face', 'Right Arm']",
6,"[0.2, 0]",0,0,27,27,27,,,None,None,"[0, 0, 0]",97.38610929995775,99.38613669993356,97.38610929995775,98.38614109996706,98.36946379998699,99.36947329994291,"[0, 0, 0]",1,97.38610929995775,99.38613669993356,,,,,,,,,,,,,,,,,,,4,M,1,20,l,MH SK,49,49,2022_Jul_26_1238,2020.2.10,distractmap1,59.97692090060416,"['Left Face', 'Right Arm', 'Left Face', 'Right Arm']",
2,"[0, 0.2]",0,0,28,28,28,,,None,None,"[0, 0, 0]",99.40281259990297,101.40282119996846,99.40281259990297,100.40302510000765,100.38613340002485,101.38614369998686,"[0, 0, 0]",1,99.40281259990297,101.40282119996846,,,,,,,,,,,,,,,,,,,4,M,1,20,l,MH SK,49,49,2022_Jul_26_1238,2020.2.10,distractmap1,59.97692090060416,"['Left Face', 'Right Arm', 'Left Face', 'Right Arm']",
5,"[0, 0]",0,0,29,29,29,,,None,None,"[0, 0, 0]",101.41950299986638,103.41949269990437,101.41950299986638,102.41949320002459,102.40285900002345,103.40284339990467,"[0, 0, 0]",1,101.41950299986638,103.41949269990437,,,,,,,,,,,,,,,,,,,4,M,1,20,l,MH SK,49,49,2022_Jul_26_1238,2020.2.10,distractmap1,59.97692090060416,"['Left Face', 'Right Arm', 'Left Face', 'Right Arm']",
,,,,,,,,,,,,,,,,,,,,,,103.43617319990881,None,space,103.43617319990881,None,,,,,,,,,,,,,,4,M,1,20,l,MH SK,49,49,2022_Jul_26_1238,2020.2.10,distractmap1,59.97692090060416,"['Left Face', 'Right Arm', 'Left Face', 'Right Arm']",
3,"[0.2, 0.2]",None,0,0,0,0,575.457103600027,None,None,None,"[0, 0, 0]",581.990363900084,583.9903837998863,581.990363900084,582.9903811998665,582.9903811998665,583.9903837998863,"[0, 0, 0]",1,581.990363900084,583.9903837998863,,,,,,109.3198150000535,109.3198150000535,None,space,440.45242680003867,109.3198150000535,None,,,,,,,4,M,1,20,l,MH SK,49,49,2022_Jul_26_1238,2020.2.10,distractmap1,59.97692090060416,"['Left Face', 'Right Arm', 'Left Face', 'Right Arm']",
3,"[0.2, 0.2]",None,0,1,1,1,,,None,None,"[0, 0, 0]",584.0070519000292,586.0070680999197,584.0070519000292,585.0070529000368,584.9903964998666,585.990388300037,"[0, 0, 0]",1,584.0070519000292,586.0070680999197,,,,,,,,,,,,,,,,,,,4,M,1,20,l,MH SK,49,49,2022_Jul_26_1238,2020.2.10,distractmap1,59.97692090060416,"['Left Face', 'Right Arm', 'Left Face', 'Right Arm']",
5,"[0, 0]",0,0,2,2,2,,,None,None,"[0, 0, 0]",586.023717999924,588.0237477000337,586.023717999924,587.023745500017,587.0070776999928,588.0070843000431,"[0, 0, 0]",1,586.023717999924,588.0237477000337,,,,,,,,,,,,,,,,,,,4,M,1,20,l,MH SK,49,49,2022_Jul_26_1238,2020.2.10,distractmap1,59.97692090060416,"['Left Face', 'Right Arm', 'Left Face', 'Right Arm']",
1,"[-0.2, 0.2]",0,0,3,3,3,,,None,None,"[0, 0, 0]",588.0404147000518,590.040428099921,588.0404147000518,589.0403775998857,589.0237338000443,590.0237588998862,"[0, 0, 0]",1,588.0404147000518,590.040428099921,,,,,,,,,,,,,,,,,,,4,M,1,20,l,MH SK,49,49,2022_Jul_26_1238,2020.2.10,distractmap1,59.97692090060416,"['Left Face', 'Right Arm', 'Left Face', 'Right Arm']",
5,"[0, 0]",1,0,4,4,4,,,None,None,"[0, 0, 0]",590.1074621998705,None,590.1074621998705,591.1071228999645,591.090422899928,None,"[0, 0, 0]",0,590.1074621998705,None,,,,,,,,,,,,,,,,,,,4,M,1,20,l,MH SK,49,49,2022_Jul_26_1238,2020.2.10,distractmap1,59.97692090060416,"['Left Face', 'Right Arm', 'Left Face', 'Right Arm']",
8,"[0, -0.2]",0,0,5,5,5,,,None,None,"[0, 0, 0]",592.073800599901,594.0737886000425,592.073800599901,593.0737767999526,593.0571570999455,594.0571433999576,"[0, 0, 0]",1,592.073800599901,594.0737886000425,,,,,,,,,,,,,,,,,,,4,M,1,20,l,MH SK,49,49,2022_Jul_26_1238,2020.2.10,distractmap1,59.97692090060416,"['Left Face', 'Right Arm', 'Left Face', 'Right Arm']",
5,"[0, 0]",1,0,6,6,6,,,None,None,"[0, 0, 0]",594.090461099986,596.090484400047,594.090461099986,595.0905808999669,595.0738230999559,596.0738136,"[0, 0, 0]",1,594.090461099986,596.090484400047,,,,,,,,,,,,,,,,,,,4,M,1,20,l,MH SK,49,49,2022_Jul_26_1238,2020.2.10,distractmap1,59.97692090060416,"['Left Face', 'Right Arm', 'Left Face', 'Right Arm']",
7,"[-0.2, -0.2]",0,0,7,7,7,,,None,None,"[0, 0, 0]",596.1071780000348,598.1071718998719,596.1071780000348,597.1071695000865,597.0904955000151,598.0904983999208,"[0, 0, 0]",1,596.1071780000348,598.1071718998719,,,,,,,,,,,,,,,,,,,4,M,1,20,l,MH SK,49,49,2022_Jul_26_1238,2020.2.10,distractmap1,59.97692090060416,"['Left Face', 'Right Arm', 'Left Face', 'Right Arm']",
5,"[0, 0]",1,0,8,8,8,,,None,None,"[0, 0, 0]",598.1238434000406,600.1238561000209,598.1238434000406,599.1238442000467,599.107200199971,600.107187599875,"[0, 0, 0]",1,598.1238434000406,600.1238561000209,,,,,,,,,,,,,,,,,,,4,M,1,20,l,MH SK,49,49,2022_Jul_26_1238,2020.2.10,distractmap1,59.97692090060416,"['Left Face', 'Right Arm', 'Left Face', 'Right Arm']",
7,"[-0.2, -0.2]",1,0,9,9,9,,,None,None,"[0, 0, 0]",600.1405324998777,602.140523100039,600.1405324998777,601.1405295000877,601.1238665999845,602.1238811998628,"[0, 0, 0]",1,600.1405324998777,602.140523100039,,,,,,,,,,,,,,,,,,,4,M,1,20,l,MH SK,49,49,2022_Jul_26_1238,2020.2.10,distractmap1,59.97692090060416,"['Left Face', 'Right Arm', 'Left Face', 'Right Arm']",
,,,,,,,,,,,,,,,,,,,,,,602.1738710999489,None,,,,,,,,,,,,,,,,,4,M,1,20,l,MH SK,49,49,2022_Jul_26_1238,2020.2.10,distractmap1,59.97692090060416,"['Left Face', 'Right Arm', 'Left Face', 'Right Arm']",
,,,,,,,,,,,,,,,,,,,,,,,,,,,,,,,,,,17.901234567901238,595.5554969098885,,,,,4,M,1,20,l,MH SK,49,49,2022_Jul_26_1238,2020.2.10,distractmap1,59.97692090060416,"['Left Face', 'Right Arm', 'Left Face', 'Right Arm']",
6,"[0.2, 0]",None,0,0,0,0,618.1911009999458,None,None,None,"[0, 0, 0]",622.2073907998856,None,622.2073907998856,623.2074724999256,623.2074724999256,None,"[0, 0, 0]",1,622.2073907998856,None,,,,,,,,,,,,,,,0.013084290083497763,5.008969790069386,,,4,M,1,20,l,MH SK,49,49,2022_Jul_26_1238,2020.2.10,distractmap1,59.97692090060416,"['Left Face', 'Right Arm', 'Left Face', 'Right Arm']",
1,"[-0.2, 0.2]",None,0,1,1,1,,,None,None,"[0, 0, 0]",624.2073538000695,626.2074249999132,624.2073538000695,625.2074164999649,625.1907468000427,626.1907381000929,"[0, 0, 0]",1,624.2073538000695,626.2074249999132,,,,,,,,,,,,,,,,,,,4,M,1,20,l,MH SK,49,49,2022_Jul_26_1238,2020.2.10,distractmap1,59.97692090060416,"['Left Face', 'Right Arm', 'Left Face', 'Right Arm']",
6,"[0.2, 0]",1,0,2,2,2,,,None,None,"[0, 0, 0]",626.2241616998799,628.2240921000484,626.2241616998799,627.2240023000631,627.2074361999985,628.2074301000684,"[0, 0, 0]",1,626.2241616998799,628.2240921000484,,,,,,,,,,,,,,,,,,,4,M,1,20,l,MH SK,49,49,2022_Jul_26_1238,2020.2.10,distractmap1,59.97692090060416,"['Left Face', 'Right Arm', 'Left Face', 'Right Arm']",
4,"[-0.2, 0]",0,0,3,3,3,,,None,None,"[0, 0, 0]",628.2407740999479,630.2407915000804,628.2407740999479,629.2407722999342,629.2241146999877,630.2241310998797,"[0, 0, 0]",1,628.2407740999479,630.2407915000804,,,,,,,,,,,,,,,,,,,4,M,1,20,l,MH SK,49,49,2022_Jul_26_1238,2020.2.10,distractmap1,59.97692090060416,"['Left Face', 'Right Arm', 'Left Face', 'Right Arm']",
1,"[-0.2, 0.2]",0,0,4,4,4,,,None,None,"[0, 0, 0]",630.3077831999399,None,630.3077831999399,631.3074709998909,631.2741392999887,None,"[0, 0, 0]",0,630.3077831999399,None,,,,,,,,,,,,,,,,,,,4,M,1,20,l,MH SK,49,49,2022_Jul_26_1238,2020.2.10,distractmap1,59.97692090060416,"['Left Face', 'Right Arm', 'Left Face', 'Right Arm']",
8,"[0, -0.2]",0,0,5,5,5,,,None,None,"[0, 0, 0]",632.2741644000635,634.2741715000011,632.2741644000635,633.2741574000102,633.2574825999327,634.257488100091,"[0, 0, 0]",1,632.2741644000635,634.2741715000011,,,,,,,,,,,,,,,,,,,4,M,1,20,l,MH SK,49,49,2022_Jul_26_1238,2020.2.10,distractmap1,59.97692090060416,"['Left Face', 'Right Arm', 'Left Face', 'Right Arm']",
1,"[-0.2, 0.2]",1,0,6,6,6,,,None,None,"[0, 0, 0]",634.2908179999795,636.2907702999655,634.2908179999795,635.2908314999659,635.2741856998764,636.2741918000393,"[0, 0, 0]",1,634.2908179999795,636.2907702999655,,,,,,,,,,,,,,,,,,,4,M,1,20,l,MH SK,49,49,2022_Jul_26_1238,2020.2.10,distractmap1,59.97692090060416,"['Left Face', 'Right Arm', 'Left Face', 'Right Arm']",
8,"[0, -0.2]",1,0,7,7,7,,,None,None,"[0, 0, 0]",636.3075091000646,638.3075319998898,636.3075091000646,637.3075264999643,637.2908544999082,638.2908645998687,"[0, 0, 0]",1,636.3075091000646,638.3075319998898,,,,,,,,,,,,,,,,,,,4,M,1,20,l,MH SK,49,49,2022_Jul_26_1238,2020.2.10,distractmap1,59.97692090060416,"['Left Face', 'Right Arm', 'Left Face', 'Right Arm']",
1,"[-0.2, 0.2]",1,0,8,8,8,,,None,None,"[0, 0, 0]",638.3241987999063,640.3242166000418,638.3241987999063,639.3242077999748,639.3075653000269,640.3075435999781,"[0, 0, 0]",1,638.3241987999063,640.3242166000418,,,,,,,,,,,,,,,,,,,4,M,1,20,l,MH SK,49,49,2022_Jul_26_1238,2020.2.10,distractmap1,59.97692090060416,"['Left Face', 'Right Arm', 'Left Face', 'Right Arm']",
6,"[0.2, 0]",0,0,9,9,9,,,None,None,"[0, 0, 0]",640.3408758998848,642.340908800019,640.3408758998848,641.3409019000828,641.3242432000116,642.3242474000435,"[0, 0, 0]",1,640.3408758998848,642.340908800019,,,,,,,,,,,,,,,,,,,4,M,1,20,l,MH SK,49,49,2022_Jul_26_1238,2020.2.10,distractmap1,59.97692090060416,"['Left Face', 'Right Arm', 'Left Face', 'Right Arm']",
,,,,,,,,,,,,,,,,,,,,,,642.357568499865,None,,,,,,,,,,,,,,,,,4,M,1,20,l,MH SK,49,49,2022_Jul_26_1238,2020.2.10,distractmap1,59.97692090060416,"['Left Face', 'Right Arm', 'Left Face', 'Right Arm']",
,,,,,,,,,,,,,,,,,,,,,,,,,,,,,,,,,,23.086419753086417,636.121998609975,,,,,4,M,1,20,l,MH SK,49,49,2022_Jul_26_1238,2020.2.10,distractmap1,59.97692090060416,"['Left Face', 'Right Arm', 'Left Face', 'Right Arm']",
7,"[-0.2, -0.2]",None,0,0,0,0,659.5912031999324,None,None,None,"[0, 0, 0]",662.3910632999614,None,662.3910632999614,663.3910703000147,663.3910703000147,None,"[0, 0, 0]",1,662.3910632999614,None,,,,,,,,,,,,,,,0.013603589963167906,5.010011089965701,,,4,M,1,20,l,MH SK,49,49,2022_Jul_26_1238,2020.2.10,distractmap1,59.97692090060416,"['Left Face', 'Right Arm', 'Left Face', 'Right Arm']",
7,"[-0.2, -0.2]",None,0,1,1,1,,,None,None,"[0, 0, 0]",664.3910888999235,666.3911079000682,664.3910888999235,665.3911180000287,665.3744387000334,666.374387399992,"[0, 0, 0]",1,664.3910888999235,666.3911079000682,,,,,,,,,,,,,,,,,,,4,M,1,20,l,MH SK,49,49,2022_Jul_26_1238,2020.2.10,distractmap1,59.97692090060416,"['Left Face', 'Right Arm', 'Left Face', 'Right Arm']",
7,"[-0.2, -0.2]",1,0,2,2,2,,,None,None,"[0, 0, 0]",666.4077783999965,668.4077971999068,666.4077783999965,667.4077955998946,667.3910308000632,668.3911270999815,"[0, 0, 0]",1,666.4077783999965,668.4077971999068,,,,,,,,,,,,,,,,,,,4,M,1,20,l,MH SK,49,49,2022_Jul_26_1238,2020.2.10,distractmap1,59.97692090060416,"['Left Face', 'Right Arm', 'Left Face', 'Right Arm']",
5,"[0, 0]",0,0,3,3,3,,,None,None,"[0, 0, 0]",668.424474600004,670.4244540999644,668.424474600004,669.4244943000376,669.4077324999962,670.407812200021,"[0, 0, 0]",1,668.424474600004,670.4244540999644,,,,,,,,,,,,,,,,,,,4,M,1,20,l,MH SK,49,49,2022_Jul_26_1238,2020.2.10,distractmap1,59.97692090060416,"['Left Face', 'Right Arm', 'Left Face', 'Right Arm']",
1,"[-0.2, 0.2]",0,0,4,4,4,,,None,None,"[0, 0, 0]",670.4743955000304,None,670.4743955000304,671.4744931999594,671.4578350998927,None,"[0, 0, 0]",1,670.4743955000304,None,,,,,,,,,,,,,,,,,,,4,M,1,20,l,MH SK,49,49,2022_Jul_26_1238,2020.2.10,distractmap1,59.97692090060416,"['Left Face', 'Right Arm', 'Left Face', 'Right Arm']",
6,"[0.2, 0]",0,0,5,5,5,,,None,None,"[0, 0, 0]",672.4578323999885,674.4578380999155,672.4578323999885,673.4578625999857,673.441180099966,674.4411857000086,"[0, 0, 0]",1,672.4578323999885,674.4578380999155,,,,,,,,,,,,,,,,,,,4,M,1,20,l,MH SK,49,49,2022_Jul_26_1238,2020.2.10,distractmap1,59.97692090060416,"['Left Face', 'Right Arm', 'Left Face', 'Right Arm']",
1,"[-0.2, 0.2]",1,0,6,6,6,,,None,None,"[0, 0, 0]",674.4744235000107,676.4745336999185,674.4744235000107,675.4745312999003,675.4578706000466,676.4578529000282,"[0, 0, 0]",1,674.4744235000107,676.4745336999185,,,,,,,,,,,,,,,,,,,4,M,1,20,l,MH SK,49,49,2022_Jul_26_1238,2020.2.10,distractmap1,59.97692090060416,"['Left Face', 'Right Arm', 'Left Face', 'Right Arm']",
7,"[-0.2, -0.2]",0,0,7,7,7,,,None,None,"[0, 0, 0]",676.4912167000584,678.4912320000585,676.4912167000584,677.491204299964,677.4745449998882,678.474556399975,"[0, 0, 0]",0,676.4912167000584,678.4912320000585,,,,,,,,,,,,,,,,,,,4,M,1,20,l,MH SK,49,49,2022_Jul_26_1238,2020.2.10,distractmap1,59.97692090060416,"['Left Face', 'Right Arm', 'Left Face', 'Right Arm']",
6,"[0.2, 0]",0,0,8,8,8,,,None,None,"[0, 0, 0]",678.5078855000902,680.5078960999381,678.5078855000902,679.5078966000583,679.4912354000844,680.4912475000601,"[0, 0, 0]",1,678.5078855000902,680.5078960999381,,,,,,,,,,,,,,,,,,,4,M,1,20,l,MH SK,49,49,2022_Jul_26_1238,2020.2.10,distractmap1,59.97692090060416,"['Left Face', 'Right Arm', 'Left Face', 'Right Arm']",
7,"[-0.2, -0.2]",1,0,9,9,9,,,None,None,"[0, 0, 0]",680.524600799894,682.5245866000187,680.524600799894,681.5245828998741,681.5079143000767,682.5079210998956,"[0, 0, 0]",1,680.524600799894,682.5245866000187,,,,,,,,,,,,,,,,,,,4,M,1,20,l,MH SK,49,49,2022_Jul_26_1238,2020.2.10,distractmap1,59.97692090060416,"['Left Face', 'Right Arm', 'Left Face', 'Right Arm']",
,,,,,,,,,,,,,,,,,,,,,,682.5412554999348,None,,,,,,,,,,,,,,,,,4,M,1,20,l,MH SK,49,49,2022_Jul_26_1238,2020.2.10,distractmap1,59.97692090060416,"['Left Face', 'Right Arm', 'Left Face', 'Right Arm']",
,,,,,,,,,,,,,,,,,,,,,,,,,,,,,,,,,,22.962962962962962,673.6224915101193,,,,,4,M,1,20,l,MH SK,49,49,2022_Jul_26_1238,2020.2.10,distractmap1,59.97692090060416,"['Left Face', 'Right Arm', 'Left Face', 'Right Arm']",
,,,,,,,717.5582383000292,None,,,,,,,,,,,,,,,,,,,,,,,,,,29.32098765432099,711.0715855096933,0.013473589904606342,5.009781289845705,697.5580579999369,None,4,M,1,20,l,MH SK,49,49,2022_Jul_26_1238,2020.2.10,distractmap1,59.97692090060416,"['Left Face', 'Right Arm', 'Left Face', 'Right Arm']",
,,,,,,,752.5752238000277,None,,,,,,,,,,,,,,,,,,,,,,,,,,36.2962962962963,741.6882427101955,0.014688290189951658,5.012253390159458,732.5750396000221,None,4,M,1,20,l,MH SK,49,49,2022_Jul_26_1238,2020.2.10,distractmap1,59.97692090060416,"['Left Face', 'Right Arm', 'Left Face', 'Right Arm']",
,,,,,,,787.5921799999196,None,,,,,,,,,,,,,,,,,,,,,,,,,,37.22222222222222,778.9701877098996,0.01497448980808258,5.012807189952582,767.5920136999339,None,4,M,1,20,l,MH SK,49,49,2022_Jul_26_1238,2020.2.10,distractmap1,59.97692090060416,"['Left Face', 'Right Arm', 'Left Face', 'Right Arm']",
4,"[-0.2, 0]",None,0,0,0,0,803.5092398999259,None,None,None,"[0, 0, 0]",807.6256828000769,809.6257263999432,807.6256828000769,808.6257116999477,808.6257116999477,809.6257263999432,"[0, 0, 0]",1,807.6256828000769,809.6257263999432,,,,,,,,,,,,,,,0.01669689011760056,5.016134090255946,,,4,M,1,20,l,MH SK,49,49,2022_Jul_26_1238,2020.2.10,distractmap1,59.97692090060416,"['Left Face', 'Right Arm', 'Left Face', 'Right Arm']",
5,"[0, 0]",None,0,1,1,1,,,None,None,"[0, 0, 0]",809.6423841000069,811.6423992000055,809.6423841000069,810.642395599978,810.625714499969,811.6257408000529,"[0, 0, 0]",1,809.6423841000069,811.6423992000055,,,,,,,,,,,,,,,,,,,4,M,1,20,l,MH SK,49,49,2022_Jul_26_1238,2020.2.10,distractmap1,59.97692090060416,"['Left Face', 'Right Arm', 'Left Face', 'Right Arm']",
6,"[0.2, 0]",0,0,2,2,2,,,None,None,"[0, 0, 0]",811.659084700048,813.6590865000617,811.659084700048,812.659066000022,812.6424112999812,813.6424183999188,"[0, 0, 0]",1,811.659084700048,813.6590865000617,,,,,,,,,,,,,,,,,,,4,M,1,20,l,MH SK,49,49,2022_Jul_26_1238,2020.2.10,distractmap1,59.97692090060416,"['Left Face', 'Right Arm', 'Left Face', 'Right Arm']",
1,"[-0.2, 0.2]",0,0,3,3,3,,,None,None,"[0, 0, 0]",813.6757564998697,815.6757755998988,813.6757564998697,814.6757650999352,814.6590825999156,815.6590909999795,"[0, 0, 0]",1,813.6757564998697,815.6757755998988,,,,,,,,,,,,,,,,,,,4,M,1,20,l,MH SK,49,49,2022_Jul_26_1238,2020.2.10,distractmap1,59.97692090060416,"['Left Face', 'Right Arm', 'Left Face', 'Right Arm']",
6,"[0.2, 0]",1,0,4,4,4,,,None,None,"[0, 0, 0]",815.7261190998834,None,815.7261190998834,816.7258053999394,816.7091152998619,None,"[0, 0, 0]",1,815.7261190998834,None,,,,,,,,,,,,,,,,,,,4,M,1,20,l,MH SK,49,49,2022_Jul_26_1238,2020.2.10,distractmap1,59.97692090060416,"['Left Face', 'Right Arm', 'Left Face', 'Right Arm']",
1,"[-0.2, 0.2]",1,0,5,5,5,,,None,None,"[0, 0, 0]",817.7091224000324,819.709130999865,817.7091224000324,818.7091315998696,818.6924620999489,819.6924803999718,"[0, 0, 0]",1,817.7091224000324,819.709130999865,,,,,,,,,,,,,,,,,,,4,M,1,20,l,MH SK,49,49,2022_Jul_26_1238,2020.2.10,distractmap1,59.97692090060416,"['Left Face', 'Right Arm', 'Left Face', 'Right Arm']",
2,"[0, 0.2]",0,0,6,6,6,,,None,None,"[0, 0, 0]",819.7257970999926,821.7258323999122,819.7257970999926,820.725805999944,820.7091504998971,821.7092311000451,"[0, 0, 0]",1,819.7257970999926,821.7258323999122,,,,,,,,,,,,,,,,,,,4,M,1,20,l,MH SK,49,49,2022_Jul_26_1238,2020.2.10,distractmap1,59.97692090060416,"['Left Face', 'Right Arm', 'Left Face', 'Right Arm']",
3,"[0.2, 0.2]",0,0,7,7,7,,,None,None,"[0, 0, 0]",821.7424928999972,823.7425071999896,821.7424928999972,822.7425021999516,822.7258281998802,823.7258311000187,"[0, 0, 0]",1,821.7424928999972,823.7425071999896,,,,,,,,,,,,,,,,,,,4,M,1,20,l,MH SK,49,49,2022_Jul_26_1238,2020.2.10,distractmap1,59.97692090060416,"['Left Face', 'Right Arm', 'Left Face', 'Right Arm']",
6,"[0.2, 0]",0,0,8,8,8,,,None,None,"[0, 0, 0]",823.7591579,825.7591857998632,823.7591579,824.7591973000672,824.7425166000612,825.7425301000476,"[0, 0, 0]",1,823.7591579,825.7591857998632,,,,,,,,,,,,,,,,,,,4,M,1,20,l,MH SK,49,49,2022_Jul_26_1238,2020.2.10,distractmap1,59.97692090060416,"['Left Face', 'Right Arm', 'Left Face', 'Right Arm']",
3,"[0.2, 0.2]",1,0,9,9,9,,,None,None,"[0, 0, 0]",825.7758617000654,827.7758804999758,825.7758617000654,826.7757971000392,826.7592112000566,827.7592044000048,"[0, 0, 0]",1,825.7758617000654,827.7758804999758,,,,,,,,,,,,,,,,,,,4,M,1,20,l,MH SK,49,49,2022_Jul_26_1238,2020.2.10,distractmap1,59.97692090060416,"['Left Face', 'Right Arm', 'Left Face', 'Right Arm']",
,,,,,,,,,,,,,,,,,,,,,,827.809221399948,None,,,,,,,,,,,,,,,,,4,M,1,20,l,MH SK,49,49,2022_Jul_26_1238,2020.2.10,distractmap1,59.97692090060416,"['Left Face', 'Right Arm', 'Left Face', 'Right Arm']",
,,,,,,,,,,,,,,,,,,,,,,,,,,,,,,,,,,20.864197530864196,818.9069849099033,,,,,4,M,1,20,l,MH SK,49,49,2022_Jul_26_1238,2020.2.10,distractmap1,59.97692090060416,"['Left Face', 'Right Arm', 'Left Face', 'Right Arm']",
2,"[0, 0.2]",None,0,0,0,0,843.0427403999493,None,None,None,"[0, 0, 0]",847.8427166999318,849.8427325000521,847.8427166999318,848.8427277998999,848.8427277998999,849.8427325000521,"[0, 0, 0]",1,847.8427166999318,849.8427325000521,,,,,,,,,,,,,,,0.013586090179160237,5.010013790102676,,,4,M,1,20,l,MH SK,49,49,2022_Jul_26_1238,2020.2.10,distractmap1,59.97692090060416,"['Left Face', 'Right Arm', 'Left Face', 'Right Arm']",
5,"[0, 0]",None,0,1,1,1,,,None,None,"[0, 0, 0]",849.859423100017,851.8594325999729,849.859423100017,850.8594021999743,850.8427480000537,851.8427633000538,"[0, 0, 0]",1,849.859423100017,851.8594325999729,,,,,,,,,,,,,,,,,,,4,M,1,20,l,MH SK,49,49,2022_Jul_26_1238,2020.2.10,distractmap1,59.97692090060416,"['Left Face', 'Right Arm', 'Left Face', 'Right Arm']",
6,"[0.2, 0]",0,0,2,2,2,,,None,None,"[0, 0, 0]",851.8760987999849,853.8761134999804,851.8760987999849,852.8761080999393,852.8594482999761,853.8594694000203,"[0, 0, 0]",1,851.8760987999849,853.8761134999804,,,,,,,,,,,,,,,,,,,4,M,1,20,l,MH SK,49,49,2022_Jul_26_1238,2020.2.10,distractmap1,59.97692090060416,"['Left Face', 'Right Arm', 'Left Face', 'Right Arm']",
1,"[-0.2, 0.2]",0,0,3,3,3,,,None,None,"[0, 0, 0]",853.8927623000927,855.8928030000534,853.8927623000927,854.8927744000684,854.8761183999013,855.8761316000018,"[0, 0, 0]",1,853.8927623000927,855.8928030000534,,,,,,,,,,,,,,,,,,,4,M,1,20,l,MH SK,49,49,2022_Jul_26_1238,2020.2.10,distractmap1,59.97692090060416,"['Left Face', 'Right Arm', 'Left Face', 'Right Arm']",
6,"[0.2, 0]",1,0,4,4,4,,,None,None,"[0, 0, 0]",855.9607126000337,None,855.9607126000337,856.9761389999185,856.9428032999858,None,"[0, 0, 0]",1,855.9607126000337,None,,,,,,,,,,,,,,,,,,,4,M,1,20,l,MH SK,49,49,2022_Jul_26_1238,2020.2.10,distractmap1,59.97692090060416,"['Left Face', 'Right Arm', 'Left Face', 'Right Arm']",
6,"[0.2, 0]",0,0,5,5,5,,,None,None,"[0, 0, 0]",857.9261534998659,859.9261797999498,857.9261534998659,858.9264022000134,858.9097547000274,859.9095075998921,"[0, 0, 0]",1,857.9261534998659,859.9261797999498,,,,,,,,,,,,,,,,,,,4,M,1,20,l,MH SK,49,49,2022_Jul_26_1238,2020.2.10,distractmap1,59.97692090060416,"['Left Face', 'Right Arm', 'Left Face', 'Right Arm']",
9,"[0.2, -0.2]",0,0,6,6,6,,,None,None,"[0, 0, 0]",859.9428065000102,861.9428612999618,859.9428065000102,860.9428505999967,860.9261672000866,861.9261872998904,"[0, 0, 0]",1,859.9428065000102,861.9428612999618,,,,,,,,,,,,,,,,,,,4,M,1,20,l,MH SK,49,49,2022_Jul_26_1238,2020.2.10,distractmap1,59.97692090060416,"['Left Face', 'Right Arm', 'Left Face', 'Right Arm']",
6,"[0.2, 0]",1,0,7,7,7,,,None,None,"[0, 0, 0]",861.9595154998824,863.9595198999159,861.9595154998824,862.9595218000468,862.9427036000416,863.9429248999804,"[0, 0, 0]",1,861.9595154998824,863.9595198999159,,,,,,,,,,,,,,,,,,,4,M,1,20,l,MH SK,49,49,2022_Jul_26_1238,2020.2.10,distractmap1,59.97692090060416,"['Left Face', 'Right Arm', 'Left Face', 'Right Arm']",
3,"[0.2, 0.2]",0,0,8,8,8,,,None,None,"[0, 0, 0]",863.976205999963,865.9762258999981,863.976205999963,864.9761508998927,864.9598085999023,865.9595425999723,"[0, 0, 0]",1,863.976205999963,865.9762258999981,,,,,,,,,,,,,,,,,,,4,M,1,20,l,MH SK,49,49,2022_Jul_26_1238,2020.2.10,distractmap1,59.97692090060416,"['Left Face', 'Right Arm', 'Left Face', 'Right Arm']",
9,"[0.2, -0.2]",0,0,9,9,9,,,None,None,"[0, 0, 0]",865.9928876000922,867.9929025999736,865.9928876000922,866.992900500074,866.9762403999921,867.9762524000835,"[0, 0, 0]",1,865.9928876000922,867.9929025999736,,,,,,,,,,,,,,,,,,,4,M,1,20,l,MH SK,49,49,2022_Jul_26_1238,2020.2.10,distractmap1,59.97692090060416,"['Left Face', 'Right Arm', 'Left Face', 'Right Arm']",
,,,,,,,,,,,,,,,,,,,,,,868.009437300032,None,,,,,,,,,,,,,,,,,4,M,1,20,l,MH SK,49,49,2022_Jul_26_1238,2020.2.10,distractmap1,59.97692090060416,"['Left Face', 'Right Arm', 'Left Face', 'Right Arm']",
,,,,,,,,,,,,,,,,,,,,,,,,,,,,,,,,,,22.839506172839506,857.7582407100126,,,,,4,M,1,20,l,MH SK,49,49,2022_Jul_26_1238,2020.2.10,distractmap1,59.97692090060416,"['Left Face', 'Right Arm', 'Left Face', 'Right Arm']",
3,"[0.2, 0.2]",None,0,0,0,0,881.2597507000901,None,None,None,"[0, 0, 0]",888.043065899983,890.0430974999908,888.043065899983,889.0430896000471,889.0430896000471,890.0430974999908,"[0, 0, 0]",1,888.043065899983,890.0430974999908,,,,,,,,,,,,,,,0.012670790078118443,5.008203790290281,,,4,M,1,20,l,MH SK,49,49,2022_Jul_26_1238,2020.2.10,distractmap1,59.97692090060416,"['Left Face', 'Right Arm', 'Left Face', 'Right Arm']",
9,"[0.2, -0.2]",None,0,1,1,1,,,None,None,"[0, 0, 0]",890.0597639998887,892.059780200012,890.0597639998887,891.05977599998,891.0431047000457,892.0431226000655,"[0, 0, 0]",1,890.0597639998887,892.059780200012,,,,,,,,,,,,,,,,,,,4,M,1,20,l,MH SK,49,49,2022_Jul_26_1238,2020.2.10,distractmap1,59.97692090060416,"['Left Face', 'Right Arm', 'Left Face', 'Right Arm']",
3,"[0.2, 0.2]",1,0,2,2,2,,,None,None,"[0, 0, 0]",892.076456699986,894.0764832000714,892.076456699986,893.0764609999023,893.0597959998995,894.0598021999467,"[0, 0, 0]",1,892.076456699986,894.0764832000714,,,,,,,,,,,,,,,,,,,4,M,1,20,l,MH SK,49,49,2022_Jul_26_1238,2020.2.10,distractmap1,59.97692090060416,"['Left Face', 'Right Arm', 'Left Face', 'Right Arm']",
7,"[-0.2, -0.2]",0,0,3,3,3,,,None,None,"[0, 0, 0]",894.0931379999965,896.0931567999069,894.0931379999965,895.0931454000529,895.0764820999466,896.0764860000927,"[0, 0, 0]",1,894.0931379999965,896.0931567999069,,,,,,,,,,,,,,,,,,,4,M,1,20,l,MH SK,49,49,2022_Jul_26_1238,2020.2.10,distractmap1,59.97692090060416,"['Left Face', 'Right Arm', 'Left Face', 'Right Arm']",
8,"[0, -0.2]",0,0,4,4,4,,,None,None,"[0, 0, 0]",896.1769194998778,None,896.1769194998778,897.1765077000018,897.1598310000263,None,"[0, 0, 0]",1,896.1769194998778,None,,,,,,,,,,,,,,,,,,,4,M,1,20,l,MH SK,49,49,2022_Jul_26_1238,2020.2.10,distractmap1,59.97692090060416,"['Left Face', 'Right Arm', 'Left Face', 'Right Arm']",
4,"[-0.2, 0]",0,0,5,5,5,,,None,None,"[0, 0, 0]",898.1265294998884,900.1265195999295,898.1265294998884,899.1265153000131,899.1098404000513,900.1098440000787,"[0, 0, 0]",1,898.1265294998884,900.1265195999295,,,,,,,,,,,,,,,,,,,4,M,1,20,l,MH SK,49,49,2022_Jul_26_1238,2020.2.10,distractmap1,59.97692090060416,"['Left Face', 'Right Arm', 'Left Face', 'Right Arm']",
4,"[-0.2, 0]",0,0,6,6,6,,,None,None,"[0, 0, 0]",900.14319480001,902.1432119000237,900.14319480001,901.1431865999475,901.1265555999707,902.1265445000026,"[0, 0, 0]",1,900.14319480001,902.1432119000237,,,,,,,,,,,,,,,,,,,4,M,1,20,l,MH SK,49,49,2022_Jul_26_1238,2020.2.10,distractmap1,59.97692090060416,"['Left Face', 'Right Arm', 'Left Face', 'Right Arm']",
1,"[-0.2, 0.2]",0,0,7,7,7,,,None,None,"[0, 0, 0]",902.1598753998987,904.1598900998943,902.1598753998987,903.1598819000646,903.1432280999143,904.143213900039,"[0, 0, 0]",1,902.1598753998987,904.1598900998943,,,,,,,,,,,,,,,,,,,4,M,1,20,l,MH SK,49,49,2022_Jul_26_1238,2020.2.10,distractmap1,59.97692090060416,"['Left Face', 'Right Arm', 'Left Face', 'Right Arm']",
4,"[-0.2, 0]",1,0,8,8,8,,,None,None,"[0, 0, 0]",904.176562699955,906.1765602000523,904.176562699955,905.1765689000022,905.1599051998928,906.1599141999613,"[0, 0, 0]",1,904.176562699955,906.1765602000523,,,,,,,,,,,,,,,,,,,4,M,1,20,l,MH SK,49,49,2022_Jul_26_1238,2020.2.10,distractmap1,59.97692090060416,"['Left Face', 'Right Arm', 'Left Face', 'Right Arm']",
8,"[0, -0.2]",0,0,9,9,9,,,None,None,"[0, 0, 0]",906.1932455000933,908.1932624999899,906.1932455000933,907.1932560000569,907.176576100057,908.1766017999034,"[0, 0, 0]",1,906.1932455000933,908.1932624999899,,,,,,,,,,,,,,,,,,,4,M,1,20,l,MH SK,49,49,2022_Jul_26_1238,2020.2.10,distractmap1,59.97692090060416,"['Left Face', 'Right Arm', 'Left Face', 'Right Arm']",
,,,,,,,,,,,,,,,,,,,,,,908.209996700054,None,,,,,,,,,,,,,,,,,4,M,1,20,l,MH SK,49,49,2022_Jul_26_1238,2020.2.10,distractmap1,59.97692090060416,"['Left Face', 'Right Arm', 'Left Face', 'Right Arm']",
,,,,,,,,,,,,,,,,,,,,,,,,,,,,,,,,,,23.086419753086417,901.241312809987,,,,,4,M,1,20,l,MH SK,49,49,2022_Jul_26_1238,2020.2.10,distractmap1,59.97692090060416,"['Left Face', 'Right Arm', 'Left Face', 'Right Arm']",
,,,,,,,1033.22769910004,None,,,,,,,,,,,,,,,,,,,,,,,,,,38.2716049382716,1024.9557768099476,0.013336489908397198,5.009566489839926,1013.2275336999446,None,4,M,1,20,l,MH SK,49,49,2022_Jul_26_1238,2020.2.10,distractmap1,59.97692090060416,"['Left Face', 'Right Arm', 'Left Face', 'Right Arm']",
,,,,,,,1068.2446866000537,None,,,,,,,,,,,,,,,,,,,,,,,,,,42.96296296296296,1059.2740186098963,0.016627189936116338,5.01612408994697,1048.244502699934,None,4,M,1,20,l,MH SK,49,49,2022_Jul_26_1238,2020.2.10,distractmap1,59.97692090060416,"['Left Face', 'Right Arm', 'Left Face', 'Right Arm']",
,,,,,,,1103.2616480998695,None,,,,,,,,,,,,,,,,,,,,,,,,,,40.98765432098765,1094.257826110348,0.015342090046033263,5.013519690139219,1083.2614929000847,None,4,M,1,20,l,MH SK,49,49,2022_Jul_26_1238,2020.2.10,distractmap1,59.97692090060416,"['Left Face', 'Right Arm', 'Left Face', 'Right Arm']",
2,"[0, 0.2]",None,0,0,0,0,1118.2784750000574,None,None,None,"[0, 0, 0]",1123.2776883998886,1125.278526299866,1123.2776883998886,1124.2785296000075,1124.2785296000075,1125.278526299866,"[0, 0, 0]",1,1123.2776883998886,1125.278526299866,,,,,,,,,,,,,,,0.015196389751508832,5.01331558986567,,,4,M,1,20,l,MH SK,49,49,2022_Jul_26_1238,2020.2.10,distractmap1,59.97692090060416,"['Left Face', 'Right Arm', 'Left Face', 'Right Arm']",
5,"[0, 0]",None,0,1,1,1,,,None,None,"[0, 0, 0]",1125.295188399963,1127.295223099878,1125.295188399963,1126.2951919999905,1126.2785417998675,1127.27855310007,"[0, 0, 0]",1,1125.295188399963,1127.295223099878,,,,,,,,,,,,,,,,,,,4,M,1,20,l,MH SK,49,49,2022_Jul_26_1238,2020.2.10,distractmap1,59.97692090060416,"['Left Face', 'Right Arm', 'Left Face', 'Right Arm']",
3,"[0.2, 0.2]",0,0,2,2,2,,,None,None,"[0, 0, 0]",1127.311873700004,1129.3119015998673,1127.311873700004,1128.3118811999448,1128.295211700024,1129.2952435999177,"[0, 0, 0]",1,1127.311873700004,1129.3119015998673,,,,,,,,,,,,,,,,,,,4,M,1,20,l,MH SK,49,49,2022_Jul_26_1238,2020.2.10,distractmap1,59.97692090060416,"['Left Face', 'Right Arm', 'Left Face', 'Right Arm']",
5,"[0, 0]",1,0,3,3,3,,,None,None,"[0, 0, 0]",1129.3285781999584,1131.3285912999418,1129.3285781999584,1130.3285697000101,1130.311911100056,1131.3119161999784,"[0, 0, 0]",1,1129.3285781999584,1131.3285912999418,,,,,,,,,,,,,,,,,,,4,M,1,20,l,MH SK,49,49,2022_Jul_26_1238,2020.2.10,distractmap1,59.97692090060416,"['Left Face', 'Right Arm', 'Left Face', 'Right Arm']",
2,"[0, 0.2]",0,0,4,4,4,,,None,None,"[0, 0, 0]",1131.34525569994,1133.345153399976,1131.34525569994,1132.345250400016,1132.3286109999754,1133.3286182000302,"[0, 0, 0]",1,1131.34525569994,1133.345153399976,,,,,,,,,,,,,,,,,,,4,M,1,20,l,MH SK,49,49,2022_Jul_26_1238,2020.2.10,distractmap1,59.97692090060416,"['Left Face', 'Right Arm', 'Left Face', 'Right Arm']",
8,"[0, -0.2]",0,0,5,5,5,,,None,None,"[0, 0, 0]",1133.3619234000798,1135.3619472999126,1133.3619234000798,1134.36194480001,1134.3452906999737,1135.345294599887,"[0, 0, 0]",1,1133.3619234000798,1135.3619472999126,,,,,,,,,,,,,,,,,,,4,M,1,20,l,MH SK,49,49,2022_Jul_26_1238,2020.2.10,distractmap1,59.97692090060416,"['Left Face', 'Right Arm', 'Left Face', 'Right Arm']",
4,"[-0.2, 0]",0,0,6,6,6,,,None,None,"[0, 0, 0]",1135.3786243998911,1137.3786448000465,1135.3786243998911,1136.3786394998897,1136.3620390000287,1137.361978800036,"[0, 0, 0]",1,1135.3786243998911,1137.3786448000465,,,,,,,,,,,,,,,,,,,4,M,1,20,l,MH SK,49,49,2022_Jul_26_1238,2020.2.10,distractmap1,59.97692090060416,"['Left Face', 'Right Arm', 'Left Face', 'Right Arm']",
8,"[0, -0.2]",1,0,7,7,7,,,None,None,"[0, 0, 0]",1137.395318399882,1139.3953358998988,1137.395318399882,1138.3953319999855,1138.378650000086,1139.3786939999554,"[0, 0, 0]",1,1137.395318399882,1139.3953358998988,,,,,,,,,,,,,,,,,,,4,M,1,20,l,MH SK,49,49,2022_Jul_26_1238,2020.2.10,distractmap1,59.97692090060416,"['Left Face', 'Right Arm', 'Left Face', 'Right Arm']",
7,"[-0.2, -0.2]",0,0,8,8,8,,,None,None,"[0, 0, 0]",1139.4114860000554,1141.4120112999808,1139.4114860000554,1140.4119981999975,1140.3953354000114,1141.3953480999917,"[0, 0, 0]",1,1139.4114860000554,1141.4120112999808,,,,,,,,,,,,,,,,,,,4,M,1,20,l,MH SK,49,49,2022_Jul_26_1238,2020.2.10,distractmap1,59.97692090060416,"['Left Face', 'Right Arm', 'Left Face', 'Right Arm']",
8,"[0, -0.2]",1,0,9,9,9,,,None,None,"[0, 0, 0]",1141.4286831999198,1143.4286833999213,1141.4286831999198,1142.4286932998803,1142.4120149000082,1143.4120157998987,"[0, 0, 0]",0,1141.4286831999198,1143.4286833999213,,,,,,,,,,,,,,,,,,,4,M,1,20,l,MH SK,49,49,2022_Jul_26_1238,2020.2.10,distractmap1,59.97692090060416,"['Left Face', 'Right Arm', 'Left Face', 'Right Arm']",
,,,,,,,,,,,,,,,,,,,,,,1143.4453777999151,None,,,,,,,,,,,,,,,,,4,M,1,20,l,MH SK,49,49,2022_Jul_26_1238,2020.2.10,distractmap1,59.97692090060416,"['Left Face', 'Right Arm', 'Left Face', 'Right Arm']",
2,"[0, 0.2]",None,0,0,0,0,1155.4621383999474,None,None,None,"[0, 0, 0]",1158.462182099931,None,1158.462182099931,1159.4621800000314,1159.4621800000314,None,"[0, 0, 0]",1,1158.462182099931,None,,,,,,,,,,,,,,,,,,,4,M,1,20,l,MH SK,49,49,2022_Jul_26_1238,2020.2.10,distractmap1,59.97692090060416,"['Left Face', 'Right Arm', 'Left Face', 'Right Arm']",
2,"[0, 0.2]",None,0,1,1,1,,,None,None,"[0, 0, 0]",1160.4621603998821,1162.4621995999478,1160.4621603998821,1161.4621721000876,1161.4455251998734,1162.4455303000286,"[0, 0, 0]",1,1160.4621603998821,1162.4621995999478,,,,,,,,,,,,,,,,,,,4,M,1,20,l,MH SK,49,49,2022_Jul_26_1238,2020.2.10,distractmap1,59.97692090060416,"['Left Face', 'Right Arm', 'Left Face', 'Right Arm']",
2,"[0, 0.2]",1,0,2,2,2,,,None,None,"[0, 0, 0]",1162.478863999946,1164.4788832999766,1162.478863999946,1163.4788708998822,1163.4621947000269,1164.462197799934,"[0, 0, 0]",1,1162.478863999946,1164.4788832999766,,,,,,,,,,,,,,,,,,,4,M,1,20,l,MH SK,49,49,2022_Jul_26_1238,2020.2.10,distractmap1,59.97692090060416,"['Left Face', 'Right Arm', 'Left Face', 'Right Arm']",
8,"[0, -0.2]",0,0,3,3,3,,,None,None,"[0, 0, 0]",1164.495540899923,1166.4955601000693,1164.495540899923,1165.4955559999216,1165.4788909000345,1166.4788997999858,"[0, 0, 0]",1,1164.495540899923,1166.4955601000693,,,,,,,,,,,,,,,,,,,4,M,1,20,l,MH SK,49,49,2022_Jul_26_1238,2020.2.10,distractmap1,59.97692090060416,"['Left Face', 'Right Arm', 'Left Face', 'Right Arm']",
2,"[0, 0.2]",1,0,4,4,4,,,None,None,"[0, 0, 0]",1166.5122348000295,1168.5122479998972,1166.5122348000295,1167.5122422999702,1167.4956113998778,1168.495573000051,"[0, 0, 0]",0,1166.5122348000295,1168.5122479998972,,,,,,,,,,,,,,,,,,,4,M,1,20,l,MH SK,49,49,2022_Jul_26_1238,2020.2.10,distractmap1,59.97692090060416,"['Left Face', 'Right Arm', 'Left Face', 'Right Arm']",
5,"[0, 0]",0,0,5,5,5,,,None,None,"[0, 0, 0]",1168.5289066999685,1170.5289475000463,1168.5289066999685,1169.5289135999046,1169.5122563000768,1170.5122660000343,"[0, 0, 0]",1,1168.5289066999685,1170.5289475000463,,,,,,,,,,,,,,,,,,,4,M,1,20,l,MH SK,49,49,2022_Jul_26_1238,2020.2.10,distractmap1,59.97692090060416,"['Left Face', 'Right Arm', 'Left Face', 'Right Arm']",
1,"[-0.2, 0.2]",0,0,6,6,6,,,None,None,"[0, 0, 0]",1170.545603199862,1172.5456149999518,1170.545603199862,1171.545587599976,1171.5288994999137,1172.5289415000007,"[0, 0, 0]",1,1170.545603199862,1172.5456149999518,,,,,,,,,,,,,,,,,,,4,M,1,20,l,MH SK,49,49,2022_Jul_26_1238,2020.2.10,distractmap1,59.97692090060416,"['Left Face', 'Right Arm', 'Left Face', 'Right Arm']",
1,"[-0.2, 0.2]",0,0,7,7,7,,,None,None,"[0, 0, 0]",1172.5622886999045,1174.5623083000537,1172.5622886999045,1173.5625829999335,1173.5456296999473,1174.5456328000873,"[0, 0, 0]",1,1172.5622886999045,1174.5623083000537,,,,,,,,,,,,,,,,,,,4,M,1,20,l,MH SK,49,49,2022_Jul_26_1238,2020.2.10,distractmap1,59.97692090060416,"['Left Face', 'Right Arm', 'Left Face', 'Right Arm']",
6,"[0.2, 0]",0,0,8,8,8,,,None,None,"[0, 0, 0]",1174.5789725999348,1176.5789848000277,1174.5789725999348,1175.5789775000885,1175.5622998999897,1176.5623228000477,"[0, 0, 0]",1,1174.5789725999348,1176.5789848000277,,,,,,,,,,,,,,,,,,,4,M,1,20,l,MH SK,49,49,2022_Jul_26_1238,2020.2.10,distractmap1,59.97692090060416,"['Left Face', 'Right Arm', 'Left Face', 'Right Arm']",
1,"[-0.2, 0.2]",1,0,9,9,9,,,None,None,"[0, 0, 0]",1176.595640100073,1178.5956840999424,1176.595640100073,1177.5956597998738,1177.5792552998755,1178.5790041999426,"[0, 0, 0]",1,1176.595640100073,1178.5956840999424,,,,,,,,,,,,,,,,,,,4,M,1,20,l,MH SK,49,49,2022_Jul_26_1238,2020.2.10,distractmap1,59.97692090060416,"['Left Face', 'Right Arm', 'Left Face', 'Right Arm']",
,,,,,,,,,,,,,,,,,,,,,,1178.6123524999712,None,,,,,,,,,,,,,,,,,4,M,1,20,l,MH SK,49,49,2022_Jul_26_1238,2020.2.10,distractmap1,59.97692090060416,"['Left Face', 'Right Arm', 'Left Face', 'Right Arm']",
3,"[0.2, 0.2]",None,0,0,0,0,1186.6290841998998,None,None,None,"[0, 0, 0]",1193.6290821000002,1195.6291559999809,1193.6290821000002,1194.6291551000904,1194.6125000000466,1195.6124968000222,"[0, 0, 0]",1,1193.6290821000002,1195.6291559999809,,,,,,,,,,,,,,,,,,,4,M,1,20,l,MH SK,49,49,2022_Jul_26_1238,2020.2.10,distractmap1,59.97692090060416,"['Left Face', 'Right Arm', 'Left Face', 'Right Arm']",
3,"[0.2, 0.2]",None,0,1,1,1,,,None,None,"[0, 0, 0]",1195.6458306999411,1197.6458401000127,1195.6458306999411,1196.6458179999609,1196.6291686999612,1197.6291885999963,"[0, 0, 0]",1,1195.6458306999411,1197.6458401000127,,,,,,,,,,,,,,,,,,,4,M,1,20,l,MH SK,49,49,2022_Jul_26_1238,2020.2.10,distractmap1,59.97692090060416,"['Left Face', 'Right Arm', 'Left Face', 'Right Arm']",
5,"[0, 0]",0,0,2,2,2,,,None,None,"[0, 0, 0]",1197.6625172998756,1199.66253890004,1197.6625172998756,1198.6625361000188,1198.6458866000175,1199.6457740999758,"[0, 0, 0]",1,1197.6625172998756,1199.66253890004,,,,,,,,,,,,,,,,,,,4,M,1,20,l,MH SK,49,49,2022_Jul_26_1238,2020.2.10,distractmap1,59.97692090060416,"['Left Face', 'Right Arm', 'Left Face', 'Right Arm']",
1,"[-0.2, 0.2]",0,0,3,3,3,,,None,None,"[0, 0, 0]",1199.6791932999622,1201.6792172999121,1199.6791932999622,1200.6792059000582,1200.66254150006,1201.6625409000553,"[0, 0, 0]",1,1199.6791932999622,1201.6792172999121,,,,,,,,,,,,,,,,,,,4,M,1,20,l,MH SK,49,49,2022_Jul_26_1238,2020.2.10,distractmap1,59.97692090060416,"['Left Face', 'Right Arm', 'Left Face', 'Right Arm']",
5,"[0, 0]",1,0,4,4,4,,,None,None,"[0, 0, 0]",1201.695890699979,1203.6959025000688,1201.695890699979,1202.695892299991,1202.679225699976,1203.6792182000354,"[0, 0, 0]",1,1201.695890699979,1203.6959025000688,,,,,,,,,,,,,,,,,,,4,M,1,20,l,MH SK,49,49,2022_Jul_26_1238,2020.2.10,distractmap1,59.97692090060416,"['Left Face', 'Right Arm', 'Left Face', 'Right Arm']",
8,"[0, -0.2]",0,0,5,5,5,,,None,None,"[0, 0, 0]",1203.7125712998677,1205.7125804999378,1203.7125712998677,1204.7125744000077,1204.6959023999516,1205.695911299903,"[0, 0, 0]",1,1203.7125712998677,1205.7125804999378,,,,,,,,,,,,,,,,,,,4,M,1,20,l,MH SK,49,49,2022_Jul_26_1238,2020.2.10,distractmap1,59.97692090060416,"['Left Face', 'Right Arm', 'Left Face', 'Right Arm']",
5,"[0, 0]",1,0,6,6,6,,,None,None,"[0, 0, 0]",1205.7292390998919,1207.7292541998904,1205.7292390998919,1206.7292633000761,1206.7125993999653,1207.7126009999774,"[0, 0, 0]",1,1205.7292390998919,1207.7292541998904,,,,,,,,,,,,,,,,,,,4,M,1,20,l,MH SK,49,49,2022_Jul_26_1238,2020.2.10,distractmap1,59.97692090060416,"['Left Face', 'Right Arm', 'Left Face', 'Right Arm']",
7,"[-0.2, -0.2]",0,0,7,7,7,,,None,None,"[0, 0, 0]",1207.745935499901,1209.7459517999087,1207.745935499901,1208.745943600079,1208.7292692000046,1209.72928339988,"[0, 0, 0]",1,1207.745935499901,1209.7459517999087,,,,,,,,,,,,,,,,,,,4,M,1,20,l,MH SK,49,49,2022_Jul_26_1238,2020.2.10,distractmap1,59.97692090060416,"['Left Face', 'Right Arm', 'Left Face', 'Right Arm']",
5,"[0, 0]",1,0,8,8,8,,,None,None,"[0, 0, 0]",1209.7626213999465,1211.7626181999221,1209.7626213999465,1210.7626408000942,1210.7459575999528,1211.7459660000168,"[0, 0, 0]",1,1209.7626213999465,1211.7626181999221,,,,,,,,,,,,,,,,,,,4,M,1,20,l,MH SK,49,49,2022_Jul_26_1238,2020.2.10,distractmap1,59.97692090060416,"['Left Face', 'Right Arm', 'Left Face', 'Right Arm']",
7,"[-0.2, -0.2]",1,0,9,9,9,,,None,None,"[0, 0, 0]",1211.7793103998993,1213.7793214998674,1211.7793103998993,1212.779311900027,1212.7626731998753,1213.7626555000897,"[0, 0, 0]",1,1211.7793103998993,1213.7793214998674,,,,,,,,,,,,,,,,,,,4,M,1,20,l,MH SK,49,49,2022_Jul_26_1238,2020.2.10,distractmap1,59.97692090060416,"['Left Face', 'Right Arm', 'Left Face', 'Right Arm']",
,,,,,,,,,,,,,,,,,,,,,,1213.7959990999661,None,,,,,,,,,,,,,,,,,4,M,1,20,l,MH SK,49,49,2022_Jul_26_1238,2020.2.10,distractmap1,59.97692090060416,"['Left Face', 'Right Arm', 'Left Face', 'Right Arm']",
6,"[0.2, 0]",None,0,0,0,0,1482.6483785999008,None,None,None,"[0, 0, 0]",1487.648337099934,1489.648437900003,1487.648337099934,1488.6484250999056,1488.6484250999056,1489.648437900003,"[0, 0, 0]",1,1487.648337099934,1489.648437900003,,,,,,1308.3971013999544,1308.3971013999544,None,space,154.3755080997944,1308.3971013999544,None,,,,,,,4,M,1,20,l,MH SK,49,49,2022_Jul_26_1238,2020.2.10,distractmap1,59.97692090060416,"['Left Face', 'Right Arm', 'Left Face', 'Right Arm']",
1,"[-0.2, 0.2]",None,0,1,1,1,,,None,None,"[0, 0, 0]",1489.6651180000044,1491.6651363000274,1489.6651180000044,1490.6651389999315,1490.6485146998893,1491.6484036000911,"[0, 0, 0]",1,1489.6651180000044,1491.6651363000274,,,,,,,,,,,,,,,,,,,4,M,1,20,l,MH SK,49,49,2022_Jul_26_1238,2020.2.10,distractmap1,59.97692090060416,"['Left Face', 'Right Arm', 'Left Face', 'Right Arm']",
6,"[0.2, 0]",1,0,2,2,2,,,None,None,"[0, 0, 0]",1491.681828700006,1493.68186110002,1491.681828700006,1492.681874099886,1492.6652198999655,1493.6651834000368,"[0, 0, 0]",1,1491.681828700006,1493.68186110002,,,,,,,,,,,,,,,,,,,4,M,1,20,l,MH SK,49,49,2022_Jul_26_1238,2020.2.10,distractmap1,59.97692090060416,"['Left Face', 'Right Arm', 'Left Face', 'Right Arm']",
4,"[-0.2, 0]",0,0,3,3,3,,,None,None,"[0, 0, 0]",1493.69852049998,1495.6984794999007,1493.69852049998,1494.6985442000441,1494.681899300078,1495.6819028998725,"[0, 0, 0]",1,1493.69852049998,1495.6984794999007,,,,,,,,,,,,,,,,,,,4,M,1,20,l,MH SK,49,49,2022_Jul_26_1238,2020.2.10,distractmap1,59.97692090060416,"['Left Face', 'Right Arm', 'Left Face', 'Right Arm']",
1,"[-0.2, 0.2]",0,0,4,4,4,,,None,None,"[0, 0, 0]",1495.715186699992,1497.7151788000483,1495.715186699992,1496.7151995000895,1496.6985078998841,1497.6985206999816,"[0, 0, 0]",1,1495.715186699992,1497.7151788000483,,,,,,,,,,,,,,,,,,,4,M,1,20,l,MH SK,49,49,2022_Jul_26_1238,2020.2.10,distractmap1,59.97692090060416,"['Left Face', 'Right Arm', 'Left Face', 'Right Arm']",
8,"[0, -0.2]",0,0,5,5,5,,,None,None,"[0, 0, 0]",1497.73185370001,1499.7318661999889,1497.73185370001,1498.7318251999095,1498.7151867998764,1499.7151935000438,"[0, 0, 0]",1,1497.73185370001,1499.7318661999889,,,,,,,,,,,,,,,,,,,4,M,1,20,l,MH SK,49,49,2022_Jul_26_1238,2020.2.10,distractmap1,59.97692090060416,"['Left Face', 'Right Arm', 'Left Face', 'Right Arm']",
1,"[-0.2, 0.2]",1,0,6,6,6,,,None,None,"[0, 0, 0]",1499.7485289000906,1501.7485448999796,1499.7485289000906,1500.7485265000723,1500.731873499928,1501.7318943999708,"[0, 0, 0]",1,1499.7485289000906,1501.7485448999796,,,,,,,,,,,,,,,,,,,4,M,1,20,l,MH SK,49,49,2022_Jul_26_1238,2020.2.10,distractmap1,59.97692090060416,"['Left Face', 'Right Arm', 'Left Face', 'Right Arm']",
8,"[0, -0.2]",1,0,7,7,7,,,None,None,"[0, 0, 0]",1501.765228400007,1503.7652374999598,1501.765228400007,1502.7655430999584,1502.7485726999585,1503.7485763998702,"[0, 0, 0]",0,1501.765228400007,1503.7652374999598,,,,,,,,,,,,,,,,,,,4,M,1,20,l,MH SK,49,49,2022_Jul_26_1238,2020.2.10,distractmap1,59.97692090060416,"['Left Face', 'Right Arm', 'Left Face', 'Right Arm']",
1,"[-0.2, 0.2]",1,0,8,8,8,,,None,None,"[0, 0, 0]",1503.7819020000752,1505.7819131000433,1503.7819020000752,1504.7819072999991,1504.7652406999841,1505.7652421998791,"[0, 0, 0]",1,1503.7819020000752,1505.7819131000433,,,,,,,,,,,,,,,,,,,4,M,1,20,l,MH SK,49,49,2022_Jul_26_1238,2020.2.10,distractmap1,59.97692090060416,"['Left Face', 'Right Arm', 'Left Face', 'Right Arm']",
6,"[0.2, 0]",0,0,9,9,9,,,None,None,"[0, 0, 0]",1505.7985874000005,1507.798606700031,1505.7985874000005,1506.7986073000357,1506.7819252999034,1507.781934299972,"[0, 0, 0]",1,1505.7985874000005,1507.798606700031,,,,,,,,,,,,,,,,,,,4,M,1,20,l,MH SK,49,49,2022_Jul_26_1238,2020.2.10,distractmap1,59.97692090060416,"['Left Face', 'Right Arm', 'Left Face', 'Right Arm']",
,,,,,,,,,,,,,,,,,,,,,,1507.8152592000552,None,,,,,,,,,,,,,,,,,4,M,1,20,l,MH SK,49,49,2022_Jul_26_1238,2020.2.10,distractmap1,59.97692090060416,"['Left Face', 'Right Arm', 'Left Face', 'Right Arm']",
7,"[-0.2, -0.2]",None,0,0,0,0,1517.8320281999186,None,None,None,"[0, 0, 0]",1522.832050499972,None,1522.832050499972,1523.8320663999766,1523.8154100000393,1524.8154199998826,"[0, 0, 0]",1,1522.832050499972,None,,,,,,,,,,,,,,,,,,,4,M,1,20,l,MH SK,49,49,2022_Jul_26_1238,2020.2.10,distractmap1,59.97692090060416,"['Left Face', 'Right Arm', 'Left Face', 'Right Arm']",
7,"[-0.2, -0.2]",None,0,1,1,1,,,None,None,"[0, 0, 0]",1524.832085999893,1526.8320863000117,1524.832085999893,1525.8321020000149,1525.8154219000135,1526.8154360000044,"[0, 0, 0]",1,1524.832085999893,1526.8320863000117,,,,,,,,,,,,,,,,,,,4,M,1,20,l,MH SK,49,49,2022_Jul_26_1238,2020.2.10,distractmap1,59.97692090060416,"['Left Face', 'Right Arm', 'Left Face', 'Right Arm']",
7,"[-0.2, -0.2]",1,0,2,2,2,,,None,None,"[0, 0, 0]",1526.8487619999796,1528.848788100062,1526.8487619999796,1527.8488622999284,1527.8321106000803,1528.8321048999205,"[0, 0, 0]",1,1526.8487619999796,1528.848788100062,,,,,,,,,,,,,,,,,,,4,M,1,20,l,MH SK,49,49,2022_Jul_26_1238,2020.2.10,distractmap1,59.97692090060416,"['Left Face', 'Right Arm', 'Left Face', 'Right Arm']",
5,"[0, 0]",0,0,3,3,3,,,None,None,"[0, 0, 0]",1528.8654680000618,1530.8653768999502,1528.8654680000618,1529.865476799896,1529.8487976999022,1530.848840399878,"[0, 0, 0]",1,1528.8654680000618,1530.8653768999502,,,,,,,,,,,,,,,,,,,4,M,1,20,l,MH SK,49,49,2022_Jul_26_1238,2020.2.10,distractmap1,59.97692090060416,"['Left Face', 'Right Arm', 'Left Face', 'Right Arm']",
1,"[-0.2, 0.2]",0,0,4,4,4,,,None,None,"[0, 0, 0]",1530.8821346000768,1532.8821576000191,1530.8821346000768,1531.8821489999536,1531.86549129989,1532.8655006000772,"[0, 0, 0]",1,1530.8821346000768,1532.8821576000191,,,,,,,,,,,,,,,,,,,4,M,1,20,l,MH SK,49,49,2022_Jul_26_1238,2020.2.10,distractmap1,59.97692090060416,"['Left Face', 'Right Arm', 'Left Face', 'Right Arm']",
6,"[0.2, 0]",0,0,5,5,5,,,None,None,"[0, 0, 0]",1532.8988359998912,1534.8988413999323,1532.8988359998912,1533.8986684998963,1533.8821117000189,1534.8821687998716,"[0, 0, 0]",1,1532.8988359998912,1534.8988413999323,,,,,,,,,,,,,,,,,,,4,M,1,20,l,MH SK,49,49,2022_Jul_26_1238,2020.2.10,distractmap1,59.97692090060416,"['Left Face', 'Right Arm', 'Left Face', 'Right Arm']",
1,"[-0.2, 0.2]",1,0,6,6,6,,,None,None,"[0, 0, 0]",1534.9155113999732,1536.9155510999262,1534.9155113999732,1535.915523600066,1535.8988441999536,1536.8988429999445,"[0, 0, 0]",1,1534.9155113999732,1536.9155510999262,,,,,,,,,,,,,,,,,,,4,M,1,20,l,MH SK,49,49,2022_Jul_26_1238,2020.2.10,distractmap1,59.97692090060416,"['Left Face', 'Right Arm', 'Left Face', 'Right Arm']",
7,"[-0.2, -0.2]",0,0,7,7,7,,,None,None,"[0, 0, 0]",1536.9322021999396,1538.9322128000204,1536.9322021999396,1537.9321949000005,1537.9157970000524,1538.9155431999825,"[0, 0, 0]",1,1536.9322021999396,1538.9322128000204,,,,,,,,,,,,,,,,,,,4,M,1,20,l,MH SK,49,49,2022_Jul_26_1238,2020.2.10,distractmap1,59.97692090060416,"['Left Face', 'Right Arm', 'Left Face', 'Right Arm']",
6,"[0.2, 0]",0,0,8,8,8,,,None,None,"[0, 0, 0]",1538.9488756000064,1540.948890300002,1538.9488756000064,1539.9488812999334,1539.93223019992,1540.9322245998774,"[0, 0, 0]",1,1538.9488756000064,1540.948890300002,,,,,,,,,,,,,,,,,,,4,M,1,20,l,MH SK,49,49,2022_Jul_26_1238,2020.2.10,distractmap1,59.97692090060416,"['Left Face', 'Right Arm', 'Left Face', 'Right Arm']",
7,"[-0.2, -0.2]",1,0,9,9,9,,,None,None,"[0, 0, 0]",1540.9655784000643,1542.9655776999425,1540.9655784000643,1541.965556900017,1541.9488935000263,1542.9488121999893,"[0, 0, 0]",1,1540.9655784000643,1542.9655776999425,,,,,,,,,,,,,,,,,,,4,M,1,20,l,MH SK,49,49,2022_Jul_26_1238,2020.2.10,distractmap1,59.97692090060416,"['Left Face', 'Right Arm', 'Left Face', 'Right Arm']",
,,,,,,,,,,,,,,,,,,,,,,1542.9822666998953,None,,,,,,,,,,,,,,,,,4,M,1,20,l,MH SK,49,49,2022_Jul_26_1238,2020.2.10,distractmap1,59.97692090060416,"['Left Face', 'Right Arm', 'Left Face', 'Right Arm']",
4,"[-0.2, 0]",None,0,0,0,0,1552.9990032000933,None,None,None,"[0, 0, 0]",1557.9990282999352,1559.9990497999825,1557.9990282999352,1558.9990421999246,1558.9823878998868,1559.9823988000862,"[0, 0, 0]",1,1557.9990282999352,1559.9990497999825,,,,,,,,,,,,,,,,,,,4,M,1,20,l,MH SK,49,49,2022_Jul_26_1238,2020.2.10,distractmap1,59.97692090060416,"['Left Face', 'Right Arm', 'Left Face', 'Right Arm']",
5,"[0, 0]",None,0,1,1,1,,,None,None,"[0, 0, 0]",1560.0157627998851,1562.0157486000098,1560.0157627998851,1561.0157868999522,1560.9990759000648,1561.9990753000602,"[0, 0, 0]",1,1560.0157627998851,1562.0157486000098,,,,,,,,,,,,,,,,,,,4,M,1,20,l,MH SK,49,49,2022_Jul_26_1238,2020.2.10,distractmap1,59.97692090060416,"['Left Face', 'Right Arm', 'Left Face', 'Right Arm']",
6,"[0.2, 0]",0,0,2,2,2,,,None,None,"[0, 0, 0]",1562.0324206999503,1564.0324277000036,1562.0324206999503,1563.0324198000599,1563.0157606999855,1564.015784499934,"[0, 0, 0]",1,1562.0324206999503,1564.0324277000036,,,,,,,,,,,,,,,,,,,4,M,1,20,l,MH SK,49,49,2022_Jul_26_1238,2020.2.10,distractmap1,59.97692090060416,"['Left Face', 'Right Arm', 'Left Face', 'Right Arm']",
1,"[-0.2, 0.2]",0,0,3,3,3,,,None,None,"[0, 0, 0]",1564.0491220999975,1566.0491090998985,1564.0491220999975,1565.04910319997,1565.0324367999565,1566.0324409999885,"[0, 0, 0]",1,1564.0491220999975,1566.0491090998985,,,,,,,,,,,,,,,,,,,4,M,1,20,l,MH SK,49,49,2022_Jul_26_1238,2020.2.10,distractmap1,59.97692090060416,"['Left Face', 'Right Arm', 'Left Face', 'Right Arm']",
6,"[0.2, 0]",1,0,4,4,4,,,None,None,"[0, 0, 0]",1566.065784699982,1568.0658138000872,1566.065784699982,1567.065800699871,1567.049123399891,1568.0490445999894,"[0, 0, 0]",1,1566.065784699982,1568.0658138000872,,,,,,,,,,,,,,,,,,,4,M,1,20,l,MH SK,49,49,2022_Jul_26_1238,2020.2.10,distractmap1,59.97692090060416,"['Left Face', 'Right Arm', 'Left Face', 'Right Arm']",
1,"[-0.2, 0.2]",1,0,5,5,5,,,None,None,"[0, 0, 0]",1568.082485999912,1570.082485999912,1568.082485999912,1569.082365799928,1569.0657422000077,1570.0658162999898,"[0, 0, 0]",1,1568.082485999912,1570.082485999912,,,,,,,,,,,,,,,,,,,4,M,1,20,l,MH SK,49,49,2022_Jul_26_1238,2020.2.10,distractmap1,59.97692090060416,"['Left Face', 'Right Arm', 'Left Face', 'Right Arm']",
2,"[0, 0.2]",0,0,6,6,6,,,None,None,"[0, 0, 0]",1570.0991394000594,1572.0990776999388,1570.0991394000594,1571.099169800058,1571.082494799979,1572.0824974998832,"[0, 0, 0]",1,1570.0991394000594,1572.0990776999388,,,,,,,,,,,,,,,,,,,4,M,1,20,l,MH SK,49,49,2022_Jul_26_1238,2020.2.10,distractmap1,59.97692090060416,"['Left Face', 'Right Arm', 'Left Face', 'Right Arm']",
3,"[0.2, 0.2]",0,0,7,7,7,,,None,None,"[0, 0, 0]",1572.1158320000395,1574.1158481000457,1572.1158320000395,1573.1157378000207,1573.099164400017,1574.0991813999135,"[0, 0, 0]",1,1572.1158320000395,1574.1158481000457,,,,,,,,,,,,,,,,,,,4,M,1,20,l,MH SK,49,49,2022_Jul_26_1238,2020.2.10,distractmap1,59.97692090060416,"['Left Face', 'Right Arm', 'Left Face', 'Right Arm']",
6,"[0.2, 0]",0,0,8,8,8,,,None,None,"[0, 0, 0]",1574.1325306999497,1576.1325495999772,1574.1325306999497,1575.1325322000775,1575.1158660000656,1576.1158719998784,"[0, 0, 0]",1,1574.1325306999497,1576.1325495999772,,,,,,,,,,,,,,,,,,,4,M,1,20,l,MH SK,49,49,2022_Jul_26_1238,2020.2.10,distractmap1,59.97692090060416,"['Left Face', 'Right Arm', 'Left Face', 'Right Arm']",
3,"[0.2, 0.2]",1,0,9,9,9,,,None,None,"[0, 0, 0]",1576.149204300018,1578.149229099974,1576.149204300018,1577.1491719000041,1577.132547300076,1578.1325584999286,"[0, 0, 0]",1,1576.149204300018,1578.149229099974,,,,,,,,,,,,,,,,,,,4,M,1,20,l,MH SK,49,49,2022_Jul_26_1238,2020.2.10,distractmap1,59.97692090060416,"['Left Face', 'Right Arm', 'Left Face', 'Right Arm']",
,,,,,,,,,,,,,,,,,,,,,,1578.1658832998946,None,,,,,,,,,,,,,,,,,4,M,1,20,l,MH SK,49,49,2022_Jul_26_1238,2020.2.10,distractmap1,59.97692090060416,"['Left Face', 'Right Arm', 'Left Face', 'Right Arm']",
,,,,,,,1608.1828341998626,None,,,,,,,,,,,,,,,,,,,,,,,,,,50.864197530864196,1597.3962161098607,,,1588.1826494999696,None,4,M,1,20,l,MH SK,49,49,2022_Jul_26_1238,2020.2.10,distractmap1,59.97692090060416,"['Left Face', 'Right Arm', 'Left Face', 'Right Arm']",
,,,,,,,1643.199811999919,None,,,,,,,,,,,,,,,,,,,,,,,,,,50.0,1632.995983309811,0.014600990107282996,5.012044490082189,1623.199526200071,None,4,M,1,20,l,MH SK,49,49,2022_Jul_26_1238,2020.2.10,distractmap1,59.97692090060416,"['Left Face', 'Right Arm', 'Left Face', 'Right Arm']",
,,,,,,,1678.2167841000482,None,,,,,,,,,,,,,,,,,,,,,,,,,,52.09876543209876,1668.9469342099037,0.015149590093642473,5.013148589991033,1658.21658820007,None,4,M,1,20,l,MH SK,49,49,2022_Jul_26_1238,2020.2.10,distractmap1,59.97692090060416,"['Left Face', 'Right Arm', 'Left Face', 'Right Arm']",
2,"[0, 0.2]",None,0,0,0,0,1693.4506385999266,None,None,None,"[0, 0, 0]",1698.2503009000793,1700.2502764998935,1698.2503009000793,1699.2502907000016,1699.233645600034,1700.2336200000718,"[0, 0, 0]",1,1698.2503009000793,1700.2502764998935,,,,,,,,,,,,,,,0.014507089974358678,5.011859889840707,,,4,M,1,20,l,MH SK,49,49,2022_Jul_26_1238,2020.2.10,distractmap1,59.97692090060416,"['Left Face', 'Right Arm', 'Left Face', 'Right Arm']",
5,"[0, 0]",None,0,1,1,1,,,None,None,"[0, 0, 0]",1700.266990999924,1702.266994500067,1700.266990999924,1701.2669899999164,1701.2503183998633,1702.2503257000353,"[0, 0, 0]",1,1700.266990999924,1702.266994500067,,,,,,,,,,,,,,,,,,,4,M,1,20,l,MH SK,49,49,2022_Jul_26_1238,2020.2.10,distractmap1,59.97692090060416,"['Left Face', 'Right Arm', 'Left Face', 'Right Arm']",
6,"[0.2, 0]",0,0,2,2,2,,,None,None,"[0, 0, 0]",1702.2836833999027,1704.2836875000503,1702.2836833999027,1703.2837127000093,1703.2670140999835,1704.2669979999773,"[0, 0, 0]",1,1702.2836833999027,1704.2836875000503,,,,,,,,,,,,,,,,,,,4,M,1,20,l,MH SK,49,49,2022_Jul_26_1238,2020.2.10,distractmap1,59.97692090060416,"['Left Face', 'Right Arm', 'Left Face', 'Right Arm']",
1,"[-0.2, 0.2]",0,0,3,3,3,,,None,None,"[0, 0, 0]",1704.3003410999663,1706.3003716999665,1704.3003410999663,1705.3003582998645,1705.283694599988,1706.2836974998936,"[0, 0, 0]",1,1704.3003410999663,1706.3003716999665,,,,,,,,,,,,,,,,,,,4,M,1,20,l,MH SK,49,49,2022_Jul_26_1238,2020.2.10,distractmap1,59.97692090060416,"['Left Face', 'Right Arm', 'Left Face', 'Right Arm']",
6,"[0.2, 0]",1,0,4,4,4,,,None,None,"[0, 0, 0]",1706.350705199875,None,1706.350705199875,1707.3504214999266,1707.3337151000742,None,"[0, 0, 0]",1,1706.350705199875,None,,,,,,,,,,,,,,,,,,,4,M,1,20,l,MH SK,49,49,2022_Jul_26_1238,2020.2.10,distractmap1,59.97692090060416,"['Left Face', 'Right Arm', 'Left Face', 'Right Arm']",
6,"[0.2, 0]",0,0,5,5,5,,,None,None,"[0, 0, 0]",1708.3337341998704,1710.3337429999374,1708.3337341998704,1709.3337030999828,1709.3170610999223,1710.3170687998645,"[0, 0, 0]",1,1708.3337341998704,1710.3337429999374,,,,,,,,,,,,,,,,,,,4,M,1,20,l,MH SK,49,49,2022_Jul_26_1238,2020.2.10,distractmap1,59.97692090060416,"['Left Face', 'Right Arm', 'Left Face', 'Right Arm']",
9,"[0.2, -0.2]",0,0,6,6,6,,,None,None,"[0, 0, 0]",1710.3504033999052,1712.3504079999402,1710.3504033999052,1711.3504043000285,1711.3337544000242,1712.3337385999039,"[0, 0, 0]",1,1710.3504033999052,1712.3504079999402,,,,,,,,,,,,,,,,,,,4,M,1,20,l,MH SK,49,49,2022_Jul_26_1238,2020.2.10,distractmap1,59.97692090060416,"['Left Face', 'Right Arm', 'Left Face', 'Right Arm']",
6,"[0.2, 0]",1,0,7,7,7,,,None,None,"[0, 0, 0]",1712.3670651998837,1714.3671009999234,1712.3670651998837,1713.3670792998746,1713.35042589996,1714.3504319000058,"[0, 0, 0]",1,1712.3670651998837,1714.3671009999234,,,,,,,,,,,,,,,,,,,4,M,1,20,l,MH SK,49,49,2022_Jul_26_1238,2020.2.10,distractmap1,59.97692090060416,"['Left Face', 'Right Arm', 'Left Face', 'Right Arm']",
3,"[0.2, 0.2]",0,0,8,8,8,,,None,None,"[0, 0, 0]",1714.3837736998685,1716.3837921000086,1714.3837736998685,1715.3837820999324,1715.3670975000132,1716.3671323999297,"[0, 0, 0]",1,1714.3837736998685,1716.3837921000086,,,,,,,,,,,,,,,,,,,4,M,1,20,l,MH SK,49,49,2022_Jul_26_1238,2020.2.10,distractmap1,59.97692090060416,"['Left Face', 'Right Arm', 'Left Face', 'Right Arm']",
9,"[0.2, -0.2]",0,0,9,9,9,,,None,None,"[0, 0, 0]",1716.4004476000555,1718.400458399905,1716.4004476000555,1717.4004547998775,1717.3837276999839,1718.3838078000117,"[0, 0, 0]",1,1716.4004476000555,1718.400458399905,,,,,,,,,,,,,,,,,,,4,M,1,20,l,MH SK,49,49,2022_Jul_26_1238,2020.2.10,distractmap1,59.97692090060416,"['Left Face', 'Right Arm', 'Left Face', 'Right Arm']",
,,,,,,,,,,,,,,,,,,,,,,1718.4171325999778,None,,,,,,,,,,,,,,,,,4,M,1,20,l,MH SK,49,49,2022_Jul_26_1238,2020.2.10,distractmap1,59.97692090060416,"['Left Face', 'Right Arm', 'Left Face', 'Right Arm']",
,,,,,,,,,,,,,,,,,,,,,,,,,,,,,,,,,,43.333333333333336,1711.5159086100757,,,,,4,M,1,20,l,MH SK,49,49,2022_Jul_26_1238,2020.2.10,distractmap1,59.97692090060416,"['Left Face', 'Right Arm', 'Left Face', 'Right Arm']",
3,"[0.2, 0.2]",None,0,0,0,0,1735.667371199932,None,None,None,"[0, 0, 0]",1738.450641500065,None,1738.450641500065,1739.4506635998841,1739.433978999965,1740.4340083000716,"[0, 0, 0]",1,1738.450641500065,None,,,,,,,,,,,,,,,0.012583189876750112,5.007940989919007,,,4,M,1,20,l,MH SK,49,49,2022_Jul_26_1238,2020.2.10,distractmap1,59.97692090060416,"['Left Face', 'Right Arm', 'Left Face', 'Right Arm']",
9,"[0.2, -0.2]",None,0,1,1,1,,,None,None,"[0, 0, 0]",1740.450671199942,1742.4507045000792,1740.450671199942,1741.4506812999025,1741.4340202999301,1742.434027899988,"[0, 0, 0]",1,1740.450671199942,1742.4507045000792,,,,,,,,,,,,,,,,,,,4,M,1,20,l,MH SK,49,49,2022_Jul_26_1238,2020.2.10,distractmap1,59.97692090060416,"['Left Face', 'Right Arm', 'Left Face', 'Right Arm']",
3,"[0.2, 0.2]",1,0,2,2,2,,,None,None,"[0, 0, 0]",1742.4673565998673,1744.4673754998948,1742.4673565998673,1743.4673522000667,1743.450703599956,1744.4507077999879,"[0, 0, 0]",1,1742.4673565998673,1744.4673754998948,,,,,,,,,,,,,,,,,,,4,M,1,20,l,MH SK,49,49,2022_Jul_26_1238,2020.2.10,distractmap1,59.97692090060416,"['Left Face', 'Right Arm', 'Left Face', 'Right Arm']",
7,"[-0.2, -0.2]",0,0,3,3,3,,,None,None,"[0, 0, 0]",1744.4840357999783,1746.4840355000924,1744.4840357999783,1745.484050200088,1745.467379400041,1746.4673810999375,"[0, 0, 0]",1,1744.4840357999783,1746.4840355000924,,,,,,,,,,,,,,,,,,,4,M,1,20,l,MH SK,49,49,2022_Jul_26_1238,2020.2.10,distractmap1,59.97692090060416,"['Left Face', 'Right Arm', 'Left Face', 'Right Arm']",
8,"[0, -0.2]",0,0,4,4,4,,,None,None,"[0, 0, 0]",1746.5510203000158,None,1746.5510203000158,1747.5507251999807,1747.5340678000357,None,"[0, 0, 0]",1,1746.5510203000158,None,,,,,,,,,,,,,,,,,,,4,M,1,20,l,MH SK,49,49,2022_Jul_26_1238,2020.2.10,distractmap1,59.97692090060416,"['Left Face', 'Right Arm', 'Left Face', 'Right Arm']",
4,"[-0.2, 0]",0,0,5,5,5,,,None,None,"[0, 0, 0]",1748.51740589994,1750.5174259000923,1748.51740589994,1749.5174177999143,1749.500766800018,1750.5007605000865,"[0, 0, 0]",1,1748.51740589994,1750.5174259000923,,,,,,,,,,,,,,,,,,,4,M,1,20,l,MH SK,49,49,2022_Jul_26_1238,2020.2.10,distractmap1,59.97692090060416,"['Left Face', 'Right Arm', 'Left Face', 'Right Arm']",
4,"[-0.2, 0]",0,0,6,6,6,,,None,None,"[0, 0, 0]",1750.5340948000085,1752.5341131999157,1750.5340948000085,1751.534100299934,1751.5174463000149,1752.517452100059,"[0, 0, 0]",1,1750.5340948000085,1752.5341131999157,,,,,,,,,,,,,,,,,,,4,M,1,20,l,MH SK,49,49,2022_Jul_26_1238,2020.2.10,distractmap1,59.97692090060416,"['Left Face', 'Right Arm', 'Left Face', 'Right Arm']",
1,"[-0.2, 0.2]",0,0,7,7,7,,,None,None,"[0, 0, 0]",1752.5507771000266,1754.5507916000206,1752.5507771000266,1753.5508026999887,1753.534115599934,1754.534130499931,"[0, 0, 0]",1,1752.5507771000266,1754.5507916000206,,,,,,,,,,,,,,,,,,,4,M,1,20,l,MH SK,49,49,2022_Jul_26_1238,2020.2.10,distractmap1,59.97692090060416,"['Left Face', 'Right Arm', 'Left Face', 'Right Arm']",
4,"[-0.2, 0]",1,0,8,8,8,,,None,None,"[0, 0, 0]",1754.5674620000646,1756.567482699873,1754.5674620000646,1755.567425899906,1755.550788699882,1756.5508308000863,"[0, 0, 0]",1,1754.5674620000646,1756.567482699873,,,,,,,,,,,,,,,,,,,4,M,1,20,l,MH SK,49,49,2022_Jul_26_1238,2020.2.10,distractmap1,59.97692090060416,"['Left Face', 'Right Arm', 'Left Face', 'Right Arm']",
8,"[0, -0.2]",0,0,9,9,9,,,None,None,"[0, 0, 0]",1756.584154699929,1758.5841510999016,1756.584154699929,1757.5841572999489,1757.5674880000297,1758.5675019999035,"[0, 0, 0]",1,1756.584154699929,1758.5841510999016,,,,,,,,,,,,,,,,,,,4,M,1,20,l,MH SK,49,49,2022_Jul_26_1238,2020.2.10,distractmap1,59.97692090060416,"['Left Face', 'Right Arm', 'Left Face', 'Right Arm']",
,,,,,,,,,,,,,,,,,,,,,,1758.6008333999198,None,,,,,,,,,,,,,,,,,4,M,1,20,l,MH SK,49,49,2022_Jul_26_1238,2020.2.10,distractmap1,59.97692090060416,"['Left Face', 'Right Arm', 'Left Face', 'Right Arm']",
,,,,,,,,,,,,,,,,,,,,,,,,,,,,,,,,,,42.65432098765432,1747.5826218102593,,,,,4,M,1,20,l,MH SK,49,49,2022_Jul_26_1238,2020.2.10,distractmap1,59.97692090060416,"['Left Face', 'Right Arm', 'Left Face', 'Right Arm']",
2,"[0, 0.2]",None,0,0,0,0,1772.518074600026,None,None,None,"[0, 0, 0]",1778.634356399998,1780.634356399998,1778.634356399998,1779.6343546998687,1779.6176865999587,1780.617698899936,"[0, 0, 0]",1,1778.634356399998,1780.634356399998,,,,,,,,,,,,,,,0.012870389735326171,5.008582389913499,,,4,M,1,20,l,MH SK,49,49,2022_Jul_26_1238,2020.2.10,distractmap1,59.97692090060416,"['Left Face', 'Right Arm', 'Left Face', 'Right Arm']",
5,"[0, 0]",None,0,1,1,1,,,None,None,"[0, 0, 0]",1780.6510115999263,1782.651031699963,1780.6510115999263,1781.6510165999644,1781.6343066999689,1782.6343714999966,"[0, 0, 0]",1,1780.6510115999263,1782.651031699963,,,,,,,,,,,,,,,,,,,4,M,1,20,l,MH SK,49,49,2022_Jul_26_1238,2020.2.10,distractmap1,59.97692090060416,"['Left Face', 'Right Arm', 'Left Face', 'Right Arm']",
3,"[0.2, 0.2]",0,0,2,2,2,,,None,None,"[0, 0, 0]",1782.6677168998867,1784.6677329000086,1782.6677168998867,1783.6677502999082,1783.6510345998686,1784.6510477000847,"[0, 0, 0]",1,1782.6677168998867,1784.6677329000086,,,,,,,,,,,,,,,,,,,4,M,1,20,l,MH SK,49,49,2022_Jul_26_1238,2020.2.10,distractmap1,59.97692090060416,"['Left Face', 'Right Arm', 'Left Face', 'Right Arm']",
5,"[0, 0]",1,0,3,3,3,,,None,None,"[0, 0, 0]",1784.6843886999413,1786.6844017999247,1784.6843886999413,1785.6844178000465,1785.6677399000619,1786.6677723000757,"[0, 0, 0]",1,1784.6843886999413,1786.6844017999247,,,,,,,,,,,,,,,,,,,4,M,1,20,l,MH SK,49,49,2022_Jul_26_1238,2020.2.10,distractmap1,59.97692090060416,"['Left Face', 'Right Arm', 'Left Face', 'Right Arm']",
2,"[0, 0.2]",0,0,4,4,4,,,None,None,"[0, 0, 0]",1786.751356099965,None,1786.751356099965,1787.7510863998905,1787.7344339999836,None,"[0, 0, 0]",1,1786.751356099965,None,,,,,,,,,,,,,,,,,,,4,M,1,20,l,MH SK,49,49,2022_Jul_26_1238,2020.2.10,distractmap1,59.97692090060416,"['Left Face', 'Right Arm', 'Left Face', 'Right Arm']",
8,"[0, -0.2]",0,0,5,5,5,,,None,None,"[0, 0, 0]",1788.71776759997,1790.7177722998895,1788.71776759997,1789.7177736000158,1789.7011096000206,1790.7011092999019,"[0, 0, 0]",1,1788.71776759997,1790.7177722998895,,,,,,,,,,,,,,,,,,,4,M,1,20,l,MH SK,49,49,2022_Jul_26_1238,2020.2.10,distractmap1,59.97692090060416,"['Left Face', 'Right Arm', 'Left Face', 'Right Arm']",
4,"[-0.2, 0]",0,0,6,6,6,,,None,None,"[0, 0, 0]",1790.7344589000568,1792.7344543000218,1790.7344589000568,1791.7344583999366,1791.717803800013,1792.7178044000175,"[0, 0, 0]",1,1790.7344589000568,1792.7344543000218,,,,,,,,,,,,,,,,,,,4,M,1,20,l,MH SK,49,49,2022_Jul_26_1238,2020.2.10,distractmap1,59.97692090060416,"['Left Face', 'Right Arm', 'Left Face', 'Right Arm']",
8,"[0, -0.2]",1,0,7,7,7,,,None,None,"[0, 0, 0]",1792.7511058000382,1794.7511464999989,1792.7511058000382,1793.7511414999608,1793.734489500057,1794.7344124999363,"[0, 0, 0]",1,1792.7511058000382,1794.7511464999989,,,,,,,,,,,,,,,,,,,4,M,1,20,l,MH SK,49,49,2022_Jul_26_1238,2020.2.10,distractmap1,59.97692090060416,"['Left Face', 'Right Arm', 'Left Face', 'Right Arm']",
7,"[-0.2, -0.2]",0,0,8,8,8,,,None,None,"[0, 0, 0]",1794.7678324999288,1796.767833400052,1794.7678324999288,1795.7678384999745,1795.7511591999792,1796.7511734000873,"[0, 0, 0]",1,1794.7678324999288,1796.767833400052,,,,,,,,,,,,,,,,,,,4,M,1,20,l,MH SK,49,49,2022_Jul_26_1238,2020.2.10,distractmap1,59.97692090060416,"['Left Face', 'Right Arm', 'Left Face', 'Right Arm']",
8,"[0, -0.2]",1,0,9,9,9,,,None,None,"[0, 0, 0]",1796.7844994000625,1798.7846677000634,1796.7844994000625,1797.7847704999149,1797.7680403999984,1798.7678711998742,"[0, 0, 0]",1,1796.7844994000625,1798.7846677000634,,,,,,,,,,,,,,,,,,,4,M,1,20,l,MH SK,49,49,2022_Jul_26_1238,2020.2.10,distractmap1,59.97692090060416,"['Left Face', 'Right Arm', 'Left Face', 'Right Arm']",
,,,,,,,,,,,,,,,,,,,,,,1798.8011982999742,None,,,,,,,,,,,,,,,,,4,M,1,20,l,MH SK,49,49,2022_Jul_26_1238,2020.2.10,distractmap1,59.97692090060416,"['Left Face', 'Right Arm', 'Left Face', 'Right Arm']",
,,,,,,,,,,,,,,,,,,,,,,,,,,,,,,,,,,44.1358024691358,1789.9999113099184,,,,,4,M,1,20,l,MH SK,49,49,2022_Jul_26_1238,2020.2.10,distractmap1,59.97692090060416,"['Left Face', 'Right Arm', 'Left Face', 'Right Arm']",
,,,,,,,1923.83565309993,None,,,,,,,,,,,,,,,,,,,,,,,,,,55.55555555555556,1914.347011910053,0.012622790178284049,5.008173190057278,1903.8354670000263,None,4,M,1,20,l,MH SK,49,49,2022_Jul_26_1238,2020.2.10,distractmap1,59.97692090060416,"['Left Face', 'Right Arm', 'Left Face', 'Right Arm']",
,,,,,,,1958.8526226999238,None,,,,,,,,,,,,,,,,,,,,,,,,,,56.851851851851855,1949.8992767098825,0.016634689876809716,5.016113089863211,1938.852426999947,None,4,M,1,20,l,MH SK,49,49,2022_Jul_26_1238,2020.2.10,distractmap1,59.97692090060416,"['Left Face', 'Right Arm', 'Left Face', 'Right Arm']",
,,,,,,,1993.869608900044,None,,,,,,,,,,,,,,,,,,,,,,,,,,57.407407407407405,1984.3166617099196,0.014698590151965618,5.0122750899754465,1973.8694038998801,None,4,M,1,20,l,MH SK,49,49,2022_Jul_26_1238,2020.2.10,distractmap1,59.97692090060416,"['Left Face', 'Right Arm', 'Left Face', 'Right Arm']",
2,"[0, 0.2]",None,0,0,0,0,2009.1035042000003,None,None,None,"[0, 0, 0]",2013.9031110000797,2015.903125199955,2013.9031110000797,2014.9031042999122,2014.8864458999597,2015.8864706000313,"[0, 0, 0]",1,2013.9031110000797,2015.903125199955,,,,,,,,,,,,,,,0.0142934899777174,5.011375589994714,,,4,M,1,20,l,MH SK,49,49,2022_Jul_26_1238,2020.2.10,distractmap1,59.97692090060416,"['Left Face', 'Right Arm', 'Left Face', 'Right Arm']",
2,"[0, 0.2]",None,0,1,1,1,,,None,None,"[0, 0, 0]",2015.9197939999867,2017.9198280000128,2015.9197939999867,2016.9198203000706,2016.9031422999687,2017.9031398000661,"[0, 0, 0]",1,2015.9197939999867,2017.9198280000128,,,,,,,,,,,,,,,,,,,4,M,1,20,l,MH SK,49,49,2022_Jul_26_1238,2020.2.10,distractmap1,59.97692090060416,"['Left Face', 'Right Arm', 'Left Face', 'Right Arm']",
2,"[0, 0.2]",1,0,2,2,2,,,None,None,"[0, 0, 0]",2017.9364809999242,2019.9365022000857,2017.9364809999242,2018.9364831000566,2018.9197740000673,2019.9198481999338,"[0, 0, 0]",1,2017.9364809999242,2019.9365022000857,,,,,,,,,,,,,,,,,,,4,M,1,20,l,MH SK,49,49,2022_Jul_26_1238,2020.2.10,distractmap1,59.97692090060416,"['Left Face', 'Right Arm', 'Left Face', 'Right Arm']",
8,"[0, -0.2]",0,0,3,3,3,,,None,None,"[0, 0, 0]",2019.9531463000458,2021.9531809000764,2019.9531463000458,2020.9531835999805,2020.9365093999077,2021.9365163000766,"[0, 0, 0]",1,2019.9531463000458,2021.9531809000764,,,,,,,,,,,,,,,,,,,4,M,1,20,l,MH SK,49,49,2022_Jul_26_1238,2020.2.10,distractmap1,59.97692090060416,"['Left Face', 'Right Arm', 'Left Face', 'Right Arm']",
2,"[0, 0.2]",1,0,4,4,4,,,None,None,"[0, 0, 0]",2022.0368170000147,None,2022.0368170000147,2023.036530100042,2023.0198766998947,None,"[0, 0, 0]",1,2022.0368170000147,None,,,,,,,,,,,,,,,,,,,4,M,1,20,l,MH SK,49,49,2022_Jul_26_1238,2020.2.10,distractmap1,59.97692090060416,"['Left Face', 'Right Arm', 'Left Face', 'Right Arm']",
5,"[0, 0]",0,0,5,5,5,,,None,None,"[0, 0, 0]",2023.98641579994,2025.9865425000899,2023.98641579994,2024.9860586998984,2024.9699105999898,2025.9699057999533,"[0, 0, 0]",1,2023.98641579994,2025.9865425000899,,,,,,,,,,,,,,,,,,,4,M,1,20,l,MH SK,49,49,2022_Jul_26_1238,2020.2.10,distractmap1,59.97692090060416,"['Left Face', 'Right Arm', 'Left Face', 'Right Arm']",
1,"[-0.2, 0.2]",0,0,6,6,6,,,None,None,"[0, 0, 0]",2026.003220899962,2028.0032331000548,2026.003220899962,2027.0032218999695,2026.9865590999834,2027.986560499994,"[0, 0, 0]",1,2026.003220899962,2028.0032331000548,,,,,,,,,,,,,,,,,,,4,M,1,20,l,MH SK,49,49,2022_Jul_26_1238,2020.2.10,distractmap1,59.97692090060416,"['Left Face', 'Right Arm', 'Left Face', 'Right Arm']",
1,"[-0.2, 0.2]",0,0,7,7,7,,,None,None,"[0, 0, 0]",2028.0198885998689,2030.0199164000805,2028.0198885998689,2029.019917699974,2029.0032462000381,2030.0032383999787,"[0, 0, 0]",1,2028.0198885998689,2030.0199164000805,,,,,,,,,,,,,,,,,,,4,M,1,20,l,MH SK,49,49,2022_Jul_26_1238,2020.2.10,distractmap1,59.97692090060416,"['Left Face', 'Right Arm', 'Left Face', 'Right Arm']",
6,"[0.2, 0]",0,0,8,8,8,,,None,None,"[0, 0, 0]",2030.0365951000713,2032.0366018000059,2030.0365951000713,2031.0365907000378,2031.0199138000607,2032.0199563999195,"[0, 0, 0]",1,2030.0365951000713,2032.0366018000059,,,,,,,,,,,,,,,,,,,4,M,1,20,l,MH SK,49,49,2022_Jul_26_1238,2020.2.10,distractmap1,59.97692090060416,"['Left Face', 'Right Arm', 'Left Face', 'Right Arm']",
1,"[-0.2, 0.2]",1,0,9,9,9,,,None,None,"[0, 0, 0]",2032.053258900065,2034.0532789998688,2032.053258900065,2033.0532690000255,2033.0366575000808,2034.0366281000897,"[0, 0, 0]",0,2032.053258900065,2034.0532789998688,,,,,,,,,,,,,,,,,,,4,M,1,20,l,MH SK,49,49,2022_Jul_26_1238,2020.2.10,distractmap1,59.97692090060416,"['Left Face', 'Right Arm', 'Left Face', 'Right Arm']",
,,,,,,,,,,,,,,,,,,,,,,2034.0699581999797,None,,,,,,,,,,,,,,,,,4,M,1,20,l,MH SK,49,49,2022_Jul_26_1238,2020.2.10,distractmap1,59.97692090060416,"['Left Face', 'Right Arm', 'Left Face', 'Right Arm']",
,,,,,,,,,,,,,,,,,,,,,,,,,,,,,,,,,,45.74074074074074,2027.5515104101505,,,,,4,M,1,20,l,MH SK,49,49,2022_Jul_26_1238,2020.2.10,distractmap1,59.97692090060416,"['Left Face', 'Right Arm', 'Left Face', 'Right Arm']",
3,"[0.2, 0.2]",None,0,0,0,0,2051.320347700035,None,None,None,"[0, 0, 0]",2054.1034595998935,2056.1034909000155,2054.1034595998935,2055.1034861998633,2055.0868206000887,2056.0868327000644,"[0, 0, 0]",1,2054.1034595998935,2056.1034909000155,,,,,,,,,,,,,,,0.013170989928767085,5.009217590093613,,,4,M,1,20,l,MH SK,49,49,2022_Jul_26_1238,2020.2.10,distractmap1,59.97692090060416,"['Left Face', 'Right Arm', 'Left Face', 'Right Arm']",
3,"[0.2, 0.2]",None,0,1,1,1,,,None,None,"[0, 0, 0]",2056.1201601999346,2058.120173000032,2056.1201601999346,2057.120165999979,2057.103486099979,2058.103503399994,"[0, 0, 0]",1,2056.1201601999346,2058.120173000032,,,,,,,,,,,,,,,,,,,4,M,1,20,l,MH SK,49,49,2022_Jul_26_1238,2020.2.10,distractmap1,59.97692090060416,"['Left Face', 'Right Arm', 'Left Face', 'Right Arm']",
5,"[0, 0]",0,0,2,2,2,,,None,None,"[0, 0, 0]",2058.136843299959,2060.136895200005,2058.136843299959,2059.1368515999056,2059.120192900067,2060.1201814999804,"[0, 0, 0]",1,2058.136843299959,2060.136895200005,,,,,,,,,,,,,,,,,,,4,M,1,20,l,MH SK,49,49,2022_Jul_26_1238,2020.2.10,distractmap1,59.97692090060416,"['Left Face', 'Right Arm', 'Left Face', 'Right Arm']",
1,"[-0.2, 0.2]",0,0,3,3,3,,,None,None,"[0, 0, 0]",2060.1535265999846,2062.1535322999116,2060.1535265999846,2061.153520700056,2061.1368841000367,2062.136878499994,"[0, 0, 0]",1,2060.1535265999846,2062.1535322999116,,,,,,,,,,,,,,,,,,,4,M,1,20,l,MH SK,49,49,2022_Jul_26_1238,2020.2.10,distractmap1,59.97692090060416,"['Left Face', 'Right Arm', 'Left Face', 'Right Arm']",
5,"[0, 0]",1,0,4,4,4,,,None,None,"[0, 0, 0]",2062.2207466999535,None,2062.2207466999535,2063.220239599934,2063.2035401000176,None,"[0, 0, 0]",1,2062.2207466999535,None,,,,,,,,,,,,,,,,,,,4,M,1,20,l,MH SK,49,49,2022_Jul_26_1238,2020.2.10,distractmap1,59.97692090060416,"['Left Face', 'Right Arm', 'Left Face', 'Right Arm']",
8,"[0, -0.2]",0,0,5,5,5,,,None,None,"[0, 0, 0]",2064.186936199898,2066.18691989989,2064.186936199898,2065.186938999919,2065.1702320999466,2066.1702499999665,"[0, 0, 0]",1,2064.186936199898,2066.18691989989,,,,,,,,,,,,,,,,,,,4,M,1,20,l,MH SK,49,49,2022_Jul_26_1238,2020.2.10,distractmap1,59.97692090060416,"['Left Face', 'Right Arm', 'Left Face', 'Right Arm']",
5,"[0, 0]",1,0,6,6,6,,,None,None,"[0, 0, 0]",2066.203581399983,2068.203597099986,2066.203581399983,2067.2035729000345,2067.1868062999565,2068.1869336999953,"[0, 0, 0]",1,2066.203581399983,2068.203597099986,,,,,,,,,,,,,,,,,,,4,M,1,20,l,MH SK,49,49,2022_Jul_26_1238,2020.2.10,distractmap1,59.97692090060416,"['Left Face', 'Right Arm', 'Left Face', 'Right Arm']",
7,"[-0.2, -0.2]",0,0,7,7,7,,,None,None,"[0, 0, 0]",2068.220265599899,2070.220271300059,2068.220265599899,2069.2202721999492,2069.2036087000743,2070.2036031000316,"[0, 0, 0]",1,2068.220265599899,2070.220271300059,,,,,,,,,,,,,,,,,,,4,M,1,20,l,MH SK,49,49,2022_Jul_26_1238,2020.2.10,distractmap1,59.97692090060416,"['Left Face', 'Right Arm', 'Left Face', 'Right Arm']",
5,"[0, 0]",1,0,8,8,8,,,None,None,"[0, 0, 0]",2070.2369446000084,2072.236976200016,2070.2369446000084,2071.2369651999325,2071.220290000085,2072.220299999928,"[0, 0, 0]",1,2070.2369446000084,2072.236976200016,,,,,,,,,,,,,,,,,,,4,M,1,20,l,MH SK,49,49,2022_Jul_26_1238,2020.2.10,distractmap1,59.97692090060416,"['Left Face', 'Right Arm', 'Left Face', 'Right Arm']",
7,"[-0.2, -0.2]",1,0,9,9,9,,,None,None,"[0, 0, 0]",2072.2536357000936,2074.253636999987,2072.2536357000936,2073.2536442999262,2073.236986400094,2074.237000500085,"[0, 0, 0]",0,2072.2536357000936,2074.253636999987,,,,,,,,,,,,,,,,,,,4,M,1,20,l,MH SK,49,49,2022_Jul_26_1238,2020.2.10,distractmap1,59.97692090060416,"['Left Face', 'Right Arm', 'Left Face', 'Right Arm']",
,,,,,,,,,,,,,,,,,,,,,,2074.2703048998956,None,,,,,,,,,,,,,,,,,4,M,1,20,l,MH SK,49,49,2022_Jul_26_1238,2020.2.10,distractmap1,59.97692090060416,"['Left Face', 'Right Arm', 'Left Face', 'Right Arm']",
,,,,,,,,,,,,,,,,,,,,,,,,,,,,,,,,,,44.629629629629626,2065.23480110988,,,,,4,M,1,20,l,MH SK,49,49,2022_Jul_26_1238,2020.2.10,distractmap1,59.97692090060416,"['Left Face', 'Right Arm', 'Left Face', 'Right Arm']",
6,"[0.2, 0]",None,0,0,0,0,2089.5210975999944,None,None,None,"[0, 0, 0]",2094.303849000018,2096.3038635998964,2094.303849000018,2095.303853099933,2095.2871737000532,2096.287177500082,"[0, 0, 0]",1,2094.303849000018,2096.3038635998964,,,,,,,,,,,,,,,0.013525190064683557,5.009906290099025,,,4,M,1,20,l,MH SK,49,49,2022_Jul_26_1238,2020.2.10,distractmap1,59.97692090060416,"['Left Face', 'Right Arm', 'Left Face', 'Right Arm']",
1,"[-0.2, 0.2]",None,0,1,1,1,,,None,None,"[0, 0, 0]",2096.3205484999344,2098.3205329999328,2096.3205484999344,2097.32052739989,2097.3038697000593,2098.3038645000197,"[0, 0, 0]",1,2096.3205484999344,2098.3205329999328,,,,,,,,,,,,,,,,,,,4,M,1,20,l,MH SK,49,49,2022_Jul_26_1238,2020.2.10,distractmap1,59.97692090060416,"['Left Face', 'Right Arm', 'Left Face', 'Right Arm']",
6,"[0.2, 0]",1,0,2,2,2,,,None,None,"[0, 0, 0]",2098.337208899902,2100.337223399896,2098.337208899902,2099.3371967999265,2099.320540699875,2100.3205520000774,"[0, 0, 0]",1,2098.337208899902,2100.337223399896,,,,,,,,,,,,,,,,,,,4,M,1,20,l,MH SK,49,49,2022_Jul_26_1238,2020.2.10,distractmap1,59.97692090060416,"['Left Face', 'Right Arm', 'Left Face', 'Right Arm']",
4,"[-0.2, 0]",0,0,3,3,3,,,None,None,"[0, 0, 0]",2100.353892999934,2102.35390300001,2100.353892999934,2101.3538973999675,2101.337224500021,2102.3372365999967,"[0, 0, 0]",1,2100.353892999934,2102.35390300001,,,,,,,,,,,,,,,,,,,4,M,1,20,l,MH SK,49,49,2022_Jul_26_1238,2020.2.10,distractmap1,59.97692090060416,"['Left Face', 'Right Arm', 'Left Face', 'Right Arm']",
1,"[-0.2, 0.2]",0,0,4,4,4,,,None,None,"[0, 0, 0]",2102.437528899871,None,2102.437528899871,2103.437250399962,2103.42057810002,None,"[0, 0, 0]",1,2102.437528899871,None,,,,,,,,,,,,,,,,,,,4,M,1,20,l,MH SK,49,49,2022_Jul_26_1238,2020.2.10,distractmap1,59.97692090060416,"['Left Face', 'Right Arm', 'Left Face', 'Right Arm']",
8,"[0, -0.2]",0,0,5,5,5,,,None,None,"[0, 0, 0]",2104.3872426999733,2106.387271600077,2104.3872426999733,2105.387264699908,2105.3706111998763,2106.3706094999798,"[0, 0, 0]",1,2104.3872426999733,2106.387271600077,,,,,,,,,,,,,,,,,,,4,M,1,20,l,MH SK,49,49,2022_Jul_26_1238,2020.2.10,distractmap1,59.97692090060416,"['Left Face', 'Right Arm', 'Left Face', 'Right Arm']",
1,"[-0.2, 0.2]",1,0,6,6,6,,,None,None,"[0, 0, 0]",2106.403948900057,2108.4038337999955,2106.403948900057,2107.403951599961,2107.387283900054,2108.3872889000922,"[0, 0, 0]",1,2106.403948900057,2108.4038337999955,,,,,,,,,,,,,,,,,,,4,M,1,20,l,MH SK,49,49,2022_Jul_26_1238,2020.2.10,distractmap1,59.97692090060416,"['Left Face', 'Right Arm', 'Left Face', 'Right Arm']",
8,"[0, -0.2]",1,0,7,7,7,,,None,None,"[0, 0, 0]",2108.420625000028,2110.4206417000387,2108.420625000028,2109.4206278999336,2109.4039753999095,2110.403959200019,"[0, 0, 0]",1,2108.420625000028,2110.4206417000387,,,,,,,,,,,,,,,,,,,4,M,1,20,l,MH SK,49,49,2022_Jul_26_1238,2020.2.10,distractmap1,59.97692090060416,"['Left Face', 'Right Arm', 'Left Face', 'Right Arm']",
1,"[-0.2, 0.2]",1,0,8,8,8,,,None,None,"[0, 0, 0]",2110.4373129000887,2112.437317899894,2110.4373129000887,2111.4373280000873,2111.4206558000296,2112.4206638000906,"[0, 0, 0]",1,2110.4373129000887,2112.437317899894,,,,,,,,,,,,,,,,,,,4,M,1,20,l,MH SK,49,49,2022_Jul_26_1238,2020.2.10,distractmap1,59.97692090060416,"['Left Face', 'Right Arm', 'Left Face', 'Right Arm']",
6,"[0.2, 0]",0,0,9,9,9,,,None,None,"[0, 0, 0]",2112.4540041999426,2114.4540087999776,2112.4540041999426,2113.454000199912,2113.437322200043,2114.437353499932,"[0, 0, 0]",1,2112.4540041999426,2114.4540087999776,,,,,,,,,,,,,,,,,,,4,M,1,20,l,MH SK,49,49,2022_Jul_26_1238,2020.2.10,distractmap1,59.97692090060416,"['Left Face', 'Right Arm', 'Left Face', 'Right Arm']",
,,,,,,,,,,,,,,,,,,,,,,2114.4706778998952,None,,,,,,,,,,,,,,,,,4,M,1,20,l,MH SK,49,49,2022_Jul_26_1238,2020.2.10,distractmap1,59.97692090060416,"['Left Face', 'Right Arm', 'Left Face', 'Right Arm']",
,,,,,,,,,,,,,,,,,,,,,,,,,,,,,,,,,,44.629629629629626,2106.7357614098582,,,,,4,M,1,20,l,MH SK,49,49,2022_Jul_26_1238,2020.2.10,distractmap1,59.97692090060416,"['Left Face', 'Right Arm', 'Left Face', 'Right Arm']",
,,,,,,,2334.139297199901,None,,,,,,,,,,,,,,,,,,,2181.1546016999055,2181.1546016999055,None,space,108.99430679995567,2181.1546016999055,None,46.48148148148148,2327.050711010117,0.012956290040165186,5.008755290182307,2314.139144399902,None,4,M,1,20,l,MH SK,49,49,2022_Jul_26_1238,2020.2.10,distractmap1,59.97692090060416,"['Left Face', 'Right Arm', 'Left Face', 'Right Arm']",
,,,,,,,2369.156305399956,None,,,,,,,,,,,,,,,,,,,,,,,,,,46.35802469135803,2359.2855983101763,0.01664188993163407,5.016136290039867,2349.156117500039,None,4,M,1,20,l,MH SK,49,49,2022_Jul_26_1238,2020.2.10,distractmap1,59.97692090060416,"['Left Face', 'Right Arm', 'Left Face', 'Right Arm']",
,,,,,,,2404.173252499895,None,,,,,,,,,,,,,,,,,,,,,,,,,,44.44444444444444,2395.752881409833,0.015368189895525575,5.013608189998195,2384.173092100071,None,4,M,1,20,l,MH SK,49,49,2022_Jul_26_1238,2020.2.10,distractmap1,59.97692090060416,"['Left Face', 'Right Arm', 'Left Face', 'Right Arm']",
7,"[-0.2, -0.2]",None,0,0,0,0,2419.190094599966,None,None,None,"[0, 0, 0]",2424.1901169999037,2426.190128499875,2424.1901169999037,2425.190130099887,2425.190130099887,2426.190128499875,"[0, 0, 0]",1,2424.1901169999037,2426.190128499875,,,,,,,,,,,,,,,0.015085690189152956,5.013030790025368,,,4,M,1,20,l,MH SK,49,49,2022_Jul_26_1238,2020.2.10,distractmap1,59.97692090060416,"['Left Face', 'Right Arm', 'Left Face', 'Right Arm']",
7,"[-0.2, -0.2]",None,0,1,1,1,,,None,None,"[0, 0, 0]",2426.2068085998762,2428.2067966000177,2426.2068085998762,2427.2067972999066,2427.1901402999647,2428.190159199992,"[0, 0, 0]",1,2426.2068085998762,2428.2067966000177,,,,,,,,,,,,,,,,,,,4,M,1,20,l,MH SK,49,49,2022_Jul_26_1238,2020.2.10,distractmap1,59.97692090060416,"['Left Face', 'Right Arm', 'Left Face', 'Right Arm']",
7,"[-0.2, -0.2]",1,0,2,2,2,,,None,None,"[0, 0, 0]",2428.223466400057,2430.223501499975,2428.223466400057,2429.2234886998776,2429.2068346999586,2430.2068093998823,"[0, 0, 0]",1,2428.223466400057,2430.223501499975,,,,,,,,,,,,,,,,,,,4,M,1,20,l,MH SK,49,49,2022_Jul_26_1238,2020.2.10,distractmap1,59.97692090060416,"['Left Face', 'Right Arm', 'Left Face', 'Right Arm']",
5,"[0, 0]",0,0,3,3,3,,,None,None,"[0, 0, 0]",2430.2401823999826,2432.240193200065,2430.2401823999826,2431.2401870000176,2431.2235077000223,2432.2234954999294,"[0, 0, 0]",1,2430.2401823999826,2432.240193200065,,,,,,,,,,,,,,,,,,,4,M,1,20,l,MH SK,49,49,2022_Jul_26_1238,2020.2.10,distractmap1,59.97692090060416,"['Left Face', 'Right Arm', 'Left Face', 'Right Arm']",
1,"[-0.2, 0.2]",0,0,4,4,4,,,None,None,"[0, 0, 0]",2432.2568465999793,2434.2568669000175,2432.2568465999793,2433.256861299975,2433.240204700036,2434.240211199969,"[0, 0, 0]",1,2432.2568465999793,2434.2568669000175,,,,,,,,,,,,,,,,,,,4,M,1,20,l,MH SK,49,49,2022_Jul_26_1238,2020.2.10,distractmap1,59.97692090060416,"['Left Face', 'Right Arm', 'Left Face', 'Right Arm']",
6,"[0.2, 0]",0,0,5,5,5,,,None,None,"[0, 0, 0]",2434.2735432998743,2436.273540199967,2434.2735432998743,2435.273538599955,2435.256876199972,2436.2568856000435,"[0, 0, 0]",1,2434.2735432998743,2436.273540199967,,,,,,,,,,,,,,,,,,,4,M,1,20,l,MH SK,49,49,2022_Jul_26_1238,2020.2.10,distractmap1,59.97692090060416,"['Left Face', 'Right Arm', 'Left Face', 'Right Arm']",
1,"[-0.2, 0.2]",1,0,6,6,6,,,None,None,"[0, 0, 0]",2436.290220099967,2438.290250699967,2436.290220099967,2437.2902325999457,2437.273573699873,2438.273577200016,"[0, 0, 0]",1,2436.290220099967,2438.290250699967,,,,,,,,,,,,,,,,,,,4,M,1,20,l,MH SK,49,49,2022_Jul_26_1238,2020.2.10,distractmap1,59.97692090060416,"['Left Face', 'Right Arm', 'Left Face', 'Right Arm']",
7,"[-0.2, -0.2]",0,0,7,7,7,,,None,None,"[0, 0, 0]",2438.306910000043,2440.3069048000034,2438.306910000043,2439.306899700081,2439.290251800092,2440.2902663999703,"[0, 0, 0]",1,2438.306910000043,2440.3069048000034,,,,,,,,,,,,,,,,,,,4,M,1,20,l,MH SK,49,49,2022_Jul_26_1238,2020.2.10,distractmap1,59.97692090060416,"['Left Face', 'Right Arm', 'Left Face', 'Right Arm']",
6,"[0.2, 0]",0,0,8,8,8,,,None,None,"[0, 0, 0]",2440.3235810000915,2442.3236084999517,2440.3235810000915,2441.3235973999836,2441.306918699993,2442.306944000069,"[0, 0, 0]",1,2440.3235810000915,2442.3236084999517,,,,,,,,,,,,,,,,,,,4,M,1,20,l,MH SK,49,49,2022_Jul_26_1238,2020.2.10,distractmap1,59.97692090060416,"['Left Face', 'Right Arm', 'Left Face', 'Right Arm']",
7,"[-0.2, -0.2]",1,0,9,9,9,,,None,None,"[0, 0, 0]",2442.3402877000626,2444.3403034000657,2442.3402877000626,2443.340279399883,2443.3236197999213,2444.3236296998803,"[0, 0, 0]",1,2442.3402877000626,2444.3403034000657,,,,,,,,,,,,,,,,,,,4,M,1,20,l,MH SK,49,49,2022_Jul_26_1238,2020.2.10,distractmap1,59.97692090060416,"['Left Face', 'Right Arm', 'Left Face', 'Right Arm']",
,,,,,,,,,,,,,,,,,,,,,,2444.3569503999315,None,,,,,,,,,,,,,,,,,4,M,1,20,l,MH SK,49,49,2022_Jul_26_1238,2020.2.10,distractmap1,59.97692090060416,"['Left Face', 'Right Arm', 'Left Face', 'Right Arm']",
4,"[-0.2, 0]",None,0,0,0,0,2454.3736958999652,None,None,None,"[0, 0, 0]",2459.373715599999,2461.373772599967,2459.373715599999,2460.3737584999762,2460.357121600071,2461.35711309989,"[0, 0, 0]",1,2459.373715599999,2461.373772599967,,,,,,,,,,,,,,,,,,,4,M,1,20,l,MH SK,49,49,2022_Jul_26_1238,2020.2.10,distractmap1,59.97692090060416,"['Left Face', 'Right Arm', 'Left Face', 'Right Arm']",
5,"[0, 0]",None,0,1,1,1,,,None,None,"[0, 0, 0]",2461.3904432000127,2463.3904647999443,2461.3904432000127,2462.390450600069,2462.373785600066,2463.3738017999567,"[0, 0, 0]",1,2461.3904432000127,2463.3904647999443,,,,,,,,,,,,,,,,,,,4,M,1,20,l,MH SK,49,49,2022_Jul_26_1238,2020.2.10,distractmap1,59.97692090060416,"['Left Face', 'Right Arm', 'Left Face', 'Right Arm']",
6,"[0.2, 0]",0,0,2,2,2,,,None,None,"[0, 0, 0]",2463.407144200057,2465.407143600052,2463.407144200057,2464.40712670004,2464.3904685999732,2465.3904812999535,"[0, 0, 0]",1,2463.407144200057,2465.407143600052,,,,,,,,,,,,,,,,,,,4,M,1,20,l,MH SK,49,49,2022_Jul_26_1238,2020.2.10,distractmap1,59.97692090060416,"['Left Face', 'Right Arm', 'Left Face', 'Right Arm']",
1,"[-0.2, 0.2]",0,0,3,3,3,,,None,None,"[0, 0, 0]",2465.4238124999683,2467.423856300069,2465.4238124999683,2466.4238374000415,2466.4071625000797,2467.4071692000143,"[0, 0, 0]",1,2465.4238124999683,2467.423856300069,,,,,,,,,,,,,,,,,,,4,M,1,20,l,MH SK,49,49,2022_Jul_26_1238,2020.2.10,distractmap1,59.97692090060416,"['Left Face', 'Right Arm', 'Left Face', 'Right Arm']",
6,"[0.2, 0]",1,0,4,4,4,,,None,None,"[0, 0, 0]",2467.4405159000307,2469.4405066999607,2467.4405159000307,2468.440505400067,2468.423838699935,2469.423852399923,"[0, 0, 0]",1,2467.4405159000307,2469.4405066999607,,,,,,,,,,,,,,,,,,,4,M,1,20,l,MH SK,49,49,2022_Jul_26_1238,2020.2.10,distractmap1,59.97692090060416,"['Left Face', 'Right Arm', 'Left Face', 'Right Arm']",
1,"[-0.2, 0.2]",1,0,5,5,5,,,None,None,"[0, 0, 0]",2469.4571869000793,2471.457193699898,2469.4571869000793,2470.4572064999957,2470.440435800003,2471.4405187999364,"[0, 0, 0]",1,2469.4571869000793,2471.457193699898,,,,,,,,,,,,,,,,,,,4,M,1,20,l,MH SK,49,49,2022_Jul_26_1238,2020.2.10,distractmap1,59.97692090060416,"['Left Face', 'Right Arm', 'Left Face', 'Right Arm']",
2,"[0, 0.2]",0,0,6,6,6,,,None,None,"[0, 0, 0]",2471.473881199956,2473.4738894999027,2471.473881199956,2472.4738678000867,2472.4571648000274,2473.4572204998694,"[0, 0, 0]",1,2471.473881199956,2473.4738894999027,,,,,,,,,,,,,,,,,,,4,M,1,20,l,MH SK,49,49,2022_Jul_26_1238,2020.2.10,distractmap1,59.97692090060416,"['Left Face', 'Right Arm', 'Left Face', 'Right Arm']",
3,"[0.2, 0.2]",0,0,7,7,7,,,None,None,"[0, 0, 0]",2473.4905516998842,2475.490562000079,2473.4905516998842,2474.490562299965,2474.473886899883,2475.4738940999378,"[0, 0, 0]",1,2473.4905516998842,2475.490562000079,,,,,,,,,,,,,,,,,,,4,M,1,20,l,MH SK,49,49,2022_Jul_26_1238,2020.2.10,distractmap1,59.97692090060416,"['Left Face', 'Right Arm', 'Left Face', 'Right Arm']",
6,"[0.2, 0]",0,0,8,8,8,,,None,None,"[0, 0, 0]",2475.507269399939,2477.507248400012,2475.507269399939,2476.5072602999862,2476.490576900076,2477.4905896999408,"[0, 0, 0]",1,2475.507269399939,2477.507248400012,,,,,,,,,,,,,,,,,,,4,M,1,20,l,MH SK,49,49,2022_Jul_26_1238,2020.2.10,distractmap1,59.97692090060416,"['Left Face', 'Right Arm', 'Left Face', 'Right Arm']",
3,"[0.2, 0.2]",1,0,9,9,9,,,None,None,"[0, 0, 0]",2477.5239212000743,2479.5239403999876,2477.5239212000743,2478.5239333999343,2478.5072665000334,2479.5071886000223,"[0, 0, 0]",1,2477.5239212000743,2479.5239403999876,,,,,,,,,,,,,,,,,,,4,M,1,20,l,MH SK,49,49,2022_Jul_26_1238,2020.2.10,distractmap1,59.97692090060416,"['Left Face', 'Right Arm', 'Left Face', 'Right Arm']",
,,,,,,,,,,,,,,,,,,,,,,2479.5405947000254,None,,,,,,,,,,,,,,,,,4,M,1,20,l,MH SK,49,49,2022_Jul_26_1238,2020.2.10,distractmap1,59.97692090060416,"['Left Face', 'Right Arm', 'Left Face', 'Right Arm']",
2,"[0, 0.2]",None,0,0,0,0,2489.5573495000135,None,None,None,"[0, 0, 0]",2494.557405000087,2496.55733589991,2494.557405000087,2495.5574048000854,2495.540741099976,2496.5407592998818,"[0, 0, 0]",1,2494.557405000087,2496.55733589991,,,,,,,,,,,,,,,,,,,4,M,1,20,l,MH SK,49,49,2022_Jul_26_1238,2020.2.10,distractmap1,59.97692090060416,"['Left Face', 'Right Arm', 'Left Face', 'Right Arm']",
5,"[0, 0]",None,0,1,1,1,,,None,None,"[0, 0, 0]",2496.5740954999346,2498.574116999982,2496.5740954999346,2497.5740861999802,2497.557425200008,2498.557446300052,"[0, 0, 0]",1,2496.5740954999346,2498.574116999982,,,,,,,,,,,,,,,,,,,4,M,1,20,l,MH SK,49,49,2022_Jul_26_1238,2020.2.10,distractmap1,59.97692090060416,"['Left Face', 'Right Arm', 'Left Face', 'Right Arm']",
6,"[0.2, 0]",0,0,2,2,2,,,None,None,"[0, 0, 0]",2498.590779799968,2500.590796899982,2498.590779799968,2499.5907807999756,2499.5741222000215,2500.574120499892,"[0, 0, 0]",1,2498.590779799968,2500.590796899982,,,,,,,,,,,,,,,,,,,4,M,1,20,l,MH SK,49,49,2022_Jul_26_1238,2020.2.10,distractmap1,59.97692090060416,"['Left Face', 'Right Arm', 'Left Face', 'Right Arm']",
1,"[-0.2, 0.2]",0,0,3,3,3,,,None,None,"[0, 0, 0]",2500.60736740008,2502.6074661000166,2500.60736740008,2501.607482299907,2501.5908069999423,2502.59081409988,"[0, 0, 0]",1,2500.60736740008,2502.6074661000166,,,,,,,,,,,,,,,,,,,4,M,1,20,l,MH SK,49,49,2022_Jul_26_1238,2020.2.10,distractmap1,59.97692090060416,"['Left Face', 'Right Arm', 'Left Face', 'Right Arm']",
6,"[0.2, 0]",1,0,4,4,4,,,None,None,"[0, 0, 0]",2502.6241490000393,2504.624165999936,2502.6241490000393,2503.6241605000105,2503.6074725999497,2504.607483800035,"[0, 0, 0]",1,2502.6241490000393,2504.624165999936,,,,,,,,,,,,,,,,,,,4,M,1,20,l,MH SK,49,49,2022_Jul_26_1238,2020.2.10,distractmap1,59.97692090060416,"['Left Face', 'Right Arm', 'Left Face', 'Right Arm']",
6,"[0.2, 0]",0,0,5,5,5,,,None,None,"[0, 0, 0]",2504.6408428000286,2506.6408377999905,2504.6408428000286,2505.640823399881,2505.6241818000562,2506.6241913998965,"[0, 0, 0]",1,2504.6408428000286,2506.6408377999905,,,,,,,,,,,,,,,,,,,4,M,1,20,l,MH SK,49,49,2022_Jul_26_1238,2020.2.10,distractmap1,59.97692090060416,"['Left Face', 'Right Arm', 'Left Face', 'Right Arm']",
9,"[0.2, -0.2]",0,0,6,6,6,,,None,None,"[0, 0, 0]",2506.657519900007,2508.6575336998794,2506.657519900007,2507.6575207998976,2507.6408488000743,2508.640855100006,"[0, 0, 0]",1,2506.657519900007,2508.6575336998794,,,,,,,,,,,,,,,,,,,4,M,1,20,l,MH SK,49,49,2022_Jul_26_1238,2020.2.10,distractmap1,59.97692090060416,"['Left Face', 'Right Arm', 'Left Face', 'Right Arm']",
6,"[0.2, 0]",1,0,7,7,7,,,None,None,"[0, 0, 0]",2508.67420020001,2510.6742259999737,2508.67420020001,2509.674204000039,2509.6575448000804,2510.657554999925,"[0, 0, 0]",1,2508.67420020001,2510.6742259999737,,,,,,,,,,,,,,,,,,,4,M,1,20,l,MH SK,49,49,2022_Jul_26_1238,2020.2.10,distractmap1,59.97692090060416,"['Left Face', 'Right Arm', 'Left Face', 'Right Arm']",
3,"[0.2, 0.2]",0,0,8,8,8,,,None,None,"[0, 0, 0]",2510.6908887000754,2512.6909058000892,2510.6908887000754,2511.690889700083,2511.6742418999784,2512.674256599974,"[0, 0, 0]",1,2510.6908887000754,2512.6909058000892,,,,,,,,,,,,,,,,,,,4,M,1,20,l,MH SK,49,49,2022_Jul_26_1238,2020.2.10,distractmap1,59.97692090060416,"['Left Face', 'Right Arm', 'Left Face', 'Right Arm']",
