	onset	duration	rt	response	correct	bodySite	temperature	condition	pretrial-jitter
0	2.7667050000745803	7.778788600116968				Right Arm	49.0	2back Instructions	
1	12.787779600126669	1.998775189742446			1.0	Right Arm	32.0	2back-nostim	
2	14.798805500147864	2.0100367900449783			1.0	Right Arm	32.0	2back-nostim	5.0
3	16.815307600190863	2.0105189899913967	0.5002456000074744	0.0	1.0	Right Arm	32.0	2back-nostim	
4	18.831955600064248	2.010663190158084	0.0	2.0	1.0	Right Arm	32.0	2back-nostim	
5	20.84858760004863	2.010627589887008	0.0	2.0	1.0	Right Arm	32.0	2back-nostim	
6	22.865173200145364	2.0108266898896545	0.0	2.0	1.0	Right Arm	32.0	2back-nostim	
7	24.881869100034237	2.010822989977896	0.5669118999503553	0.0	1.0	Right Arm	32.0	2back-nostim	
8	26.898542100097984	2.0108377900905907	0.0	2.0	0.0	Right Arm	32.0	2back-nostim	
9	28.915351300034672	2.0105787902139127	1.000292700016871	0.0	1.0	Right Arm	32.0	2back-nostim	
10	30.931962800212204	2.010722090024501	0.0	2.0	1.0	Right Arm	32.0	2back-nostim	
11	37.955722300102934	42.96244290005416				Right Arm	49.0	2back Instructions	
12	47.9707218001131	1.9834932899102569			1.0	Right Arm	32.0	2back-nostim	
13	49.96597390016541	2.009694689884782			1.0	Right Arm	32.0	2back-nostim	5.0
14	51.98234420013614	2.0103033899795264	0.6525884999427944	0.0	1.0	Right Arm	32.0	2back-nostim	
15	53.998673000140116	2.0110868900083005	0.0	2.0	1.0	Right Arm	32.0	2back-nostim	
16	56.01572210015729	2.010233389912173	0.0	2.0	1.0	Right Arm	32.0	2back-nostim	
17	58.032260100124404	2.0106087899766862	0.0	2.0	1.0	Right Arm	32.0	2back-nostim	
18	60.049164100084454	2.010156889911741	0.41687919991090894	0.0	1.0	Right Arm	32.0	2back-nostim	
19	62.06563850003295	2.010603189934045	0.0	2.0	1.0	Right Arm	32.0	2back-nostim	
20	64.08241880009882	2.010404590051621	0.0	2.0	1.0	Right Arm	32.0	2back-nostim	
21	66.09881090000272	2.0108810900710523	0.7835295998957008	0.0	1.0	Right Arm	32.0	2back-nostim	
22	73.12312580016442	78.12941870000213				Right Arm	49.0	2back Instructions	
23	83.13756710011512	2.000443389872089			1.0	Right Arm	32.0	2back-nostim	
24	85.14948210003786	2.009961790172383			1.0	Right Arm	32.0	2back-nostim	5.0
25	87.16584060015157	2.0106533898506314	0.0	2.0	1.0	Right Arm	32.0	2back-nostim	
26	89.18242080020718	2.0108305900357664	0.0	2.0	1.0	Right Arm	32.0	2back-nostim	
27	91.19910150021315	2.0107535901479423	0.5002015000209212	0.0	1.0	Right Arm	32.0	2back-nostim	
28	93.21586070000194	2.010712089948356	0.8168711999896914	0.0	1.0	Right Arm	32.0	2back-nostim	
29	95.23252200009301	2.0107414899393916	0.0	2.0	1.0	Right Arm	32.0	2back-nostim	
30	97.24904980021529	2.0109655898995697	0.0	2.0	1.0	Right Arm	32.0	2back-nostim	
31	99.2659616000019	2.010597389889881	0.0	2.0	1.0	Right Arm	32.0	2back-nostim	
32	101.28266380005516	2.010566490003839	0.6169015001505613	0.0	1.0	Right Arm	32.0	2back-nostim	
33	113.31311160000041	20.00003219000064				Right Arm	49.0	Rest-Stim	7.0
34	133.3132907000836	3.01652828999795				Right Arm		PostTrialFixation	
35	136.31571610015817	5.012044490082189		50.864197530864196		Right Arm	49.0	Rest-Stim Rating	3.0
36	148.33009430021048	20.000017590122297				Right Arm	49.0	Rest-Stim	7.0
37	168.33028200012632	5.016538790194318				Right Arm		PostTrialFixation	
38	173.33218710008077	5.013148589991033		50.0		Right Arm	49.0	Rest-Stim Rating	5.0
39	183.34707150002941	20.000039090169594				Right Arm	49.0	Rest-Stim	5.0
40	203.34725620015524	5.0165460899006575				Right Arm		PostTrialFixation	
41	208.34979550004937	5.011859889840707		52.09876543209876		Right Arm	49.0	Rest-Stim Rating	5.0
42	213.35637710010633	218.36418460006826				Right Arm	32.0	2back Instructions	
43	223.38900600001216	2.0000523899216205			1.0	Right Arm	49.0	2back-stim	
44	225.4009032000322	2.0096003897488117			1.0	Right Arm	49.0	2back-stim	5.0
45	227.41700100013986	2.01079419022426	0.0	2.0	1.0	Right Arm	49.0	2back-stim	
46	229.43370739999227	2.0107711900491267	0.0	2.0	1.0	Right Arm	49.0	2back-stim	
47	231.48199250013568	1.9808863701764494	0.5665335000958294	0.0	1.0	Right Arm	49.0	2back-stim	
48	233.46718570007943	2.010545389726758	0.0	2.0	1.0	Right Arm	49.0	2back-stim	
49	235.4839264000766	2.010462089907378	0.0	2.0	1.0	Right Arm	49.0	2back-stim	
50	237.50040040002204	2.0108420900069177	0.5835715997964144	0.0	1.0	Right Arm	49.0	2back-stim	
51	239.51728700008243	2.010465889936313	0.0	2.0	1.0	Right Arm	49.0	2back-stim	
52	241.53397670015693	2.0104483899194747	0.0	2.0	1.0	Right Arm	49.0	2back-stim	
53	250.55218290002085	5.007940989919007		43.333333333333336		Right Arm	49.0	2back-stim Rating	7.0
54	255.55725569999777	260.5647096000612				Right Arm	32.0	2back Instructions	
55	263.5898423001636	1.9824134898371994			1.0	Right Arm	49.0	2back-stim	
56	265.5846826999914	2.00947998999618			1.0	Right Arm	49.0	2back-stim	3.0
57	267.6007517001126	2.0106991899665445	0.8002826001029462	0.0	1.0	Right Arm	49.0	2back-stim	
58	269.61744950013235	2.0106465900316834	0.0	2.0	1.0	Right Arm	49.0	2back-stim	
59	271.6793220001273	1.9536011703312397	0.0	2.0	1.0	Right Arm	49.0	2back-stim	
60	273.6508316001855	2.0106499900575727	0.0	2.0	1.0	Right Arm	49.0	2back-stim	
61	275.6673479001038	2.0109853900503367	0.0	2.0	1.0	Right Arm	49.0	2back-stim	
62	277.6841961001046	2.0106549898628145	0.0	2.0	1.0	Right Arm	49.0	2back-stim	
63	279.70092210010625	2.010579289868474	0.7168621998280287	0.0	1.0	Right Arm	49.0	2back-stim	
64	281.71745420014486	2.010877789929509	0.0	2.0	1.0	Right Arm	49.0	2back-stim	
65	286.7354611000046	5.008582389913499		42.65432098765432		Right Arm	49.0	2back-stim Rating	3.0
66	291.7402491001412	296.74836240010336				Right Arm	32.0	2back Instructions	
67	303.7728743001353	2.0004138899967074			1.0	Right Arm	49.0	2back-stim	
68	305.78490930004045	2.009710490005091			1.0	Right Arm	49.0	2back-stim	7.0
69	307.80103570013307	2.010815789923072	0.0	2.0	1.0	Right Arm	49.0	2back-stim	
70	309.81771640013903	2.0108930901624262	0.583553500007838	0.0	1.0	Right Arm	49.0	2back-stim	
71	311.88610960007645	1.9574214599560946	0.0	2.0	1.0	Right Arm	49.0	2back-stim	
72	313.85122990002856	2.0105526901315898	0.0	2.0	1.0	Right Arm	49.0	2back-stim	
73	315.86774110002443	2.0109000897500664	0.0	2.0	1.0	Right Arm	49.0	2back-stim	
74	317.88447190006264	2.0107248902786523	0.5335524000693113	0.0	1.0	Right Arm	49.0	2back-stim	
75	319.9012555000372	2.0106152901425958	0.0	2.0	1.0	Right Arm	49.0	2back-stim	
76	321.9178115001414	2.010881490074098	0.9503014001529664	0.0	1.0	Right Arm	49.0	2back-stim	
77	328.93614050000906	5.008173190057278		44.1358024691358		Right Arm	49.0	2back-stim Rating	5.0
78	338.9484423000831	20.000031489878893				Right Arm	32.0	Rest-NoStim	5.0
79	358.9486265000887	4.99989479011856				Right Arm		PostTrialFixation	
80	368.9487498002127	19.999998489860445				Right Arm	32.0	Rest-NoStim	5.0
81	388.94892550003715	3.0165119899902493				Right Arm		PostTrialFixation	
82	398.9510457001161	20.012591589940712				Right Arm	32.0	Rest-NoStim	7.0
83	418.9508832001593	3.0131361896637827				Right Arm		PostTrialFixation	
84	428.9659644002095	19.999983390094712				Right Arm	49.0	Rest-Stim	7.0
85	448.96608970011584	4.999914990039542				Right Arm		PostTrialFixation	
86	453.9665326999966	5.016113089863211		55.55555555555556		Right Arm	49.0	Rest-Stim Rating	5.0
87	463.9829141001683	20.000028989976272				Right Arm	49.0	Rest-Stim	5.0
88	483.9831056999974	5.016529789892957				Right Arm		PostTrialFixation	
89	488.9854346001521	5.0122750899754465		56.851851851851855		Right Arm	49.0	Rest-Stim Rating	5.0
90	498.99988480005413	20.000029489863664				Right Arm	49.0	Rest-Stim	5.0
91	519.0000831000507	5.0165437899995595				Right Arm		PostTrialFixation	
92	524.0028519001789	5.011375589994714		57.407407407407405		Right Arm	49.0	Rest-Stim Rating	5.0
93	529.0097802001983	534.0171419000253				Right Arm	32.0	2back Instructions	
94	539.0416036001407	2.000500689726323			1.0	Right Arm	49.0	2back-stim	
95	541.0537885001395	2.009489889955148			1.0	Right Arm	49.0	2back-stim	5.0
96	543.0698097001296	2.0108716902323067	0.8502225000411272	0.0	1.0	Right Arm	49.0	2back-stim	
97	545.0864717001095	2.0108761901501566	0.0	2.0	1.0	Right Arm	49.0	2back-stim	
98	547.1637173001654	1.9397391602396965	0.5332692000083625	0.0	1.0	Right Arm	49.0	2back-stim	
99	549.1198408000637	2.0108860903419554	0.0	2.0	1.0	Right Arm	49.0	2back-stim	
100	551.1365483000409	2.0108081900980324	0.0	2.0	1.0	Right Arm	49.0	2back-stim	
101	553.1532896000426	2.0106936902739108	0.0	2.0	1.0	Right Arm	49.0	2back-stim	
102	555.1699857001659	2.0107023902237415	0.0	2.0	1.0	Right Arm	49.0	2back-stim	
103	557.186542800162	2.0109467902220786	0.0	2.0	0.0	Right Arm	49.0	2back-stim	
104	566.2043185001239	5.009217590093613		45.74074074074074		Right Arm	49.0	2back-stim Rating	7.0
105	571.2091748001985	576.2175032000523				Right Arm	32.0	2back Instructions	
106	579.2423197000753	1.9999223900958896			1.0	Right Arm	49.0	2back-stim	
107	581.2540555000305	2.0096924901008606			1.0	Right Arm	49.0	2back-stim	3.0
108	583.2702757001389	2.0106036900542676	0.0	2.0	1.0	Right Arm	49.0	2back-stim	
109	585.2869796000887	2.010617289924994	0.0	2.0	1.0	Right Arm	49.0	2back-stim	
110	587.355226200074	1.9574441600125283	0.5663397000171244	0.0	1.0	Right Arm	49.0	2back-stim	
111	589.3203613001388	2.010556689929217	0.0	2.0	1.0	Right Arm	49.0	2back-stim	
112	591.3368305000477	2.010995490010828	0.6168880998156965	0.0	1.0	Right Arm	49.0	2back-stim	
113	593.3536813000683	2.01063738996163	0.0	2.0	1.0	Right Arm	49.0	2back-stim	
114	595.3702136999927	2.0109451899770647	1.1003265001345426	0.0	1.0	Right Arm	49.0	2back-stim	
115	597.3869486001786	2.0108825899660587	0.0	2.0	0.0	Right Arm	49.0	2back-stim	
116	604.4043267001398	5.009906290099025		44.629629629629626		Right Arm	49.0	2back-stim Rating	5.0
117	609.4102319001686	614.4178365999833				Right Arm	32.0	2back Instructions	
118	619.4423162001185	2.0005126900505275			1.0	Right Arm	49.0	2back-stim	
119	621.454363900004	2.009784889873117			1.0	Right Arm	49.0	2back-stim	5.0
120	623.4705365002155	2.01081358990632	0.6168634002096951	0.0	1.0	Right Arm	49.0	2back-stim	
121	625.4871939001605	2.010872389888391	0.0	2.0	1.0	Right Arm	49.0	2back-stim	
122	627.5646291000303	1.9393520602025092	0.0	2.0	1.0	Right Arm	49.0	2back-stim	
123	629.5206548001152	2.0106836897321045	0.0	2.0	1.0	Right Arm	49.0	2back-stim	
124	631.5373054000083	2.0107504902407527	0.43355760001577437	0.0	1.0	Right Arm	49.0	2back-stim	
125	633.5542423001025	2.010095790028572	0.5835448000580072	0.0	1.0	Right Arm	49.0	2back-stim	
126	635.57057550014	2.0109579900745302	0.7835500000510365	0.0	1.0	Right Arm	49.0	2back-stim	
127	637.5873792001512	2.010713790077716	0.0	2.0	1.0	Right Arm	49.0	2back-stim	
128	646.6052691000514	5.008755290182307		44.629629629629626		Right Arm	49.0	2back-stim Rating	7.0
