RestT1,TaskT1,square,location,corrAns,counterbalancer.thisRepN,counterbalancer.thisTrialN,counterbalancer.thisN,counterbalancer.thisIndex,RestT1Loop.thisRepN,RestT1Loop.thisTrialN,RestT1Loop.thisN,RestT1Loop.thisIndex,TaskT1Loop.thisRepN,TaskT1Loop.thisTrialN,TaskT1Loop.thisN,TaskT1Loop.thisIndex,trials_2.thisRepN,trials_2.thisTrialN,trials_2.thisN,trials_2.thisIndex,fixation_1.started,fixation_1.stopped,NbackInstructions.started,NbackInstructions.stopped,NbackStart.keys,NbackStart.rt,NbackStart.started,NbackStart.stopped,fixation_2.started,fixation_2.stopped,response_2.x,response_2.y,response_2.leftButton,grid_lines_2.started,grid_lines_2.stopped,target_square_2.started,target_square_2.stopped,fixation_3.started,fixation_3.stopped,response_2.click,response_2.corr,response_2.started,response_2.stopped,subject number,gender,session,handedness,scanner,date,expName,psychopyVersion,frameRate,
1,0,,,,0,0,0,0,0,0,0,0,,,,,,,,,69.38828489999287,None,,,,,,,,,,,,,,,,,,,,,,3,f,24,l,MCK,2022_Jan_05_1150,WASABI Nback,2020.2.10,59.98059024492412,
0,1,,,,0,1,1,1,,,,,0,0,0,0,,,,,,,339.67375759989955,None,space,55.05964759993367,339.67375759989955,None,,,,,,,,,,,,,,,,3,f,24,l,MCK,2022_Jan_05_1150,WASABI Nback,2020.2.10,59.98059024492412,
0,1,5,"[0, 0]",None,0,1,1,1,,,,,0,0,0,0,0,0,0,0,,,,,,,,,None,None,None,None,0,395.95753899984993,None,395.95753899984993,396.9575504998211,396.94089460000396,None,0,1,395.95753899984993,None,3,f,24,l,MCK,2022_Jan_05_1150,WASABI Nback,2020.2.10,59.98059024492412,
0,1,2,"[0, 0.2]",None,0,1,1,1,,,,,0,0,0,0,0,1,1,1,,,,,,,,,,,None,None,0,397.77422539982945,None,397.77422539982945,398.7742369999178,398.75756499986164,399.75758729991503,0,1,397.77422539982945,None,3,f,24,l,MCK,2022_Jan_05_1150,WASABI Nback,2020.2.10,59.98059024492412,
0,1,6,"[0.2, 0]",None,0,1,1,1,,,,,0,0,0,0,0,2,2,2,,,,,,,,,,,None,None,0,399.77424539998174,None,399.77424539998174,400.77426219987683,400.7575911998283,401.75759519985877,0,1,399.77424539998174,None,3,f,24,l,MCK,2022_Jan_05_1150,WASABI Nback,2020.2.10,59.98059024492412,
0,1,9,"[0.2, -0.2]",None,0,1,1,1,,,,,0,0,0,0,0,3,3,3,,,,,,,,,,,None,None,0,401.77427269984037,None,401.77427269984037,402.77427089982666,402.7575958999805,403.7576030998025,0,1,401.77427269984037,None,3,f,24,l,MCK,2022_Jan_05_1150,WASABI Nback,2020.2.10,59.98059024492412,
0,1,3,"[0.2, 0.2]",None,0,1,1,1,,,,,0,0,0,0,0,4,4,4,,,,,,,,,,,None,None,0,403.7742651000153,None,403.7742651000153,404.7742686998099,404.7576235998422,405.75760559993796,0,1,403.7742651000153,None,3,f,24,l,MCK,2022_Jan_05_1150,WASABI Nback,2020.2.10,59.98059024492412,
0,1,9,"[0.2, -0.2]",1,0,1,1,1,,,,,0,0,0,0,0,5,5,5,,,,,,,,,,,None,None,0,405.774298499804,None,405.774298499804,406.7743044998497,406.75764389988035,407.75764569989406,0,1,405.774298499804,None,3,f,24,l,MCK,2022_Jan_05_1150,WASABI Nback,2020.2.10,59.98059024492412,
0,1,7,"[-0.2, -0.2]",None,0,1,1,1,,,,,0,0,0,0,0,6,6,6,,,,,,,,,,,None,None,0,407.77432909980416,None,407.77432909980416,408.7743201998528,408.7576470999047,409.7576613998972,0,1,407.77432909980416,None,3,f,24,l,MCK,2022_Jan_05_1150,WASABI Nback,2020.2.10,59.98059024492412,
0,1,1,"[-0.2, 0.2]",None,0,1,1,1,,,,,0,0,0,0,0,7,7,7,,,,,,,,,,,None,None,0,409.7743266997859,None,409.7743266997859,410.7743302998133,410.75765939988196,411.75766849983484,0,1,409.7743266997859,None,3,f,24,l,MCK,2022_Jan_05_1150,WASABI Nback,2020.2.10,59.98059024492412,
0,1,5,"[0, 0]",None,0,1,1,1,,,,,0,0,0,0,0,8,8,8,,,,,,,,,,,None,None,0,411.77434729994275,None,411.77434729994275,412.77435399987735,412.7576811998151,413.7577006998472,0,1,411.77434729994275,None,3,f,24,l,MCK,2022_Jan_05_1150,WASABI Nback,2020.2.10,59.98059024492412,
0,1,7,"[-0.2, -0.2]",None,0,1,1,1,,,,,0,0,0,0,0,9,9,9,,,,,,,,,,,None,None,0,413.7743576997891,None,413.7743576997891,414.77436589985155,414.75769789982587,415.75769609981216,0,0,413.7743576997891,None,3,f,24,l,MCK,2022_Jan_05_1150,WASABI Nback,2020.2.10,59.98059024492412,
0,1,5,"[0, 0]",1,0,1,1,1,,,,,0,0,0,0,0,10,10,10,,,,,,,,,,,None,None,0,415.7743810999673,None,415.7743810999673,416.77438819990493,416.7577053999994,417.75772459991276,0,0,415.7743810999673,None,3,f,24,l,MCK,2022_Jan_05_1150,WASABI Nback,2020.2.10,59.98059024492412,
0,1,6,"[0.2, 0]",None,0,1,1,1,,,,,0,0,0,0,0,11,11,11,,,,,,,,,,,None,None,0,417.77439069980755,None,417.77439069980755,418.77439489983954,418.7577343999874,419.7577360998839,0,1,417.77439069980755,None,3,f,24,l,MCK,2022_Jan_05_1150,WASABI Nback,2020.2.10,59.98059024492412,
0,1,3,"[0.2, 0.2]",None,0,1,1,1,,,,,0,0,0,0,0,12,12,12,,,,,,,,,,,None,None,0,419.77440519980155,None,419.77440519980155,420.77443189988844,420.757749899989,421.7577446999494,0,1,419.77440519980155,None,3,f,24,l,MCK,2022_Jan_05_1150,WASABI Nback,2020.2.10,59.98059024492412,
0,1,6,"[0.2, 0]",1,0,1,1,1,,,,,0,0,0,0,0,13,13,13,,,,,,,,,,,None,None,0,421.77442539995536,None,421.77442539995536,422.7744273999706,422.75776269985363,423.7577841000166,0,0,421.77442539995536,None,3,f,24,l,MCK,2022_Jan_05_1150,WASABI Nback,2020.2.10,59.98059024492412,
0,1,8,"[0, -0.2]",None,0,1,1,1,,,,,0,0,0,0,0,14,14,14,,,,,,,,,,,None,None,0,423.7744348999113,None,423.7744348999113,424.7743418000173,424.7577770999633,425.7577805998735,0,1,423.7744348999113,None,3,f,24,l,MCK,2022_Jan_05_1150,WASABI Nback,2020.2.10,59.98059024492412,
0,1,9,"[0.2, -0.2]",None,0,1,1,1,,,,,0,0,0,0,0,15,15,15,,,,,,,,,,,None,None,0,425.7744578998536,None,425.7744578998536,426.7744708999526,426.757786099799,427.75780739984475,0,1,425.7744578998536,None,3,f,24,l,MCK,2022_Jan_05_1150,WASABI Nback,2020.2.10,59.98059024492412,
0,1,9,"[0.2, -0.2]",None,0,1,1,1,,,,,0,0,0,0,0,16,16,16,,,,,,,,,,,None,None,0,427.77447509998456,None,427.77447509998456,428.77448909985833,428.7578053998295,429.7578377998434,0,1,427.77447509998456,None,3,f,24,l,MCK,2022_Jan_05_1150,WASABI Nback,2020.2.10,59.98059024492412,
0,1,1,"[-0.2, 0.2]",None,0,1,1,1,,,,,0,0,0,0,0,17,17,17,,,,,,,,,,,None,None,0,429.77448389981873,None,429.77448389981873,430.7744983998127,430.7578292998951,431.75783219980076,0,1,429.77448389981873,None,3,f,24,l,MCK,2022_Jan_05_1150,WASABI Nback,2020.2.10,59.98059024492412,
0,1,3,"[0.2, 0.2]",None,0,1,1,1,,,,,0,0,0,0,0,18,18,18,,,,,,,,,,,None,None,0,431.77450329996645,None,431.77450329996645,432.7745033998508,432.75786279980093,433.75788369984366,0,1,431.77450329996645,None,3,f,24,l,MCK,2022_Jan_05_1150,WASABI Nback,2020.2.10,59.98059024492412,
0,1,5,"[0, 0]",None,0,1,1,1,,,,,0,0,0,0,0,19,19,19,,,,,,,,,,,None,None,0,433.7745217999909,None,433.7745217999909,434.77453219983727,434.75786979985423,435.75788009981625,0,1,433.7745217999909,None,3,f,24,l,MCK,2022_Jan_05_1150,WASABI Nback,2020.2.10,59.98059024492412,
0,1,3,"[0.2, 0.2]",1,0,1,1,1,,,,,0,0,0,0,0,20,20,20,,,,,,,,,,,None,None,0,435.77453899988905,None,435.77453899988905,436.77454959996976,436.75789299979806,437.75787269999273,0,1,435.77453899988905,None,3,f,24,l,MCK,2022_Jan_05_1150,WASABI Nback,2020.2.10,59.98059024492412,
0,1,4,"[-0.2, 0]",None,0,1,1,1,,,,,0,0,0,0,0,21,21,21,,,,,,,,,,,None,None,0,437.7745428998023,None,437.7745428998023,438.77455869992264,438.75788920000196,439.7578939998057,0,1,437.7745428998023,None,3,f,24,l,MCK,2022_Jan_05_1150,WASABI Nback,2020.2.10,59.98059024492412,
0,1,7,"[-0.2, -0.2]",None,0,1,1,1,,,,,0,0,0,0,0,22,22,22,,,,,,,,,,,None,None,0,439.77457179990597,None,439.77457179990597,440.77458460000344,440.75790450000204,441.75793369999155,0,1,439.77457179990597,None,3,f,24,l,MCK,2022_Jan_05_1150,WASABI Nback,2020.2.10,59.98059024492412,
0,1,4,"[-0.2, 0]",1,0,1,1,1,,,,,0,0,0,0,0,23,23,23,,,,,,,,,,,None,None,0,441.7745864999015,None,441.7745864999015,442.77459979988635,442.75793179986067,443.7579322999809,0,1,441.7745864999015,None,3,f,24,l,MCK,2022_Jan_05_1150,WASABI Nback,2020.2.10,59.98059024492412,
0,1,4,"[-0.2, 0]",None,0,1,1,1,,,,,0,0,0,0,0,24,24,24,,,,,,,,,,,None,None,0,443.77460229978897,None,443.77460229978897,444.7746132998727,444.7579528999049,445.75795849994756,0,1,443.77460229978897,None,3,f,24,l,MCK,2022_Jan_05_1150,WASABI Nback,2020.2.10,59.98059024492412,
0,1,5,"[0, 0]",None,0,1,1,1,,,,,0,0,0,0,0,25,25,25,,,,,,,,,,,None,None,0,445.77461769990623,None,445.77461769990623,446.7746089999564,446.75798180000857,447.75795719982125,0,1,445.77461769990623,None,3,f,24,l,MCK,2022_Jan_05_1150,WASABI Nback,2020.2.10,59.98059024492412,
0,1,2,"[0, 0.2]",None,0,1,1,1,,,,,0,0,0,0,0,26,26,26,,,,,,,,,,,None,None,0,447.7746369999368,None,447.7746369999368,448.77464379998855,448.75796730001457,449.757885399973,0,1,447.7746369999368,None,3,f,24,l,MCK,2022_Jan_05_1150,WASABI Nback,2020.2.10,59.98059024492412,
0,1,6,"[0.2, 0]",None,0,1,1,1,,,,,0,0,0,0,0,27,27,27,,,,,,,,,,,None,None,0,449.77464939979836,None,449.77464939979836,450.7746619998943,450.7580031999387,451.7580098998733,0,1,449.77464939979836,None,3,f,24,l,MCK,2022_Jan_05_1150,WASABI Nback,2020.2.10,59.98059024492412,
0,1,7,"[-0.2, -0.2]",None,0,1,1,1,,,,,0,0,0,0,0,28,28,28,,,,,,,,,,,None,None,0,451.77467149985023,None,451.77467149985023,452.77468049991876,452.75802679988556,453.7580305999145,0,1,451.77467149985023,None,3,f,24,l,MCK,2022_Jan_05_1150,WASABI Nback,2020.2.10,59.98059024492412,
0,1,6,"[0.2, 0]",1,0,1,1,1,,,,,0,0,0,0,0,29,29,29,,,,,,,,,,,None,None,0,453.7746806999203,None,453.7746806999203,454.77469809981994,454.7580273998901,455.75790439988486,0,0,453.7746806999203,None,3,f,24,l,MCK,2022_Jan_05_1150,WASABI Nback,2020.2.10,59.98059024492412,
0,1,6,"[0.2, 0]",None,0,1,1,1,,,,,0,0,0,0,0,30,30,30,,,,,,,,,,,None,None,0,455.77468959987164,None,455.77468959987164,456.7747137998231,456.75803559995256,457.75805249996483,0,1,455.77468959987164,None,3,f,24,l,MCK,2022_Jan_05_1150,WASABI Nback,2020.2.10,59.98059024492412,
0,1,7,"[-0.2, -0.2]",None,0,1,1,1,,,,,0,0,0,0,0,31,31,31,,,,,,,,,,,None,None,0,457.7747059999965,None,457.7747059999965,458.77471519983374,458.758063999936,459.75807959982194,0,1,457.7747059999965,None,3,f,24,l,MCK,2022_Jan_05_1150,WASABI Nback,2020.2.10,59.98059024492412,
0,1,6,"[0.2, 0]",1,0,1,1,1,,,,,0,0,0,0,0,32,32,32,,,,,,,,,,,None,None,0,459.7747302998323,None,459.7747302998323,460.7747594998218,460.7580801998265,461.7579657000024,0,1,459.7747302998323,None,3,f,24,l,MCK,2022_Jan_05_1150,WASABI Nback,2020.2.10,59.98059024492412,
0,1,2,"[0, 0.2]",None,0,1,1,1,,,,,0,0,0,0,0,33,33,33,,,,,,,,,,,None,None,0,461.7747455998324,None,461.7747455998324,462.77475250000134,462.758102199994,463.75798260001466,0,1,461.7747455998324,None,3,f,24,l,MCK,2022_Jan_05_1150,WASABI Nback,2020.2.10,59.98059024492412,
0,1,5,"[0, 0]",None,0,1,1,1,,,,,0,0,0,0,0,34,34,34,,,,,,,,,,,None,None,0,463.7747665999923,None,463.7747665999923,464.77477209991775,464.7581226998009,465.75810749991797,0,1,463.7747665999923,None,3,f,24,l,MCK,2022_Jan_05_1150,WASABI Nback,2020.2.10,59.98059024492412,
0,1,4,"[-0.2, 0]",None,0,1,1,1,,,,,0,0,0,0,0,35,35,35,,,,,,,,,,,None,None,0,465.77478169999085,None,465.77478169999085,466.774793199962,466.75820869999006,467.75811399985105,0,1,465.77478169999085,None,3,f,24,l,MCK,2022_Jan_05_1150,WASABI Nback,2020.2.10,59.98059024492412,
0,1,4,"[-0.2, 0]",None,0,1,1,1,,,,,0,0,0,0,0,36,36,36,,,,,,,,,,,None,None,0,467.77479699999094,None,467.77479699999094,468.77480709995143,468.75814759987406,469.75815199990757,0,1,467.77479699999094,None,3,f,24,l,MCK,2022_Jan_05_1150,WASABI Nback,2020.2.10,59.98059024492412,
0,1,7,"[-0.2, -0.2]",None,0,1,1,1,,,,,0,0,0,0,0,37,37,37,,,,,,,,,,,None,None,0,469.77481659990735,None,469.77481659990735,470.7748238998465,470.7581720999442,471.7580496999435,0,1,469.77481659990735,None,3,f,24,l,MCK,2022_Jan_05_1150,WASABI Nback,2020.2.10,59.98059024492412,
0,1,4,"[-0.2, 0]",1,0,1,1,1,,,,,0,0,0,0,0,38,38,38,,,,,,,,,,,None,None,0,471.7748182998039,None,471.7748182998039,472.7748355998192,472.75817429996096,473.7581725998316,0,1,471.7748182998039,None,3,f,24,l,MCK,2022_Jan_05_1150,WASABI Nback,2020.2.10,59.98059024492412,
0,1,3,"[0.2, 0.2]",None,0,1,1,1,,,,,0,0,0,0,0,39,39,39,,,,,,,,,,,None,None,0,473.7748552998528,None,473.7748552998528,474.77486699982546,474.75819369987585,475.7582023998257,0,1,473.7748552998528,None,3,f,24,l,MCK,2022_Jan_05_1150,WASABI Nback,2020.2.10,59.98059024492412,
0,1,5,"[0, 0]",None,0,1,1,1,,,,,0,0,0,0,0,40,40,40,,,,,,,,,,,None,None,0,475.7748736999929,None,475.7748736999929,476.774867199827,476.75822680001147,477.7582178998273,0,1,475.7748736999929,None,3,f,24,l,MCK,2022_Jan_05_1150,WASABI Nback,2020.2.10,59.98059024492412,
0,1,3,"[0.2, 0.2]",1,0,1,1,1,,,,,0,0,0,0,0,41,41,41,,,,,,,,,,,None,None,0,477.77488049981184,None,477.77488049981184,478.774880599929,478.75822580000386,479.7580854999833,0,1,477.77488049981184,None,3,f,24,l,MCK,2022_Jan_05_1150,WASABI Nback,2020.2.10,59.98059024492412,
0,1,1,"[-0.2, 0.2]",None,0,1,1,1,,,,,0,0,0,0,0,42,42,42,,,,,,,,,,,None,None,0,479.7749000999611,None,479.7749000999611,480.7749153999612,480.758248699829,481.7582550998777,0,1,479.7749000999611,None,3,f,24,l,MCK,2022_Jan_05_1150,WASABI Nback,2020.2.10,59.98059024492412,
0,1,9,"[0.2, -0.2]",None,0,1,1,1,,,,,0,0,0,0,0,43,43,43,,,,,,,,,,,None,None,0,481.7749136998318,None,481.7749136998318,482.77489939983934,482.7582670999691,483.7582678999752,0,1,481.7749136998318,None,3,f,24,l,MCK,2022_Jan_05_1150,WASABI Nback,2020.2.10,59.98059024492412,
0,1,9,"[0.2, -0.2]",None,0,1,1,1,,,,,0,0,0,0,0,44,44,44,,,,,,,,,,,None,None,0,483.77492859982885,None,483.77492859982885,484.7749437999446,484.75827859994024,485.7582804998383,0,1,483.77492859982885,None,3,f,24,l,MCK,2022_Jan_05_1150,WASABI Nback,2020.2.10,59.98059024492412,
0,1,8,"[0, -0.2]",None,0,1,1,1,,,,,0,0,0,0,0,45,45,45,,,,,,,,,,,None,None,0,485.77492939983495,None,485.77492939983495,486.77495679981075,486.75830649980344,487.7582961998414,0,1,485.77492939983495,None,3,f,24,l,MCK,2022_Jan_05_1150,WASABI Nback,2020.2.10,59.98059024492412,
0,1,6,"[0.2, 0]",None,0,1,1,1,,,,,0,0,0,0,0,46,46,46,,,,,,,,,,,None,None,0,487.77495969994925,None,487.77495969994925,488.77496799989603,488.75830079987645,489.75831939978525,0,1,487.77495969994925,None,3,f,24,l,MCK,2022_Jan_05_1150,WASABI Nback,2020.2.10,59.98059024492412,
0,1,3,"[0.2, 0.2]",None,0,1,1,1,,,,,0,0,0,0,0,47,47,47,,,,,,,,,,,None,None,0,489.7749753999524,None,489.7749753999524,490.7749873998109,490.75830469978973,491.7583254999481,0,1,489.7749753999524,None,3,f,24,l,MCK,2022_Jan_05_1150,WASABI Nback,2020.2.10,59.98059024492412,
0,1,6,"[0.2, 0]",1,0,1,1,1,,,,,0,0,0,0,0,48,48,48,,,,,,,,,,,None,None,0,491.77499329997227,None,491.77499329997227,492.7750019999221,492.75832019979134,493.7583428998478,0,1,491.77499329997227,None,3,f,24,l,MCK,2022_Jan_05_1150,WASABI Nback,2020.2.10,59.98059024492412,
0,1,5,"[0, 0]",None,0,1,1,1,,,,,0,0,0,0,0,49,49,49,,,,,,,,,,,None,None,0,493.77502409997396,None,493.77502409997396,494.77502129995264,494.7583431999665,495.75835799984634,0,1,493.77502409997396,None,3,f,24,l,MCK,2022_Jan_05_1150,WASABI Nback,2020.2.10,59.98059024492412,
0,1,7,"[-0.2, -0.2]",None,0,1,1,1,,,,,0,0,0,0,0,50,50,50,,,,,,,,,,,None,None,0,495.77502459986135,None,495.77502459986135,496.7750373999588,496.75837299996056,497.7583617998753,0,1,495.77502459986135,None,3,f,24,l,MCK,2022_Jan_05_1150,WASABI Nback,2020.2.10,59.98059024492412,
0,1,5,"[0, 0]",1,0,1,1,1,,,,,0,0,0,0,0,51,51,51,,,,,,,,,,,None,None,0,497.7750458999071,None,497.7750458999071,498.7750515998341,498.75874809990637,499.75838669994846,0,1,497.7750458999071,None,3,f,24,l,MCK,2022_Jan_05_1150,WASABI Nback,2020.2.10,59.98059024492412,
0,1,1,"[-0.2, 0.2]",None,0,1,1,1,,,,,0,0,0,0,0,52,52,52,,,,,,,,,,,None,None,0,499.77506549982354,None,499.77506549982354,500.7750795998145,500.75839649979025,501.75841379980557,0,1,499.77506549982354,None,3,f,24,l,MCK,2022_Jan_05_1150,WASABI Nback,2020.2.10,59.98059024492412,
0,1,7,"[-0.2, -0.2]",None,0,1,1,1,,,,,0,0,0,0,0,53,53,53,,,,,,,,,,,None,None,0,501.77508439985104,None,501.77508439985104,502.77509939996526,502.7584214999806,503.7584160999395,0,1,501.77508439985104,None,3,f,24,l,MCK,2022_Jan_05_1150,WASABI Nback,2020.2.10,59.98059024492412,
0,1,9,"[0.2, -0.2]",None,0,1,1,1,,,,,0,0,0,0,0,54,54,54,,,,,,,,,,,None,None,0,503.7750976998359,None,503.7750976998359,504.7751044998877,504.7584447998088,505.75844379980117,0,1,503.7750976998359,None,3,f,24,l,MCK,2022_Jan_05_1150,WASABI Nback,2020.2.10,59.98059024492412,
0,1,3,"[0.2, 0.2]",None,0,1,1,1,,,,,0,0,0,0,0,55,55,55,,,,,,,,,,,None,None,0,505.77510529989377,None,505.77510529989377,506.77513329987414,506.75843509985134,507.75844519981183,0,1,505.77510529989377,None,3,f,24,l,MCK,2022_Jan_05_1150,WASABI Nback,2020.2.10,59.98059024492412,
0,1,9,"[0.2, -0.2]",1,0,1,1,1,,,,,0,0,0,0,0,56,56,56,,,,,,,,,,,None,None,0,507.77513849991374,None,507.77513849991374,508.77513669990003,508.7584710000083,509.75847129989415,0,1,507.77513849991374,None,3,f,24,l,MCK,2022_Jan_05_1150,WASABI Nback,2020.2.10,59.98059024492412,
0,1,6,"[0.2, 0]",None,0,1,1,1,,,,,0,0,0,0,0,57,57,57,,,,,,,,,,,None,None,0,509.77514459984377,None,509.77514459984377,510.77515989984386,510.7584876997862,511.7584139998071,0,1,509.77514459984377,None,3,f,24,l,MCK,2022_Jan_05_1150,WASABI Nback,2020.2.10,59.98059024492412,
0,1,2,"[0, 0.2]",None,0,1,1,1,,,,,0,0,0,0,0,58,58,58,,,,,,,,,,,None,None,0,511.7751732999459,None,511.7751732999459,512.7751697998028,512.7585114999674,513.7584941999521,0,1,511.7751732999459,None,3,f,24,l,MCK,2022_Jan_05_1150,WASABI Nback,2020.2.10,59.98059024492412,
0,1,5,"[0, 0]",None,0,1,1,1,,,,,0,0,0,0,0,59,59,59,,,,,,,,,,,None,None,0,513.7751835999079,None,513.7751835999079,514.7751821998972,514.7585105998442,515.7585102999583,0,1,513.7751835999079,None,3,f,24,l,MCK,2022_Jan_05_1150,WASABI Nback,2020.2.10,59.98059024492412,
0,1,5,"[0, 0]",None,0,1,1,1,,,,,0,0,0,0,0,60,60,60,,,,,,,,,,,None,None,0,515.7751857999247,None,515.7751857999247,516.7752029998228,516.7585217999294,517.758542999858,0,1,515.7751857999247,None,3,f,24,l,MCK,2022_Jan_05_1150,WASABI Nback,2020.2.10,59.98059024492412,
0,1,2,"[0, 0.2]",None,0,1,1,1,,,,,0,0,0,0,0,61,61,61,,,,,,,,,,,None,None,0,517.7752111000009,None,517.7752111000009,518.7752246998716,518.7585389998276,519.7584963999689,0,1,517.7752111000009,None,3,f,24,l,MCK,2022_Jan_05_1150,WASABI Nback,2020.2.10,59.98059024492412,
0,1,6,"[0.2, 0]",None,0,1,1,1,,,,,0,0,0,0,0,62,62,62,,,,,,,,,,,None,None,0,519.7752302999143,None,519.7752302999143,520.775240899995,520.7585523999296,521.7585618998855,0,1,519.7752302999143,None,3,f,24,l,MCK,2022_Jan_05_1150,WASABI Nback,2020.2.10,59.98059024492412,
0,1,9,"[0.2, -0.2]",None,0,1,1,1,,,,,0,0,0,0,0,63,63,63,,,,,,,,,,,None,None,0,521.7752421998885,None,521.7752421998885,522.7752458998002,522.7585876998492,523.7585777000058,0,1,521.7752421998885,None,3,f,24,l,MCK,2022_Jan_05_1150,WASABI Nback,2020.2.10,59.98059024492412,
0,1,3,"[0.2, 0.2]",None,0,1,1,1,,,,,0,0,0,0,0,64,64,64,,,,,,,,,,,None,None,0,523.7752613998018,None,523.7752613998018,524.775267599849,524.7585834998172,525.7586137999315,0,1,523.7752613998018,None,3,f,24,l,MCK,2022_Jan_05_1150,WASABI Nback,2020.2.10,59.98059024492412,
0,1,9,"[0.2, -0.2]",1,0,1,1,1,,,,,0,0,0,0,0,65,65,65,,,,,,,,,,,None,None,0,525.7752771999221,None,525.7752771999221,526.7753010999877,526.7586050999817,527.7586114997976,0,1,525.7752771999221,None,3,f,24,l,MCK,2022_Jan_05_1150,WASABI Nback,2020.2.10,59.98059024492412,
0,1,7,"[-0.2, -0.2]",None,0,1,1,1,,,,,0,0,0,0,0,66,66,66,,,,,,,,,,,None,None,0,527.7752926999237,None,527.7752926999237,528.7753043000121,528.7586422997992,529.7586276999209,0,1,527.7752926999237,None,3,f,24,l,MCK,2022_Jan_05_1150,WASABI Nback,2020.2.10,59.98059024492412,
0,1,1,"[-0.2, 0.2]",None,0,1,1,1,,,,,0,0,0,0,0,67,67,67,,,,,,,,,,,None,None,0,529.7753171999939,None,529.7753171999939,530.7753111999482,530.7586343998555,531.7586647998542,0,1,529.7753171999939,None,3,f,24,l,MCK,2022_Jan_05_1150,WASABI Nback,2020.2.10,59.98059024492412,
0,1,5,"[0, 0]",None,0,1,1,1,,,,,0,0,0,0,0,68,68,68,,,,,,,,,,,None,None,0,531.7753227998037,None,531.7753227998037,532.7753284999635,532.7586499999743,533.7586640999652,0,1,531.7753227998037,None,3,f,24,l,MCK,2022_Jan_05_1150,WASABI Nback,2020.2.10,59.98059024492412,
0,1,7,"[-0.2, -0.2]",None,0,1,1,1,,,,,0,0,0,0,0,69,69,69,,,,,,,,,,,None,None,0,533.7753392998129,None,533.7753392998129,534.7753615998663,534.7586846998893,535.7586812998634,0,1,533.7753392998129,None,3,f,24,l,MCK,2022_Jan_05_1150,WASABI Nback,2020.2.10,59.98059024492412,
0,1,5,"[0, 0]",1,0,1,1,1,,,,,0,0,0,0,0,70,70,70,,,,,,,,,,,None,None,0,535.7753715999424,None,535.7753715999424,536.7753639000002,536.758685000008,537.7586875997949,0,1,535.7753715999424,None,3,f,24,l,MCK,2022_Jan_05_1150,WASABI Nback,2020.2.10,59.98059024492412,
0,1,6,"[0.2, 0]",None,0,1,1,1,,,,,0,0,0,0,0,71,71,71,,,,,,,,,,,None,None,0,537.7753135999665,None,537.7753135999665,538.775373699842,538.7587187997997,539.7587111999746,0,1,537.7753135999665,None,3,f,24,l,MCK,2022_Jan_05_1150,WASABI Nback,2020.2.10,59.98059024492412,
0,1,3,"[0.2, 0.2]",None,0,1,1,1,,,,,0,0,0,0,0,72,72,72,,,,,,,,,,,None,None,0,539.775367599912,None,539.775367599912,540.7753967999015,540.7587375999428,541.758738799952,0,1,539.775367599912,None,3,f,24,l,MCK,2022_Jan_05_1150,WASABI Nback,2020.2.10,59.98059024492412,
0,1,6,"[0.2, 0]",1,0,1,1,1,,,,,0,0,0,0,0,73,73,73,,,,,,,,,,,None,None,0,541.7754056998529,None,541.7754056998529,542.7754146999214,542.758736099815,543.7587487997953,0,1,541.7754056998529,None,3,f,24,l,MCK,2022_Jan_05_1150,WASABI Nback,2020.2.10,59.98059024492412,
0,1,8,"[0, -0.2]",None,0,1,1,1,,,,,0,0,0,0,0,74,74,74,,,,,,,,,,,None,None,0,543.7754287999123,None,543.7754287999123,544.7754243998788,544.7587013000157,545.7587623000145,0,1,543.7754287999123,None,3,f,24,l,MCK,2022_Jan_05_1150,WASABI Nback,2020.2.10,59.98059024492412,
0,1,9,"[0.2, -0.2]",None,0,1,1,1,,,,,0,0,0,0,0,75,75,75,,,,,,,,,,,None,None,0,545.7754841998685,None,545.7754841998685,546.7754456999246,546.7587712998502,547.7587966998108,0,1,545.7754841998685,None,3,f,24,l,MCK,2022_Jan_05_1150,WASABI Nback,2020.2.10,59.98059024492412,
0,1,9,"[0.2, -0.2]",None,0,1,1,1,,,,,0,0,0,0,0,76,76,76,,,,,,,,,,,None,None,0,547.7754211998545,None,547.7754211998545,548.7754618998151,548.7587838999461,549.7588078000117,0,1,547.7754211998545,None,3,f,24,l,MCK,2022_Jan_05_1150,WASABI Nback,2020.2.10,59.98059024492412,
0,1,1,"[-0.2, 0.2]",None,0,1,1,1,,,,,0,0,0,0,0,77,77,77,,,,,,,,,,,None,None,0,549.7754685999826,None,549.7754685999826,550.7754738999065,550.7588019999675,551.7588153998367,0,1,549.7754685999826,None,3,f,24,l,MCK,2022_Jan_05_1150,WASABI Nback,2020.2.10,59.98059024492412,
0,1,3,"[0.2, 0.2]",None,0,1,1,1,,,,,0,0,0,0,0,78,78,78,,,,,,,,,,,None,None,0,551.7754707999993,None,551.7754707999993,552.7753914999776,552.7588143998291,553.7588347999845,0,1,551.7754707999993,None,3,f,24,l,MCK,2022_Jan_05_1150,WASABI Nback,2020.2.10,59.98059024492412,
0,1,5,"[0, 0]",None,0,1,1,1,,,,,0,0,0,0,0,79,79,79,,,,,,,,,,,None,None,0,553.7755028998945,None,553.7755028998945,554.7755036000162,554.7588433998171,555.7588402999099,0,1,553.7755028998945,None,3,f,24,l,MCK,2022_Jan_05_1150,WASABI Nback,2020.2.10,59.98059024492412,
0,1,3,"[0.2, 0.2]",1,0,1,1,1,,,,,0,0,0,0,0,80,80,80,,,,,,,,,,,None,None,0,555.7758150999434,None,555.7758150999434,556.7755014998838,556.7588370998856,557.7588595999405,0,0,555.7758150999434,None,3,f,24,l,MCK,2022_Jan_05_1150,WASABI Nback,2020.2.10,59.98059024492412,
0,1,4,"[-0.2, 0]",None,0,1,1,1,,,,,0,0,0,0,0,81,81,81,,,,,,,,,,,None,None,0,557.775530599989,None,557.775530599989,558.7755535999313,558.7588657999877,559.7588853999041,0,1,557.775530599989,None,3,f,24,l,MCK,2022_Jan_05_1150,WASABI Nback,2020.2.10,59.98059024492412,
0,1,7,"[-0.2, -0.2]",None,0,1,1,1,,,,,0,0,0,0,0,82,82,82,,,,,,,,,,,None,None,0,559.775555399945,None,559.775555399945,560.7755556998309,560.758907899959,561.7588861999102,0,1,559.775555399945,None,3,f,24,l,MCK,2022_Jan_05_1150,WASABI Nback,2020.2.10,59.98059024492412,
0,1,4,"[-0.2, 0]",1,0,1,1,1,,,,,0,0,0,0,0,83,83,83,,,,,,,,,,,None,None,0,561.775564200012,None,561.775564200012,562.7755756999832,562.7589055998251,563.7589018999133,0,0,561.775564200012,None,3,f,24,l,MCK,2022_Jan_05_1150,WASABI Nback,2020.2.10,59.98059024492412,
0,1,4,"[-0.2, 0]",None,0,1,1,1,,,,,0,0,0,0,0,84,84,84,,,,,,,,,,,None,None,0,563.7756131999195,None,563.7756131999195,564.7755930998828,564.7589133998845,565.7589315997902,0,1,563.7756131999195,None,3,f,24,l,MCK,2022_Jan_05_1150,WASABI Nback,2020.2.10,59.98059024492412,
0,1,5,"[0, 0]",None,0,1,1,1,,,,,0,0,0,0,0,85,85,85,,,,,,,,,,,None,None,0,565.7755976999179,None,565.7755976999179,566.7755966999102,566.7589282998815,567.7589400999714,0,1,565.7755976999179,None,3,f,24,l,MCK,2022_Jan_05_1150,WASABI Nback,2020.2.10,59.98059024492412,
0,1,2,"[0, 0.2]",None,0,1,1,1,,,,,0,0,0,0,0,86,86,86,,,,,,,,,,,None,None,0,567.7756164998282,None,567.7756164998282,568.7756230998784,568.7588511998765,569.758966299938,0,1,567.7756164998282,None,3,f,24,l,MCK,2022_Jan_05_1150,WASABI Nback,2020.2.10,59.98059024492412,
0,1,6,"[0.2, 0]",None,0,1,1,1,,,,,0,0,0,0,0,87,87,87,,,,,,,,,,,None,None,0,569.7756329998374,None,569.7756329998374,570.7756389998831,570.7589664999396,571.7589728999883,0,1,569.7756329998374,None,3,f,24,l,MCK,2022_Jan_05_1150,WASABI Nback,2020.2.10,59.98059024492412,
0,1,7,"[-0.2, -0.2]",None,0,1,1,1,,,,,0,0,0,0,0,88,88,88,,,,,,,,,,,None,None,0,571.7755856998265,None,571.7755856998265,572.775652699871,572.7589690999594,573.7589932999108,0,1,571.7755856998265,None,3,f,24,l,MCK,2022_Jan_05_1150,WASABI Nback,2020.2.10,59.98059024492412,
0,1,6,"[0.2, 0]",1,0,1,1,1,,,,,0,0,0,0,0,89,89,89,,,,,,,,,,,None,None,0,573.7756643998437,None,573.7756643998437,574.7757224999368,574.7590595998336,575.758999899961,0,0,573.7756643998437,None,3,f,24,l,MCK,2022_Jan_05_1150,WASABI Nback,2020.2.10,59.98059024492412,
0,1,6,"[0.2, 0]",None,0,1,1,1,,,,,0,0,0,0,0,90,90,90,,,,,,,,,,,None,None,0,575.7756685998756,None,575.7756685998756,576.77569889999,576.759029999841,577.7589352999348,0,1,575.7756685998756,None,3,f,24,l,MCK,2022_Jan_05_1150,WASABI Nback,2020.2.10,59.98059024492412,
0,1,7,"[-0.2, -0.2]",None,0,1,1,1,,,,,0,0,0,0,0,91,91,91,,,,,,,,,,,None,None,0,577.7757013000082,None,577.7757013000082,578.7757070998196,578.7590313998517,579.7590483999811,0,1,577.7757013000082,None,3,f,24,l,MCK,2022_Jan_05_1150,WASABI Nback,2020.2.10,59.98059024492412,
0,1,6,"[0.2, 0]",1,0,1,1,1,,,,,0,0,0,0,0,92,92,92,,,,,,,,,,,None,None,0,579.7757103999611,None,579.7757103999611,580.7757059999276,580.7590456998441,581.7590673000086,0,0,579.7757103999611,None,3,f,24,l,MCK,2022_Jan_05_1150,WASABI Nback,2020.2.10,59.98059024492412,
0,1,2,"[0, 0.2]",None,0,1,1,1,,,,,0,0,0,0,0,93,93,93,,,,,,,,,,,None,None,0,581.7757118998561,None,581.7757118998561,582.7757347999141,582.7590622999705,583.7590713999234,0,1,581.7757118998561,None,3,f,24,l,MCK,2022_Jan_05_1150,WASABI Nback,2020.2.10,59.98059024492412,
0,1,5,"[0, 0]",None,0,1,1,1,,,,,0,0,0,0,0,94,94,94,,,,,,,,,,,None,None,0,583.7757495997939,None,583.7757495997939,584.7757336997893,584.7590987000149,585.7590949998703,0,1,583.7757495997939,None,3,f,24,l,MCK,2022_Jan_05_1150,WASABI Nback,2020.2.10,59.98059024492412,
0,1,4,"[-0.2, 0]",None,0,1,1,1,,,,,0,0,0,0,0,95,95,95,,,,,,,,,,,None,None,0,585.7757605998777,None,585.7757605998777,586.775779399788,586.7590926999692,587.7591072998475,0,1,585.7757605998777,None,3,f,24,l,MCK,2022_Jan_05_1150,WASABI Nback,2020.2.10,59.98059024492412,
0,1,4,"[-0.2, 0]",None,0,1,1,1,,,,,0,0,0,0,0,96,96,96,,,,,,,,,,,None,None,0,587.7757850999478,None,587.7757850999478,588.7758001999464,588.7591076998506,589.7591203998309,0,1,587.7757850999478,None,3,f,24,l,MCK,2022_Jan_05_1150,WASABI Nback,2020.2.10,59.98059024492412,
0,1,7,"[-0.2, -0.2]",None,0,1,1,1,,,,,0,0,0,0,0,97,97,97,,,,,,,,,,,None,None,0,589.7758002998307,None,589.7758002998307,590.7758056998719,590.7591287998948,591.7591407999862,0,1,589.7758002998307,None,3,f,24,l,MCK,2022_Jan_05_1150,WASABI Nback,2020.2.10,59.98059024492412,
0,1,4,"[-0.2, 0]",1,0,1,1,1,,,,,0,0,0,0,0,98,98,98,,,,,,,,,,,None,None,0,591.7758102999069,None,591.7758102999069,592.7758233000059,592.7591703999788,593.7590579998214,0,1,591.7758102999069,None,3,f,24,l,MCK,2022_Jan_05_1150,WASABI Nback,2020.2.10,59.98059024492412,
0,1,3,"[0.2, 0.2]",None,0,1,1,1,,,,,0,0,0,0,0,99,99,99,,,,,,,,,,,None,None,0,593.7758299999405,None,593.7758299999405,594.7758392998949,594.7591761997901,595.7591728998814,0,1,593.7758299999405,None,3,f,24,l,MCK,2022_Jan_05_1150,WASABI Nback,2020.2.10,59.98059024492412,
0,1,5,"[0, 0]",None,0,1,1,1,,,,,0,0,0,0,0,100,100,100,,,,,,,,,,,None,None,0,595.7758468999527,None,595.7758468999527,596.7758537998889,596.7591963999439,597.7592021999881,0,1,595.7758468999527,None,3,f,24,l,MCK,2022_Jan_05_1150,WASABI Nback,2020.2.10,59.98059024492412,
0,1,3,"[0.2, 0.2]",1,0,1,1,1,,,,,0,0,0,0,0,101,101,101,,,,,,,,,,,None,None,0,597.7758826999925,None,597.7758826999925,598.7758549000137,598.759207899915,599.75923039997,0,1,597.7758826999925,None,3,f,24,l,MCK,2022_Jan_05_1150,WASABI Nback,2020.2.10,59.98059024492412,
0,1,1,"[-0.2, 0.2]",None,0,1,1,1,,,,,0,0,0,0,0,102,102,102,,,,,,,,,,,None,None,0,599.7758654998615,None,599.7758654998615,600.7759122999851,600.75923039997,601.7592314998619,0,1,599.7758654998615,None,3,f,24,l,MCK,2022_Jan_05_1150,WASABI Nback,2020.2.10,59.98059024492412,
0,1,9,"[0.2, -0.2]",None,0,1,1,1,,,,,0,0,0,0,0,103,103,103,,,,,,,,,,,None,None,0,601.7758983999956,None,601.7758983999956,602.7758702998981,602.7592455998529,603.7592391998041,0,1,601.7758983999956,None,3,f,24,l,MCK,2022_Jan_05_1150,WASABI Nback,2020.2.10,59.98059024492412,
0,1,9,"[0.2, -0.2]",None,0,1,1,1,,,,,0,0,0,0,0,104,104,104,,,,,,,,,,,None,None,0,603.7759197999258,None,603.7759197999258,604.7759193999227,604.7592583999503,605.7592536997981,0,1,603.7759197999258,None,3,f,24,l,MCK,2022_Jan_05_1150,WASABI Nback,2020.2.10,59.98059024492412,
0,1,8,"[0, -0.2]",None,0,1,1,1,,,,,0,0,0,0,0,105,105,105,,,,,,,,,,,None,None,0,605.7759245999623,None,605.7759245999623,606.7759284998756,606.7592763998546,607.7592833999079,0,1,605.7759245999623,None,3,f,24,l,MCK,2022_Jan_05_1150,WASABI Nback,2020.2.10,59.98059024492412,
0,1,6,"[0.2, 0]",None,0,1,1,1,,,,,0,0,0,0,0,106,106,106,,,,,,,,,,,None,None,0,607.7760059998836,None,607.7760059998836,608.7759592998773,608.7593016999308,609.759300599806,0,1,607.7760059998836,None,3,f,24,l,MCK,2022_Jan_05_1150,WASABI Nback,2020.2.10,59.98059024492412,
0,1,3,"[0.2, 0.2]",None,0,1,1,1,,,,,0,0,0,0,0,107,107,107,,,,,,,,,,,None,None,0,609.7759602000006,None,609.7759602000006,610.7759663998149,610.759313999908,611.759322399972,0,1,609.7759602000006,None,3,f,24,l,MCK,2022_Jan_05_1150,WASABI Nback,2020.2.10,59.98059024492412,
0,1,6,"[0.2, 0]",1,0,1,1,1,,,,,0,0,0,0,0,108,108,108,,,,,,,,,,,None,None,0,611.7759837999474,None,611.7759837999474,612.7759841999505,612.7593222998548,613.7593304999173,0,1,611.7759837999474,None,3,f,24,l,MCK,2022_Jan_05_1150,WASABI Nback,2020.2.10,59.98059024492412,
0,1,5,"[0, 0]",None,0,1,1,1,,,,,0,0,0,0,0,109,109,109,,,,,,,,,,,None,None,0,613.7759842998348,None,613.7759842998348,614.7760125999339,614.7593385998625,615.7593560998794,0,1,613.7759842998348,None,3,f,24,l,MCK,2022_Jan_05_1150,WASABI Nback,2020.2.10,59.98059024492412,
0,1,7,"[-0.2, -0.2]",None,0,1,1,1,,,,,0,0,0,0,0,110,110,110,,,,,,,,,,,None,None,0,615.7759962999262,None,615.7759962999262,616.7760216000024,616.7593603997957,617.759375799913,0,1,615.7759962999262,None,3,f,24,l,MCK,2022_Jan_05_1150,WASABI Nback,2020.2.10,59.98059024492412,
0,1,5,"[0, 0]",1,0,1,1,1,,,,,0,0,0,0,0,111,111,111,,,,,,,,,,,None,None,0,617.7760262999218,None,617.7760262999218,618.7760291998275,618.7593588999007,619.7593827999663,0,0,617.7760262999218,None,3,f,24,l,MCK,2022_Jan_05_1150,WASABI Nback,2020.2.10,59.98059024492412,
0,1,1,"[-0.2, 0.2]",None,0,1,1,1,,,,,0,0,0,0,0,112,112,112,,,,,,,,,,,None,None,0,619.7760453999508,None,619.7760453999508,620.7760493999813,620.7593903997913,621.759399499977,0,1,619.7760453999508,None,3,f,24,l,MCK,2022_Jan_05_1150,WASABI Nback,2020.2.10,59.98059024492412,
0,1,7,"[-0.2, -0.2]",None,0,1,1,1,,,,,0,0,0,0,0,113,113,113,,,,,,,,,,,None,None,0,621.7760513999965,None,621.7760513999965,622.7760704997927,622.7594121999573,623.7594220999163,0,1,621.7760513999965,None,3,f,24,l,MCK,2022_Jan_05_1150,WASABI Nback,2020.2.10,59.98059024492412,
0,1,9,"[0.2, -0.2]",None,0,1,1,1,,,,,0,0,0,0,0,114,114,114,,,,,,,,,,,None,None,0,623.776077499846,None,623.776077499846,624.7760898999404,624.7594248999376,625.7594265998341,0,1,623.776077499846,None,3,f,24,l,MCK,2022_Jan_05_1150,WASABI Nback,2020.2.10,59.98059024492412,
0,1,3,"[0.2, 0.2]",None,0,1,1,1,,,,,0,0,0,0,0,115,115,115,,,,,,,,,,,None,None,0,625.7760883998126,None,625.7760883998126,626.7760983000044,626.75943609979,627.7594358997885,0,1,625.7760883998126,None,3,f,24,l,MCK,2022_Jan_05_1150,WASABI Nback,2020.2.10,59.98059024492412,
0,1,9,"[0.2, -0.2]",1,0,1,1,1,,,,,0,0,0,0,0,116,116,116,,,,,,,,,,,None,None,0,627.7761076998431,None,627.7761076998431,628.776119499933,628.7594519997947,629.7594516999088,0,1,627.7761076998431,None,3,f,24,l,MCK,2022_Jan_05_1150,WASABI Nback,2020.2.10,59.98059024492412,
0,1,6,"[0.2, 0]",None,0,1,1,1,,,,,0,0,0,0,0,117,117,117,,,,,,,,,,,None,None,0,629.7761289000046,None,629.7761289000046,630.7761333999224,630.7594828999136,631.7594798998907,0,1,629.7761289000046,None,3,f,24,l,MCK,2022_Jan_05_1150,WASABI Nback,2020.2.10,59.98059024492412,
0,1,2,"[0, 0.2]",None,0,1,1,1,,,,,0,0,0,0,0,118,118,118,,,,,,,,,,,None,None,0,631.776138999965,None,631.776138999965,632.7761508999392,632.7594758998603,633.7594814999029,0,1,631.776138999965,None,3,f,24,l,MCK,2022_Jan_05_1150,WASABI Nback,2020.2.10,59.98059024492412,
0,1,5,"[0, 0]",None,0,1,1,1,,,,,0,0,0,0,0,119,119,119,,,,,,,,,,,None,None,0,633.7761531998403,None,633.7761531998403,634.7761716998648,634.7595000998117,635.759492599871,0,1,633.7761531998403,None,3,f,24,l,MCK,2022_Jan_05_1150,WASABI Nback,2020.2.10,59.98059024492412,
