RestT1,TaskT1,square,location,corrAns,counterbalancer.thisRepN,counterbalancer.thisTrialN,counterbalancer.thisN,counterbalancer.thisIndex,RestT1Loop.thisRepN,RestT1Loop.thisTrialN,RestT1Loop.thisN,RestT1Loop.thisIndex,TaskT1Loop.thisRepN,TaskT1Loop.thisTrialN,TaskT1Loop.thisN,TaskT1Loop.thisIndex,trials_2.thisRepN,trials_2.thisTrialN,trials_2.thisN,trials_2.thisIndex,fixation_1.started,fixation_1.stopped,NbackInstructions.started,NbackInstructions.stopped,NbackStart.keys,NbackStart.rt,NbackStart.started,NbackStart.stopped,fixation_2.started,fixation_2.stopped,response_2.x,response_2.y,response_2.leftButton,grid_lines_2.started,grid_lines_2.stopped,target_square_2.started,target_square_2.stopped,fixation_3.started,fixation_3.stopped,response_2.click,response_2.corr,response_2.started,response_2.stopped,subject number,gender,session,handedness,scanner,date,expName,psychopyVersion,frameRate,
1,0,,,,0,0,0,0,0,0,0,0,,,,,,,,,41.644227500015404,None,,,,,,,,,,,,,,,,,,,,,,3,f,12,left,KB,2021_Jul_02_1339,WASABI Nback,2020.2.10,59.99235697488788,
0,1,,,,0,1,1,1,,,,,0,0,0,0,,,,,,,377.9966678000055,None,space,37.97926779999398,377.9966678000055,None,,,,,,,,,,,,,,,,3,f,12,left,KB,2021_Jul_02_1339,WASABI Nback,2020.2.10,59.99235697488788,
0,1,5,"[0, 0]",None,0,1,1,1,,,,,0,0,0,0,0,0,0,0,,,,,,,,,None,None,None,None,0,418.2302486000117,None,418.2302486000117,None,None,None,0,1,418.2302486000117,None,3,f,12,left,KB,2021_Jul_02_1339,WASABI Nback,2020.2.10,59.99235697488788,
0,1,2,"[0, 0.2]",None,0,1,1,1,,,,,0,0,0,0,0,1,1,1,,,,,,,,,,,None,None,0,419.0136312000104,None,419.0136312000104,420.0136279000144,419.9969654000015,420.9969718999928,0,1,419.0136312000104,None,3,f,12,left,KB,2021_Jul_02_1339,WASABI Nback,2020.2.10,59.99235697488788,
0,1,6,"[0.2, 0]",None,0,1,1,1,,,,,0,0,0,0,0,2,2,2,,,,,,,,,,,None,None,0,421.0136387000093,None,421.0136387000093,422.0136494000035,421.99698470000294,422.99700279999524,0,1,421.0136387000093,None,3,f,12,left,KB,2021_Jul_02_1339,WASABI Nback,2020.2.10,59.99235697488788,
0,1,9,"[0.2, -0.2]",None,0,1,1,1,,,,,0,0,0,0,0,3,3,3,,,,,,,,,,,None,None,0,423.0136523999972,None,423.0136523999972,424.0136757,423.9969928000064,424.9970067999966,0,1,423.0136523999972,None,3,f,12,left,KB,2021_Jul_02_1339,WASABI Nback,2020.2.10,59.99235697488788,
0,1,3,"[0.2, 0.2]",None,0,1,1,1,,,,,0,0,0,0,0,4,4,4,,,,,,,,,,,None,None,0,425.01367230000324,None,425.01367230000324,426.01368209999055,425.99700619999203,426.9970192000037,0,1,425.01367230000324,None,3,f,12,left,KB,2021_Jul_02_1339,WASABI Nback,2020.2.10,59.99235697488788,
0,1,9,"[0.2, -0.2]",1,0,1,1,1,,,,,0,0,0,0,0,5,5,5,,,,,,,,,,,None,None,0,427.01369500000146,None,427.01369500000146,428.01369680001517,427.9970207000151,428.9970308000047,0,0,427.01369500000146,None,3,f,12,left,KB,2021_Jul_02_1339,WASABI Nback,2020.2.10,59.99235697488788,
0,1,7,"[-0.2, -0.2]",None,0,1,1,1,,,,,0,0,0,0,0,6,6,6,,,,,,,,,,,None,None,0,429.01370070001576,None,429.01370070001576,430.0137124999892,429.9970436000149,430.99705500001437,0,1,429.01370070001576,None,3,f,12,left,KB,2021_Jul_02_1339,WASABI Nback,2020.2.10,59.99235697488788,
0,1,1,"[-0.2, 0.2]",None,0,1,1,1,,,,,0,0,0,0,0,7,7,7,,,,,,,,,,,None,None,0,431.01371239998844,None,431.01371239998844,432.01372399998945,431.997076700005,432.9970728000044,0,1,431.01371239998844,None,3,f,12,left,KB,2021_Jul_02_1339,WASABI Nback,2020.2.10,59.99235697488788,
0,1,5,"[0, 0]",None,0,1,1,1,,,,,0,0,0,0,0,8,8,8,,,,,,,,,,,None,None,0,433.0137352999882,None,433.0137352999882,434.0137337000051,433.9970047000097,434.9970841000031,0,1,433.0137352999882,None,3,f,12,left,KB,2021_Jul_02_1339,WASABI Nback,2020.2.10,59.99235697488788,
0,1,7,"[-0.2, -0.2]",None,0,1,1,1,,,,,0,0,0,0,0,9,9,9,,,,,,,,,,,None,None,0,435.013631800015,None,435.013631800015,436.01375529999495,435.99708480000845,436.9970885000075,0,1,435.013631800015,None,3,f,12,left,KB,2021_Jul_02_1339,WASABI Nback,2020.2.10,59.99235697488788,
0,1,5,"[0, 0]",1,0,1,1,1,,,,,0,0,0,0,0,10,10,10,,,,,,,,,,,None,None,0,437.0137551999942,None,437.0137551999942,438.0137590999948,437.9971121000126,438.9971099999966,0,1,437.0137551999942,None,3,f,12,left,KB,2021_Jul_02_1339,WASABI Nback,2020.2.10,59.99235697488788,
0,1,6,"[0.2, 0]",None,0,1,1,1,,,,,0,0,0,0,0,11,11,11,,,,,,,,,,,None,None,0,439.01376689999597,None,439.01376689999597,440.013778499997,439.9971208999923,440.99716400000034,0,1,439.01376689999597,None,3,f,12,left,KB,2021_Jul_02_1339,WASABI Nback,2020.2.10,59.99235697488788,
0,1,3,"[0.2, 0.2]",None,0,1,1,1,,,,,0,0,0,0,0,12,12,12,,,,,,,,,,,None,None,0,441.0137880000111,None,441.0137880000111,442.01379150000867,441.99711070000194,442.9971229000075,0,1,441.0137880000111,None,3,f,12,left,KB,2021_Jul_02_1339,WASABI Nback,2020.2.10,59.99235697488788,
0,1,6,"[0.2, 0]",1,0,1,1,1,,,,,0,0,0,0,0,13,13,13,,,,,,,,,,,None,None,0,443.0138108000101,None,443.0138108000101,444.01381020000554,443.99715209999704,444.997140499996,0,1,443.0138108000101,None,3,f,12,left,KB,2021_Jul_02_1339,WASABI Nback,2020.2.10,59.99235697488788,
0,1,8,"[0, -0.2]",None,0,1,1,1,,,,,0,0,0,0,0,14,14,14,,,,,,,,,,,None,None,0,445.0138189000136,None,445.0138189000136,446.0138219000073,445.9971283999912,446.9971721000038,0,1,445.0138189000136,None,3,f,12,left,KB,2021_Jul_02_1339,WASABI Nback,2020.2.10,59.99235697488788,
0,1,9,"[0.2, -0.2]",None,0,1,1,1,,,,,0,0,0,0,0,15,15,15,,,,,,,,,,,None,None,0,447.01383529999293,None,447.01383529999293,448.0138464999909,447.99717690001125,448.997197699995,0,1,447.01383529999293,None,3,f,12,left,KB,2021_Jul_02_1339,WASABI Nback,2020.2.10,59.99235697488788,
0,1,9,"[0.2, -0.2]",None,0,1,1,1,,,,,0,0,0,0,0,16,16,16,,,,,,,,,,,None,None,0,449.013863900007,None,449.013863900007,450.0138524000067,449.9971801000065,450.9971935999929,0,1,449.013863900007,None,3,f,12,left,KB,2021_Jul_02_1339,WASABI Nback,2020.2.10,59.99235697488788,
0,1,1,"[-0.2, 0.2]",None,0,1,1,1,,,,,0,0,0,0,0,17,17,17,,,,,,,,,,,None,None,0,451.01374160000705,None,451.01374160000705,452.0138714000059,451.9972013999941,452.99721669999417,0,1,451.01374160000705,None,3,f,12,left,KB,2021_Jul_02_1339,WASABI Nback,2020.2.10,59.99235697488788,
0,1,3,"[0.2, 0.2]",None,0,1,1,1,,,,,0,0,0,0,0,18,18,18,,,,,,,,,,,None,None,0,453.0138739999966,None,453.0138739999966,454.01387719999184,453.9972104000044,454.99722260001,0,1,453.0138739999966,None,3,f,12,left,KB,2021_Jul_02_1339,WASABI Nback,2020.2.10,59.99235697488788,
0,1,5,"[0, 0]",None,0,1,1,1,,,,,0,0,0,0,0,19,19,19,,,,,,,,,,,None,None,0,455.0138933999988,None,455.0138933999988,456.01389450000715,455.99723639999866,456.99722560000373,0,1,455.0138933999988,None,3,f,12,left,KB,2021_Jul_02_1339,WASABI Nback,2020.2.10,59.99235697488788,
0,1,3,"[0.2, 0.2]",1,0,1,1,1,,,,,0,0,0,0,0,20,20,20,,,,,,,,,,,None,None,0,457.0139046999975,None,457.0139046999975,458.0139382999914,457.99724240001524,458.9972431999922,0,0,457.0139046999975,None,3,f,12,left,KB,2021_Jul_02_1339,WASABI Nback,2020.2.10,59.99235697488788,
0,1,4,"[-0.2, 0]",None,0,1,1,1,,,,,0,0,0,0,0,21,21,21,,,,,,,,,,,None,None,0,459.01390540000284,None,459.01390540000284,460.01394470001105,459.99726020000526,460.99726440000813,0,1,459.01390540000284,None,3,f,12,left,KB,2021_Jul_02_1339,WASABI Nback,2020.2.10,59.99235697488788,
0,1,7,"[-0.2, -0.2]",None,0,1,1,1,,,,,0,0,0,0,0,22,22,22,,,,,,,,,,,None,None,0,461.01394010000513,None,461.01394010000513,462.0139449000126,461.9972676000034,462.99727859999985,0,1,461.01394010000513,None,3,f,12,left,KB,2021_Jul_02_1339,WASABI Nback,2020.2.10,59.99235697488788,
0,1,4,"[-0.2, 0]",1,0,1,1,1,,,,,0,0,0,0,0,23,23,23,,,,,,,,,,,None,None,0,463.01396050001495,None,463.01396050001495,464.0139660999994,463.9973508999974,464.99731169998995,0,1,463.01396050001495,None,3,f,12,left,KB,2021_Jul_02_1339,WASABI Nback,2020.2.10,59.99235697488788,
0,1,4,"[-0.2, 0]",None,0,1,1,1,,,,,0,0,0,0,0,24,24,24,,,,,,,,,,,None,None,0,465.0139610999904,None,465.0139610999904,466.01398819999304,465.9973003999912,466.9973017000011,0,1,465.0139610999904,None,3,f,12,left,KB,2021_Jul_02_1339,WASABI Nback,2020.2.10,59.99235697488788,
0,1,5,"[0, 0]",None,0,1,1,1,,,,,0,0,0,0,0,25,25,25,,,,,,,,,,,None,None,0,467.0139912000159,None,467.0139912000159,468.01398449999397,467.9973263000138,468.9973270999908,0,1,467.0139912000159,None,3,f,12,left,KB,2021_Jul_02_1339,WASABI Nback,2020.2.10,59.99235697488788,
0,1,2,"[0, 0.2]",None,0,1,1,1,,,,,0,0,0,0,0,26,26,26,,,,,,,,,,,None,None,0,469.014010599989,None,469.014010599989,470.01399880001554,469.99733370001195,470.99734999999055,0,1,469.014010599989,None,3,f,12,left,KB,2021_Jul_02_1339,WASABI Nback,2020.2.10,59.99235697488788,
0,1,6,"[0.2, 0]",None,0,1,1,1,,,,,0,0,0,0,0,27,27,27,,,,,,,,,,,None,None,0,471.0140384999977,None,471.0140384999977,472.0140331000148,471.997329100006,472.9973537999904,0,1,471.0140384999977,None,3,f,12,left,KB,2021_Jul_02_1339,WASABI Nback,2020.2.10,59.99235697488788,
0,1,7,"[-0.2, -0.2]",None,0,1,1,1,,,,,0,0,0,0,0,28,28,28,,,,,,,,,,,None,None,0,473.0140287000104,None,473.0140287000104,474.0140318000049,473.99736529999063,474.99735409999266,0,1,473.0140287000104,None,3,f,12,left,KB,2021_Jul_02_1339,WASABI Nback,2020.2.10,59.99235697488788,
0,1,6,"[0.2, 0]",1,0,1,1,1,,,,,0,0,0,0,0,29,29,29,,,,,,,,,,,None,None,0,475.01405800000066,None,475.01405800000066,476.0140461999981,475.99737019999884,476.99738390001585,0,1,475.01405800000066,None,3,f,12,left,KB,2021_Jul_02_1339,WASABI Nback,2020.2.10,59.99235697488788,
0,1,6,"[0.2, 0]",None,0,1,1,1,,,,,0,0,0,0,0,30,30,30,,,,,,,,,,,None,None,0,477.014053299994,None,477.014053299994,478.01407360000303,477.9973762000154,478.9974011000013,0,1,477.014053299994,None,3,f,12,left,KB,2021_Jul_02_1339,WASABI Nback,2020.2.10,59.99235697488788,
0,1,7,"[-0.2, -0.2]",None,0,1,1,1,,,,,0,0,0,0,0,31,31,31,,,,,,,,,,,None,None,0,479.014067000011,None,479.014067000011,480.01407609999296,479.9974188999913,480.99742090000655,0,1,479.014067000011,None,3,f,12,left,KB,2021_Jul_02_1339,WASABI Nback,2020.2.10,59.99235697488788,
0,1,6,"[0.2, 0]",1,0,1,1,1,,,,,0,0,0,0,0,32,32,32,,,,,,,,,,,None,None,0,481.0141149999981,None,481.0141149999981,482.0141034999979,481.9974163000006,482.99743560000206,0,0,481.0141149999981,None,3,f,12,left,KB,2021_Jul_02_1339,WASABI Nback,2020.2.10,59.99235697488788,
0,1,2,"[0, 0.2]",None,0,1,1,1,,,,,0,0,0,0,0,33,33,33,,,,,,,,,,,None,None,0,483.0141176999896,None,483.0141176999896,484.01410490000853,483.9974282000039,484.99744700000156,0,1,483.0141176999896,None,3,f,12,left,KB,2021_Jul_02_1339,WASABI Nback,2020.2.10,59.99235697488788,
0,1,5,"[0, 0]",None,0,1,1,1,,,,,0,0,0,0,0,34,34,34,,,,,,,,,,,None,None,0,485.0141169000126,None,485.0141169000126,486.01413510000566,485.99744860001374,486.9974583000003,0,1,485.0141169000126,None,3,f,12,left,KB,2021_Jul_02_1339,WASABI Nback,2020.2.10,59.99235697488788,
0,1,4,"[-0.2, 0]",None,0,1,1,1,,,,,0,0,0,0,0,35,35,35,,,,,,,,,,,None,None,0,487.0141078000015,None,487.0141078000015,488.014136999991,487.99744549999014,488.9974618999986,0,1,487.0141078000015,None,3,f,12,left,KB,2021_Jul_02_1339,WASABI Nback,2020.2.10,59.99235697488788,
0,1,4,"[-0.2, 0]",None,0,1,1,1,,,,,0,0,0,0,0,36,36,36,,,,,,,,,,,None,None,0,489.0141377999971,None,489.0141377999971,490.0141408999916,489.9974712000112,490.9974915999919,0,1,489.0141377999971,None,3,f,12,left,KB,2021_Jul_02_1339,WASABI Nback,2020.2.10,59.99235697488788,
0,1,7,"[-0.2, -0.2]",None,0,1,1,1,,,,,0,0,0,0,0,37,37,37,,,,,,,,,,,None,None,0,491.0141326000157,None,491.0141326000157,492.0141554000147,491.9974918999942,492.9975043000013,0,1,491.0141326000157,None,3,f,12,left,KB,2021_Jul_02_1339,WASABI Nback,2020.2.10,59.99235697488788,
0,1,4,"[-0.2, 0]",1,0,1,1,1,,,,,0,0,0,0,0,38,38,38,,,,,,,,,,,None,None,0,493.01416489999974,None,493.01416489999974,494.0141841000004,493.9975141999894,494.99752569998964,0,1,493.01416489999974,None,3,f,12,left,KB,2021_Jul_02_1339,WASABI Nback,2020.2.10,59.99235697488788,
0,1,3,"[0.2, 0.2]",None,0,1,1,1,,,,,0,0,0,0,0,39,39,39,,,,,,,,,,,None,None,0,495.0141855000111,None,495.0141855000111,496.0142002000066,495.9975078999996,496.99752959999023,0,1,495.0141855000111,None,3,f,12,left,KB,2021_Jul_02_1339,WASABI Nback,2020.2.10,59.99235697488788,
0,1,5,"[0, 0]",None,0,1,1,1,,,,,0,0,0,0,0,40,40,40,,,,,,,,,,,None,None,0,497.01420549998875,None,497.01420549998875,498.01420080001117,497.9975473000086,498.9975292000163,0,1,497.01420549998875,None,3,f,12,left,KB,2021_Jul_02_1339,WASABI Nback,2020.2.10,59.99235697488788,
0,1,3,"[0.2, 0.2]",1,0,1,1,1,,,,,0,0,0,0,0,41,41,41,,,,,,,,,,,None,None,0,499.0142221999995,None,499.0142221999995,500.01422770001227,499.99754949999624,500.99755590001587,0,0,499.0142221999995,None,3,f,12,left,KB,2021_Jul_02_1339,WASABI Nback,2020.2.10,59.99235697488788,
0,1,1,"[-0.2, 0.2]",None,0,1,1,1,,,,,0,0,0,0,0,42,42,42,,,,,,,,,,,None,None,0,501.01422899999307,None,501.01422899999307,502.0142371999973,501.997574500012,502.9975788000156,0,1,501.01422899999307,None,3,f,12,left,KB,2021_Jul_02_1339,WASABI Nback,2020.2.10,59.99235697488788,
0,1,9,"[0.2, -0.2]",None,0,1,1,1,,,,,0,0,0,0,0,43,43,43,,,,,,,,,,,None,None,0,503.0142392000125,None,503.0142392000125,504.01423890001024,503.9976031999977,504.9975938000134,0,1,503.0142392000125,None,3,f,12,left,KB,2021_Jul_02_1339,WASABI Nback,2020.2.10,59.99235697488788,
0,1,9,"[0.2, -0.2]",None,0,1,1,1,,,,,0,0,0,0,0,44,44,44,,,,,,,,,,,None,None,0,505.01427220000187,None,505.01427220000187,506.0142579000094,505.99760229999083,506.99760170001537,0,1,505.01427220000187,None,3,f,12,left,KB,2021_Jul_02_1339,WASABI Nback,2020.2.10,59.99235697488788,
0,1,8,"[0, -0.2]",None,0,1,1,1,,,,,0,0,0,0,0,45,45,45,,,,,,,,,,,None,None,0,507.0142412999994,None,507.0142412999994,508.01428699999815,507.99761260001105,508.99761670001317,0,1,507.0142412999994,None,3,f,12,left,KB,2021_Jul_02_1339,WASABI Nback,2020.2.10,59.99235697488788,
0,1,6,"[0.2, 0]",None,0,1,1,1,,,,,0,0,0,0,0,46,46,46,,,,,,,,,,,None,None,0,509.01428490001126,None,509.01428490001126,510.01431470000534,509.9976414999983,510.99764159999904,0,1,509.01428490001126,None,3,f,12,left,KB,2021_Jul_02_1339,WASABI Nback,2020.2.10,59.99235697488788,
0,1,3,"[0.2, 0.2]",None,0,1,1,1,,,,,0,0,0,0,0,47,47,47,,,,,,,,,,,None,None,0,511.01430330000585,None,511.01430330000585,512.0143116000108,511.99763299999177,512.9975321000093,0,1,511.01430330000585,None,3,f,12,left,KB,2021_Jul_02_1339,WASABI Nback,2020.2.10,59.99235697488788,
0,1,6,"[0.2, 0]",1,0,1,1,1,,,,,0,0,0,0,0,48,48,48,,,,,,,,,,,None,None,0,513.0143156000122,None,513.0143156000122,514.0143196000136,513.9976746999891,514.9976581000083,0,1,513.0143156000122,None,3,f,12,left,KB,2021_Jul_02_1339,WASABI Nback,2020.2.10,59.99235697488788,
0,1,5,"[0, 0]",None,0,1,1,1,,,,,0,0,0,0,0,49,49,49,,,,,,,,,,,None,None,0,515.0138145000092,None,515.0138145000092,516.014227800013,515.9976733000076,516.9976652000041,0,1,515.0138145000092,None,3,f,12,left,KB,2021_Jul_02_1339,WASABI Nback,2020.2.10,59.99235697488788,
0,1,7,"[-0.2, -0.2]",None,0,1,1,1,,,,,0,0,0,0,0,50,50,50,,,,,,,,,,,None,None,0,517.0143437999941,None,517.0143437999941,518.0143725000089,517.9976913999999,518.9977006000117,0,1,517.0143437999941,None,3,f,12,left,KB,2021_Jul_02_1339,WASABI Nback,2020.2.10,59.99235697488788,
0,1,5,"[0, 0]",1,0,1,1,1,,,,,0,0,0,0,0,51,51,51,,,,,,,,,,,None,None,0,519.0143604000041,None,519.0143604000041,520.0142455000023,519.9976954000012,520.9977151000057,0,0,519.0143604000041,None,3,f,12,left,KB,2021_Jul_02_1339,WASABI Nback,2020.2.10,59.99235697488788,
0,1,1,"[-0.2, 0.2]",None,0,1,1,1,,,,,0,0,0,0,0,52,52,52,,,,,,,,,,,None,None,0,521.0143814999901,None,521.0143814999901,522.0143870000029,521.9977107000013,522.9977275000128,0,1,521.0143814999901,None,3,f,12,left,KB,2021_Jul_02_1339,WASABI Nback,2020.2.10,59.99235697488788,
0,1,7,"[-0.2, -0.2]",None,0,1,1,1,,,,,0,0,0,0,0,53,53,53,,,,,,,,,,,None,None,0,523.0143897999951,None,523.0143897999951,524.014390700002,523.9977301000035,524.9977348000102,0,1,523.0143897999951,None,3,f,12,left,KB,2021_Jul_02_1339,WASABI Nback,2020.2.10,59.99235697488788,
0,1,9,"[0.2, -0.2]",None,0,1,1,1,,,,,0,0,0,0,0,54,54,54,,,,,,,,,,,None,None,0,525.0144092999981,None,525.0144092999981,526.0144277999934,525.9977401999931,526.997752700001,0,1,525.0144092999981,None,3,f,12,left,KB,2021_Jul_02_1339,WASABI Nback,2020.2.10,59.99235697488788,
0,1,3,"[0.2, 0.2]",None,0,1,1,1,,,,,0,0,0,0,0,55,55,55,,,,,,,,,,,None,None,0,527.0144271999889,None,527.0144271999889,528.0144354999939,527.9977565000008,528.997782099992,0,1,527.0144271999889,None,3,f,12,left,KB,2021_Jul_02_1339,WASABI Nback,2020.2.10,59.99235697488788,
0,1,9,"[0.2, -0.2]",1,0,1,1,1,,,,,0,0,0,0,0,56,56,56,,,,,,,,,,,None,None,0,529.0144523000054,None,529.0144523000054,530.0144501999894,529.9977847000118,530.9976735000091,0,1,529.0144523000054,None,3,f,12,left,KB,2021_Jul_02_1339,WASABI Nback,2020.2.10,59.99235697488788,
0,1,6,"[0.2, 0]",None,0,1,1,1,,,,,0,0,0,0,0,57,57,57,,,,,,,,,,,None,None,0,531.0144542999915,None,531.0144542999915,532.014399000007,531.9977945999999,532.997787500004,0,1,531.0144542999915,None,3,f,12,left,KB,2021_Jul_02_1339,WASABI Nback,2020.2.10,59.99235697488788,
0,1,2,"[0, 0.2]",None,0,1,1,1,,,,,0,0,0,0,0,58,58,58,,,,,,,,,,,None,None,0,533.0144661999948,None,533.0144661999948,534.0144556000014,533.997806600004,534.9978190000111,0,1,533.0144661999948,None,3,f,12,left,KB,2021_Jul_02_1339,WASABI Nback,2020.2.10,59.99235697488788,
0,1,5,"[0, 0]",None,0,1,1,1,,,,,0,0,0,0,0,59,59,59,,,,,,,,,,,None,None,0,535.0144856999977,None,535.0144856999977,536.0144912000105,535.9978231000132,536.9978244999947,0,1,535.0144856999977,None,3,f,12,left,KB,2021_Jul_02_1339,WASABI Nback,2020.2.10,59.99235697488788,
0,1,5,"[0, 0]",None,0,1,1,1,,,,,0,0,0,0,0,60,60,60,,,,,,,,,,,None,None,0,537.0145653999934,None,537.0145653999934,538.0145117999928,537.9978345000127,538.9978387000156,0,1,537.0145653999934,None,3,f,12,left,KB,2021_Jul_02_1339,WASABI Nback,2020.2.10,59.99235697488788,
0,1,2,"[0, 0.2]",None,0,1,1,1,,,,,0,0,0,0,0,61,61,61,,,,,,,,,,,None,None,0,539.0145151999895,None,539.0145151999895,540.0145162999979,539.9978582999902,540.997857600014,0,1,539.0145151999895,None,3,f,12,left,KB,2021_Jul_02_1339,WASABI Nback,2020.2.10,59.99235697488788,
0,1,6,"[0.2, 0]",None,0,1,1,1,,,,,0,0,0,0,0,62,62,62,,,,,,,,,,,None,None,0,541.0145213000069,None,541.0145213000069,542.014522100013,541.9978671999997,542.9978805000137,0,1,541.0145213000069,None,3,f,12,left,KB,2021_Jul_02_1339,WASABI Nback,2020.2.10,59.99235697488788,
0,1,9,"[0.2, -0.2]",None,0,1,1,1,,,,,0,0,0,0,0,63,63,63,,,,,,,,,,,None,None,0,543.0145450000127,None,543.0145450000127,544.0145452000143,543.9978839000105,544.9978891999926,0,1,543.0145450000127,None,3,f,12,left,KB,2021_Jul_02_1339,WASABI Nback,2020.2.10,59.99235697488788,
0,1,3,"[0.2, 0.2]",None,0,1,1,1,,,,,0,0,0,0,0,64,64,64,,,,,,,,,,,None,None,0,545.014559800009,None,545.014559800009,546.0145654999942,545.9979038000165,546.9979118999909,0,1,545.014559800009,None,3,f,12,left,KB,2021_Jul_02_1339,WASABI Nback,2020.2.10,59.99235697488788,
0,1,9,"[0.2, -0.2]",1,0,1,1,1,,,,,0,0,0,0,0,65,65,65,,,,,,,,,,,None,None,0,547.0145637000096,None,547.0145637000096,548.0145919999923,547.9979070000118,548.9979103000078,0,0,547.0145637000096,None,3,f,12,left,KB,2021_Jul_02_1339,WASABI Nback,2020.2.10,59.99235697488788,
0,1,7,"[-0.2, -0.2]",None,0,1,1,1,,,,,0,0,0,0,0,66,66,66,,,,,,,,,,,None,None,0,549.0146247000084,None,549.0146247000084,550.0145992999896,549.9979194999905,550.9979367000051,0,1,549.0146247000084,None,3,f,12,left,KB,2021_Jul_02_1339,WASABI Nback,2020.2.10,59.99235697488788,
0,1,1,"[-0.2, 0.2]",None,0,1,1,1,,,,,0,0,0,0,0,67,67,67,,,,,,,,,,,None,None,0,551.0146048000024,None,551.0146048000024,552.0145993999904,551.9978618000168,552.9979555000027,0,1,551.0146048000024,None,3,f,12,left,KB,2021_Jul_02_1339,WASABI Nback,2020.2.10,59.99235697488788,
0,1,5,"[0, 0]",None,0,1,1,1,,,,,0,0,0,0,0,68,68,68,,,,,,,,,,,None,None,0,553.0146220999886,None,553.0146220999886,554.0146290000121,553.9979684000136,554.9980098000087,0,1,553.0146220999886,None,3,f,12,left,KB,2021_Jul_02_1339,WASABI Nback,2020.2.10,59.99235697488788,
0,1,7,"[-0.2, -0.2]",None,0,1,1,1,,,,,0,0,0,0,0,69,69,69,,,,,,,,,,,None,None,0,555.0146537999972,None,555.0146537999972,556.0146420999954,555.9979716000089,556.997978600004,0,1,555.0146537999972,None,3,f,12,left,KB,2021_Jul_02_1339,WASABI Nback,2020.2.10,59.99235697488788,
0,1,5,"[0, 0]",1,0,1,1,1,,,,,0,0,0,0,0,70,70,70,,,,,,,,,,,None,None,0,557.014649299992,None,557.014649299992,558.0146311999997,557.9979978000047,558.9979950000125,0,0,557.014649299992,None,3,f,12,left,KB,2021_Jul_02_1339,WASABI Nback,2020.2.10,59.99235697488788,
0,1,6,"[0.2, 0]",None,0,1,1,1,,,,,0,0,0,0,0,71,71,71,,,,,,,,,,,None,None,0,559.0146678000165,None,559.0146678000165,560.0146718999895,559.9980045999982,560.9980164000008,0,1,559.0146678000165,None,3,f,12,left,KB,2021_Jul_02_1339,WASABI Nback,2020.2.10,59.99235697488788,
0,1,3,"[0.2, 0.2]",None,0,1,1,1,,,,,0,0,0,0,0,72,72,72,,,,,,,,,,,None,None,0,561.0146751000138,None,561.0146751000138,562.0146817000059,561.9980496999924,562.9980369000114,0,1,561.0146751000138,None,3,f,12,left,KB,2021_Jul_02_1339,WASABI Nback,2020.2.10,59.99235697488788,
0,1,6,"[0.2, 0]",1,0,1,1,1,,,,,0,0,0,0,0,73,73,73,,,,,,,,,,,None,None,0,563.0146934000077,None,563.0146934000077,564.014706499991,563.9980444000103,564.9980723999906,0,0,563.0146934000077,None,3,f,12,left,KB,2021_Jul_02_1339,WASABI Nback,2020.2.10,59.99235697488788,
0,1,8,"[0, -0.2]",None,0,1,1,1,,,,,0,0,0,0,0,74,74,74,,,,,,,,,,,None,None,0,565.0147203000088,None,565.0147203000088,566.014714799996,565.9980415999889,566.9980689999938,0,1,565.0147203000088,None,3,f,12,left,KB,2021_Jul_02_1339,WASABI Nback,2020.2.10,59.99235697488788,
0,1,9,"[0.2, -0.2]",None,0,1,1,1,,,,,0,0,0,0,0,75,75,75,,,,,,,,,,,None,None,0,567.0147193000012,None,567.0147193000012,568.0147372999927,567.9980034999899,568.9980782000057,0,1,567.0147193000012,None,3,f,12,left,KB,2021_Jul_02_1339,WASABI Nback,2020.2.10,59.99235697488788,
0,1,9,"[0.2, -0.2]",None,0,1,1,1,,,,,0,0,0,0,0,76,76,76,,,,,,,,,,,None,None,0,569.0147391000064,None,569.0147391000064,570.0147419999994,569.9980845999962,570.998081400001,0,1,569.0147391000064,None,3,f,12,left,KB,2021_Jul_02_1339,WASABI Nback,2020.2.10,59.99235697488788,
0,1,1,"[-0.2, 0.2]",None,0,1,1,1,,,,,0,0,0,0,0,77,77,77,,,,,,,,,,,None,None,0,571.0147601999925,None,571.0147601999925,572.0147599999909,571.9980864000099,572.9980979000102,0,1,571.0147601999925,None,3,f,12,left,KB,2021_Jul_02_1339,WASABI Nback,2020.2.10,59.99235697488788,
0,1,3,"[0.2, 0.2]",None,0,1,1,1,,,,,0,0,0,0,0,78,78,78,,,,,,,,,,,None,None,0,573.0147637999908,None,573.0147637999908,574.0147786000161,573.9981020000123,574.9981154999987,0,1,573.0147637999908,None,3,f,12,left,KB,2021_Jul_02_1339,WASABI Nback,2020.2.10,59.99235697488788,
0,1,5,"[0, 0]",None,0,1,1,1,,,,,0,0,0,0,0,79,79,79,,,,,,,,,,,None,None,0,575.0147825000167,None,575.0147825000167,576.0147882000019,575.9980030000152,576.9981290000142,0,1,575.0147825000167,None,3,f,12,left,KB,2021_Jul_02_1339,WASABI Nback,2020.2.10,59.99235697488788,
0,1,3,"[0.2, 0.2]",1,0,1,1,1,,,,,0,0,0,0,0,80,80,80,,,,,,,,,,,None,None,0,577.0147991999984,None,577.0147991999984,578.0147979999892,577.9981341999955,578.9981547000061,0,0,577.0147991999984,None,3,f,12,left,KB,2021_Jul_02_1339,WASABI Nback,2020.2.10,59.99235697488788,
0,1,4,"[-0.2, 0]",None,0,1,1,1,,,,,0,0,0,0,0,81,81,81,,,,,,,,,,,None,None,0,579.0148100999941,None,579.0148100999941,580.0148246999888,579.9981452999928,580.998155600013,0,1,579.0148100999941,None,3,f,12,left,KB,2021_Jul_02_1339,WASABI Nback,2020.2.10,59.99235697488788,
0,1,7,"[-0.2, -0.2]",None,0,1,1,1,,,,,0,0,0,0,0,82,82,82,,,,,,,,,,,None,None,0,581.0148304000031,None,581.0148304000031,582.0148314000107,581.9981308999995,582.9981624000065,0,1,581.0148304000031,None,3,f,12,left,KB,2021_Jul_02_1339,WASABI Nback,2020.2.10,59.99235697488788,
0,1,4,"[-0.2, 0]",1,0,1,1,1,,,,,0,0,0,0,0,83,83,83,,,,,,,,,,,None,None,0,583.0148417000019,None,583.0148417000019,584.0148610000033,583.9981564999907,584.9981763999967,0,1,583.0148417000019,None,3,f,12,left,KB,2021_Jul_02_1339,WASABI Nback,2020.2.10,59.99235697488788,
0,1,4,"[-0.2, 0]",None,0,1,1,1,,,,,0,0,0,0,0,84,84,84,,,,,,,,,,,None,None,0,585.0148572000035,None,585.0148572000035,586.0148638999963,585.998193700012,586.9981983999896,0,0,585.0148572000035,None,3,f,12,left,KB,2021_Jul_02_1339,WASABI Nback,2020.2.10,59.99235697488788,
0,1,5,"[0, 0]",None,0,1,1,1,,,,,0,0,0,0,0,85,85,85,,,,,,,,,,,None,None,0,587.0148698000121,None,587.0148698000121,588.0148776000133,587.9982105999952,588.9981848000025,0,1,587.0148698000121,None,3,f,12,left,KB,2021_Jul_02_1339,WASABI Nback,2020.2.10,59.99235697488788,
0,1,2,"[0, 0.2]",None,0,1,1,1,,,,,0,0,0,0,0,86,86,86,,,,,,,,,,,None,None,0,589.0148792999971,None,589.0148792999971,590.0148937999911,589.9982206000132,590.9982204000116,0,1,589.0148792999971,None,3,f,12,left,KB,2021_Jul_02_1339,WASABI Nback,2020.2.10,59.99235697488788,
0,1,6,"[0.2, 0]",None,0,1,1,1,,,,,0,0,0,0,0,87,87,87,,,,,,,,,,,None,None,0,591.014889699989,None,591.014889699989,592.014912100014,591.9982401000161,592.998248399992,0,1,591.014889699989,None,3,f,12,left,KB,2021_Jul_02_1339,WASABI Nback,2020.2.10,59.99235697488788,
0,1,7,"[-0.2, -0.2]",None,0,1,1,1,,,,,0,0,0,0,0,88,88,88,,,,,,,,,,,None,None,0,593.0149173999962,None,593.0149173999962,594.0149205999915,593.9982508000103,594.9982676999934,0,0,593.0149173999962,None,3,f,12,left,KB,2021_Jul_02_1339,WASABI Nback,2020.2.10,59.99235697488788,
0,1,6,"[0.2, 0]",1,0,1,1,1,,,,,0,0,0,0,0,89,89,89,,,,,,,,,,,None,None,0,595.0149242999905,None,595.0149242999905,596.0149445999996,595.9982703000132,596.9982693000056,0,0,595.0149242999905,None,3,f,12,left,KB,2021_Jul_02_1339,WASABI Nback,2020.2.10,59.99235697488788,
0,1,6,"[0.2, 0]",None,0,1,1,1,,,,,0,0,0,0,0,90,90,90,,,,,,,,,,,None,None,0,597.014957700012,None,597.014957700012,598.0149582000158,597.9982792999945,598.9982847000065,0,1,597.014957700012,None,3,f,12,left,KB,2021_Jul_02_1339,WASABI Nback,2020.2.10,59.99235697488788,
0,1,7,"[-0.2, -0.2]",None,0,1,1,1,,,,,0,0,0,0,0,91,91,91,,,,,,,,,,,None,None,0,599.0149717000022,None,599.0149717000022,600.0149672999978,599.9983068000001,600.9983091999893,0,1,599.0149717000022,None,3,f,12,left,KB,2021_Jul_02_1339,WASABI Nback,2020.2.10,59.99235697488788,
0,1,6,"[0.2, 0]",1,0,1,1,1,,,,,0,0,0,0,0,92,92,92,,,,,,,,,,,None,None,0,601.0149929999898,None,601.0149929999898,602.014992899989,601.9983079000085,602.998316799989,0,0,601.0149929999898,None,3,f,12,left,KB,2021_Jul_02_1339,WASABI Nback,2020.2.10,59.99235697488788,
0,1,2,"[0, 0.2]",None,0,1,1,1,,,,,0,0,0,0,0,93,93,93,,,,,,,,,,,None,None,0,603.0149793000019,None,603.0149793000019,604.0150146000087,603.9983285999915,604.9983306000067,0,1,603.0149793000019,None,3,f,12,left,KB,2021_Jul_02_1339,WASABI Nback,2020.2.10,59.99235697488788,
0,1,5,"[0, 0]",None,0,1,1,1,,,,,0,0,0,0,0,94,94,94,,,,,,,,,,,None,None,0,605.0150269000151,None,605.0150269000151,606.0150027000054,605.998354100011,606.9983109000023,0,1,605.0150269000151,None,3,f,12,left,KB,2021_Jul_02_1339,WASABI Nback,2020.2.10,59.99235697488788,
0,1,4,"[-0.2, 0]",None,0,1,1,1,,,,,0,0,0,0,0,95,95,95,,,,,,,,,,,None,None,0,607.0150180000055,None,607.0150180000055,608.015029800008,607.9983588999894,608.9983752999979,0,1,607.0150180000055,None,3,f,12,left,KB,2021_Jul_02_1339,WASABI Nback,2020.2.10,59.99235697488788,
0,1,4,"[-0.2, 0]",None,0,1,1,1,,,,,0,0,0,0,0,96,96,96,,,,,,,,,,,None,None,0,609.0150343000132,None,609.0150343000132,610.0150399999984,609.9983592999924,610.9983866999974,0,1,609.0150343000132,None,3,f,12,left,KB,2021_Jul_02_1339,WASABI Nback,2020.2.10,59.99235697488788,
0,1,7,"[-0.2, -0.2]",None,0,1,1,1,,,,,0,0,0,0,0,97,97,97,,,,,,,,,,,None,None,0,611.0150510999956,None,611.0150510999956,612.0150842000148,611.9983978999953,612.9983931999886,0,1,611.0150510999956,None,3,f,12,left,KB,2021_Jul_02_1339,WASABI Nback,2020.2.10,59.99235697488788,
0,1,4,"[-0.2, 0]",1,0,1,1,1,,,,,0,0,0,0,0,98,98,98,,,,,,,,,,,None,None,0,613.0150626999966,None,613.0150626999966,614.0149609000073,613.9984044000157,614.998422500008,0,0,613.0150626999966,None,3,f,12,left,KB,2021_Jul_02_1339,WASABI Nback,2020.2.10,59.99235697488788,
0,1,3,"[0.2, 0.2]",None,0,1,1,1,,,,,0,0,0,0,0,99,99,99,,,,,,,,,,,None,None,0,615.0150743999984,None,615.0150743999984,616.0151141000097,615.9984210999974,616.9984219000034,0,1,615.0150743999984,None,3,f,12,left,KB,2021_Jul_02_1339,WASABI Nback,2020.2.10,59.99235697488788,
0,1,5,"[0, 0]",None,0,1,1,1,,,,,0,0,0,0,0,100,100,100,,,,,,,,,,,None,None,0,617.0151132000028,None,617.0151132000028,618.0150938000006,617.9984307000122,618.9984261000063,0,1,617.0151132000028,None,3,f,12,left,KB,2021_Jul_02_1339,WASABI Nback,2020.2.10,59.99235697488788,
0,1,3,"[0.2, 0.2]",1,0,1,1,1,,,,,0,0,0,0,0,101,101,101,,,,,,,,,,,None,None,0,619.0151119999937,None,619.0151119999937,620.0151338000142,619.9984375000058,620.9984454000078,0,1,619.0151119999937,None,3,f,12,left,KB,2021_Jul_02_1339,WASABI Nback,2020.2.10,59.99235697488788,
0,1,1,"[-0.2, 0.2]",None,0,1,1,1,,,,,0,0,0,0,0,102,102,102,,,,,,,,,,,None,None,0,621.0151134000043,None,621.0151134000043,622.015138799994,621.998468100006,622.998466399993,0,1,621.0151134000043,None,3,f,12,left,KB,2021_Jul_02_1339,WASABI Nback,2020.2.10,59.99235697488788,
0,1,9,"[0.2, -0.2]",None,0,1,1,1,,,,,0,0,0,0,0,103,103,103,,,,,,,,,,,None,None,0,623.0151453000144,None,623.0151453000144,624.0151371000102,623.9984890999913,624.998488000012,0,1,623.0151453000144,None,3,f,12,left,KB,2021_Jul_02_1339,WASABI Nback,2020.2.10,59.99235697488788,
0,1,9,"[0.2, -0.2]",None,0,1,1,1,,,,,0,0,0,0,0,104,104,104,,,,,,,,,,,None,None,0,625.0151601000107,None,625.0151601000107,626.0151603000122,625.9984886999882,626.9985037000151,0,1,625.0151601000107,None,3,f,12,left,KB,2021_Jul_02_1339,WASABI Nback,2020.2.10,59.99235697488788,
0,1,8,"[0, -0.2]",None,0,1,1,1,,,,,0,0,0,0,0,105,105,105,,,,,,,,,,,None,None,0,627.0151684000157,None,627.0151684000157,628.015183999989,627.9985087999958,628.9984340000083,0,1,627.0151684000157,None,3,f,12,left,KB,2021_Jul_02_1339,WASABI Nback,2020.2.10,59.99235697488788,
0,1,6,"[0.2, 0]",None,0,1,1,1,,,,,0,0,0,0,0,106,106,106,,,,,,,,,,,None,None,0,629.0151852999988,None,629.0151852999988,630.0151771999954,629.9985283999995,630.9985126999964,0,1,629.0151852999988,None,3,f,12,left,KB,2021_Jul_02_1339,WASABI Nback,2020.2.10,59.99235697488788,
0,1,3,"[0.2, 0.2]",None,0,1,1,1,,,,,0,0,0,0,0,107,107,107,,,,,,,,,,,None,None,0,631.0152068999887,None,631.0152068999887,632.0152063000132,631.9985441000026,632.9985830000078,0,1,631.0152068999887,None,3,f,12,left,KB,2021_Jul_02_1339,WASABI Nback,2020.2.10,59.99235697488788,
0,1,6,"[0.2, 0]",1,0,1,1,1,,,,,0,0,0,0,0,108,108,108,,,,,,,,,,,None,None,0,633.0151867000095,None,633.0151867000095,634.0152237000002,633.9985514,634.998554299993,0,1,633.0151867000095,None,3,f,12,left,KB,2021_Jul_02_1339,WASABI Nback,2020.2.10,59.99235697488788,
0,1,5,"[0, 0]",None,0,1,1,1,,,,,0,0,0,0,0,109,109,109,,,,,,,,,,,None,None,0,635.0151249000046,None,635.0151249000046,636.0152267999947,635.9985728999891,636.9985769999912,0,1,635.0151249000046,None,3,f,12,left,KB,2021_Jul_02_1339,WASABI Nback,2020.2.10,59.99235697488788,
0,1,7,"[-0.2, -0.2]",None,0,1,1,1,,,,,0,0,0,0,0,110,110,110,,,,,,,,,,,None,None,0,637.0152509000036,None,637.0152509000036,638.0152491999906,637.9985476000002,638.9985946000088,0,1,637.0152509000036,None,3,f,12,left,KB,2021_Jul_02_1339,WASABI Nback,2020.2.10,59.99235697488788,
0,1,5,"[0, 0]",1,0,1,1,1,,,,,0,0,0,0,0,111,111,111,,,,,,,,,,,None,None,0,639.0152578999987,None,639.0152578999987,640.0152692999982,639.9986040999938,640.9984871000051,0,1,639.0152578999987,None,3,f,12,left,KB,2021_Jul_02_1339,WASABI Nback,2020.2.10,59.99235697488788,
0,1,1,"[-0.2, 0.2]",None,0,1,1,1,,,,,0,0,0,0,0,112,112,112,,,,,,,,,,,None,None,0,641.0152719999896,None,641.0152719999896,642.0152821000083,641.9985944000073,642.9985808999918,0,1,641.0152719999896,None,3,f,12,left,KB,2021_Jul_02_1339,WASABI Nback,2020.2.10,59.99235697488788,
0,1,7,"[-0.2, -0.2]",None,0,1,1,1,,,,,0,0,0,0,0,113,113,113,,,,,,,,,,,None,None,0,643.015252400015,None,643.015252400015,644.0152939000109,643.9986414000159,644.9986400000053,0,1,643.015252400015,None,3,f,12,left,KB,2021_Jul_02_1339,WASABI Nback,2020.2.10,59.99235697488788,
0,1,9,"[0.2, -0.2]",None,0,1,1,1,,,,,0,0,0,0,0,114,114,114,,,,,,,,,,,None,None,0,645.0153064999904,None,645.0153064999904,646.0151933000016,645.9986323000048,646.9986450000142,0,1,645.0153064999904,None,3,f,12,left,KB,2021_Jul_02_1339,WASABI Nback,2020.2.10,59.99235697488788,
0,1,3,"[0.2, 0.2]",None,0,1,1,1,,,,,0,0,0,0,0,115,115,115,,,,,,,,,,,None,None,0,647.0153233000019,None,647.0153233000019,648.0153437000117,647.9986819000042,648.9986681000155,0,1,647.0153233000019,None,3,f,12,left,KB,2021_Jul_02_1339,WASABI Nback,2020.2.10,59.99235697488788,
0,1,9,"[0.2, -0.2]",1,0,1,1,1,,,,,0,0,0,0,0,116,116,116,,,,,,,,,,,None,None,0,649.0153359000105,None,649.0153359000105,650.0153450999933,649.9986731999961,650.9986933000037,0,1,649.0153359000105,None,3,f,12,left,KB,2021_Jul_02_1339,WASABI Nback,2020.2.10,59.99235697488788,
0,1,6,"[0.2, 0]",None,0,1,1,1,,,,,0,0,0,0,0,117,117,117,,,,,,,,,,,None,None,0,651.0153393000073,None,651.0153393000073,652.015351900016,651.9986720000161,652.9986948000151,0,1,651.0153393000073,None,3,f,12,left,KB,2021_Jul_02_1339,WASABI Nback,2020.2.10,59.99235697488788,
0,1,2,"[0, 0.2]",None,0,1,1,1,,,,,0,0,0,0,0,118,118,118,,,,,,,,,,,None,None,0,653.0153645999962,None,653.0153645999962,654.0153620000056,653.9986693999963,654.9987073999946,0,1,653.0153645999962,None,3,f,12,left,KB,2021_Jul_02_1339,WASABI Nback,2020.2.10,59.99235697488788,
0,1,5,"[0, 0]",None,0,1,1,1,,,,,0,0,0,0,0,119,119,119,,,,,,,,,,,None,None,0,655.0153801999986,None,655.0153801999986,656.015390000015,655.9987206000078,656.9987179000163,0,1,655.0153801999986,None,3,f,12,left,KB,2021_Jul_02_1339,WASABI Nback,2020.2.10,59.99235697488788,
