	order	onset	duration	rt	correct
0	1	418.2302486000117	0.7799750599660911		1
1	1	419.0136312000104	1.9885030800069217		1
2	1	421.0136387000093	1.9914052799867932		1
3	1	423.0136523999972	1.9914534800045658		1
4	1	425.01367230000324	1.9913439800147898		1
5	1	427.01369500000146	1.9910835799819324		0
6	1	429.01370070001576	1.991260280017741		1
7	1	431.01371239998844	1.9913056800432969		1
8	1	433.0137352999882	1.9914789799659047		1
9	1	435.013631800015	1.9913503799762111		1
10	1	437.0137551999942	1.9912487799592782	0.4337244000053033	1
11	1	439.01376689999597	1.9913782800140325		1
12	1	441.0137880000111	1.9912843799684197		1
13	1	443.0138108000101	1.9914096800494008	0.5669494000030681	1
14	1	445.0138189000136	1.9913973799557425		1
15	1	447.01383529999293	1.9912559799849987		1
16	1	449.013863900007	1.9910223799815867		1
17	1	451.01374160000705	1.9913682799669914		1
18	1	453.0138739999966	1.9913958799734246		1
19	1	455.0138933999988	1.9915539800422266		1
20	1	457.0139046999975	1.99106968002161		0
21	1	459.01390540000284	1.9913215799897444		1
22	1	461.01394010000513	1.9912910799612291		1
23	1	463.01396050001495	1.991381879983237	0.41704259999096394	1
24	1	465.0139610999904	1.9914165800146293		1
25	1	467.0139912000159	1.9905411799845751		1
26	1	469.014010599989	1.9913546800089534		1
27	1	471.0140384999977	1.9913768799742684		1
28	1	473.0140287000104	1.9911552799749188		1
29	1	475.01405800000066	1.9910912799823564	1.1503035000059754	1
30	1	477.014053299994	1.99123888000031		1
31	1	479.014067000011	1.991263479954796		1
32	1	481.0141149999981	1.9911247800046112		0
33	1	483.0141176999896	1.9913941799895838		1
34	1	485.0141169000126	1.991418680001516		1
35	1	487.0141078000015	1.9911726800200995		1
36	1	489.0141377999971	1.9914417799736839		1
37	1	491.0141326000157	1.9912645799631719		1
38	1	493.01416489999974	1.9914678799977992	0.5836341000103857	1
39	1	495.0141855000111	1.9914720799715724		1
40	1	497.01420549998875	1.9911492799874395		1
41	1	499.0142221999995	1.9915141800011043		0
42	1	501.01422899999307	1.9913810799771454		1
43	1	503.0142392000125	1.9911549800308421		1
44	1	505.01427220000187	1.9915356799901929		1
45	1	507.0142412999994	1.991226580023067		1
46	1	509.01428490001126	1.9913722800265532		1
47	1	511.01430330000585	1.991412279981887		1
48	1	513.0143156000122	1.991493379988242	0.4002757999987807	1
49	1	515.0138145000092	1.99157278003986		1
50	1	517.0143437999941	1.9912958799977787		1
51	1	519.0143604000041	1.991571880003903		0
52	1	521.0143814999901	1.9913187799684238		1
53	1	523.0143897999951	1.9912059800117277		1
54	1	525.0144092999981	1.9915026800590567		1
55	1	527.0144271999889	1.9913266799994744		1
56	1	529.0144523000054	1.991347080009291	0.6003530000161845	1
57	1	531.0144542999915	1.9913513800129294		1
58	1	533.0144661999948	1.9911685800470877		1
59	1	535.0144856999977	1.9915524800308049		1
60	1	537.0145653999934	1.991354079975281		1
61	1	539.0145151999895	1.9913479799870402		1
62	1	541.0145213000069	1.9914294800255448		1
63	1	543.0145450000127	1.9912111800222192		1
64	1	545.014559800009	1.9914526799984742		1
65	1	547.0145637000096	1.9910978800035082		0
66	1	549.0146247000084	1.991202980017988		1
67	1	551.0146048000024	1.9913797800254542		1
68	1	553.0146220999886	1.9915940800274257		1
69	1	555.0146537999972	1.9908085800125264		1
70	1	557.014649299992	1.991360980027821		0
71	1	559.0146678000165	1.9913147800252773		1
72	1	561.0146751000138	1.9912777799763717		1
73	1	563.0146934000077	1.9912569799926132		0
74	1	565.0147203000088	1.9912060799542814		1
75	1	567.0147193000012	1.9911737800284754		1
76	1	569.0147391000064	1.991454680042807		1
77	1	571.0147601999925	1.991155979980249		1
78	1	573.0147637999908	1.9914958800072782		1
79	1	575.0147825000167	1.9915922800137196		1
80	1	577.0147991999984	1.9908074800041504		0
81	1	579.0148100999941	1.9913465799763799		1
82	1	581.0148304000031	1.9913236800348386		1
83	1	583.0148417000019	1.991353080025874	0.9836943000264	1
84	1	585.0148572000035	1.9913912799966056	0.7169629000127316	0
85	1	587.0148698000121	1.9910754799784627		1
86	1	589.0148792999971	1.9913887800066732		1
87	1	591.014889699989	1.9913365799875464		1
88	1	593.0149173999962	1.9913383799721487	0.6002978000033181	0
89	1	595.0149242999905	1.9912631800107192		0
90	1	597.014957700012	1.9911080800229684		1
91	1	599.0149717000022	1.9914177799946629		1
92	1	601.0149929999898	1.9914491799718235		0
93	1	603.0149793000019	1.9914567800005898		1
94	1	605.0150269000151	1.9915102800296154		1
95	1	607.0150180000055	1.9911080799647607		1
96	1	609.0150343000132	1.9913847799762152		1
97	1	611.0150510999956	1.9914889799547382		1
98	1	613.0150626999966	1.991512579988921		0
99	1	615.0150743999984	1.991405479988316		1
100	1	617.0151132000028	1.9912846800289117		1
101	1	619.0151119999937	1.9914135799917858	1.5169638999796007	1
102	1	621.0151134000043	1.9914615799789317		1
103	1	623.0151453000144	1.9913464799756184		1
104	1	625.0151601000107	1.9915236799861304		1
105	1	627.0151684000157	1.990996480017202		1
106	1	629.0151852999988	1.9913074799696915		1
107	1	631.0152068999887	1.9914111800026149		1
108	1	633.0151867000095	1.9910002800170332	0.8669931000040378	1
109	1	635.0151249000046	1.991626479983097		1
110	1	637.0152509000036	1.9912572799657937		1
111	1	639.0152578999987	1.991614380007377	1.3669862000097055	1
112	1	641.0152719999896	1.9912987800198607		1
113	1	643.015252400015	1.9912713799858466		1
114	1	645.0153064999904	1.9913381799706258		1
115	1	647.0153233000019	1.9911863800080027		1
116	1	649.0153359000105	1.9914208800182678	0.5502888000046369	1
117	1	651.0153393000073	1.9912310799700208		1
118	1	653.0153645999962	1.9914766799774952		1
119	1	655.0153801999986	1.9914954800042324		1
