	SID	biopac_channel	body_site	condition	correct	date	duration	handedness	mouseclick	onset	rt	scanner	score	session	sex	skin_site	temperature	value
0	3099	51	Chest	Expectancy		2025_Feb_03_1734	5.003386692609638	r		3.0229327001143247		ss mrs		2	m	3		60.55555555555555
1	3099	45	Chest	2-back Instruction		2025_Feb_03_1734	5.004246900323778	r		8.431468999944627		ss mrs		2	m	3		
2	3099	7	Chest	Pre-trial Jitter		2025_Feb_03_1734	5.012242079945281	r		13.444257500115782		ss mrs		2	m	3		
3	3099	44.0	Chest	pretrialfixation		2025_Feb_03_1734	1.007916260510683	r		18.746471000136808		ss mrs		2	m	3		
4	3099		Chest	2-back	1.0	2025_Feb_03_1734	1.9853583399672061	r		19.757731900084764		ss mrs	12.5	2	m	3	48.5	
5	3099		Chest	2-back	1.0	2025_Feb_03_1734	1.9869307396002114	r		21.765311100054532		ss mrs	25.0	2	m	3	48.5	
6	3099		Chest	2-back	1.0	2025_Feb_03_1734	1.9877569400705397	r	0	23.764934400096536	0.5802015999797732	ss mrs	37.5	2	m	3	48.5	
7	3099		Chest	2-back	1.0	2025_Feb_03_1734	1.9874409399926662	r	2	25.765106700127944	0.6802338999696076	ss mrs	50.0	2	m	3	48.5	
8	3099		Chest	2-back	0.0	2025_Feb_03_1734	1.98734824010171	r	0	27.765180499991402	0.8800493001472205	ss mrs	50.0	2	m	3	48.5	
9	3099		Chest	2-back	1.0	2025_Feb_03_1734	1.987767139915377	r	2	29.764977700076997	0.6131602001842111	ss mrs	62.5	2	m	3	48.5	
10	3099		Chest	2-back	1.0	2025_Feb_03_1734	1.986645539989695	r	0	31.765510600060225	0.7468395000323653	ss mrs	75.0	2	m	3	48.5	
11	3099		Chest	2-back	1.0	2025_Feb_03_1734	1.9876145399175584	r	0	33.76512600015849	1.0625956999137998	ss mrs	87.5	2	m	3	48.5	
12	3099	48.0	Chest	ScoreReport		2025_Feb_03_1734	5.007637980161235	r		35.7801622999832		ss mrs		2	m	3		
13	3099	8	Chest	Post-trial Jitter		2025_Feb_03_1734	7.010073260171339	r		40.83736700005829		ss mrs		2	m	3		
14	3099	20	Chest	PainBinary		2025_Feb_03_1734	5.0025417800061405	r		47.866203899960965	2.250381800113246	ss mrs		2	m	3		1.0
15	3099	21	Chest	IntensityRating		2025_Feb_03_1734	5.010165280196816	r		52.88745620008558	3.1002945001237094	ss mrs		2	m	3		28.641975308641975
16	3099	23	Chest	DistractBinary		2025_Feb_03_1734	5.005896780174226	r		57.914655399974436	2.933627499965951	ss mrs		2	m	3		-1.0
17	3099	9	Chest	Post-Q-Jitter		2025_Feb_03_1734	7.010924540227279	r		62.92054790002294		ss mrs		2	m	3		
18	3099	51	Chest	Expectancy		2025_Feb_03_1734	5.005471840500832	r		70.43168879998848	3.567009699996561	ss mrs		2	m	3		40.0
19	3099	45	Chest	2-back Instruction		2025_Feb_03_1734	5.011511820368469	r		75.80374430003576		ss mrs		2	m	3		
20	3099	7	Chest	Pre-trial Jitter		2025_Feb_03_1734	7.004899439867586	r		80.8237994001247		ss mrs		2	m	3		
21	3099	44.0	Chest	pretrialfixation		2025_Feb_03_1734	1.0110581801272929	r		88.09578309999779		ss mrs		2	m	3		
22	3099		Chest	2-back	1.0	2025_Feb_03_1734	1.9885269398801029	r		89.10707050003111		ss mrs	12.5	2	m	3	48.5	
23	3099		Chest	2-back	1.0	2025_Feb_03_1734	1.9865748398005962	r		91.11640219995752		ss mrs	25.0	2	m	3	48.5	
24	3099		Chest	2-back	1.0	2025_Feb_03_1734	1.9878334400709718	r	0	93.11579330009408	0.5298474999144673	ss mrs	37.5	2	m	3	48.5	
25	3099		Chest	2-back	1.0	2025_Feb_03_1734	1.9874389399774373	r	2	95.11602429999039	0.5800620000809431	ss mrs	50.0	2	m	3	48.5	
26	3099		Chest	2-back	1.0	2025_Feb_03_1734	1.9874995399732143	r	2	97.1160279000178	0.7292375001125038	ss mrs	62.5	2	m	3	48.5	
27	3099		Chest	2-back	1.0	2025_Feb_03_1734	1.9867460399400443	r	2	99.11643090005964	0.596471100114286	ss mrs	75.0	2	m	3	48.5	
28	3099		Chest	2-back	1.0	2025_Feb_03_1734	1.9869217399973422	r	0	101.11635800008662	0.7301189999561757	ss mrs	87.5	2	m	3	48.5	
29	3099		Chest	2-back	0.0	2025_Feb_03_1734	1.987346240086481	r	0	103.11618719995022	0.7966716999653727	ss mrs	87.5	2	m	3	48.5	
30	3099	48.0	Chest	ScoreReport		2025_Feb_03_1734	5.012029779842123	r		105.12887679995038		ss mrs		2	m	3		
31	3099	8	Chest	Post-trial Jitter		2025_Feb_03_1734	5.000642160186544	r		110.1846376999747		ss mrs		2	m	3		
32	3099	20	Chest	PainBinary		2025_Feb_03_1734	4.999867780134082	r		115.2017451999709	2.8337640000972897	ss mrs		2	m	3		1.0
33	3099	21	Chest	IntensityRating		2025_Feb_03_1734	4.99953737994656	r		120.21864770003594	3.1848106998950243	ss mrs		2	m	3		27.098765432098766
34	3099	23	Chest	DistractBinary		2025_Feb_03_1734	5.007136580068618	r		125.23159560002387	1.3336426001042128	ss mrs		2	m	3		1.0
35	3099	9	Chest	Post-Q-Jitter		2025_Feb_03_1734	5.010592540027574	r		130.23826840007678		ss mrs		2	m	3		
36	3099	42	Chest	0-back Instruction		2025_Feb_03_1734	5.009111080085859	r		135.272406199947		ss mrs		2	m	3		
37	3099	7	Chest	Pre-Trial Jitter		2025_Feb_03_1734	9.00281504006125	r		140.29233710002154		ss mrs		2	m	3		
38	3099	44.0	Chest	pretrialfixation		2025_Feb_03_1734	1.0157226400915533	r		149.54427259997465		ss mrs		2	m	3		
39	3099		Chest	0-back	1.0	2025_Feb_03_1734	1.9892031401395798	r	0.0	150.55754499998875	0.6632974999956787	ss mrs	12.5	2	m	3	32.0	
40	3099		Chest	0-back	1.0	2025_Feb_03_1734	1.9873378397896886	r	0.0	152.5668222999666	0.32982310000807047	ss mrs	25.0	2	m	3	32.0	
41	3099		Chest	0-back	1.0	2025_Feb_03_1734	1.9888646400067955	r	0.0	154.5660945000127	0.2625006998423487	ss mrs	37.5	2	m	3	32.0	
42	3099		Chest	0-back	1.0	2025_Feb_03_1734	1.9880803399719298	r	0.0	156.56651789997704	0.22973429993726313	ss mrs	50.0	2	m	3	32.0	
43	3099		Chest	0-back	1.0	2025_Feb_03_1734	1.9889413400087506	r	0.0	158.5661152000539	0.23005159990862012	ss mrs	62.5	2	m	3	32.0	
44	3099		Chest	0-back	1.0	2025_Feb_03_1734	1.9885723399929702	r	0.0	160.56631430005655	0.22935899998992682	ss mrs	75.0	2	m	3	32.0	
45	3099		Chest	0-back	1.0	2025_Feb_03_1734	1.988557840231806	r	0.0	162.566324000014	0.46233229991048574	ss mrs	87.5	2	m	3	32.0	
46	3099		Chest	0-back	1.0	2025_Feb_03_1734	1.988469640025869	r	0.0	164.56641090009362	0.36336780013516545	ss mrs	100.0	2	m	3	32.0	
47	3099	48.0	Chest	ScoreReport		2025_Feb_03_1734	5.00356853986159	r		166.57557570002973		ss mrs		2	m	3		
48	3099	8	Chest	Post-Trial Jitter		2025_Feb_03_1734	7.002232060069218	r		171.6346668000333		ss mrs		2	m	3		
49	3099	42	Chest	0-back Instruction		2025_Feb_03_1734	5.009692080086097	r		178.656047699973		ss mrs		2	m	3		
50	3099	7	Chest	Pre-Trial Jitter		2025_Feb_03_1734	7.001298939809203	r		183.6769322999753		ss mrs		2	m	3		
51	3099	44.0	Chest	pretrialfixation		2025_Feb_03_1734	1.0018619000911713	r		190.92670479998924		ss mrs		2	m	3		
52	3099		Chest	0-back	0.0	2025_Feb_03_1734	1.9916811399161816	r		191.94019070011564		ss mrs	0.0	2	m	3	32.0	
53	3099		Chest	0-back	1.0	2025_Feb_03_1734	1.986781039973721	r	0	193.9509890000336	0.030026799999177456	ss mrs	12.5	2	m	3	32.0	
54	3099		Chest	0-back	1.0	2025_Feb_03_1734	1.9870819400530308	r	0	195.95085890009068	0.2964444002136588	ss mrs	25.0	2	m	3	32.0	
55	3099		Chest	0-back	1.0	2025_Feb_03_1734	1.9866608397569507	r	0	197.95102720009163	0.3631335999816656	ss mrs	37.5	2	m	3	32.0	
56	3099		Chest	0-back	1.0	2025_Feb_03_1734	1.9872916396707296	r	0	199.95081009995192	0.31278349994681776	ss mrs	50.0	2	m	3	32.0	
57	3099		Chest	0-back	1.0	2025_Feb_03_1734	1.9874216399621218	r	0	201.95077200001106	0.24665500014089048	ss mrs	62.5	2	m	3	32.0	
58	3099		Chest	0-back	1.0	2025_Feb_03_1734	1.9871305401902646	r	0	203.9509422001429	0.24691940005868673	ss mrs	75.0	2	m	3	32.0	
59	3099		Chest	0-back	1.0	2025_Feb_03_1734	1.987583639798686	r	0	205.95074640004896	0.29614450014196336	ss mrs	87.5	2	m	3	32.0	
60	3099	48.0	Chest	ScoreReport		2025_Feb_03_1734	5.011481780093163	r		207.96384080010466		ss mrs		2	m	3		
61	3099	8	Chest	Post-Trial Jitter		2025_Feb_03_1734	7.002636959776282	r		213.01834290008992		ss mrs		2	m	3		
62	3099	51	Chest	Expectancy		2025_Feb_03_1734	5.0079056606628	r		220.48244579997845	4.68371449992992	ss mrs		2	m	3		29.197530864197528
63	3099	44	Chest	0-back Instruction		2025_Feb_03_1734	5.015592020237818	r		225.85368890012614		ss mrs		2	m	3		
64	3099	7	Chest	Pre-Trial Jitter		2025_Feb_03_1734	7.0012601397465914	r		230.87761409999803		ss mrs		2	m	3		
65	3099	44.0	Chest	pretrialfixation		2025_Feb_03_1734	1.0075553604401648	r		238.18285210011527		ss mrs		2	m	3		
66	3099		Chest	0-back	1.0	2025_Feb_03_1734	1.9917681398801506	r	0.0	239.1907711001113	0.5799298000056297	ss mrs	12.5	2	m	3	48.5	
67	3099		Chest	0-back	1.0	2025_Feb_03_1734	1.9878762399312109	r	0.0	241.20100280013867	0.2634938999544829	ss mrs	25.0	2	m	3	48.5	
68	3099		Chest	0-back	1.0	2025_Feb_03_1734	1.9883522398304194	r	0.0	243.20083450013772	0.27984629990532994	ss mrs	37.5	2	m	3	48.5	
69	3099		Chest	0-back	1.0	2025_Feb_03_1734	1.98871053988114	r	0.0	245.2006829001475	0.22997200000099838	ss mrs	50.0	2	m	3	48.5	
70	3099		Chest	0-back	1.0	2025_Feb_03_1734	1.9883419398684055	r	0.0	247.20090449997224	0.030078100040555	ss mrs	62.5	2	m	3	48.5	
71	3099		Chest	0-back	1.0	2025_Feb_03_1734	1.989021339919418	r	0.0	249.20060860016383	0.3134167001117021	ss mrs	75.0	2	m	3	48.5	
72	3099		Chest	0-back	1.0	2025_Feb_03_1734	1.98846934014	r	0.0	251.20090660010464	0.3964484999887645	ss mrs	87.5	2	m	3	48.5	
73	3099		Chest	0-back	1.0	2025_Feb_03_1734	1.9888369399122894	r	0.0	253.20071920007467	0.3633105999324471	ss mrs	100.0	2	m	3	48.5	
74	3099	48.0	Chest	ScoreReport		2025_Feb_03_1734	5.00329074007459	r		255.2102487999946		ss mrs		2	m	3		
75	3099	8	Chest	Post-Trial Jitter		2025_Feb_03_1734	9.000978359952569	r		260.26979529997334		ss mrs		2	m	3		
76	3099	20	Chest	PainBinary		2025_Feb_03_1734	5.005680680042133	r		269.2842186000198	1.0836771000176668	ss mrs		2	m	3		1.0
77	3099	21	Chest	IntensityRating		2025_Feb_03_1734	5.015092980116606	r		274.30458420002833	3.38367240014486	ss mrs		2	m	3		35.0
78	3099	23	Chest	DistractBinary		2025_Feb_03_1734	5.006321580149233	r		279.33403680007905	3.7836768000852317	ss mrs		2	m	3		-1.0
79	3099	9	Chest	Post-Q-Jitter		2025_Feb_03_1734	8.994640939868987	r		284.3399441000074		ss mrs		2	m	3		
80	3099	51	Chest	Expectancy		2025_Feb_03_1734	5.01230378029868	r		293.85621300013736	3.083619800163433	ss mrs		2	m	3		35.123456790123456
81	3099	44	Chest	0-back Instruction		2025_Feb_03_1734	5.013476960361004	r		299.2557357000187		ss mrs		2	m	3		
82	3099	7	Chest	Pre-Trial Jitter		2025_Feb_03_1734	5.001504339976236	r		304.2784553000238		ss mrs		2	m	3		
83	3099	44.0	Chest	pretrialfixation		2025_Feb_03_1734	1.00258386018686	r		309.5862507999409		ss mrs		2	m	3		
84	3099		Chest	0-back	1.0	2025_Feb_03_1734	1.9905579399783164	r	0.0	310.59228929993697	0.7296788000967354	ss mrs	12.5	2	m	3	48.5	
85	3099		Chest	0-back	1.0	2025_Feb_03_1734	1.9879204400349408	r	0.0	312.60197850014083	0.3466578000225127	ss mrs	25.0	2	m	3	48.5	
86	3099		Chest	0-back	1.0	2025_Feb_03_1734	1.9888948402367532	r	0.0	314.601512900088	0.2965900998096913	ss mrs	37.5	2	m	3	48.5	
87	3099		Chest	0-back	1.0	2025_Feb_03_1734	1.9887563402298838	r	0.0	316.60162009997293	0.2633887000847608	ss mrs	50.0	2	m	3	48.5	
88	3099		Chest	0-back	1.0	2025_Feb_03_1734	1.9887742397841066	r	0.0	318.60162500012666	0.2630523999687284	ss mrs	62.5	2	m	3	48.5	
89	3099		Chest	0-back	1.0	2025_Feb_03_1734	1.9873130400665104	r	0.0	320.6023864999879	0.26355309993959963	ss mrs	75.0	2	m	3	48.5	
90	3099		Chest	0-back	1.0	2025_Feb_03_1734	1.9889345397241414	r	0.0	322.601575500099	0.34692079992964864	ss mrs	87.5	2	m	3	48.5	
91	3099		Chest	0-back	1.0	2025_Feb_03_1734	1.9887368397321552	r	0.0	324.60172659996897	0.2801425999496132	ss mrs	100.0	2	m	3	48.5	
92	3099	48.0	Chest	ScoreReport		2025_Feb_03_1734	5.004318939754739	r		326.6106335001532		ss mrs		2	m	3		
93	3099	8	Chest	Post-Trial Jitter		2025_Feb_03_1734	7.001467159949243	r		331.67047749995254		ss mrs		2	m	3		
94	3099	20	Chest	PainBinary		2025_Feb_03_1734	5.004840880166739	r		338.68552269996144	1.3337602000683546	ss mrs		2	m	3		1.0
95	3099	21	Chest	IntensityRating		2025_Feb_03_1734	5.009390480117872	r		343.70832250011154		ss mrs		2	m	3		38.641975308641975
96	3099	23	Chest	DistractBinary		2025_Feb_03_1734	5.003602580167353	r		348.7362428000197	0.017234999919310212	ss mrs		2	m	3		0.0
97	3099	9	Chest	Post-Q-Jitter		2025_Feb_03_1734	7.010516840033233	r		353.74125930015		ss mrs		2	m	3		
98	3099	43	Chest	2-back Instruction		2025_Feb_03_1734	5.006884580012411	r		360.77649209997617		ss mrs		2	m	3		
99	3099	7	Chest	Pre-trial Jitter		2025_Feb_03_1734	7.001316540176049	r		365.7960028001107		ss mrs		2	m	3		
100	3099	44.0	Chest	pretrialfixation		2025_Feb_03_1734	1.003053900320083	r		373.0451838001609		ss mrs		2	m	3		
101	3099		Chest	2-back	1.0	2025_Feb_03_1734	1.9911354400683194	r		374.0595015999861		ss mrs	12.5	2	m	3	32.0	
102	3099		Chest	2-back	1.0	2025_Feb_03_1734	1.9875237399246544	r		376.0696720001288		ss mrs	25.0	2	m	3	32.0	
103	3099		Chest	2-back	1.0	2025_Feb_03_1734	1.9873650399968028	r	2	378.0697811001446	0.6297559000086039	ss mrs	37.5	2	m	3	32.0	
104	3099		Chest	2-back	1.0	2025_Feb_03_1734	1.9875261399429291	r	0	380.0697111999616	0.712900800164789	ss mrs	50.0	2	m	3	32.0	
105	3099		Chest	2-back	1.0	2025_Feb_03_1734	1.987273240229115	r	2	382.06987849995494	0.846653499873355	ss mrs	62.5	2	m	3	32.0	
106	3099		Chest	2-back	1.0	2025_Feb_03_1734	1.9867691399995238	r	2	384.07014710013755	0.630060400115326	ss mrs	75.0	2	m	3	32.0	
107	3099		Chest	2-back	1.0	2025_Feb_03_1734	1.9874088398646563	r	2	386.06980190007016	0.6300844999495894	ss mrs	87.5	2	m	3	32.0	
108	3099		Chest	2-back	1.0	2025_Feb_03_1734	1.9878469398245215	r	0	388.0696787000634	0.7801732001826167	ss mrs	100.0	2	m	3	32.0	
109	3099	48.0	Chest	ScoreReport		2025_Feb_03_1734	5.000990940025076	r		390.0797927000094		ss mrs		2	m	3		
110	3099	8	Chest	Post-trial Jitter		2025_Feb_03_1734	5.0002670600079	r		395.1385813001543		ss mrs		2	m	3		
111	3099	43	Chest	2-back Instruction		2025_Feb_03_1734	5.008536580018699	r		400.159509500023		ss mrs		2	m	3		
112	3099	7	Chest	Pre-trial Jitter		2025_Feb_03_1734	9.003348939819261	r		405.178842500085		ss mrs		2	m	3		
113	3099	44.0	Chest	pretrialfixation		2025_Feb_03_1734	1.002588100032881	r		414.4292894001119		ss mrs		2	m	3		
114	3099		Chest	2-back	1.0	2025_Feb_03_1734	1.9891187399625778	r		415.4443969000131		ss mrs	12.5	2	m	3	32.0	
115	3099		Chest	2-back	1.0	2025_Feb_03_1734	1.9864529399201274	r		417.45408369996585		ss mrs	25.0	2	m	3	32.0	
116	3099		Chest	2-back	0.0	2025_Feb_03_1734	1.9876851399894804	r	0	419.45348350005224	1.6634883999358863	ss mrs	25.0	2	m	3	32.0	
117	3099		Chest	2-back	0.0	2025_Feb_03_1734	1.9876999401021749	r	0	421.4534614000004	0.830466200131923	ss mrs	25.0	2	m	3	32.0	
118	3099		Chest	2-back	1.0	2025_Feb_03_1734	1.9869051401037723	r	0	423.4539640999865	0.9298164998181164	ss mrs	37.5	2	m	3	32.0	
119	3099		Chest	2-back	1.0	2025_Feb_03_1734	1.987587139941752	r	0	425.4536160000134	1.113162700086832	ss mrs	50.0	2	m	3	32.0	
120	3099		Chest	2-back	1.0	2025_Feb_03_1734	1.9873230399098247	r	2	427.45376439997926	0.5297245001420379	ss mrs	62.5	2	m	3	32.0	
121	3099		Chest	2-back	1.0	2025_Feb_03_1734	1.9873343401122838	r	2	429.45378490001895	0.6134164999239147	ss mrs	75.0	2	m	3	32.0	
122	3099	48.0	Chest	ScoreReport		2025_Feb_03_1734	5.012072280049324	r		431.4664698999841		ss mrs		2	m	3		
123	3099	8	Chest	Post-trial Jitter		2025_Feb_03_1734	4.998917759861797	r		436.5231182000134		ss mrs		2	m	3		
124	3099	51	Chest	Expectancy		2025_Feb_03_1734	5.008789080893621	r		442.793238800019	3.8503429000265896	ss mrs		2	m	3		28.333333333333332
125	3099	45	Chest	2-back Instruction		2025_Feb_03_1734	5.002955520292744	r		448.17957590008155		ss mrs		2	m	3		
126	3099	7	Chest	Pre-trial Jitter		2025_Feb_03_1734	9.000645239837468	r		453.19749710010365		ss mrs		2	m	3		
127	3099	44.0	Chest	pretrialfixation		2025_Feb_03_1734	1.0101591802667826	r		462.467790100025		ss mrs		2	m	3		
128	3099		Chest	2-back	1.0	2025_Feb_03_1734	1.9893070401158184	r		463.4782461000141		ss mrs	12.5	2	m	3	48.5	
129	3099		Chest	2-back	1.0	2025_Feb_03_1734	1.9859898397698998	r		465.4882827999536		ss mrs	25.0	2	m	3	48.5	
130	3099		Chest	2-back	1.0	2025_Feb_03_1734	1.9881718400865793	r	0	467.48720970004797	0.47986790002323687	ss mrs	37.5	2	m	3	48.5	
131	3099		Chest	2-back	1.0	2025_Feb_03_1734	1.987140340032056	r	2	469.48775950004347	0.430038999998942	ss mrs	50.0	2	m	3	48.5	
132	3099		Chest	2-back	1.0	2025_Feb_03_1734	1.9875990401487797	r	0	471.4875423000194	0.5967580999713391	ss mrs	62.5	2	m	3	48.5	
133	3099		Chest	2-back	1.0	2025_Feb_03_1734	1.9872695398516953	r	2	473.4877319999505	0.5465502999722958	ss mrs	75.0	2	m	3	48.5	
134	3099		Chest	2-back	1.0	2025_Feb_03_1734	1.9875408397056162	r	2	475.48764130007476	0.5458535000216216	ss mrs	87.5	2	m	3	48.5	
135	3099		Chest	2-back	1.0	2025_Feb_03_1734	1.9869262401480228	r	2	477.4879507999867	0.879850200144574	ss mrs	100.0	2	m	3	48.5	
136	3099	48.0	Chest	ScoreReport		2025_Feb_03_1734	5.000594039913267	r		479.49783070012927		ss mrs		2	m	3		
137	3099	8	Chest	Post-trial Jitter		2025_Feb_03_1734	9.00136536010541	r		484.55587409995496		ss mrs		2	m	3		
138	3099	20	Chest	PainBinary		2025_Feb_03_1734	5.005058680195361	r		493.5707904000301	1.567025600001216	ss mrs		2	m	3		1.0
139	3099	21	Chest	IntensityRating		2025_Feb_03_1734	5.007321780081838	r		498.5947293001227	3.2670299999881536	ss mrs		2	m	3		25.80246913580247
140	3099	23	Chest	DistractBinary		2025_Feb_03_1734	5.007308380212635	r		503.6197828000877	2.3170402001123875	ss mrs		2	m	3		1.0
141	3099	9	Chest	Post-Q-Jitter		2025_Feb_03_1734	9.010065640090033	r		508.62683430011384		ss mrs		2	m	3		
142	3099	51	Chest	Expectancy		2025_Feb_03_1734	5.010698780417442	r		518.1516166999936	4.550392400007695	ss mrs		2	m	3		27.037037037037038
143	3099	45	Chest	2-back Instruction		2025_Feb_03_1734	5.007545820204541	r		523.5282777999528		ss mrs		2	m	3		
144	3099	7	Chest	Pre-trial Jitter		2025_Feb_03_1734	5.001459439983591	r		528.5480395001359		ss mrs		2	m	3		
145	3099	44.0	Chest	pretrialfixation		2025_Feb_03_1734	1.0156716199126095	r		533.8326292999554		ss mrs		2	m	3		
146	3099		Chest	2-back	1.0	2025_Feb_03_1734	1.9892764401156455	r		534.8458617001306		ss mrs	12.5	2	m	3	48.5	
147	3099		Chest	2-back	1.0	2025_Feb_03_1734	1.9870908400043845	r		536.855318200076		ss mrs	25.0	2	m	3	48.5	
148	3099		Chest	2-back	1.0	2025_Feb_03_1734	1.986892739776522	r	2	538.8554456001148	0.5630117999389768	ss mrs	37.5	2	m	3	48.5	
149	3099		Chest	2-back	1.0	2025_Feb_03_1734	1.9868867399636656	r	2	540.8554677001666	0.7802077000960708	ss mrs	50.0	2	m	3	48.5	
150	3099		Chest	2-back	1.0	2025_Feb_03_1734	1.9871082396712154	r	0	542.8553951999638	0.6465918000321835	ss mrs	62.5	2	m	3	48.5	
151	3099		Chest	2-back	1.0	2025_Feb_03_1734	1.9871337397489697	r	2	544.8553961999714	0.6301219998858869	ss mrs	75.0	2	m	3	48.5	
152	3099		Chest	2-back	1.0	2025_Feb_03_1734	1.9857263397425413	r	2	546.856128900079	0.530104500008747	ss mrs	87.5	2	m	3	48.5	
153	3099		Chest	2-back	1.0	2025_Feb_03_1734	1.987387039931491	r	0	548.8553307999391	0.49613179988227785	ss mrs	100.0	2	m	3	48.5	
154	3099	48.0	Chest	ScoreReport		2025_Feb_03_1734	5.001210239948705	r		550.8651100001298		ss mrs		2	m	3		
155	3099	8	Chest	Post-trial Jitter		2025_Feb_03_1734	9.002294559963048	r		555.9230049001053		ss mrs		2	m	3		
156	3099	20	Chest	PainBinary		2025_Feb_03_1734	5.005828780122101	r		564.9380181999877	2.7336813998408616	ss mrs		2	m	3		1.0
157	3099	21	Chest	IntensityRating		2025_Feb_03_1734	4.9986562801059335	r		569.9583385000005	4.184132100082934	ss mrs		2	m	3		26.79012345679012
158	3099	23	Chest	DistractBinary		2025_Feb_03_1734	5.003750480245799	r		574.9725077999756	1.4003383999224752	ss mrs		2	m	3		-1.0
159	3099	9	Chest	Post-Q-Jitter		2025_Feb_03_1734	9.009887039894238	r		579.9778561000712		ss mrs		2	m	3		
160	3099	51	Chest	Expectancy		2025_Feb_03_1734	5.007108240155503	r		589.4959960000124	3.550315799890086	ss mrs		2	m	3		28.39506172839506
161	3099	44	Chest	0-back Instruction		2025_Feb_03_1734	5.014634320279583	r		594.8756460000295		ss mrs		2	m	3		
162	3099	7	Chest	Pre-Trial Jitter		2025_Feb_03_1734	5.001510040136054	r		599.8989445001353		ss mrs		2	m	3		
163	3099	44.0	Chest	pretrialfixation		2025_Feb_03_1734	1.0075408201664686	r		605.1875555999577		ss mrs		2	m	3		
164	3099		Chest	0-back	1.0	2025_Feb_03_1734	1.988829439971596	r	0.0	606.1968879001215	1.2632825998589396	ss mrs	12.5	2	m	3	48.5	
165	3099		Chest	0-back	1.0	2025_Feb_03_1734	1.987261040136218	r	0.0	608.2061483999714	0.2800531000830233	ss mrs	25.0	2	m	3	48.5	
166	3099		Chest	0-back	1.0	2025_Feb_03_1734	1.9886523399036378	r	0.0	610.2054854000453	0.21364309987984598	ss mrs	37.5	2	m	3	48.5	
167	3099		Chest	0-back	1.0	2025_Feb_03_1734	1.9890024398919195	r	0.0	612.2053416999988	0.04657160001806915	ss mrs	50.0	2	m	3	48.5	
168	3099		Chest	0-back	1.0	2025_Feb_03_1734	1.9887862398754805	r	0.0	614.2054649000056	0.26316700014285743	ss mrs	62.5	2	m	3	48.5	
169	3099		Chest	0-back	1.0	2025_Feb_03_1734	1.9886820397805423	r	0.0	616.2055649999529	0.180118499789387	ss mrs	75.0	2	m	3	48.5	
170	3099		Chest	0-back	1.0	2025_Feb_03_1734	1.9883892401121557	r	0.0	618.2057239001151	0.19671340007334948	ss mrs	87.5	2	m	3	48.5	
171	3099		Chest	0-back	1.0	2025_Feb_03_1734	1.9888355401344597	r	0.0	620.2055218000896	0.313443599967286	ss mrs	100.0	2	m	3	48.5	
172	3099	48.0	Chest	ScoreReport		2025_Feb_03_1734	5.0047494396567345	r		622.214264600072		ss mrs		2	m	3		
173	3099	8	Chest	Post-Trial Jitter		2025_Feb_03_1734	4.99990535993129	r		627.2751009999774		ss mrs		2	m	3		
174	3099	20	Chest	PainBinary		2025_Feb_03_1734	5.00406568008475	r		632.2897520000115	2.083678500028327	ss mrs		2	m	3		1.0
175	3099	21	Chest	IntensityRating		2025_Feb_03_1734	5.01280648028478	r		637.3104360001162	3.983629300026223	ss mrs		2	m	3		33.20987654320987
176	3099	23	Chest	DistractBinary		2025_Feb_03_1734	5.004483179887757	r		642.3396739000455	1.9837148000951856	ss mrs		2	m	3		1.0
177	3099	9	Chest	Post-Q-Jitter		2025_Feb_03_1734	5.009106639772654	r		647.3457417001482		ss mrs		2	m	3		
178	3099	51	Chest	Expectancy		2025_Feb_03_1734	5.015098620438948	r		652.8844886000734	3.1670920001342893	ss mrs		2	m	3		32.28395061728395
179	3099	44	Chest	0-back Instruction		2025_Feb_03_1734	5.002535960171372	r		658.2825182001106		ss mrs		2	m	3		
180	3099	7	Chest	Pre-Trial Jitter		2025_Feb_03_1734	9.000835940008983	r		663.3001268000808		ss mrs		2	m	3		
181	3099	44.0	Chest	pretrialfixation		2025_Feb_03_1734	1.0029346800874919	r		672.5741433999501		ss mrs		2	m	3		
182	3099		Chest	0-back	1.0	2025_Feb_03_1734	1.99082353990525	r	0.0	673.5802341001108	0.579663900192827	ss mrs	12.5	2	m	3	48.5	
183	3099		Chest	0-back	1.0	2025_Feb_03_1734	1.9875089400447905	r	0.0	675.5902261999436	0.2968317000195384	ss mrs	25.0	2	m	3	48.5	
184	3099		Chest	0-back	1.0	2025_Feb_03_1734	1.9885236399713904	r	0.0	677.5897522999439	0.32991020008921623	ss mrs	37.5	2	m	3	48.5	
185	3099		Chest	0-back	1.0	2025_Feb_03_1734	1.988899840041995	r	0.0	679.5895822001621	0.3795350000727922	ss mrs	50.0	2	m	3	48.5	
186	3099		Chest	0-back	1.0	2025_Feb_03_1734	1.9889520397409797	r	0.0	681.5895965001546	0.22977029997855425	ss mrs	62.5	2	m	3	48.5	
187	3099		Chest	0-back	1.0	2025_Feb_03_1734	1.9888724400661886	r	0.0	683.5896697000135	0.3463634999934584	ss mrs	75.0	2	m	3	48.5	
188	3099		Chest	0-back	1.0	2025_Feb_03_1734	1.9884908399544656	r	0.0	685.5898873000406	0.37983720004558563	ss mrs	87.5	2	m	3	48.5	
189	3099		Chest	0-back	1.0	2025_Feb_03_1734	1.9891141399275512	r	0.0	687.589553900063	0.3457772000692785	ss mrs	100.0	2	m	3	48.5	
190	3099	48.0	Chest	ScoreReport		2025_Feb_03_1734	5.004754539579153	r		689.5984651001636		ss mrs		2	m	3		
191	3099	8	Chest	Post-Trial Jitter		2025_Feb_03_1734	6.997697959886864	r		694.6604204000905		ss mrs		2	m	3		
192	3099	20	Chest	PainBinary		2025_Feb_03_1734	5.007515080273151	r		701.6722526999656	1.1502930999267846	ss mrs		2	m	3		1.0
193	3099	21	Chest	IntensityRating		2025_Feb_03_1734	5.011945380130783	r		706.6950968999881	4.466972100082785	ss mrs		2	m	3		32.901234567901234
194	3099	23	Chest	DistractBinary		2025_Feb_03_1734	5.005190180148929	r		711.7235383000225	4.266911800019443	ss mrs		2	m	3		1.0
195	3099	9	Chest	Post-Q-Jitter		2025_Feb_03_1734	6.994612839771435	r		716.7289071001578		ss mrs		2	m	3		
196	3099	26	Chest	ComfortRating		2025_Feb_03_1734	4.69340538000688	r		723.7463192001451	4.666993300197646	ss mrs		2	m	3		-0.8641975308642031
197	3099	24	Chest	ValenceRating		2025_Feb_03_1734	2.9548296802677214	r		728.4656593000982	2.9338928000070155	ss mrs		2	m	3		61.91358024691358
198	3099	26	Chest	IntensityRating		2025_Feb_03_1734	2.364106179913506	r		731.4443822000176	2.3336960000451654	ss mrs		2	m	3		65.37037037037038
199	3099	27	Chest	AvoidanceRating		2025_Feb_03_1734	2.506283980095759	r		733.8316558999941	2.4836190999485552	ss mrs		2	m	3		-12.098765432098773
200	3099	28	Chest	RelaxationRating		2025_Feb_03_1734	2.6817801801953465	r		736.3606116999872	2.668149200035259	ss mrs		2	m	3		55.30864197530864
201	3099	29	Chest	AttentionRating		2025_Feb_03_1734	3.7631744800601155	r		739.0616230999585	3.73362599988468	ss mrs		2	m	3		57.160493827160494
202	3099	30	Chest	BoredomRating		2025_Feb_03_1734	1.7149345804937184	r		742.8440986999776	1.6835950000677258	ss mrs		2	m	3		50.0
203	3099	31	Chest	AlertnessRating		2025_Feb_03_1734	1.9179769800975919	r		744.5759509999771	1.900375199969858	ss mrs		2	m	3		8.641975308641975
204	3099	32	Chest	PosThxRating		2025_Feb_03_1734	3.2784069802146405	r		746.5124399000779	3.250341000035405	ss mrs		2	m	3		13.086419753086417
205	3099	33	Chest	NegThxRating		2025_Feb_03_1734	1.3434441802091897	r		749.8132776999846	1.3170368999708444	ss mrs		2	m	3		-13.209876543209873
206	3099	34	Chest	SelfRating		2025_Feb_03_1734	1.9802821800112724	r		751.1782085001469	1.9502729000523686	ss mrs		2	m	3		6.296296296296305
207	3099	35	Chest	OtherRating		2025_Feb_03_1734	1.1809965800493956	r		753.1778707001358	1.1681582001037896	ss mrs		2	m	3		-11.728395061728406
208	3099	32	Chest	ImageryRating		2025_Feb_03_1734	3.3964682798832655	r		754.378503800137	3.3669475000351667	ss mrs		2	m	3		-15.06172839506172
209	3099	37	Chest	PresentRating		2025_Feb_03_1734	2.125936680007726	r		757.7971381000243	2.100295800017193	ss mrs		2	m	3		10.617283950617278
