	SID	date	sex	session	handedness	scanner	onset	duration	repetition	rating	body_site	keys	temperature	conditionrt	mouseclick	biopac_channel	condition	rt	value
0	2496	2022_Nov_16_1928	F	01	R	MH	2.774421300040558	5.000995612936094								19	Instructions		
1	2496	2022_Nov_16_1928	F	01	R	MH	8.39429059997201	1.9996168196666986								6	Cue		
2	2496	2022_Nov_16_1928	F	01	R	MH	10.398374299984425	3.993592689977959								7	Pre-Jitter		
3	2496	2022_Nov_16_1928	F	01	R	MH	14.434653999982402	15.004480469971895			Left Face		48.0			11	Heat-Stimulation		
4	2496	2022_Nov_16_1928	F	01	R	MH	29.525878900079988	9.005430239951238								8	Mid-Jitter		
5	2496	2022_Nov_16_1928	F	01	R	MH	38.5491522999946	5.009192679892294								20	PainBinary	0.0	1.0
6	2496	2022_Nov_16_1928	F	01	R	MH	43.58241190004628	5.009460079949349								21	IntensityRating	0.0	47.53086419753087
7	2496	2022_Nov_16_1928	F	01	R	MH	48.61262530006934	4.999395279912278								22	ToleranceRating		-1.0
8	2496	2022_Nov_16_1928	F	01	R	MH	53.61822469998151	9.004959189915098								9	Post-Q-Jitter		
9	2496	2022_Nov_16_1928	F	01	R	MH	64.03514450008515	2.016310839331709								6	Cue		
10	2496	2022_Nov_16_1928	F	01	R	MH	66.0472587000113	3.99696749006398								7	Pre-Jitter		
11	2496	2022_Nov_16_1928	F	01	R	MH	70.11841330002062	15.004618350067176			Left Face		47.5			11	Heat-Stimulation		
12	2496	2022_Nov_16_1928	F	01	R	MH	85.20599440007936	9.013041539932601								8	Mid-Jitter		
13	2496	2022_Nov_16_1928	F	01	R	MH	94.23417200008407	5.007083580014296								20	PainBinary	0.0	1.0
14	2496	2022_Nov_16_1928	F	01	R	MH	99.26540759997442	5.011343979975209								21	IntensityRating	0.0	43.58024691358025
15	2496	2022_Nov_16_1928	F	01	R	MH	104.29584570007864	5.000559579813853								22	ToleranceRating	0.0	1.0
16	2496	2022_Nov_16_1928	F	01	R	MH	109.30144269997254	9.00620618998073								9	Post-Q-Jitter		
17	2496	2022_Nov_16_1928	F	01	R	MH	118.96355810004752	1.9965715997386724								6	Cue		
18	2496	2022_Nov_16_1928	F	01	R	MH	120.96546880004462	7.995031590107828								7	Pre-Jitter		
19	2496	2022_Nov_16_1928	F	01	R	MH	129.0317186000757	14.995878449990414			Left Face		47.5			11	Heat-Stimulation		
20	2496	2022_Nov_16_1928	F	01	R	MH	144.1057641999796	9.014667939976789								8	Mid-Jitter		
21	2496	2022_Nov_16_1928	F	01	R	MH	153.13456610008143	5.007429679855704								20	PainBinary	0.0	1.0
22	2496	2022_Nov_16_1928	F	01	R	MH	158.16654230002314	5.010252779931761								21	IntensityRating	0.0	39.50617283950617
23	2496	2022_Nov_16_1928	F	01	R	MH	163.19686420005746	4.999652479891665								22	ToleranceRating	0.0	1.0
24	2496	2022_Nov_16_1928	F	01	R	MH	168.2013969999971	9.007473690086044								9	Post-Q-Jitter		
25	2496	2022_Nov_16_1928	F	01	R	MH	177.8380513000302	2.0155183096649125								6	Cue		
26	2496	2022_Nov_16_1928	F	01	R	MH	179.84835890005343	3.9971021900419146								7	Pre-Jitter		
27	2496	2022_Nov_16_1928	F	01	R	MH	183.87537300004624	15.009854669915512			Left Face		47.5			11	Heat-Stimulation		
28	2496	2022_Nov_16_1928	F	01	R	MH	198.95682020008098	7.01370373996906								8	Mid-Jitter		
29	2496	2022_Nov_16_1928	F	01	R	MH	205.98497400002088	5.007793579949066								20	PainBinary	0.0	-1.0
30	2496	2022_Nov_16_1928	F	01	R	MH	221.00757040001918	7.0121506557334214								9	Post-Q-Jitter		
31	2496	2022_Nov_16_1928	F	01	R	MH	228.62976919999346	1.9999050197657198								6	Cue		
32	2496	2022_Nov_16_1928	F	01	R	MH	230.6326282999944	5.996321389917284								7	Pre-Jitter		
33	2496	2022_Nov_16_1928	F	01	R	MH	236.6825884000864	14.99644245998934			Left Face		47.5			11	Heat-Stimulation		
34	2496	2022_Nov_16_1928	F	01	R	MH	251.761222000001	7.005988040007651								8	Mid-Jitter		
35	2496	2022_Nov_16_1928	F	01	R	MH	258.7853736000834	5.008058679988608								20	PainBinary	0.0	1.0
36	2496	2022_Nov_16_1928	F	01	R	MH	263.81783740001265	5.00989197997842								21	IntensityRating	0.0	43.39506172839506
37	2496	2022_Nov_16_1928	F	01	R	MH	268.8474503000034	5.000760980066843								22	ToleranceRating	0.0	1.0
38	2496	2022_Nov_16_1928	F	01	R	MH	273.85289980005473	7.006715490017086								9	Post-Q-Jitter		
39	2496	2022_Nov_16_1928	F	01	R	MH	281.4678743000841	2.0081659295829013								6	Cue		
40	2496	2022_Nov_16_1928	F	01	R	MH	283.48325799999293	5.996192789985798								7	Pre-Jitter		
41	2496	2022_Nov_16_1928	F	01	R	MH	289.5290728000691	15.004584559821524			Left Face		47.5			11	Heat-Stimulation		
42	2496	2022_Nov_16_1928	F	01	R	MH	304.60966489999555	9.010180240147747								8	Mid-Jitter		
43	2496	2022_Nov_16_1928	F	01	R	MH	313.6360640000785	5.007801679777913								20	PainBinary	0.0	1.0
44	2496	2022_Nov_16_1928	F	01	R	MH	318.6674585000146	5.0117803800385445								21	IntensityRating	0.0	43.58024691358025
45	2496	2022_Nov_16_1928	F	01	R	MH	323.69825900008436	5.000304679968394								22	ToleranceRating	0.0	1.0
46	2496	2022_Nov_16_1928	F	01	R	MH	328.70293530006893	9.007796090096235								9	Post-Q-Jitter		
47	2496	2022_Nov_16_1928	F	01	R	MH	338.3201399000827	2.004857729654759								6	Cue		
48	2496	2022_Nov_16_1928	F	01	R	MH	340.33385669998825	3.996181389898993								7	Pre-Jitter		
49	2496	2022_Nov_16_1928	F	01	R	MH	344.40839550003875	15.013666340033524			Left Face		47.5			11	Heat-Stimulation		
50	2496	2022_Nov_16_1928	F	01	R	MH	359.4922819000203	7.012802139972337								8	Mid-Jitter		
51	2496	2022_Nov_16_1928	F	01	R	MH	366.5197040999774	5.008270879974589								20	PainBinary	0.0	1.0
52	2496	2022_Nov_16_1928	F	01	R	MH	371.5509585000109	5.012551079969853								21	IntensityRating	0.0	36.60493827160494
53	2496	2022_Nov_16_1928	F	01	R	MH	376.5841449999716	4.996278480044566								22	ToleranceRating	0.0	1.0
54	2496	2022_Nov_16_1928	F	01	R	MH	381.58773550007027	7.005927090067416								9	Post-Q-Jitter		
55	2496	2022_Nov_16_1928	F	01	R	MH	388.6268134000711	4.327866069972515								26	ComfortRating	0.0	9.629629629629633
56	2496	2022_Nov_16_1928	F	01	R	MH	392.97296970000025	4.8857540800236166								24	ValenceRating	0.0	56.604938271604944
57	2496	2022_Nov_16_1928	F	01	R	MH	397.88237360003404	2.3670224798843265								26	IntensityRating	0.0	57.03703703703703
58	2496	2022_Nov_16_1928	F	01	R	MH	400.26871099998243	3.26104348001536								27	AvoidanceRating	0.0	24.19753086419753
59	2496	2022_Nov_16_1928	F	01	R	MH	403.5478963999776	3.152759079937823								28	RelaxationRating	0.0	69.62962962962963
60	2496	2022_Nov_16_1928	F	01	R	MH	406.7187063000165	3.4612130799796432								29	AttentionRating	0.0	69.01234567901234
61	2496	2022_Nov_16_1928	F	01	R	MH	410.19852860004175	3.501704080030322								30	BoredomRating	0.0	50.0
62	2496	2022_Nov_16_1928	F	01	R	MH	413.71708189998753	2.9479837799444795								31	AlertnessRating	0.0	-30.493827160493836
63	2496	2022_Nov_16_1928	F	01	R	MH	416.68275230005383	2.1166505799628794								32	PosThxRating	0.0	0.0
64	2496	2022_Nov_16_1928	F	01	R	MH	418.8171674000332	1.564516479964368								33	NegThxRating	0.0	0.0
65	2496	2022_Nov_16_1928	F	01	R	MH	420.39987740002107	2.5325425800401717								34	SelfRating	0.0	11.111111111111114
66	2496	2022_Nov_16_1928	F	01	R	MH	422.9496223999886	2.4330764800542966								35	OtherRating	0.0	-29.876543209876544
67	2496	2022_Nov_16_1928	F	01	R	MH	425.4005281999707	3.8813944798894227								32	ImageryRating	0.0	-8.395061728395063
68	2496	2022_Nov_16_1928	F	01	R	MH	429.30198450002354	4.895168279996142								37	PresentRating	0.0	-22.962962962962976
