square,location,corrAns,trials_2.thisRepN,trials_2.thisTrialN,trials_2.thisN,trials_2.thisIndex,fixation_1.started,fixation_1.stopped,response_2.x,response_2.y,response_2.leftButton,grid_lines_2.started,grid_lines_2.stopped,target_square_2.started,target_square_2.stopped,fixation_3.started,fixation_3.stopped,response_2.click,response_2.corr,response_2.started,response_2.stopped,ScoreReportText.started,ScoreReportText.stopped,ScoreReportResponse.keys,ScoreReportResponse.started,ScoreReportResponse.stopped,BodySiteInstructionText.started,BodySiteImg.started,BodySiteImg.stopped,BodySiteInstructionRead.keys,BodySiteInstructionRead.rt,BodySiteInstructionRead.started,BodySiteInstructionRead.stopped,IntensityRating.response,IntensityRating.rt,IntensityRating.started,IntensityRating.stopped,fixation_rest.started,fixation_rest.stopped,subject number,gender,distractMap first- or second-half (1 or 2),session,handedness,scanner,bodysite1 temp,bodysite2 temp,date,psychopyVersion,expName,frameRate,body_site_order,
6,"[0.2, 0]",None,0,0,0,0,409.7773176000337,None,None,None,"[0, 0, 0]",410.7940053999773,None,410.7940053999773,411.79399390000617,411.7773393000243,412.77735320001375,"[0, 0, 0]",1,410.7940053999773,None,,,,,,,,,,,,,,,,,,,6,M,1,18,R,MH,49,49,2022_Aug_15_1722,2020.2.10,distractmap1,59.981093968840895,"['Left Face', 'Right Leg', 'Left Face', 'Right Leg']",
7,"[-0.2, -0.2]",None,0,1,1,1,,,None,None,"[0, 0, 0]",412.7940265000216,414.79403540003113,412.7940265000216,413.79403019999154,413.7773826000048,414.7773710000329,"[0, 0, 0]",1,412.7940265000216,414.79403540003113,,,,,,,,,,,,,,,,,,,6,M,1,18,R,MH,49,49,2022_Aug_15_1722,2020.2.10,distractmap1,59.981093968840895,"['Left Face', 'Right Leg', 'Left Face', 'Right Leg']",
6,"[0.2, 0]",1,0,2,2,2,,,None,None,"[0, 0, 0]",414.8107105999952,416.8107200000086,414.8107105999952,415.81072160002077,415.7940391000011,416.7939573000185,"[0, 0, 0]",1,414.8107105999952,416.8107200000086,,,,,,,,,,,,,,,,,,,6,M,1,18,R,MH,49,49,2022_Aug_15_1722,2020.2.10,distractmap1,59.981093968840895,"['Left Face', 'Right Leg', 'Left Face', 'Right Leg']",
2,"[0, 0.2]",0,0,3,3,3,,,None,None,"[0, 0, 0]",416.8273802000331,418.82739940000465,416.8273802000331,417.8273941000225,417.8107419000007,418.8107420000015,"[0, 0, 0]",1,416.8273802000331,418.82739940000465,,,,,,,,,,,,,,,,,,,6,M,1,18,R,MH,49,49,2022_Aug_15_1722,2020.2.10,distractmap1,59.981093968840895,"['Left Face', 'Right Leg', 'Left Face', 'Right Leg']",
5,"[0, 0]",0,0,4,4,4,,,None,None,"[0, 0, 0]",418.8440911999787,420.8440984999761,418.8440911999787,419.84407950000605,419.82740660000127,420.8274204999907,"[0, 0, 0]",1,418.8440911999787,420.8440984999761,,,,,,,,,,,,,,,,,,,6,M,1,18,R,MH,49,49,2022_Aug_15_1722,2020.2.10,distractmap1,59.981093968840895,"['Left Face', 'Right Leg', 'Left Face', 'Right Leg']",
4,"[-0.2, 0]",0,0,5,5,5,,,None,None,"[0, 0, 0]",420.8607607000158,422.8607766000205,420.8607607000158,421.860776800022,421.84409989998676,422.8441032000119,"[0, 0, 0]",1,420.8607607000158,422.8607766000205,,,,,,,,,,,,,,,,,,,6,M,1,18,R,MH,49,49,2022_Aug_15_1722,2020.2.10,distractmap1,59.981093968840895,"['Left Face', 'Right Leg', 'Left Face', 'Right Leg']",
4,"[-0.2, 0]",0,0,6,6,6,,,None,None,"[0, 0, 0]",422.8774341000244,424.87744790001307,422.8774341000244,423.8774735000334,423.86078570003156,424.86079940001946,"[0, 0, 0]",1,422.8774341000244,424.87744790001307,,,,,,,,,,,,,,,,,,,6,M,1,18,R,MH,49,49,2022_Aug_15_1722,2020.2.10,distractmap1,59.981093968840895,"['Left Face', 'Right Leg', 'Left Face', 'Right Leg']",
7,"[-0.2, -0.2]",0,0,7,7,7,,,None,None,"[0, 0, 0]",424.89414300001226,426.89413889998104,424.89414300001226,425.8941352000111,425.87746909999987,426.87747409997974,"[0, 0, 0]",1,424.89414300001226,426.89413889998104,,,,,,,,,,,,,,,,,,,6,M,1,18,R,MH,49,49,2022_Aug_15_1722,2020.2.10,distractmap1,59.981093968840895,"['Left Face', 'Right Leg', 'Left Face', 'Right Leg']",
4,"[-0.2, 0]",1,0,8,8,8,,,None,None,"[0, 0, 0]",426.910827899992,428.9108160000178,426.910827899992,427.9108208999969,427.89446510002017,428.894165900012,"[0, 0, 0]",1,426.910827899992,428.9108160000178,,,,,,,,,,,,,,,,,,,6,M,1,18,R,MH,49,49,2022_Aug_15_1722,2020.2.10,distractmap1,59.981093968840895,"['Left Face', 'Right Leg', 'Left Face', 'Right Leg']",
3,"[0.2, 0.2]",0,0,9,9,9,,,None,None,"[0, 0, 0]",428.92751300003147,430.9275141999824,428.92751300003147,429.92747970001074,429.9108363999985,430.910847000021,"[0, 0, 0]",1,428.92751300003147,430.9275141999824,,,,,,,,,,,,,,,,,,,6,M,1,18,R,MH,49,49,2022_Aug_15_1722,2020.2.10,distractmap1,59.981093968840895,"['Left Face', 'Right Leg', 'Left Face', 'Right Leg']",
5,"[0, 0]",0,0,10,10,10,,,None,None,"[0, 0, 0]",430.94418739998946,432.9441925000283,430.94418739998946,431.9441831000149,431.92754250002326,432.9275246000034,"[0, 0, 0]",1,430.94418739998946,432.9441925000283,,,,,,,,,,,,,,,,,,,6,M,1,18,R,MH,49,49,2022_Aug_15_1722,2020.2.10,distractmap1,59.981093968840895,"['Left Face', 'Right Leg', 'Left Face', 'Right Leg']",
3,"[0.2, 0.2]",1,0,11,11,11,,,None,None,"[0, 0, 0]",432.9608723000274,434.9608716000221,432.9608723000274,433.96089550002944,433.94419780001044,434.944219099998,"[0, 0, 0]",1,432.9608723000274,434.9608716000221,,,,,,,,,,,,,,,,,,,6,M,1,18,R,MH,49,49,2022_Aug_15_1722,2020.2.10,distractmap1,59.981093968840895,"['Left Face', 'Right Leg', 'Left Face', 'Right Leg']",
1,"[-0.2, 0.2]",0,0,12,12,12,,,None,None,"[0, 0, 0]",434.9775421000086,436.9775566000026,434.9775421000086,435.9775971000199,435.96123180002905,436.9609018000192,"[0, 0, 0]",1,434.9775421000086,436.9775566000026,,,,,,,,,,,,,,,,,,,6,M,1,18,R,MH,49,49,2022_Aug_15_1722,2020.2.10,distractmap1,59.981093968840895,"['Left Face', 'Right Leg', 'Left Face', 'Right Leg']",
9,"[0.2, -0.2]",0,0,13,13,13,,,None,None,"[0, 0, 0]",436.99423489999026,438.99424740002723,436.99423489999026,437.99423930002376,437.9775646000053,438.97757609997643,"[0, 0, 0]",1,436.99423489999026,438.99424740002723,,,,,,,,,,,,,,,,,,,6,M,1,18,R,MH,49,49,2022_Aug_15_1722,2020.2.10,distractmap1,59.981093968840895,"['Left Face', 'Right Leg', 'Left Face', 'Right Leg']",
9,"[0.2, -0.2]",0,0,14,14,14,,,None,None,"[0, 0, 0]",439.01090850000037,441.0109057999798,439.01090850000037,440.0109370999853,439.99423569999635,440.99424299999373,"[0, 0, 0]",1,439.01090850000037,441.0109057999798,,,,,,,,,,,,,,,,,,,6,M,1,18,R,MH,49,49,2022_Aug_15_1722,2020.2.10,distractmap1,59.981093968840895,"['Left Face', 'Right Leg', 'Left Face', 'Right Leg']",
8,"[0, -0.2]",0,0,15,15,15,,,None,None,"[0, 0, 0]",441.0276059000171,443.0275898000109,441.0276059000171,442.0276101999916,442.01093500002753,443.01093310001306,"[0, 0, 0]",1,441.0276059000171,443.0275898000109,,,,,,,,,,,,,,,,,,,6,M,1,18,R,MH,49,49,2022_Aug_15_1722,2020.2.10,distractmap1,59.981093968840895,"['Left Face', 'Right Leg', 'Left Face', 'Right Leg']",
6,"[0.2, 0]",0,0,16,16,16,,,None,None,"[0, 0, 0]",443.0442980999942,445.0442856000154,443.0442980999942,444.04426170000806,444.0276219000225,445.0276343000005,"[0, 0, 0]",1,443.0442980999942,445.0442856000154,,,,,,,,,,,,,,,,,,,6,M,1,18,R,MH,49,49,2022_Aug_15_1722,2020.2.10,distractmap1,59.981093968840895,"['Left Face', 'Right Leg', 'Left Face', 'Right Leg']",
3,"[0.2, 0.2]",0,0,17,17,17,,,None,None,"[0, 0, 0]",445.0609462999855,447.06096510001225,445.0609462999855,446.0609655000153,446.0442900999915,447.04430680000223,"[0, 0, 0]",1,445.0609462999855,447.06096510001225,,,,,,,,,,,,,,,,,,,6,M,1,18,R,MH,49,49,2022_Aug_15_1722,2020.2.10,distractmap1,59.981093968840895,"['Left Face', 'Right Leg', 'Left Face', 'Right Leg']",
6,"[0.2, 0]",1,0,18,18,18,,,None,None,"[0, 0, 0]",447.0776477000327,449.0776721999864,447.0776477000327,448.07766750000883,448.06098529999144,449.0609993999824,"[0, 0, 0]",1,447.0776477000327,449.0776721999864,,,,,,,,,,,,,,,,,,,6,M,1,18,R,MH,49,49,2022_Aug_15_1722,2020.2.10,distractmap1,59.981093968840895,"['Left Face', 'Right Leg', 'Left Face', 'Right Leg']",
5,"[0, 0]",0,0,19,19,19,,,None,None,"[0, 0, 0]",449.09432500001276,451.09434110001894,449.09432500001276,450.09430739999516,450.0771491000196,451.0776964999968,"[0, 0, 0]",1,449.09432500001276,451.09434110001894,,,,,,,,,,,,,,,,,,,6,M,1,18,R,MH,49,49,2022_Aug_15_1722,2020.2.10,distractmap1,59.981093968840895,"['Left Face', 'Right Leg', 'Left Face', 'Right Leg']",
7,"[-0.2, -0.2]",0,0,20,20,20,,,None,None,"[0, 0, 0]",451.11100279999664,453.11102630000096,451.11100279999664,452.1110210000188,452.0943541000015,453.0943509999779,"[0, 0, 0]",1,451.11100279999664,453.11102630000096,,,,,,,,,,,,,,,,,,,6,M,1,18,R,MH,49,49,2022_Aug_15_1722,2020.2.10,distractmap1,59.981093968840895,"['Left Face', 'Right Leg', 'Left Face', 'Right Leg']",
5,"[0, 0]",1,0,21,21,21,,,None,None,"[0, 0, 0]",453.1276941000251,455.12772039999254,453.1276941000251,454.12770820001606,454.11103640001966,455.1110326999915,"[0, 0, 0]",1,453.1276941000251,455.12772039999254,,,,,,,,,,,,,,,,,,,6,M,1,18,R,MH,49,49,2022_Aug_15_1722,2020.2.10,distractmap1,59.981093968840895,"['Left Face', 'Right Leg', 'Left Face', 'Right Leg']",
1,"[-0.2, 0.2]",0,0,22,22,22,,,None,None,"[0, 0, 0]",455.1443664000253,457.14440510002896,455.1443664000253,456.14388920000056,456.1277289999998,457.12776260002283,"[0, 0, 0]",1,455.1443664000253,457.14440510002896,,,,,,,,,,,,,,,,,,,6,M,1,18,R,MH,49,49,2022_Aug_15_1722,2020.2.10,distractmap1,59.981093968840895,"['Left Face', 'Right Leg', 'Left Face', 'Right Leg']",
7,"[-0.2, -0.2]",0,0,23,23,23,,,None,None,"[0, 0, 0]",457.161055100034,459.16115090000676,457.161055100034,458.1609862000332,458.1443932999973,459.1444057999761,"[0, 0, 0]",1,457.161055100034,459.16115090000676,,,,,,,,,,,,,,,,,,,6,M,1,18,R,MH,49,49,2022_Aug_15_1722,2020.2.10,distractmap1,59.981093968840895,"['Left Face', 'Right Leg', 'Left Face', 'Right Leg']",
9,"[0.2, -0.2]",0,0,24,24,24,,,None,None,"[0, 0, 0]",459.1777711000177,461.177763100015,459.1777711000177,460.1776844999986,460.16111159999855,461.16110770002706,"[0, 0, 0]",1,459.1777711000177,461.177763100015,,,,,,,,,,,,,,,,,,,6,M,1,18,R,MH,49,49,2022_Aug_15_1722,2020.2.10,distractmap1,59.981093968840895,"['Left Face', 'Right Leg', 'Left Face', 'Right Leg']",
3,"[0.2, 0.2]",0,0,25,25,25,,,None,None,"[0, 0, 0]",461.19442600000184,463.19444589997875,461.19442600000184,462.19452170003206,462.1776426000288,463.1777864000178,"[0, 0, 0]",1,461.19442600000184,463.19444589997875,,,,,,,,,,,,,,,,,,,6,M,1,18,R,MH,49,49,2022_Aug_15_1722,2020.2.10,distractmap1,59.981093968840895,"['Left Face', 'Right Leg', 'Left Face', 'Right Leg']",
9,"[0.2, -0.2]",1,0,26,26,26,,,None,None,"[0, 0, 0]",463.21100519999163,465.2111281999969,463.21100519999163,464.2111474000267,464.1944447000278,465.19443889998365,"[0, 0, 0]",1,463.21100519999163,465.2111281999969,,,,,,,,,,,,,,,,,,,6,M,1,18,R,MH,49,49,2022_Aug_15_1722,2020.2.10,distractmap1,59.981093968840895,"['Left Face', 'Right Leg', 'Left Face', 'Right Leg']",
6,"[0.2, 0]",0,0,27,27,27,,,None,None,"[0, 0, 0]",465.2277972000302,467.2278206999763,465.2277972000302,466.22781930002384,466.2111485999776,467.2112395000295,"[0, 0, 0]",1,465.2277972000302,467.2278206999763,,,,,,,,,,,,,,,,,,,6,M,1,18,R,MH,49,49,2022_Aug_15_1722,2020.2.10,distractmap1,59.981093968840895,"['Left Face', 'Right Leg', 'Left Face', 'Right Leg']",
2,"[0, 0.2]",0,0,28,28,28,,,None,None,"[0, 0, 0]",467.2445039000013,469.24450219998835,467.2445039000013,468.24447189999046,468.2278192000231,469.22783580003306,"[0, 0, 0]",1,467.2445039000013,469.24450219998835,,,,,,,,,,,,,,,,,,,6,M,1,18,R,MH,49,49,2022_Aug_15_1722,2020.2.10,distractmap1,59.981093968840895,"['Left Face', 'Right Leg', 'Left Face', 'Right Leg']",
5,"[0, 0]",0,0,29,29,29,,,None,None,"[0, 0, 0]",469.2611697000102,471.26118309999583,469.2611697000102,470.2611839000019,470.2444997000275,471.24452010000823,"[0, 0, 0]",1,469.2611697000102,471.26118309999583,,,,,,,,,,,,,,,,,,,6,M,1,18,R,MH,49,49,2022_Aug_15_1722,2020.2.10,distractmap1,59.981093968840895,"['Left Face', 'Right Leg', 'Left Face', 'Right Leg']",
,,,,,,,,,,,,,,,,,,,,,,471.29451680002967,None,space,471.29451680002967,None,,,,,,,,,,,,,,6,M,1,18,R,MH,49,49,2022_Aug_15_1722,2020.2.10,distractmap1,59.981093968840895,"['Left Face', 'Right Leg', 'Left Face', 'Right Leg']",
3,"[0.2, 0.2]",None,0,0,0,0,676.3631625000271,None,None,None,"[0, 0, 0]",682.9295334999915,684.929673000006,682.9295334999915,683.9296570000006,683.9296570000006,684.929673000006,"[0, 0, 0]",1,682.9295334999915,684.929673000006,,,,,,505.8617671999964,505.8617671999964,None,space,141.74719870003173,505.8617671999964,None,,,,,,,6,M,1,18,R,MH,49,49,2022_Aug_15_1722,2020.2.10,distractmap1,59.981093968840895,"['Left Face', 'Right Leg', 'Left Face', 'Right Leg']",
3,"[0.2, 0.2]",None,0,1,1,1,,,None,None,"[0, 0, 0]",684.9463073000079,686.946330900013,684.9463073000079,685.9463288999978,685.9296699999832,686.9295540000312,"[0, 0, 0]",1,684.9463073000079,686.946330900013,,,,,,,,,,,,,,,,,,,6,M,1,18,R,MH,49,49,2022_Aug_15_1722,2020.2.10,distractmap1,59.981093968840895,"['Left Face', 'Right Leg', 'Left Face', 'Right Leg']",
5,"[0, 0]",0,0,2,2,2,,,None,None,"[0, 0, 0]",686.9630162999965,688.9630061999778,686.9630162999965,687.9629915999831,687.9463531000074,688.9463480000268,"[0, 0, 0]",1,686.9630162999965,688.9630061999778,,,,,,,,,,,,,,,,,,,6,M,1,18,R,MH,49,49,2022_Aug_15_1722,2020.2.10,distractmap1,59.981093968840895,"['Left Face', 'Right Leg', 'Left Face', 'Right Leg']",
1,"[-0.2, 0.2]",0,0,3,3,3,,,None,None,"[0, 0, 0]",688.9797099999851,690.9797167999786,688.9797099999851,689.9797006000299,689.9629553999985,690.9629169999971,"[0, 0, 0]",1,688.9797099999851,690.9797167999786,,,,,,,,,,,,,,,,,,,6,M,1,18,R,MH,49,49,2022_Aug_15_1722,2020.2.10,distractmap1,59.981093968840895,"['Left Face', 'Right Leg', 'Left Face', 'Right Leg']",
5,"[0, 0]",1,0,4,4,4,,,None,None,"[0, 0, 0]",691.0467411000282,None,691.0467411000282,692.0463651000173,692.0297253000317,None,"[0, 0, 0]",1,691.0467411000282,None,,,,,,,,,,,,,,,,,,,6,M,1,18,R,MH,49,49,2022_Aug_15_1722,2020.2.10,distractmap1,59.981093968840895,"['Left Face', 'Right Leg', 'Left Face', 'Right Leg']",
8,"[0, -0.2]",0,0,5,5,5,,,None,None,"[0, 0, 0]",693.0130387999816,695.0130749000236,693.0130387999816,694.0129566999967,693.9963929000078,694.9964102000231,"[0, 0, 0]",1,693.0130387999816,695.0130749000236,,,,,,,,,,,,,,,,,,,6,M,1,18,R,MH,49,49,2022_Aug_15_1722,2020.2.10,distractmap1,59.981093968840895,"['Left Face', 'Right Leg', 'Left Face', 'Right Leg']",
5,"[0, 0]",1,0,6,6,6,,,None,None,"[0, 0, 0]",695.0297468000208,697.0297599000041,695.0297468000208,696.0296354999882,696.0130013999878,697.013073900016,"[0, 0, 0]",1,695.0297468000208,697.0297599000041,,,,,,,,,,,,,,,,,,,6,M,1,18,R,MH,49,49,2022_Aug_15_1722,2020.2.10,distractmap1,59.981093968840895,"['Left Face', 'Right Leg', 'Left Face', 'Right Leg']",
7,"[-0.2, -0.2]",0,0,7,7,7,,,None,None,"[0, 0, 0]",697.0464251000085,699.0464282000321,697.0464251000085,698.0464536999934,698.0297788000316,699.0297771000187,"[0, 0, 0]",1,697.0464251000085,699.0464282000321,,,,,,,,,,,,,,,,,,,6,M,1,18,R,MH,49,49,2022_Aug_15_1722,2020.2.10,distractmap1,59.981093968840895,"['Left Face', 'Right Leg', 'Left Face', 'Right Leg']",
5,"[0, 0]",1,0,8,8,8,,,None,None,"[0, 0, 0]",699.0630878999946,701.0631284000119,699.0630878999946,700.0630908000167,700.0464490000159,701.046447700006,"[0, 0, 0]",1,699.0630878999946,701.0631284000119,,,,,,,,,,,,,,,,,,,6,M,1,18,R,MH,49,49,2022_Aug_15_1722,2020.2.10,distractmap1,59.981093968840895,"['Left Face', 'Right Leg', 'Left Face', 'Right Leg']",
7,"[-0.2, -0.2]",1,0,9,9,9,,,None,None,"[0, 0, 0]",701.0798207999906,703.079824800021,701.0798207999906,702.0798028000281,702.0631168999826,703.0631318999804,"[0, 0, 0]",1,701.0798207999906,703.079824800021,,,,,,,,,,,,,,,,,,,6,M,1,18,R,MH,49,49,2022_Aug_15_1722,2020.2.10,distractmap1,59.981093968840895,"['Left Face', 'Right Leg', 'Left Face', 'Right Leg']",
,,,,,,,,,,,,,,,,,,,,,,703.1131305000163,None,,,,,,,,,,,,,,,,,6,M,1,18,R,MH,49,49,2022_Aug_15_1722,2020.2.10,distractmap1,59.981093968840895,"['Left Face', 'Right Leg', 'Left Face', 'Right Leg']",
,,,,,,,,,,,,,,,,,,,,,,,,,,,,,,,,,,15.802469135802468,681.4686141200364,,,,,6,M,1,18,R,MH,49,49,2022_Aug_15_1722,2020.2.10,distractmap1,59.981093968840895,"['Left Face', 'Right Leg', 'Left Face', 'Right Leg']",
6,"[0.2, 0]",None,0,0,0,0,719.0468720999779,None,None,None,"[0, 0, 0]",723.1465535000316,725.1466768999817,723.1465535000316,724.1466841999791,724.1466841999791,725.1466768999817,"[0, 0, 0]",1,723.1465535000316,725.1466768999817,,,,,,,,,,,,,,,0.013267679954878986,5.00940677995095,,,6,M,1,18,R,MH,49,49,2022_Aug_15_1722,2020.2.10,distractmap1,59.981093968840895,"['Left Face', 'Right Leg', 'Left Face', 'Right Leg']",
1,"[-0.2, 0.2]",None,0,1,1,1,,,None,None,"[0, 0, 0]",725.1633369000047,727.1633855000255,725.1633369000047,726.1633429999929,726.1466813000152,727.1466948000016,"[0, 0, 0]",1,725.1633369000047,727.1633855000255,,,,,,,,,,,,,,,,,,,6,M,1,18,R,MH,49,49,2022_Aug_15_1722,2020.2.10,distractmap1,59.981093968840895,"['Left Face', 'Right Leg', 'Left Face', 'Right Leg']",
6,"[0.2, 0]",1,0,2,2,2,,,None,None,"[0, 0, 0]",727.1800225999905,729.1800326000084,727.1800225999905,728.1800155999954,728.1632586999913,729.1633494999842,"[0, 0, 0]",1,727.1800225999905,729.1800326000084,,,,,,,,,,,,,,,,,,,6,M,1,18,R,MH,49,49,2022_Aug_15_1722,2020.2.10,distractmap1,59.981093968840895,"['Left Face', 'Right Leg', 'Left Face', 'Right Leg']",
4,"[-0.2, 0]",0,0,3,3,3,,,None,None,"[0, 0, 0]",729.1966999000288,731.1967306000297,729.1966999000288,730.1967091999832,730.1800304999924,731.1800689999945,"[0, 0, 0]",1,729.1966999000288,731.1967306000297,,,,,,,,,,,,,,,,,,,6,M,1,18,R,MH,49,49,2022_Aug_15_1722,2020.2.10,distractmap1,59.981093968840895,"['Left Face', 'Right Leg', 'Left Face', 'Right Leg']",
1,"[-0.2, 0.2]",0,0,4,4,4,,,None,None,"[0, 0, 0]",731.2801172999898,None,731.2801172999898,732.280368399981,732.2637467000168,None,"[0, 0, 0]",1,731.2801172999898,None,,,,,,,,,,,,,,,,,,,6,M,1,18,R,MH,49,49,2022_Aug_15_1722,2020.2.10,distractmap1,59.981093968840895,"['Left Face', 'Right Leg', 'Left Face', 'Right Leg']",
8,"[0, -0.2]",0,0,5,5,5,,,None,None,"[0, 0, 0]",733.230066100019,735.2300887000165,733.230066100019,734.2300714000012,734.2133899999899,735.2134021000238,"[0, 0, 0]",1,733.230066100019,735.2300887000165,,,,,,,,,,,,,,,,,,,6,M,1,18,R,MH,49,49,2022_Aug_15_1722,2020.2.10,distractmap1,59.981093968840895,"['Left Face', 'Right Leg', 'Left Face', 'Right Leg']",
1,"[-0.2, 0.2]",1,0,6,6,6,,,None,None,"[0, 0, 0]",735.2467579999939,737.2467506999965,735.2467579999939,736.2467670000042,736.2300349000143,737.2301141999778,"[0, 0, 0]",1,735.2467579999939,737.2467506999965,,,,,,,,,,,,,,,,,,,6,M,1,18,R,MH,49,49,2022_Aug_15_1722,2020.2.10,distractmap1,59.981093968840895,"['Left Face', 'Right Leg', 'Left Face', 'Right Leg']",
8,"[0, -0.2]",1,0,7,7,7,,,None,None,"[0, 0, 0]",737.2634253000142,739.2634114000248,737.2634253000142,738.2634363999823,738.2467840000172,739.2468013000325,"[0, 0, 0]",1,737.2634253000142,739.2634114000248,,,,,,,,,,,,,,,,,,,6,M,1,18,R,MH,49,49,2022_Aug_15_1722,2020.2.10,distractmap1,59.981093968840895,"['Left Face', 'Right Leg', 'Left Face', 'Right Leg']",
1,"[-0.2, 0.2]",1,0,8,8,8,,,None,None,"[0, 0, 0]",739.2801220000256,741.2801445000223,739.2801220000256,740.2801298000268,740.26346560003,741.2634661999764,"[0, 0, 0]",1,739.2801220000256,741.2801445000223,,,,,,,,,,,,,,,,,,,6,M,1,18,R,MH,49,49,2022_Aug_15_1722,2020.2.10,distractmap1,59.981093968840895,"['Left Face', 'Right Leg', 'Left Face', 'Right Leg']",
6,"[0.2, 0]",0,0,9,9,9,,,None,None,"[0, 0, 0]",741.2968125999905,743.296814500005,741.2968125999905,742.2970817000023,742.2805582000292,743.2801582000102,"[0, 0, 0]",1,741.2968125999905,743.296814500005,,,,,,,,,,,,,,,,,,,6,M,1,18,R,MH,49,49,2022_Aug_15_1722,2020.2.10,distractmap1,59.981093968840895,"['Left Face', 'Right Leg', 'Left Face', 'Right Leg']",
,,,,,,,,,,,,,,,,,,,,,,743.3134655000176,None,,,,,,,,,,,,,,,,,6,M,1,18,R,MH,49,49,2022_Aug_15_1722,2020.2.10,distractmap1,59.981093968840895,"['Left Face', 'Right Leg', 'Left Face', 'Right Leg']",
,,,,,,,,,,,,,,,,,,,,,,,,,,,,,,,,,,13.950617283950617,723.8355822199956,,,,,6,M,1,18,R,MH,49,49,2022_Aug_15_1722,2020.2.10,distractmap1,59.981093968840895,"['Left Face', 'Right Leg', 'Left Face', 'Right Leg']",
7,"[-0.2, -0.2]",None,0,0,0,0,760.5636878000223,None,None,None,"[0, 0, 0]",763.3303167999838,None,763.3303167999838,764.3303208000143,764.3303208000143,None,"[0, 0, 0]",1,763.3303167999838,None,,,,,,,,,,,,,,,0.013311479997355491,5.009453280013986,,,6,M,1,18,R,MH,49,49,2022_Aug_15_1722,2020.2.10,distractmap1,59.981093968840895,"['Left Face', 'Right Leg', 'Left Face', 'Right Leg']",
7,"[-0.2, -0.2]",None,0,1,1,1,,,None,None,"[0, 0, 0]",765.3303419000003,767.3303577000042,765.3303419000003,766.3303566999966,766.313676299993,767.3136955000227,"[0, 0, 0]",1,765.3303419000003,767.3303577000042,,,,,,,,,,,,,,,,,,,6,M,1,18,R,MH,49,49,2022_Aug_15_1722,2020.2.10,distractmap1,59.981093968840895,"['Left Face', 'Right Leg', 'Left Face', 'Right Leg']",
7,"[-0.2, -0.2]",1,0,2,2,2,,,None,None,"[0, 0, 0]",767.3470109000336,769.3470401000232,767.3470109000336,768.3469410000253,768.3303677000222,769.3304002999794,"[0, 0, 0]",1,767.3470109000336,769.3470401000232,,,,,,,,,,,,,,,,,,,6,M,1,18,R,MH,49,49,2022_Aug_15_1722,2020.2.10,distractmap1,59.981093968840895,"['Left Face', 'Right Leg', 'Left Face', 'Right Leg']",
5,"[0, 0]",0,0,3,3,3,,,None,None,"[0, 0, 0]",769.3637480000034,771.3636983000324,769.3637480000034,770.3637111000135,770.347034699982,771.3470369999995,"[0, 0, 0]",1,769.3637480000034,771.3636983000324,,,,,,,,,,,,,,,,,,,6,M,1,18,R,MH,49,49,2022_Aug_15_1722,2020.2.10,distractmap1,59.981093968840895,"['Left Face', 'Right Leg', 'Left Face', 'Right Leg']",
1,"[-0.2, 0.2]",0,0,4,4,4,,,None,None,"[0, 0, 0]",771.4473819999839,None,771.4473819999839,772.4470754999784,772.4303991000052,None,"[0, 0, 0]",1,771.4473819999839,None,,,,,,,,,,,,,,,,,,,6,M,1,18,R,MH,49,49,2022_Aug_15_1722,2020.2.10,distractmap1,59.981093968840895,"['Left Face', 'Right Leg', 'Left Face', 'Right Leg']",
6,"[0.2, 0]",0,0,5,5,5,,,None,None,"[0, 0, 0]",773.3970676999888,775.3970948000206,773.3970676999888,774.3970734000322,774.3804219000158,775.3804328999831,"[0, 0, 0]",1,773.3970676999888,775.3970948000206,,,,,,,,,,,,,,,,,,,6,M,1,18,R,MH,49,49,2022_Aug_15_1722,2020.2.10,distractmap1,59.981093968840895,"['Left Face', 'Right Leg', 'Left Face', 'Right Leg']",
1,"[-0.2, 0.2]",1,0,6,6,6,,,None,None,"[0, 0, 0]",775.413775700028,777.4137571000028,775.413775700028,776.4137559999945,776.3970998000004,777.397114899999,"[0, 0, 0]",1,775.413775700028,777.4137571000028,,,,,,,,,,,,,,,,,,,6,M,1,18,R,MH,49,49,2022_Aug_15_1722,2020.2.10,distractmap1,59.981093968840895,"['Left Face', 'Right Leg', 'Left Face', 'Right Leg']",
7,"[-0.2, -0.2]",0,0,7,7,7,,,None,None,"[0, 0, 0]",777.4304423999856,779.4304584999918,777.4304423999856,778.4304627000238,778.4137621999835,779.4137992000324,"[0, 0, 0]",1,777.4304423999856,779.4304584999918,,,,,,,,,,,,,,,,,,,6,M,1,18,R,MH,49,49,2022_Aug_15_1722,2020.2.10,distractmap1,59.981093968840895,"['Left Face', 'Right Leg', 'Left Face', 'Right Leg']",
6,"[0.2, 0]",0,0,8,8,8,,,None,None,"[0, 0, 0]",779.4471192000201,781.4471466999967,779.4471192000201,780.4471441999776,780.430522300012,781.4304804999847,"[0, 0, 0]",0,779.4471192000201,781.4471466999967,,,,,,,,,,,,,,,,,,,6,M,1,18,R,MH,49,49,2022_Aug_15_1722,2020.2.10,distractmap1,59.981093968840895,"['Left Face', 'Right Leg', 'Left Face', 'Right Leg']",
7,"[-0.2, -0.2]",1,0,9,9,9,,,None,None,"[0, 0, 0]",781.4637904000119,783.4638301000232,781.4637904000119,782.4638359000091,782.4471586000291,783.4471678999835,"[0, 0, 0]",1,781.4637904000119,783.4638301000232,,,,,,,,,,,,,,,,,,,6,M,1,18,R,MH,49,49,2022_Aug_15_1722,2020.2.10,distractmap1,59.981093968840895,"['Left Face', 'Right Leg', 'Left Face', 'Right Leg']",
,,,,,,,,,,,,,,,,,,,,,,783.4805047999835,None,,,,,,,,,,,,,,,,,6,M,1,18,R,MH,49,49,2022_Aug_15_1722,2020.2.10,distractmap1,59.981093968840895,"['Left Face', 'Right Leg', 'Left Face', 'Right Leg']",
,,,,,,,,,,,,,,,,,,,,,,,,,,,,,,,,,,14.753086419753089,760.4693459200207,,,,,6,M,1,18,R,MH,49,49,2022_Aug_15_1722,2020.2.10,distractmap1,59.981093968840895,"['Left Face', 'Right Leg', 'Left Face', 'Right Leg']",
4,"[-0.2, 0]",None,0,0,0,0,798.4973010999965,None,None,None,"[0, 0, 0]",803.4973659000243,805.4973487000098,803.4973659000243,804.497331599996,804.497331599996,805.4973487000098,"[0, 0, 0]",1,803.4973659000243,805.4973487000098,,,,,,,,,,,,,,,0.013285179971717298,5.009468679956626,,,6,M,1,18,R,MH,49,49,2022_Aug_15_1722,2020.2.10,distractmap1,59.981093968840895,"['Left Face', 'Right Leg', 'Left Face', 'Right Leg']",
5,"[0, 0]",None,0,1,1,1,,,None,None,"[0, 0, 0]",805.5140390000306,807.5140394999762,805.5140390000306,806.5140241999761,806.4973433000268,807.4973559000064,"[0, 0, 0]",1,805.5140390000306,807.5140394999762,,,,,,,,,,,,,,,,,,,6,M,1,18,R,MH,49,49,2022_Aug_15_1722,2020.2.10,distractmap1,59.981093968840895,"['Left Face', 'Right Leg', 'Left Face', 'Right Leg']",
6,"[0.2, 0]",0,0,2,2,2,,,None,None,"[0, 0, 0]",807.5307048999821,809.5307262000279,807.5307048999821,808.5307533000014,808.5141183999949,809.5140535000246,"[0, 0, 0]",1,807.5307048999821,809.5307262000279,,,,,,,,,,,,,,,,,,,6,M,1,18,R,MH,49,49,2022_Aug_15_1722,2020.2.10,distractmap1,59.981093968840895,"['Left Face', 'Right Leg', 'Left Face', 'Right Leg']",
1,"[-0.2, 0.2]",0,0,3,3,3,,,None,None,"[0, 0, 0]",809.5473850999842,811.5474091999931,809.5473850999842,810.5473848999827,810.5307291999925,811.5307522999938,"[0, 0, 0]",1,809.5473850999842,811.5474091999931,,,,,,,,,,,,,,,,,,,6,M,1,18,R,MH,49,49,2022_Aug_15_1722,2020.2.10,distractmap1,59.981093968840895,"['Left Face', 'Right Leg', 'Left Face', 'Right Leg']",
6,"[0.2, 0]",1,0,4,4,4,,,None,None,"[0, 0, 0]",811.5639686000068,813.5640808999888,811.5639686000068,812.564086999977,812.5474167999928,813.5474134000251,"[0, 0, 0]",1,811.5639686000068,813.5640808999888,,,,,,,,,,,,,,,,,,,6,M,1,18,R,MH,49,49,2022_Aug_15_1722,2020.2.10,distractmap1,59.981093968840895,"['Left Face', 'Right Leg', 'Left Face', 'Right Leg']",
1,"[-0.2, 0.2]",1,0,5,5,5,,,None,None,"[0, 0, 0]",813.5807556000073,815.5807877000188,813.5807556000073,814.5808072999935,814.5640972999972,815.5641064000083,"[0, 0, 0]",1,813.5807556000073,815.5807877000188,,,,,,,,,,,,,,,,,,,6,M,1,18,R,MH,49,49,2022_Aug_15_1722,2020.2.10,distractmap1,59.981093968840895,"['Left Face', 'Right Leg', 'Left Face', 'Right Leg']",
2,"[0, 0.2]",0,0,6,6,6,,,None,None,"[0, 0, 0]",815.5974437000114,817.5974576000008,815.5974437000114,816.5974455000251,816.580784299993,817.5807890000287,"[0, 0, 0]",1,815.5974437000114,817.5974576000008,,,,,,,,,,,,,,,,,,,6,M,1,18,R,MH,49,49,2022_Aug_15_1722,2020.2.10,distractmap1,59.981093968840895,"['Left Face', 'Right Leg', 'Left Face', 'Right Leg']",
3,"[0.2, 0.2]",0,0,7,7,7,,,None,None,"[0, 0, 0]",817.6141189000336,819.6141438999912,817.6141189000336,818.6141328000231,818.5974663000088,819.597465400002,"[0, 0, 0]",1,817.6141189000336,819.6141438999912,,,,,,,,,,,,,,,,,,,6,M,1,18,R,MH,49,49,2022_Aug_15_1722,2020.2.10,distractmap1,59.981093968840895,"['Left Face', 'Right Leg', 'Left Face', 'Right Leg']",
6,"[0.2, 0]",0,0,8,8,8,,,None,None,"[0, 0, 0]",819.6308082999894,821.6308240999933,819.6308082999894,820.630813100026,820.6141414000303,821.6141543000122,"[0, 0, 0]",1,819.6308082999894,821.6308240999933,,,,,,,,,,,,,,,,,,,6,M,1,18,R,MH,49,49,2022_Aug_15_1722,2020.2.10,distractmap1,59.981093968840895,"['Left Face', 'Right Leg', 'Left Face', 'Right Leg']",
3,"[0.2, 0.2]",1,0,9,9,9,,,None,None,"[0, 0, 0]",821.6474913000129,823.6475015000324,821.6474913000129,822.6474913000129,822.6307316999882,823.6308427000185,"[0, 0, 0]",1,821.6474913000129,823.6475015000324,,,,,,,,,,,,,,,,,,,6,M,1,18,R,MH,49,49,2022_Aug_15_1722,2020.2.10,distractmap1,59.981093968840895,"['Left Face', 'Right Leg', 'Left Face', 'Right Leg']",
,,,,,,,,,,,,,,,,,,,,,,823.664108099998,None,,,,,,,,,,,,,,,,,6,M,1,18,R,MH,49,49,2022_Aug_15_1722,2020.2.10,distractmap1,59.981093968840895,"['Left Face', 'Right Leg', 'Left Face', 'Right Leg']",
2,"[0, 0.2]",None,0,0,0,0,833.6809368000249,None,None,None,"[0, 0, 0]",838.680950000009,840.6809872000013,838.680950000009,839.680989000015,839.680989000015,840.6809872000013,"[0, 0, 0]",0,838.680950000009,840.6809872000013,,,,,,,,,,,,,,,,,,,6,M,1,18,R,MH,49,49,2022_Aug_15_1722,2020.2.10,distractmap1,59.981093968840895,"['Left Face', 'Right Leg', 'Left Face', 'Right Leg']",
5,"[0, 0]",None,0,1,1,1,,,None,None,"[0, 0, 0]",840.6976704000263,842.6976737999939,840.6976704000263,841.6976663999958,841.6809989000321,842.6810048000189,"[0, 0, 0]",1,840.6976704000263,842.6976737999939,,,,,,,,,,,,,,,,,,,6,M,1,18,R,MH,49,49,2022_Aug_15_1722,2020.2.10,distractmap1,59.981093968840895,"['Left Face', 'Right Leg', 'Left Face', 'Right Leg']",
6,"[0.2, 0]",0,0,2,2,2,,,None,None,"[0, 0, 0]",842.714344899985,844.7143579000258,842.714344899985,843.7143595999805,843.6976826000027,844.6975763000082,"[0, 0, 0]",1,842.714344899985,844.7143579000258,,,,,,,,,,,,,,,,,,,6,M,1,18,R,MH,49,49,2022_Aug_15_1722,2020.2.10,distractmap1,59.981093968840895,"['Left Face', 'Right Leg', 'Left Face', 'Right Leg']",
1,"[-0.2, 0.2]",0,0,3,3,3,,,None,None,"[0, 0, 0]",844.7310145000229,846.7310318999807,844.7310145000229,845.7310428000055,845.7143530999892,846.7143782000057,"[0, 0, 0]",1,844.7310145000229,846.7310318999807,,,,,,,,,,,,,,,,,,,6,M,1,18,R,MH,49,49,2022_Aug_15_1722,2020.2.10,distractmap1,59.981093968840895,"['Left Face', 'Right Leg', 'Left Face', 'Right Leg']",
6,"[0.2, 0]",1,0,4,4,4,,,None,None,"[0, 0, 0]",846.747681399982,848.747732000018,846.747681399982,847.7477235000115,847.7310398999834,848.7309877999942,"[0, 0, 0]",1,846.747681399982,848.747732000018,,,,,,,,,,,,,,,,,,,6,M,1,18,R,MH,49,49,2022_Aug_15_1722,2020.2.10,distractmap1,59.981093968840895,"['Left Face', 'Right Leg', 'Left Face', 'Right Leg']",
6,"[0.2, 0]",0,0,5,5,5,,,None,None,"[0, 0, 0]",848.7644194000168,850.7644072999828,848.7644194000168,849.7643894000212,849.7477366999956,850.7477560000261,"[0, 0, 0]",1,848.7644194000168,850.7644072999828,,,,,,,,,,,,,,,,,,,6,M,1,18,R,MH,49,49,2022_Aug_15_1722,2020.2.10,distractmap1,59.981093968840895,"['Left Face', 'Right Leg', 'Left Face', 'Right Leg']",
9,"[0.2, -0.2]",0,0,6,6,6,,,None,None,"[0, 0, 0]",850.7810802999884,852.7810951999854,850.7810802999884,851.781085900031,851.764427200018,852.7644132000278,"[0, 0, 0]",1,850.7810802999884,852.7810951999854,,,,,,,,,,,,,,,,,,,6,M,1,18,R,MH,49,49,2022_Aug_15_1722,2020.2.10,distractmap1,59.981093968840895,"['Left Face', 'Right Leg', 'Left Face', 'Right Leg']",
6,"[0.2, 0]",1,0,7,7,7,,,None,None,"[0, 0, 0]",852.7977652000263,854.7977772000013,852.7977652000263,853.7977454999927,853.7810958999908,854.7811130000046,"[0, 0, 0]",1,852.7977652000263,854.7977772000013,,,,,,,,,,,,,,,,,,,6,M,1,18,R,MH,49,49,2022_Aug_15_1722,2020.2.10,distractmap1,59.981093968840895,"['Left Face', 'Right Leg', 'Left Face', 'Right Leg']",
3,"[0.2, 0.2]",0,0,8,8,8,,,None,None,"[0, 0, 0]",854.8144407999935,856.8144454000285,854.8144407999935,855.8145118000102,855.7977859000093,856.7977983999881,"[0, 0, 0]",1,854.8144407999935,856.8144454000285,,,,,,,,,,,,,,,,,,,6,M,1,18,R,MH,49,49,2022_Aug_15_1722,2020.2.10,distractmap1,59.981093968840895,"['Left Face', 'Right Leg', 'Left Face', 'Right Leg']",
9,"[0.2, -0.2]",0,0,9,9,9,,,None,None,"[0, 0, 0]",856.8311263999785,858.8311402000254,856.8311263999785,857.8311300000059,857.814472500002,858.8144806000055,"[0, 0, 0]",0,856.8311263999785,858.8311402000254,,,,,,,,,,,,,,,,,,,6,M,1,18,R,MH,49,49,2022_Aug_15_1722,2020.2.10,distractmap1,59.981093968840895,"['Left Face', 'Right Leg', 'Left Face', 'Right Leg']",
,,,,,,,,,,,,,,,,,,,,,,858.8478172000032,None,,,,,,,,,,,,,,,,,6,M,1,18,R,MH,49,49,2022_Aug_15_1722,2020.2.10,distractmap1,59.981093968840895,"['Left Face', 'Right Leg', 'Left Face', 'Right Leg']",
3,"[0.2, 0.2]",None,0,0,0,0,870.864592100028,None,None,None,"[0, 0, 0]",873.8646133000148,None,873.8646133000148,874.8646236999775,874.8479345000233,875.8479558000108,"[0, 0, 0]",1,873.8646133000148,None,,,,,,,,,,,,,,,,,,,6,M,1,18,R,MH,49,49,2022_Aug_15_1722,2020.2.10,distractmap1,59.981093968840895,"['Left Face', 'Right Leg', 'Left Face', 'Right Leg']",
9,"[0.2, -0.2]",None,0,1,1,1,,,None,None,"[0, 0, 0]",875.8646460000309,877.8646436000126,875.8646460000309,876.8646387000335,876.8479685999919,877.8480282999808,"[0, 0, 0]",1,875.8646460000309,877.8646436000126,,,,,,,,,,,,,,,,,,,6,M,1,18,R,MH,49,49,2022_Aug_15_1722,2020.2.10,distractmap1,59.981093968840895,"['Left Face', 'Right Leg', 'Left Face', 'Right Leg']",
3,"[0.2, 0.2]",1,0,2,2,2,,,None,None,"[0, 0, 0]",877.8813159000129,879.8813342999783,877.8813159000129,878.8813156000106,878.8645384000265,879.8646610000287,"[0, 0, 0]",1,877.8813159000129,879.8813342999783,,,,,,,,,,,,,,,,,,,6,M,1,18,R,MH,49,49,2022_Aug_15_1722,2020.2.10,distractmap1,59.981093968840895,"['Left Face', 'Right Leg', 'Left Face', 'Right Leg']",
7,"[-0.2, -0.2]",0,0,3,3,3,,,None,None,"[0, 0, 0]",879.8979778999928,881.8980508000241,879.8979778999928,880.8979987999774,880.8813458000077,881.8812345000333,"[0, 0, 0]",1,879.8979778999928,881.8980508000241,,,,,,,,,,,,,,,,,,,6,M,1,18,R,MH,49,49,2022_Aug_15_1722,2020.2.10,distractmap1,59.981093968840895,"['Left Face', 'Right Leg', 'Left Face', 'Right Leg']",
8,"[0, -0.2]",0,0,4,4,4,,,None,None,"[0, 0, 0]",881.9146915000165,883.9146946999826,881.9146915000165,882.914695399988,882.8980181000079,883.8980262000114,"[0, 0, 0]",1,881.9146915000165,883.9146946999826,,,,,,,,,,,,,,,,,,,6,M,1,18,R,MH,49,49,2022_Aug_15_1722,2020.2.10,distractmap1,59.981093968840895,"['Left Face', 'Right Leg', 'Left Face', 'Right Leg']",
4,"[-0.2, 0]",0,0,5,5,5,,,None,None,"[0, 0, 0]",883.931353299995,885.9313744999818,883.931353299995,884.9313762999955,884.9146985000116,885.9145943000331,"[0, 0, 0]",1,883.931353299995,885.9313744999818,,,,,,,,,,,,,,,,,,,6,M,1,18,R,MH,49,49,2022_Aug_15_1722,2020.2.10,distractmap1,59.981093968840895,"['Left Face', 'Right Leg', 'Left Face', 'Right Leg']",
4,"[-0.2, 0]",0,0,6,6,6,,,None,None,"[0, 0, 0]",885.9480521000223,887.9480737000122,885.9480521000223,886.9480621999828,886.9314005000051,887.9313880000263,"[0, 0, 0]",1,885.9480521000223,887.9480737000122,,,,,,,,,,,,,,,,,,,6,M,1,18,R,MH,49,49,2022_Aug_15_1722,2020.2.10,distractmap1,59.981093968840895,"['Left Face', 'Right Leg', 'Left Face', 'Right Leg']",
1,"[-0.2, 0.2]",0,0,7,7,7,,,None,None,"[0, 0, 0]",887.9647337999777,889.9647550000227,887.9647337999777,888.9647379000089,888.9480854999856,889.9480691999779,"[0, 0, 0]",1,887.9647337999777,889.9647550000227,,,,,,,,,,,,,,,,,,,6,M,1,18,R,MH,49,49,2022_Aug_15_1722,2020.2.10,distractmap1,59.981093968840895,"['Left Face', 'Right Leg', 'Left Face', 'Right Leg']",
4,"[-0.2, 0]",1,0,8,8,8,,,None,None,"[0, 0, 0]",889.9814056000323,891.9814158999943,889.9814056000323,890.9814290999784,890.9647577999858,891.9647650999832,"[0, 0, 0]",1,889.9814056000323,891.9814158999943,,,,,,,,,,,,,,,,,,,6,M,1,18,R,MH,49,49,2022_Aug_15_1722,2020.2.10,distractmap1,59.981093968840895,"['Left Face', 'Right Leg', 'Left Face', 'Right Leg']",
8,"[0, -0.2]",0,0,9,9,9,,,None,None,"[0, 0, 0]",891.9980973000056,893.9981052000076,891.9980973000056,892.9980918000219,892.9814289999777,893.9814581000246,"[0, 0, 0]",1,891.9980973000056,893.9981052000076,,,,,,,,,,,,,,,,,,,6,M,1,18,R,MH,49,49,2022_Aug_15_1722,2020.2.10,distractmap1,59.981093968840895,"['Left Face', 'Right Leg', 'Left Face', 'Right Leg']",
,,,,,,,,,,,,,,,,,,,,,,894.01479440002,None,,,,,,,,,,,,,,,,,6,M,1,18,R,MH,49,49,2022_Aug_15_1722,2020.2.10,distractmap1,59.981093968840895,"['Left Face', 'Right Leg', 'Left Face', 'Right Leg']",
,,,,,,,924.0316841999884,None,,,,,,,,,,,,,,,,,,,,,,,,,,25.679012345679013,901.6857450200478,,,904.0315455999807,None,6,M,1,18,R,MH,49,49,2022_Aug_15_1722,2020.2.10,distractmap1,59.981093968840895,"['Left Face', 'Right Leg', 'Left Face', 'Right Leg']",
,,,,,,,959.0486758999759,None,,,,,,,,,,,,,,,,,,,,,,,,,,34.69135802469136,938.1008005201002,0.014701479987706989,5.012331179983448,939.0485068000271,None,6,M,1,18,R,MH,49,49,2022_Aug_15_1722,2020.2.10,distractmap1,59.981093968840895,"['Left Face', 'Right Leg', 'Left Face', 'Right Leg']",
,,,,,,,994.0656473999843,None,,,,,,,,,,,,,,,,,,,,,,,,,,34.629629629629626,968.8023998200661,0.01661407994106412,5.016119479958434,974.0654758000164,None,6,M,1,18,R,MH,49,49,2022_Aug_15_1722,2020.2.10,distractmap1,59.981093968840895,"['Left Face', 'Right Leg', 'Left Face', 'Right Leg']",
2,"[0, 0.2]",None,0,0,0,0,1101.333156400011,None,None,None,"[0, 0, 0]",1104.0998964000028,1106.0999534000293,1104.0998964000028,1105.0999491999974,1105.0999491999974,1106.0999534000293,"[0, 0, 0]",1,1104.0998964000028,1106.0999534000293,,,,,,,,,,,,,,,0.015280979976523668,5.013405280013103,1069.0662836999982,None,6,M,1,18,R,MH,49,49,2022_Aug_15_1722,2020.2.10,distractmap1,59.981093968840895,"['Left Face', 'Right Leg', 'Left Face', 'Right Leg']",
5,"[0, 0]",None,0,1,1,1,,,None,None,"[0, 0, 0]",1106.116617200023,1108.1166319000185,1106.116617200023,1107.1166484000278,1107.1000574000063,1108.099958100007,"[0, 0, 0]",1,1106.116617200023,1108.1166319000185,,,,,,,,,,,,,,,,,,,6,M,1,18,R,MH,49,49,2022_Aug_15_1722,2020.2.10,distractmap1,59.981093968840895,"['Left Face', 'Right Leg', 'Left Face', 'Right Leg']",
3,"[0.2, 0.2]",0,0,2,2,2,,,None,None,"[0, 0, 0]",1108.1332973000244,1110.133308199991,1108.1332973000244,1109.1333408000064,1109.1166467000148,1110.116656200029,"[0, 0, 0]",1,1108.1332973000244,1110.133308199991,,,,,,,,,,,,,,,,,,,6,M,1,18,R,MH,49,49,2022_Aug_15_1722,2020.2.10,distractmap1,59.981093968840895,"['Left Face', 'Right Leg', 'Left Face', 'Right Leg']",
5,"[0, 0]",1,0,3,3,3,,,None,None,"[0, 0, 0]",1110.1499924000236,1112.149992200022,1110.1499924000236,1111.150001000031,1111.1333717000089,1112.1333433000254,"[0, 0, 0]",1,1110.1499924000236,1112.149992200022,,,,,,,,,,,,,,,,,,,6,M,1,18,R,MH,49,49,2022_Aug_15_1722,2020.2.10,distractmap1,59.981093968840895,"['Left Face', 'Right Leg', 'Left Face', 'Right Leg']",
2,"[0, 0.2]",0,0,4,4,4,,,None,None,"[0, 0, 0]",1112.2334263999946,None,1112.2334263999946,1113.2333217000123,1113.2166993999854,None,"[0, 0, 0]",1,1112.2334263999946,None,,,,,,,,,,,,,,,,,,,6,M,1,18,R,MH,49,49,2022_Aug_15_1722,2020.2.10,distractmap1,59.981093968840895,"['Left Face', 'Right Leg', 'Left Face', 'Right Leg']",
8,"[0, -0.2]",0,0,5,5,5,,,None,None,"[0, 0, 0]",1114.1833637999953,1116.1833549999865,1114.1833637999953,1115.1833719999995,1115.1666978999856,1116.1667099000188,"[0, 0, 0]",1,1114.1833637999953,1116.1833549999865,,,,,,,,,,,,,,,,,,,6,M,1,18,R,MH,49,49,2022_Aug_15_1722,2020.2.10,distractmap1,59.981093968840895,"['Left Face', 'Right Leg', 'Left Face', 'Right Leg']",
4,"[-0.2, 0]",0,0,6,6,6,,,None,None,"[0, 0, 0]",1116.200040100026,1118.2000451000058,1116.200040100026,1117.2000489999773,1117.1833918000339,1118.1833678000257,"[0, 0, 0]",1,1116.200040100026,1118.2000451000058,,,,,,,,,,,,,,,,,,,6,M,1,18,R,MH,49,49,2022_Aug_15_1722,2020.2.10,distractmap1,59.981093968840895,"['Left Face', 'Right Leg', 'Left Face', 'Right Leg']",
8,"[0, -0.2]",1,0,7,7,7,,,None,None,"[0, 0, 0]",1118.2167273000232,1120.2167607999872,1118.2167273000232,1119.2167440999765,1119.200068700011,1120.200078600028,"[0, 0, 0]",1,1118.2167273000232,1120.2167607999872,,,,,,,,,,,,,,,,,,,6,M,1,18,R,MH,49,49,2022_Aug_15_1722,2020.2.10,distractmap1,59.981093968840895,"['Left Face', 'Right Leg', 'Left Face', 'Right Leg']",
7,"[-0.2, -0.2]",0,0,8,8,8,,,None,None,"[0, 0, 0]",1120.2333976000082,1122.2334003000287,1120.2333976000082,1121.233424599981,1121.2167702000006,1122.216773800028,"[0, 0, 0]",1,1120.2333976000082,1122.2334003000287,,,,,,,,,,,,,,,,,,,6,M,1,18,R,MH,49,49,2022_Aug_15_1722,2020.2.10,distractmap1,59.981093968840895,"['Left Face', 'Right Leg', 'Left Face', 'Right Leg']",
8,"[0, -0.2]",1,0,9,9,9,,,None,None,"[0, 0, 0]",1122.2500818999833,1124.2501145999995,1122.2500818999833,1123.2501040999778,1123.2334119000006,1124.2334239000338,"[0, 0, 0]",1,1122.2500818999833,1124.2501145999995,,,,,,,,,,,,,,,,,,,6,M,1,18,R,MH,49,49,2022_Aug_15_1722,2020.2.10,distractmap1,59.981093968840895,"['Left Face', 'Right Leg', 'Left Face', 'Right Leg']",
,,,,,,,,,,,,,,,,,,,,,,1124.2667446000269,None,,,,,,,,,,,,,,,,,6,M,1,18,R,MH,49,49,2022_Aug_15_1722,2020.2.10,distractmap1,59.981093968840895,"['Left Face', 'Right Leg', 'Left Face', 'Right Leg']",
,,,,,,,,,,,,,,,,,,,,,,,,,,,,,,,,,,18.02469135802469,1104.3896333200391,,,,,6,M,1,18,R,MH,49,49,2022_Aug_15_1722,2020.2.10,distractmap1,59.981093968840895,"['Left Face', 'Right Leg', 'Left Face', 'Right Leg']",
2,"[0, 0.2]",None,0,0,0,0,1142.299904900021,None,None,None,"[0, 0, 0]",1144.3002545000054,None,1144.3002545000054,1145.300301100011,1145.300301100011,None,"[0, 0, 0]",1,1144.3002545000054,None,,,,,,,,,,,,,,,0.012594380008522421,5.007970680017024,,,6,M,1,18,R,MH,49,49,2022_Aug_15_1722,2020.2.10,distractmap1,59.981093968840895,"['Left Face', 'Right Leg', 'Left Face', 'Right Leg']",
2,"[0, 0.2]",None,0,1,1,1,,,None,None,"[0, 0, 0]",1146.3003002000041,1148.3003123999806,1146.3003002000041,1147.3003093000152,1147.2836482999846,1148.2836521000136,"[0, 0, 0]",1,1146.3003002000041,1148.3003123999806,,,,,,,,,,,,,,,,,,,6,M,1,18,R,MH,49,49,2022_Aug_15_1722,2020.2.10,distractmap1,59.981093968840895,"['Left Face', 'Right Leg', 'Left Face', 'Right Leg']",
2,"[0, 0.2]",1,0,2,2,2,,,None,None,"[0, 0, 0]",1148.3169667000184,1150.3170093999943,1148.3169667000184,1149.3170066000312,1149.3003325000172,1150.30033920001,"[0, 0, 0]",1,1148.3169667000184,1150.3170093999943,,,,,,,,,,,,,,,,,,,6,M,1,18,R,MH,49,49,2022_Aug_15_1722,2020.2.10,distractmap1,59.981093968840895,"['Left Face', 'Right Leg', 'Left Face', 'Right Leg']",
8,"[0, -0.2]",0,0,3,3,3,,,None,None,"[0, 0, 0]",1150.3336894999957,1152.3336907000048,1150.3336894999957,1151.3336651999853,1151.3170178,1152.317037300032,"[0, 0, 0]",1,1150.3336894999957,1152.3336907000048,,,,,,,,,,,,,,,,,,,6,M,1,18,R,MH,49,49,2022_Aug_15_1722,2020.2.10,distractmap1,59.981093968840895,"['Left Face', 'Right Leg', 'Left Face', 'Right Leg']",
2,"[0, 0.2]",1,0,4,4,4,,,None,None,"[0, 0, 0]",1152.3662108000135,None,1152.3662108000135,1153.3670417999965,1153.3670417999965,None,"[0, 0, 0]",1,1152.3662108000135,None,,,,,,,,,,,,,,,,,,,6,M,1,18,R,MH,49,49,2022_Aug_15_1722,2020.2.10,distractmap1,59.981093968840895,"['Left Face', 'Right Leg', 'Left Face', 'Right Leg']",
5,"[0, 0]",0,0,5,5,5,,,None,None,"[0, 0, 0]",1154.367040299985,1156.3670689000282,1154.367040299985,1155.3670534000266,1155.3503842999926,1156.3504195000278,"[0, 0, 0]",1,1154.367040299985,1156.3670689000282,,,,,,,,,,,,,,,,,,,6,M,1,18,R,MH,49,49,2022_Aug_15_1722,2020.2.10,distractmap1,59.981093968840895,"['Left Face', 'Right Leg', 'Left Face', 'Right Leg']",
1,"[-0.2, 0.2]",0,0,6,6,6,,,None,None,"[0, 0, 0]",1156.3837454000022,1158.3837457000045,1156.3837454000022,1157.3837588999886,1157.3670409999904,1158.3670869999914,"[0, 0, 0]",1,1156.3837454000022,1158.3837457000045,,,,,,,,,,,,,,,,,,,6,M,1,18,R,MH,49,49,2022_Aug_15_1722,2020.2.10,distractmap1,59.981093968840895,"['Left Face', 'Right Leg', 'Left Face', 'Right Leg']",
1,"[-0.2, 0.2]",0,0,7,7,7,,,None,None,"[0, 0, 0]",1158.4004076999845,1160.4004210000276,1158.4004076999845,1159.4004222999793,1159.3837431999855,1160.383770000015,"[0, 0, 0]",1,1158.4004076999845,1160.4004210000276,,,,,,,,,,,,,,,,,,,6,M,1,18,R,MH,49,49,2022_Aug_15_1722,2020.2.10,distractmap1,59.981093968840895,"['Left Face', 'Right Leg', 'Left Face', 'Right Leg']",
6,"[0.2, 0]",0,0,8,8,8,,,None,None,"[0, 0, 0]",1160.4170909000095,1162.4171112999902,1160.4170909000095,1161.4170759000117,1161.4003967000172,1162.4004463999881,"[0, 0, 0]",1,1160.4170909000095,1162.4171112999902,,,,,,,,,,,,,,,,,,,6,M,1,18,R,MH,49,49,2022_Aug_15_1722,2020.2.10,distractmap1,59.981093968840895,"['Left Face', 'Right Leg', 'Left Face', 'Right Leg']",
1,"[-0.2, 0.2]",1,0,9,9,9,,,None,None,"[0, 0, 0]",1162.4337902999832,1164.4338335000211,1162.4337902999832,1163.433810300019,1163.4170995000168,1164.4171429999988,"[0, 0, 0]",1,1162.4337902999832,1164.4338335000211,,,,,,,,,,,,,,,,,,,6,M,1,18,R,MH,49,49,2022_Aug_15_1722,2020.2.10,distractmap1,59.981093968840895,"['Left Face', 'Right Leg', 'Left Face', 'Right Leg']",
,,,,,,,,,,,,,,,,,,,,,,1164.4504408999928,None,,,,,,,,,,,,,,,,,6,M,1,18,R,MH,49,49,2022_Aug_15_1722,2020.2.10,distractmap1,59.981093968840895,"['Left Face', 'Right Leg', 'Left Face', 'Right Leg']",
,,,,,,,,,,,,,,,,,,,,,,,,,,,,,,,,,,17.839506172839506,1140.173318920075,,,,,6,M,1,18,R,MH,49,49,2022_Aug_15_1722,2020.2.10,distractmap1,59.981093968840895,"['Left Face', 'Right Leg', 'Left Face', 'Right Leg']",
3,"[0.2, 0.2]",None,0,0,0,0,1178.4173406999907,None,None,None,"[0, 0, 0]",1184.4672791999765,None,1184.4672791999765,1185.4673179999809,1185.4506605999777,1186.4506684999797,"[0, 0, 0]",1,1184.4672791999765,None,,,,,,,,,,,,,,,0.012537679926026613,5.007949679973535,,,6,M,1,18,R,MH,49,49,2022_Aug_15_1722,2020.2.10,distractmap1,59.981093968840895,"['Left Face', 'Right Leg', 'Left Face', 'Right Leg']",
3,"[0.2, 0.2]",None,0,1,1,1,,,None,None,"[0, 0, 0]",1186.467294699978,1188.4673455000157,1186.467294699978,1187.4673235000228,1187.450689600024,1188.4506874000072,"[0, 0, 0]",1,1186.467294699978,1188.4673455000157,,,,,,,,,,,,,,,,,,,6,M,1,18,R,MH,49,49,2022_Aug_15_1722,2020.2.10,distractmap1,59.981093968840895,"['Left Face', 'Right Leg', 'Left Face', 'Right Leg']",
5,"[0, 0]",0,0,2,2,2,,,None,None,"[0, 0, 0]",1188.484009000007,1190.4840568000218,1188.484009000007,1189.4839823999791,1189.467349499988,1190.467349499988,"[0, 0, 0]",1,1188.484009000007,1190.4840568000218,,,,,,,,,,,,,,,,,,,6,M,1,18,R,MH,49,49,2022_Aug_15_1722,2020.2.10,distractmap1,59.981093968840895,"['Left Face', 'Right Leg', 'Left Face', 'Right Leg']",
1,"[-0.2, 0.2]",0,0,3,3,3,,,None,None,"[0, 0, 0]",1190.500700100034,1192.5005865999847,1190.500700100034,1191.5007068000268,1191.484035899979,1192.484045899997,"[0, 0, 0]",1,1190.500700100034,1192.5005865999847,,,,,,,,,,,,,,,,,,,6,M,1,18,R,MH,49,49,2022_Aug_15_1722,2020.2.10,distractmap1,59.981093968840895,"['Left Face', 'Right Leg', 'Left Face', 'Right Leg']",
5,"[0, 0]",1,0,4,4,4,,,None,None,"[0, 0, 0]",1192.567419799976,None,1192.567419799976,1193.5673862000112,1193.5507150000194,None,"[0, 0, 0]",1,1192.567419799976,None,,,,,,,,,,,,,,,,,,,6,M,1,18,R,MH,49,49,2022_Aug_15_1722,2020.2.10,distractmap1,59.981093968840895,"['Left Face', 'Right Leg', 'Left Face', 'Right Leg']",
8,"[0, -0.2]",0,0,5,5,5,,,None,None,"[0, 0, 0]",1194.534060999984,1196.5340833999799,1194.534060999984,1195.5340677999775,1195.5173995000077,1196.5174103000318,"[0, 0, 0]",1,1194.534060999984,1196.5340833999799,,,,,,,,,,,,,,,,,,,6,M,1,18,R,MH,49,49,2022_Aug_15_1722,2020.2.10,distractmap1,59.981093968840895,"['Left Face', 'Right Leg', 'Left Face', 'Right Leg']",
5,"[0, 0]",1,0,6,6,6,,,None,None,"[0, 0, 0]",1196.5507477999781,1198.5507676000125,1196.5507477999781,1197.5507613000227,1197.5340916999849,1198.5336065000156,"[0, 0, 0]",1,1196.5507477999781,1198.5507676000125,,,,,,,,,,,,,,,,,,,6,M,1,18,R,MH,49,49,2022_Aug_15_1722,2020.2.10,distractmap1,59.981093968840895,"['Left Face', 'Right Leg', 'Left Face', 'Right Leg']",
7,"[-0.2, -0.2]",0,0,7,7,7,,,None,None,"[0, 0, 0]",1198.5674288999871,1200.5674431999796,1198.5674288999871,1199.5674451999948,1199.5507952999906,1200.5507917000214,"[0, 0, 0]",1,1198.5674288999871,1200.5674431999796,,,,,,,,,,,,,,,,,,,6,M,1,18,R,MH,49,49,2022_Aug_15_1722,2020.2.10,distractmap1,59.981093968840895,"['Left Face', 'Right Leg', 'Left Face', 'Right Leg']",
5,"[0, 0]",1,0,8,8,8,,,None,None,"[0, 0, 0]",1200.584106000024,1202.5841356000165,1200.584106000024,1201.5841458999785,1201.566962699988,1202.5674581999774,"[0, 0, 0]",1,1200.584106000024,1202.5841356000165,,,,,,,,,,,,,,,,,,,6,M,1,18,R,MH,49,49,2022_Aug_15_1722,2020.2.10,distractmap1,59.981093968840895,"['Left Face', 'Right Leg', 'Left Face', 'Right Leg']",
7,"[-0.2, -0.2]",1,0,9,9,9,,,None,None,"[0, 0, 0]",1202.6008012000239,1204.6008304000134,1202.6008012000239,1203.600815600017,1203.5841448000283,1204.5840514000156,"[0, 0, 0]",1,1202.6008012000239,1204.6008304000134,,,,,,,,,,,,,,,,,,,6,M,1,18,R,MH,49,49,2022_Aug_15_1722,2020.2.10,distractmap1,59.981093968840895,"['Left Face', 'Right Leg', 'Left Face', 'Right Leg']",
,,,,,,,,,,,,,,,,,,,,,,1204.6174221999827,None,,,,,,,,,,,,,,,,,6,M,1,18,R,MH,49,49,2022_Aug_15_1722,2020.2.10,distractmap1,59.981093968840895,"['Left Face', 'Right Leg', 'Left Face', 'Right Leg']",
,,,,,,,,,,,,,,,,,,,,,,,,,,,,,,,,,,18.333333333333336,1184.4563027200638,,,,,6,M,1,18,R,MH,49,49,2022_Aug_15_1722,2020.2.10,distractmap1,59.981093968840895,"['Left Face', 'Right Leg', 'Left Face', 'Right Leg']",
,,,,,,,1239.6344546999899,None,,,,,,,,,,,,,,,,,,,,,,,,,,33.51851851851852,1215.0551004200242,0.013251579948700964,5.0094083799631335,1219.6342877999996,None,6,M,1,18,R,MH,49,49,2022_Aug_15_1722,2020.2.10,distractmap1,59.981093968840895,"['Left Face', 'Right Leg', 'Left Face', 'Right Leg']",
,,,,,,,1274.6514336999971,None,,,,,,,,,,,,,,,,,,,,,,,,,,35.98765432098765,1252.272184219968,0.014673780009616166,5.012270079983864,1254.6512366000097,None,6,M,1,18,R,MH,49,49,2022_Aug_15_1722,2020.2.10,distractmap1,59.981093968840895,"['Left Face', 'Right Leg', 'Left Face', 'Right Leg']",
,,,,,,,1309.668406700017,None,,,,,,,,,,,,,,,,,,,,,,,,,,36.91358024691358,1284.339202120027,0.014660180022474378,5.012243680015672,1289.6682233000174,None,6,M,1,18,R,MH,49,49,2022_Aug_15_1722,2020.2.10,distractmap1,59.981093968840895,"['Left Face', 'Right Leg', 'Left Face', 'Right Leg']",
6,"[0.2, 0]",None,0,0,0,0,1525.0203728000051,None,None,None,"[0, 0, 0]",1529.7370071000187,1531.7370225000195,1529.7370071000187,1530.7370073000202,1530.7370073000202,1531.7370225000195,"[0, 0, 0]",1,1529.7370071000187,1531.7370225000195,,,,,,1354.7524156,1354.7524156,None,space,149.0964541999856,1354.7524156,None,,,0.014593479980248958,5.012068879965227,,,6,M,1,18,R,MH,49,49,2022_Aug_15_1722,2020.2.10,distractmap1,59.981093968840895,"['Left Face', 'Right Leg', 'Left Face', 'Right Leg']",
1,"[-0.2, 0.2]",None,0,1,1,1,,,None,None,"[0, 0, 0]",1531.7537014000118,1533.7537429999793,1531.7537014000118,1532.7536972999806,1532.737038900028,1533.7370470000315,"[0, 0, 0]",1,1531.7537014000118,1533.7537429999793,,,,,,,,,,,,,,,,,,,6,M,1,18,R,MH,49,49,2022_Aug_15_1722,2020.2.10,distractmap1,59.981093968840895,"['Left Face', 'Right Leg', 'Left Face', 'Right Leg']",
6,"[0.2, 0]",1,0,2,2,2,,,None,None,"[0, 0, 0]",1533.7703904000227,1535.770392299979,1533.7703904000227,1534.7703875000007,1534.7537301999982,1535.7537322000135,"[0, 0, 0]",1,1533.7703904000227,1535.770392299979,,,,,,,,,,,,,,,,,,,6,M,1,18,R,MH,49,49,2022_Aug_15_1722,2020.2.10,distractmap1,59.981093968840895,"['Left Face', 'Right Leg', 'Left Face', 'Right Leg']",
4,"[-0.2, 0]",0,0,3,3,3,,,None,None,"[0, 0, 0]",1535.7870565999765,1537.7870907000033,1535.7870565999765,1536.7871116999886,1536.7703959000064,1537.7704151999787,"[0, 0, 0]",1,1535.7870565999765,1537.7870907000033,,,,,,,,,,,,,,,,,,,6,M,1,18,R,MH,49,49,2022_Aug_15_1722,2020.2.10,distractmap1,59.981093968840895,"['Left Face', 'Right Leg', 'Left Face', 'Right Leg']",
1,"[-0.2, 0.2]",0,0,4,4,4,,,None,None,"[0, 0, 0]",1537.837021299987,None,1537.837021299987,1538.8371139999945,1538.8371139999945,None,"[0, 0, 0]",1,1537.837021299987,None,,,,,,,,,,,,,,,,,,,6,M,1,18,R,MH,49,49,2022_Aug_15_1722,2020.2.10,distractmap1,59.981093968840895,"['Left Face', 'Right Leg', 'Left Face', 'Right Leg']",
8,"[0, -0.2]",0,0,5,5,5,,,None,None,"[0, 0, 0]",1539.8204270999995,1541.8204402999836,1539.8204270999995,1540.8204397999798,1540.8037763999891,1541.803783099982,"[0, 0, 0]",1,1539.8204270999995,1541.8204402999836,,,,,,,,,,,,,,,,,,,6,M,1,18,R,MH,49,49,2022_Aug_15_1722,2020.2.10,distractmap1,59.981093968840895,"['Left Face', 'Right Leg', 'Left Face', 'Right Leg']",
1,"[-0.2, 0.2]",1,0,6,6,6,,,None,None,"[0, 0, 0]",1541.8370978999883,1543.8370886999764,1541.8370978999883,1542.8371144999983,1542.8204507000046,1543.8204521000152,"[0, 0, 0]",1,1541.8370978999883,1543.8370886999764,,,,,,,,,,,,,,,,,,,6,M,1,18,R,MH,49,49,2022_Aug_15_1722,2020.2.10,distractmap1,59.981093968840895,"['Left Face', 'Right Leg', 'Left Face', 'Right Leg']",
8,"[0, -0.2]",1,0,7,7,7,,,None,None,"[0, 0, 0]",1543.853800699988,1545.8538067999762,1543.853800699988,1544.8538348000147,1544.8371372999973,1545.8371215999941,"[0, 0, 0]",1,1543.853800699988,1545.8538067999762,,,,,,,,,,,,,,,,,,,6,M,1,18,R,MH,49,49,2022_Aug_15_1722,2020.2.10,distractmap1,59.981093968840895,"['Left Face', 'Right Leg', 'Left Face', 'Right Leg']",
1,"[-0.2, 0.2]",1,0,8,8,8,,,None,None,"[0, 0, 0]",1545.8704995000153,1547.8705050999997,1545.8704995000153,1546.8704743999988,1546.8537968000164,1547.8538074999815,"[0, 0, 0]",1,1545.8704995000153,1547.8705050999997,,,,,,,,,,,,,,,,,,,6,M,1,18,R,MH,49,49,2022_Aug_15_1722,2020.2.10,distractmap1,59.981093968840895,"['Left Face', 'Right Leg', 'Left Face', 'Right Leg']",
6,"[0.2, 0]",0,0,9,9,9,,,None,None,"[0, 0, 0]",1547.8871635000105,1549.887179900019,1547.8871635000105,1548.8871750999824,1548.8705125999986,1549.870518599986,"[0, 0, 0]",1,1547.8871635000105,1549.887179900019,,,,,,,,,,,,,,,,,,,6,M,1,18,R,MH,49,49,2022_Aug_15_1722,2020.2.10,distractmap1,59.981093968840895,"['Left Face', 'Right Leg', 'Left Face', 'Right Leg']",
,,,,,,,,,,,,,,,,,,,,,,1549.9038166999817,None,,,,,,,,,,,,,,,,,6,M,1,18,R,MH,49,49,2022_Aug_15_1722,2020.2.10,distractmap1,59.981093968840895,"['Left Face', 'Right Leg', 'Left Face', 'Right Leg']",
,,,,,,,,,,,,,,,,,,,,,,,,,,,,,,,,,,38.641975308641975,1528.3764992200304,,,,,6,M,1,18,R,MH,49,49,2022_Aug_15_1722,2020.2.10,distractmap1,59.981093968840895,"['Left Face', 'Right Leg', 'Left Face', 'Right Leg']",
7,"[-0.2, -0.2]",None,0,0,0,0,1565.1706674000015,None,None,None,"[0, 0, 0]",1569.9373578000232,1571.9373714000103,1569.9373578000232,1570.9373775999993,1570.9205910000019,1571.9207090000273,"[0, 0, 0]",1,1569.9373578000232,1571.9373714000103,,,,,,,,,,,,,,,0.012817479961086065,5.008550579950679,,,6,M,1,18,R,MH,49,49,2022_Aug_15_1722,2020.2.10,distractmap1,59.981093968840895,"['Left Face', 'Right Leg', 'Left Face', 'Right Leg']",
7,"[-0.2, -0.2]",None,0,1,1,1,,,None,None,"[0, 0, 0]",1571.954050100001,1573.9540587000083,1571.954050100001,1572.9540561999893,1572.9373810000252,1573.9374102000147,"[0, 0, 0]",1,1571.954050100001,1573.9540587000083,,,,,,,,,,,,,,,,,,,6,M,1,18,R,MH,49,49,2022_Aug_15_1722,2020.2.10,distractmap1,59.981093968840895,"['Left Face', 'Right Leg', 'Left Face', 'Right Leg']",
7,"[-0.2, -0.2]",1,0,2,2,2,,,None,None,"[0, 0, 0]",1573.9707897999906,1575.9707370999968,1573.9707897999906,1574.9706356999814,1574.9540799999959,1575.954162399983,"[0, 0, 0]",1,1573.9707897999906,1575.9707370999968,,,,,,,,,,,,,,,,,,,6,M,1,18,R,MH,49,49,2022_Aug_15_1722,2020.2.10,distractmap1,59.981093968840895,"['Left Face', 'Right Leg', 'Left Face', 'Right Leg']",
5,"[0, 0]",0,0,3,3,3,,,None,None,"[0, 0, 0]",1575.9874096999993,1577.987440900004,1575.9874096999993,1576.9874805000145,1576.9707621000125,1577.9707671999931,"[0, 0, 0]",0,1575.9874096999993,1577.987440900004,,,,,,,,,,,,,,,,,,,6,M,1,18,R,MH,49,49,2022_Aug_15_1722,2020.2.10,distractmap1,59.981093968840895,"['Left Face', 'Right Leg', 'Left Face', 'Right Leg']",
1,"[-0.2, 0.2]",0,0,4,4,4,,,None,None,"[0, 0, 0]",1578.0375103999977,None,1578.0375103999977,1579.0374363000155,1579.0202287000138,None,"[0, 0, 0]",1,1578.0375103999977,None,,,,,,,,,,,,,,,,,,,6,M,1,18,R,MH,49,49,2022_Aug_15_1722,2020.2.10,distractmap1,59.981093968840895,"['Left Face', 'Right Leg', 'Left Face', 'Right Leg']",
6,"[0.2, 0]",0,0,5,5,5,,,None,None,"[0, 0, 0]",1580.0207801000215,1582.0208015000098,1580.0207801000215,1581.020798499987,1581.0041229000199,1582.0041283000028,"[0, 0, 0]",1,1580.0207801000215,1582.0208015000098,,,,,,,,,,,,,,,,,,,6,M,1,18,R,MH,49,49,2022_Aug_15_1722,2020.2.10,distractmap1,59.981093968840895,"['Left Face', 'Right Leg', 'Left Face', 'Right Leg']",
1,"[-0.2, 0.2]",1,0,6,6,6,,,None,None,"[0, 0, 0]",1582.0374675000203,1584.0374837000272,1582.0374675000203,1583.0375275000115,1583.0208066999912,1584.0208244000096,"[0, 0, 0]",1,1582.0374675000203,1584.0374837000272,,,,,,,,,,,,,,,,,,,6,M,1,18,R,MH,49,49,2022_Aug_15_1722,2020.2.10,distractmap1,59.981093968840895,"['Left Face', 'Right Leg', 'Left Face', 'Right Leg']",
7,"[-0.2, -0.2]",0,0,7,7,7,,,None,None,"[0, 0, 0]",1584.0541547000175,1586.0541588999913,1584.0541547000175,1585.054155300022,1585.0374928999809,1586.0375007999828,"[0, 0, 0]",1,1584.0541547000175,1586.0541588999913,,,,,,,,,,,,,,,,,,,6,M,1,18,R,MH,49,49,2022_Aug_15_1722,2020.2.10,distractmap1,59.981093968840895,"['Left Face', 'Right Leg', 'Left Face', 'Right Leg']",
6,"[0.2, 0]",0,0,8,8,8,,,None,None,"[0, 0, 0]",1586.0708040000172,1588.0708606999833,1586.0708040000172,1587.070845099981,1587.0541568000335,1588.0541887999862,"[0, 0, 0]",1,1586.0708040000172,1588.0708606999833,,,,,,,,,,,,,,,,,,,6,M,1,18,R,MH,49,49,2022_Aug_15_1722,2020.2.10,distractmap1,59.981093968840895,"['Left Face', 'Right Leg', 'Left Face', 'Right Leg']",
7,"[-0.2, -0.2]",1,0,9,9,9,,,None,None,"[0, 0, 0]",1588.087527399999,1590.0875334999873,1588.087527399999,1589.087524499977,1589.0708587000263,1590.0708674999769,"[0, 0, 0]",1,1588.087527399999,1590.0875334999873,,,,,,,,,,,,,,,,,,,6,M,1,18,R,MH,49,49,2022_Aug_15_1722,2020.2.10,distractmap1,59.981093968840895,"['Left Face', 'Right Leg', 'Left Face', 'Right Leg']",
,,,,,,,,,,,,,,,,,,,,,,1590.1041017000098,None,,,,,,,,,,,,,,,,,6,M,1,18,R,MH,49,49,2022_Aug_15_1722,2020.2.10,distractmap1,59.981093968840895,"['Left Face', 'Right Leg', 'Left Face', 'Right Leg']",
,,,,,,,,,,,,,,,,,,,,,,,,,,,,,,,,,,17.222222222222225,1569.6266062200884,,,,,6,M,1,18,R,MH,49,49,2022_Aug_15_1722,2020.2.10,distractmap1,59.981093968840895,"['Left Face', 'Right Leg', 'Left Face', 'Right Leg']",
4,"[-0.2, 0]",None,0,0,0,0,1607.3714308000053,None,None,None,"[0, 0, 0]",1610.1376722999848,1612.1376175000332,1610.1376722999848,1611.1377120999969,1611.121060399979,1612.121016399993,"[0, 0, 0]",1,1610.1376722999848,1612.1376175000332,,,,,,,,,,,,,,,0.013011679926421493,5.008902879955713,,,6,M,1,18,R,MH,49,49,2022_Aug_15_1722,2020.2.10,distractmap1,59.981093968840895,"['Left Face', 'Right Leg', 'Left Face', 'Right Leg']",
5,"[0, 0]",None,0,1,1,1,,,None,None,"[0, 0, 0]",1612.1544420000282,1614.1544156000018,1612.1544420000282,1613.1544130999828,1613.1377562999842,1614.1377669000067,"[0, 0, 0]",1,1612.1544420000282,1614.1544156000018,,,,,,,,,,,,,,,,,,,6,M,1,18,R,MH,49,49,2022_Aug_15_1722,2020.2.10,distractmap1,59.981093968840895,"['Left Face', 'Right Leg', 'Left Face', 'Right Leg']",
6,"[0.2, 0]",0,0,2,2,2,,,None,None,"[0, 0, 0]",1614.1710831000237,1616.1711028999998,1614.1710831000237,1615.1710973000154,1615.1544186000247,1616.154430900002,"[0, 0, 0]",1,1614.1710831000237,1616.1711028999998,,,,,,,,,,,,,,,,,,,6,M,1,18,R,MH,49,49,2022_Aug_15_1722,2020.2.10,distractmap1,59.981093968840895,"['Left Face', 'Right Leg', 'Left Face', 'Right Leg']",
1,"[-0.2, 0.2]",0,0,3,3,3,,,None,None,"[0, 0, 0]",1616.1876581999823,1618.1877849000157,1616.1876581999823,1617.187787300034,1617.1710967000108,1618.171119400009,"[0, 0, 0]",1,1616.1876581999823,1618.1877849000157,,,,,,,,,,,,,,,,,,,6,M,1,18,R,MH,49,49,2022_Aug_15_1722,2020.2.10,distractmap1,59.981093968840895,"['Left Face', 'Right Leg', 'Left Face', 'Right Leg']",
6,"[0.2, 0]",1,0,4,4,4,,,None,None,"[0, 0, 0]",1618.2379083000124,None,1618.2379083000124,1619.2377991999965,1619.2377991999965,None,"[0, 0, 0]",1,1618.2379083000124,None,,,,,,,,,,,,,,,,,,,6,M,1,18,R,MH,49,49,2022_Aug_15_1722,2020.2.10,distractmap1,59.981093968840895,"['Left Face', 'Right Leg', 'Left Face', 'Right Leg']",
1,"[-0.2, 0.2]",1,0,5,5,5,,,None,None,"[0, 0, 0]",1620.2211326999823,1622.2211549999774,1620.2211326999823,1621.2211337999906,1621.2044718000107,1622.2044713000068,"[0, 0, 0]",1,1620.2211326999823,1622.2211549999774,,,,,,,,,,,,,,,,,,,6,M,1,18,R,MH,49,49,2022_Aug_15_1722,2020.2.10,distractmap1,59.981093968840895,"['Left Face', 'Right Leg', 'Left Face', 'Right Leg']",
2,"[0, 0.2]",0,0,6,6,6,,,None,None,"[0, 0, 0]",1622.2378303000005,1624.237853300001,1622.2378303000005,1623.2378333000233,1623.2211552999797,1624.221163099981,"[0, 0, 0]",1,1622.2378303000005,1624.237853300001,,,,,,,,,,,,,,,,,,,6,M,1,18,R,MH,49,49,2022_Aug_15_1722,2020.2.10,distractmap1,59.981093968840895,"['Left Face', 'Right Leg', 'Left Face', 'Right Leg']",
3,"[0.2, 0.2]",0,0,7,7,7,,,None,None,"[0, 0, 0]",1624.2545039000106,1626.2545202000183,1624.2545039000106,1625.2545201000175,1625.2378622000106,1626.237864500028,"[0, 0, 0]",1,1624.2545039000106,1626.2545202000183,,,,,,,,,,,,,,,,,,,6,M,1,18,R,MH,49,49,2022_Aug_15_1722,2020.2.10,distractmap1,59.981093968840895,"['Left Face', 'Right Leg', 'Left Face', 'Right Leg']",
6,"[0.2, 0]",0,0,8,8,8,,,None,None,"[0, 0, 0]",1626.2711953999824,1628.2712071000133,1626.2711953999824,1627.2715338999988,1627.2548169000074,1628.2545520000276,"[0, 0, 0]",1,1626.2711953999824,1628.2712071000133,,,,,,,,,,,,,,,,,,,6,M,1,18,R,MH,49,49,2022_Aug_15_1722,2020.2.10,distractmap1,59.981093968840895,"['Left Face', 'Right Leg', 'Left Face', 'Right Leg']",
3,"[0.2, 0.2]",1,0,9,9,9,,,None,None,"[0, 0, 0]",1628.2878732000245,1630.2879466000013,1628.2878732000245,1629.2878724000184,1629.2712137000053,1630.2712267999887,"[0, 0, 0]",1,1628.2878732000245,1630.2879466000013,,,,,,,,,,,,,,,,,,,6,M,1,18,R,MH,49,49,2022_Aug_15_1722,2020.2.10,distractmap1,59.981093968840895,"['Left Face', 'Right Leg', 'Left Face', 'Right Leg']",
,,,,,,,,,,,,,,,,,,,,,,1630.3045432000072,None,,,,,,,,,,,,,,,,,6,M,1,18,R,MH,49,49,2022_Aug_15_1722,2020.2.10,distractmap1,59.981093968840895,"['Left Face', 'Right Leg', 'Left Face', 'Right Leg']",
,,,,,,,,,,,,,,,,,,,,,,,,,,,,,,,,,,21.48148148148148,1609.959829520085,,,,,6,M,1,18,R,MH,49,49,2022_Aug_15_1722,2020.2.10,distractmap1,59.981093968840895,"['Left Face', 'Right Leg', 'Left Face', 'Right Leg']",
,,,,,,,1665.3215250999783,None,,,,,,,,,,,,,,,,,,,,,,,,,,44.50617283950618,1644.0403585199965,0.013488779950421304,5.009817279991694,1645.321366499993,None,6,M,1,18,R,MH,49,49,2022_Aug_15_1722,2020.2.10,distractmap1,59.981093968840895,"['Left Face', 'Right Leg', 'Left Face', 'Right Leg']",
,,,,,,,1700.338556999981,None,,,,,,,,,,,,,,,,,,,,,,,,,,48.086419753086425,1676.442901620001,0.016598579997662455,5.015993779990822,1680.3382320000092,None,6,M,1,18,R,MH,49,49,2022_Aug_15_1722,2020.2.10,distractmap1,59.981093968840895,"['Left Face', 'Right Leg', 'Left Face', 'Right Leg']",
,,,,,,,1735.3554816999822,None,,,,,,,,,,,,,,,,,,,,,,,,,,50.308641975308646,1713.4598942199955,0.014314380008727312,5.011387580016162,1715.355296600028,None,6,M,1,18,R,MH,49,49,2022_Aug_15_1722,2020.2.10,distractmap1,59.981093968840895,"['Left Face', 'Right Leg', 'Left Face', 'Right Leg']",
2,"[0, 0.2]",None,0,0,0,0,1752.6225617000018,None,None,None,"[0, 0, 0]",1755.3723322000005,None,1755.3723322000005,1756.3723246000009,1756.3556660999893,1757.355708600022,"[0, 0, 0]",1,1755.3723322000005,None,,,,,,,,,,,,,,,0.014349480043165386,5.011601280013565,,,6,M,1,18,R,MH,49,49,2022_Aug_15_1722,2020.2.10,distractmap1,59.981093968840895,"['Left Face', 'Right Leg', 'Left Face', 'Right Leg']",
5,"[0, 0]",None,0,1,1,1,,,None,None,"[0, 0, 0]",1757.372355200001,1759.372349000012,1757.372355200001,1758.3723603999824,1758.3556974999956,1759.3557382000145,"[0, 0, 0]",1,1757.372355200001,1759.372349000012,,,,,,,,,,,,,,,,,,,6,M,1,18,R,MH,49,49,2022_Aug_15_1722,2020.2.10,distractmap1,59.981093968840895,"['Left Face', 'Right Leg', 'Left Face', 'Right Leg']",
6,"[0.2, 0]",0,0,2,2,2,,,None,None,"[0, 0, 0]",1759.3890277000028,1761.389049099991,1759.3890277000028,1760.3890435000067,1760.3724345000228,1761.3723905999796,"[0, 0, 0]",1,1759.3890277000028,1761.389049099991,,,,,,,,,,,,,,,,,,,6,M,1,18,R,MH,49,49,2022_Aug_15_1722,2020.2.10,distractmap1,59.981093968840895,"['Left Face', 'Right Leg', 'Left Face', 'Right Leg']",
1,"[-0.2, 0.2]",0,0,3,3,3,,,None,None,"[0, 0, 0]",1761.4057189000305,1763.4057423999766,1761.4057189000305,1762.4057294999948,1762.389062399976,1763.3890646999935,"[0, 0, 0]",1,1761.4057189000305,1763.4057423999766,,,,,,,,,,,,,,,,,,,6,M,1,18,R,MH,49,49,2022_Aug_15_1722,2020.2.10,distractmap1,59.981093968840895,"['Left Face', 'Right Leg', 'Left Face', 'Right Leg']",
6,"[0.2, 0]",1,0,4,4,4,,,None,None,"[0, 0, 0]",1763.4885975000216,None,1763.4885975000216,1764.4890772000072,1764.4890772000072,None,"[0, 0, 0]",1,1763.4885975000216,None,,,,,,,,,,,,,,,,,,,6,M,1,18,R,MH,49,49,2022_Aug_15_1722,2020.2.10,distractmap1,59.981093968840895,"['Left Face', 'Right Leg', 'Left Face', 'Right Leg']",
6,"[0.2, 0]",0,0,5,5,5,,,None,None,"[0, 0, 0]",1765.4390729999868,1767.4390067000058,1765.4390729999868,1766.4390988000087,1766.4224320999929,1767.4224374000332,"[0, 0, 0]",1,1765.4390729999868,1767.4390067000058,,,,,,,,,,,,,,,,,,,6,M,1,18,R,MH,49,49,2022_Aug_15_1722,2020.2.10,distractmap1,59.981093968840895,"['Left Face', 'Right Leg', 'Left Face', 'Right Leg']",
9,"[0.2, -0.2]",0,0,6,6,6,,,None,None,"[0, 0, 0]",1767.4552476999816,1769.4557869000128,1767.4552476999816,1768.455720900034,1768.4391042999923,1769.4391230000183,"[0, 0, 0]",1,1767.4552476999816,1769.4557869000128,,,,,,,,,,,,,,,,,,,6,M,1,18,R,MH,49,49,2022_Aug_15_1722,2020.2.10,distractmap1,59.981093968840895,"['Left Face', 'Right Leg', 'Left Face', 'Right Leg']",
6,"[0.2, 0]",1,0,7,7,7,,,None,None,"[0, 0, 0]",1769.4725050000125,1771.472500599979,1769.4725050000125,1770.4724706999841,1770.4557962000254,1771.455804200028,"[0, 0, 0]",1,1769.4725050000125,1771.472500599979,,,,,,,,,,,,,,,,,,,6,M,1,18,R,MH,49,49,2022_Aug_15_1722,2020.2.10,distractmap1,59.981093968840895,"['Left Face', 'Right Leg', 'Left Face', 'Right Leg']",
3,"[0.2, 0.2]",0,0,8,8,8,,,None,None,"[0, 0, 0]",1771.4891424999805,1773.489156000025,1771.4891424999805,1772.489143999992,1772.4724729000009,1773.472515899979,"[0, 0, 0]",1,1771.4891424999805,1773.489156000025,,,,,,,,,,,,,,,,,,,6,M,1,18,R,MH,49,49,2022_Aug_15_1722,2020.2.10,distractmap1,59.981093968840895,"['Left Face', 'Right Leg', 'Left Face', 'Right Leg']",
9,"[0.2, -0.2]",0,0,9,9,9,,,None,None,"[0, 0, 0]",1773.5058339000097,1775.5058397999965,1773.5058339000097,1774.505839199992,1774.4891641000286,1775.4891630000202,"[0, 0, 0]",0,1773.5058339000097,1775.5058397999965,,,,,,,,,,,,,,,,,,,6,M,1,18,R,MH,49,49,2022_Aug_15_1722,2020.2.10,distractmap1,59.981093968840895,"['Left Face', 'Right Leg', 'Left Face', 'Right Leg']",
,,,,,,,,,,,,,,,,,,,,,,1775.5225047999993,None,,,,,,,,,,,,,,,,,6,M,1,18,R,MH,49,49,2022_Aug_15_1722,2020.2.10,distractmap1,59.981093968840895,"['Left Face', 'Right Leg', 'Left Face', 'Right Leg']",
,,,,,,,,,,,,,,,,,,,,,,,,,,,,,,,,,,23.14814814814815,1751.4449963200022,,,,,6,M,1,18,R,MH,49,49,2022_Aug_15_1722,2020.2.10,distractmap1,59.981093968840895,"['Left Face', 'Right Leg', 'Left Face', 'Right Leg']",
3,"[0.2, 0.2]",None,0,0,0,0,1788.8226879999856,None,None,None,"[0, 0, 0]",1795.5559169999906,1797.5560301999794,1795.5559169999906,1796.5560352000175,1796.539350099978,1797.5393699000124,"[0, 0, 0]",1,1795.5559169999906,1797.5560301999794,,,,,,,,,,,,,,,0.01296038000145927,5.0088578799623065,,,6,M,1,18,R,MH,49,49,2022_Aug_15_1722,2020.2.10,distractmap1,59.981093968840895,"['Left Face', 'Right Leg', 'Left Face', 'Right Leg']",
9,"[0.2, -0.2]",None,0,1,1,1,,,None,None,"[0, 0, 0]",1797.572709799977,1799.572735499998,1797.572709799977,1798.572725099977,1798.5560515000252,1799.5561088999966,"[0, 0, 0]",1,1797.572709799977,1799.572735499998,,,,,,,,,,,,,,,,,,,6,M,1,18,R,MH,49,49,2022_Aug_15_1722,2020.2.10,distractmap1,59.981093968840895,"['Left Face', 'Right Leg', 'Left Face', 'Right Leg']",
3,"[0.2, 0.2]",1,0,2,2,2,,,None,None,"[0, 0, 0]",1799.5893820999772,1801.5894123000326,1799.5893820999772,1800.589366899978,1800.5727419999894,1801.572739300027,"[0, 0, 0]",1,1799.5893820999772,1801.5894123000326,,,,,,,,,,,,,,,,,,,6,M,1,18,R,MH,49,49,2022_Aug_15_1722,2020.2.10,distractmap1,59.981093968840895,"['Left Face', 'Right Leg', 'Left Face', 'Right Leg']",
7,"[-0.2, -0.2]",0,0,3,3,3,,,None,None,"[0, 0, 0]",1801.6060744000133,1803.6060936999856,1801.6060744000133,1802.606083700026,1802.589418700023,1803.5894303999958,"[0, 0, 0]",1,1801.6060744000133,1803.6060936999856,,,,,,,,,,,,,,,,,,,6,M,1,18,R,MH,49,49,2022_Aug_15_1722,2020.2.10,distractmap1,59.981093968840895,"['Left Face', 'Right Leg', 'Left Face', 'Right Leg']",
8,"[0, -0.2]",0,0,4,4,4,,,None,None,"[0, 0, 0]",1803.6393551999936,None,1803.6393551999936,1804.6394384999876,1804.6394384999876,None,"[0, 0, 0]",1,1803.6393551999936,None,,,,,,,,,,,,,,,,,,,6,M,1,18,R,MH,49,49,2022_Aug_15_1722,2020.2.10,distractmap1,59.981093968840895,"['Left Face', 'Right Leg', 'Left Face', 'Right Leg']",
4,"[-0.2, 0]",0,0,5,5,5,,,None,None,"[0, 0, 0]",1805.6394448999781,1807.6394492000109,1805.6394448999781,1806.6394578000181,1806.6227919000085,1807.6228445000015,"[0, 0, 0]",1,1805.6394448999781,1807.6394492000109,,,,,,,,,,,,,,,,,,,6,M,1,18,R,MH,49,49,2022_Aug_15_1722,2020.2.10,distractmap1,59.981093968840895,"['Left Face', 'Right Leg', 'Left Face', 'Right Leg']",
4,"[-0.2, 0]",0,0,6,6,6,,,None,None,"[0, 0, 0]",1807.6561627999763,1809.6561243000324,1807.6561627999763,1808.6561397000332,1808.6394580000197,1809.639483899984,"[0, 0, 0]",1,1807.6561627999763,1809.6561243000324,,,,,,,,,,,,,,,,,,,6,M,1,18,R,MH,49,49,2022_Aug_15_1722,2020.2.10,distractmap1,59.981093968840895,"['Left Face', 'Right Leg', 'Left Face', 'Right Leg']",
1,"[-0.2, 0.2]",0,0,7,7,7,,,None,None,"[0, 0, 0]",1809.672854000004,1811.672828699986,1809.672854000004,1810.6728332000202,1810.6564518000232,1811.656152600015,"[0, 0, 0]",1,1809.672854000004,1811.672828699986,,,,,,,,,,,,,,,,,,,6,M,1,18,R,MH,49,49,2022_Aug_15_1722,2020.2.10,distractmap1,59.981093968840895,"['Left Face', 'Right Leg', 'Left Face', 'Right Leg']",
4,"[-0.2, 0]",1,0,8,8,8,,,None,None,"[0, 0, 0]",1811.6893935999833,1813.6895171999931,1811.6893935999833,1812.689496600011,1812.6728555000154,1813.6728898999863,"[0, 0, 0]",1,1811.6893935999833,1813.6895171999931,,,,,,,,,,,,,,,,,,,6,M,1,18,R,MH,49,49,2022_Aug_15_1722,2020.2.10,distractmap1,59.981093968840895,"['Left Face', 'Right Leg', 'Left Face', 'Right Leg']",
8,"[0, -0.2]",0,0,9,9,9,,,None,None,"[0, 0, 0]",1813.7061852000188,1815.70619669999,1813.7061852000188,1814.7061849000165,1814.6895328999963,1815.6895244999905,"[0, 0, 0]",1,1813.7061852000188,1815.70619669999,,,,,,,,,,,,,,,,,,,6,M,1,18,R,MH,49,49,2022_Aug_15_1722,2020.2.10,distractmap1,59.981093968840895,"['Left Face', 'Right Leg', 'Left Face', 'Right Leg']",
,,,,,,,,,,,,,,,,,,,,,,1815.722709099995,None,,,,,,,,,,,,,,,,,6,M,1,18,R,MH,49,49,2022_Aug_15_1722,2020.2.10,distractmap1,59.981093968840895,"['Left Face', 'Right Leg', 'Left Face', 'Right Leg']",
,,,,,,,,,,,,,,,,,,,,,,,,,,,,,,,,,,25.493827160493826,1793.6949660200044,,,,,6,M,1,18,R,MH,49,49,2022_Aug_15_1722,2020.2.10,distractmap1,59.981093968840895,"['Left Face', 'Right Leg', 'Left Face', 'Right Leg']",
2,"[0, 0.2]",None,0,0,0,0,1831.6396501000272,None,None,None,"[0, 0, 0]",1835.75639699999,None,1835.75639699999,1836.75639699999,1836.739729700028,1837.7397422000067,"[0, 0, 0]",1,1835.75639699999,None,,,,,,,,,,,,,,,0.013352780020795763,5.0096036799950525,,,6,M,1,18,R,MH,49,49,2022_Aug_15_1722,2020.2.10,distractmap1,59.981093968840895,"['Left Face', 'Right Leg', 'Left Face', 'Right Leg']",
5,"[0, 0]",None,0,1,1,1,,,None,None,"[0, 0, 0]",1837.7563952999772,1839.7564322000253,1837.7563952999772,1838.756401200022,1838.7397626999882,1839.7397528000292,"[0, 0, 0]",1,1837.7563952999772,1839.7564322000253,,,,,,,,,,,,,,,,,,,6,M,1,18,R,MH,49,49,2022_Aug_15_1722,2020.2.10,distractmap1,59.981093968840895,"['Left Face', 'Right Leg', 'Left Face', 'Right Leg']",
3,"[0.2, 0.2]",0,0,2,2,2,,,None,None,"[0, 0, 0]",1839.7730804000166,1841.7729971000226,1839.7730804000166,1840.773114599986,1840.7564714000328,1841.7564909000066,"[0, 0, 0]",1,1839.7730804000166,1841.7729971000226,,,,,,,,,,,,,,,,,,,6,M,1,18,R,MH,49,49,2022_Aug_15_1722,2020.2.10,distractmap1,59.981093968840895,"['Left Face', 'Right Leg', 'Left Face', 'Right Leg']",
5,"[0, 0]",1,0,3,3,3,,,None,None,"[0, 0, 0]",1841.7897697000299,1843.7897783999797,1841.7897697000299,1842.7897665000055,1842.773103500018,1843.773120500031,"[0, 0, 0]",1,1841.7897697000299,1843.7897783999797,,,,,,,,,,,,,,,,,,,6,M,1,18,R,MH,49,49,2022_Aug_15_1722,2020.2.10,distractmap1,59.981093968840895,"['Left Face', 'Right Leg', 'Left Face', 'Right Leg']",
2,"[0, 0.2]",0,0,4,4,4,,,None,None,"[0, 0, 0]",1843.839797099994,None,1843.839797099994,1844.8397933000233,1844.8230578000075,None,"[0, 0, 0]",1,1843.839797099994,None,,,,,,,,,,,,,,,,,,,6,M,1,18,R,MH,49,49,2022_Aug_15_1722,2020.2.10,distractmap1,59.981093968840895,"['Left Face', 'Right Leg', 'Left Face', 'Right Leg']",
8,"[0, -0.2]",0,0,5,5,5,,,None,None,"[0, 0, 0]",1845.8231007999857,1847.8231455999776,1845.8231007999857,1846.823110600002,1846.806473499979,1847.8064671999891,"[0, 0, 0]",1,1845.8231007999857,1847.8231455999776,,,,,,,,,,,,,,,,,,,6,M,1,18,R,MH,49,49,2022_Aug_15_1722,2020.2.10,distractmap1,59.981093968840895,"['Left Face', 'Right Leg', 'Left Face', 'Right Leg']",
4,"[-0.2, 0]",0,0,6,6,6,,,None,None,"[0, 0, 0]",1847.8398275999934,1849.839837300009,1847.8398275999934,1848.8398368000053,1848.8231559999986,1849.8231420000084,"[0, 0, 0]",1,1847.8398275999934,1849.839837300009,,,,,,,,,,,,,,,,,,,6,M,1,18,R,MH,49,49,2022_Aug_15_1722,2020.2.10,distractmap1,59.981093968840895,"['Left Face', 'Right Leg', 'Left Face', 'Right Leg']",
8,"[0, -0.2]",1,0,7,7,7,,,None,None,"[0, 0, 0]",1849.8564989999868,1851.856505200034,1849.8564989999868,1850.8565117000253,1850.8398454000126,1851.8398604000104,"[0, 0, 0]",1,1849.8564989999868,1851.856505200034,,,,,,,,,,,,,,,,,,,6,M,1,18,R,MH,49,49,2022_Aug_15_1722,2020.2.10,distractmap1,59.981093968840895,"['Left Face', 'Right Leg', 'Left Face', 'Right Leg']",
7,"[-0.2, -0.2]",0,0,8,8,8,,,None,None,"[0, 0, 0]",1851.8731881999993,1853.8732065000222,1851.8731881999993,1852.8731849000324,1852.8565269000246,1853.856534200022,"[0, 0, 0]",1,1851.8731881999993,1853.8732065000222,,,,,,,,,,,,,,,,,,,6,M,1,18,R,MH,49,49,2022_Aug_15_1722,2020.2.10,distractmap1,59.981093968840895,"['Left Face', 'Right Leg', 'Left Face', 'Right Leg']",
8,"[0, -0.2]",1,0,9,9,9,,,None,None,"[0, 0, 0]",1853.889866499987,1855.8898934000172,1853.889866499987,1854.8898970999871,1854.8732178999926,1855.87322280003,"[0, 0, 0]",1,1853.889866499987,1855.8898934000172,,,,,,,,,,,,,,,,,,,6,M,1,18,R,MH,49,49,2022_Aug_15_1722,2020.2.10,distractmap1,59.981093968840895,"['Left Face', 'Right Leg', 'Left Face', 'Right Leg']",
,,,,,,,,,,,,,,,,,,,,,,1855.9065430000192,None,,,,,,,,,,,,,,,,,6,M,1,18,R,MH,49,49,2022_Aug_15_1722,2020.2.10,distractmap1,59.981093968840895,"['Left Face', 'Right Leg', 'Left Face', 'Right Leg']",
,,,,,,,,,,,,,,,,,,,,,,,,,,,,,,,,,,20.679012345679013,1833.0288917199941,,,,,6,M,1,18,R,MH,49,49,2022_Aug_15_1722,2020.2.10,distractmap1,59.981093968840895,"['Left Face', 'Right Leg', 'Left Face', 'Right Leg']",
,,,,,,,1980.9243051999947,None,,,,,,,,,,,,,,,,,,,,,,,,,,50.74074074074074,1956.8431281201192,0.01306578004732728,5.008997180033475,1960.9241528999992,None,6,M,1,18,R,MH,49,49,2022_Aug_15_1722,2020.2.10,distractmap1,59.981093968840895,"['Left Face', 'Right Leg', 'Left Face', 'Right Leg']",
,,,,,,,2015.9412972999853,None,,,,,,,,,,,,,,,,,,,,,,,,,,49.44444444444444,1992.9622141200234,0.01658897992456332,5.015960379969329,1995.9411353000323,None,6,M,1,18,R,MH,49,49,2022_Aug_15_1722,2020.2.10,distractmap1,59.981093968840895,"['Left Face', 'Right Leg', 'Left Face', 'Right Leg']",
,,,,,,,2050.958284399996,None,,,,,,,,,,,,,,,,,,,,,,,,,,51.2962962962963,2028.2771247200435,0.014531079970765859,5.011944179947022,2030.9580982000334,None,6,M,1,18,R,MH,49,49,2022_Aug_15_1722,2020.2.10,distractmap1,59.981093968840895,"['Left Face', 'Right Leg', 'Left Face', 'Right Leg']",
2,"[0, 0.2]",None,0,0,0,0,2065.975095300004,None,None,None,"[0, 0, 0]",2070.975126000005,2072.9751568000065,2070.975126000005,2071.9751393999904,2071.9751393999904,2072.9751568000065,"[0, 0, 0]",1,2070.975126000005,2072.9751568000065,,,,,,,,,,,,,,,0.016586179961450398,5.015986079990398,,,6,M,1,18,R,MH,49,49,2022_Aug_15_1722,2020.2.10,distractmap1,59.981093968840895,"['Left Face', 'Right Leg', 'Left Face', 'Right Leg']",
2,"[0, 0.2]",None,0,1,1,1,,,None,None,"[0, 0, 0]",2072.99180920003,2074.991867100005,2072.99180920003,2073.9918348999927,2073.97516620002,2074.975175700034,"[0, 0, 0]",1,2072.99180920003,2074.991867100005,,,,,,,,,,,,,,,,,,,6,M,1,18,R,MH,49,49,2022_Aug_15_1722,2020.2.10,distractmap1,59.981093968840895,"['Left Face', 'Right Leg', 'Left Face', 'Right Leg']",
2,"[0, 0.2]",1,0,2,2,2,,,None,None,"[0, 0, 0]",2075.008489699976,2077.0085204999777,2075.008489699976,2076.008516700007,2075.9918537000194,2076.99187040003,"[0, 0, 0]",1,2075.008489699976,2077.0085204999777,,,,,,,,,,,,,,,,,,,6,M,1,18,R,MH,49,49,2022_Aug_15_1722,2020.2.10,distractmap1,59.981093968840895,"['Left Face', 'Right Leg', 'Left Face', 'Right Leg']",
8,"[0, -0.2]",0,0,3,3,3,,,None,None,"[0, 0, 0]",2077.025184200029,2079.0252021999913,2077.025184200029,2078.0251930999802,2078.0085396000068,2079.008531600004,"[0, 0, 0]",1,2077.025184200029,2079.0252021999913,,,,,,,,,,,,,,,,,,,6,M,1,18,R,MH,49,49,2022_Aug_15_1722,2020.2.10,distractmap1,59.981093968840895,"['Left Face', 'Right Leg', 'Left Face', 'Right Leg']",
2,"[0, 0.2]",1,0,4,4,4,,,None,None,"[0, 0, 0]",2079.041885500017,2081.04190750001,2079.041885500017,2080.041883800004,2080.0252138000214,2081.0252157999785,"[0, 0, 0]",1,2079.041885500017,2081.04190750001,,,,,,,,,,,,,,,,,,,6,M,1,18,R,MH,49,49,2022_Aug_15_1722,2020.2.10,distractmap1,59.981093968840895,"['Left Face', 'Right Leg', 'Left Face', 'Right Leg']",
5,"[0, 0]",0,0,5,5,5,,,None,None,"[0, 0, 0]",2081.0585598000325,2083.058574100025,2081.0585598000325,2082.0585668000276,2082.0419144000043,2083.0419164000195,"[0, 0, 0]",1,2081.0585598000325,2083.058574100025,,,,,,,,,,,,,,,,,,,6,M,1,18,R,MH,49,49,2022_Aug_15_1722,2020.2.10,distractmap1,59.981093968840895,"['Left Face', 'Right Leg', 'Left Face', 'Right Leg']",
1,"[-0.2, 0.2]",0,0,6,6,6,,,None,None,"[0, 0, 0]",2083.0752274999977,2085.075257299992,2083.0752274999977,2084.0752552999766,2084.0585840999847,2085.0585879000137,"[0, 0, 0]",1,2083.0752274999977,2085.075257299992,,,,,,,,,,,,,,,,,,,6,M,1,18,R,MH,49,49,2022_Aug_15_1722,2020.2.10,distractmap1,59.981093968840895,"['Left Face', 'Right Leg', 'Left Face', 'Right Leg']",
1,"[-0.2, 0.2]",0,0,7,7,7,,,None,None,"[0, 0, 0]",2085.0919296999928,2087.0919902999885,2085.0919296999928,2086.091859599983,2086.075258099998,2087.0751385000185,"[0, 0, 0]",1,2085.0919296999928,2087.0919902999885,,,,,,,,,,,,,,,,,,,6,M,1,18,R,MH,49,49,2022_Aug_15_1722,2020.2.10,distractmap1,59.981093968840895,"['Left Face', 'Right Leg', 'Left Face', 'Right Leg']",
6,"[0.2, 0]",0,0,8,8,8,,,None,None,"[0, 0, 0]",2087.108560500026,2089.1086259000003,2087.108560500026,2088.1086262000026,2088.091964400024,2089.091964400024,"[0, 0, 0]",1,2087.108560500026,2089.1086259000003,,,,,,,,,,,,,,,,,,,6,M,1,18,R,MH,49,49,2022_Aug_15_1722,2020.2.10,distractmap1,59.981093968840895,"['Left Face', 'Right Leg', 'Left Face', 'Right Leg']",
1,"[-0.2, 0.2]",1,0,9,9,9,,,None,None,"[0, 0, 0]",2089.125195599976,2091.1253746,2089.125195599976,2090.125290900003,2090.1086337000015,2091.1086766999797,"[0, 0, 0]",1,2089.125195599976,2091.1253746,,,,,,,,,,,,,,,,,,,6,M,1,18,R,MH,49,49,2022_Aug_15_1722,2020.2.10,distractmap1,59.981093968840895,"['Left Face', 'Right Leg', 'Left Face', 'Right Leg']",
,,,,,,,,,,,,,,,,,,,,,,2091.1419705000008,None,,,,,,,,,,,,,,,,,6,M,1,18,R,MH,49,49,2022_Aug_15_1722,2020.2.10,distractmap1,59.981093968840895,"['Left Face', 'Right Leg', 'Left Face', 'Right Leg']",
3,"[0.2, 0.2]",None,0,0,0,0,2099.158736100013,None,None,None,"[0, 0, 0]",2106.1587976000155,2108.1588012999855,2106.1587976000155,2107.1587855999824,2107.142123700003,2108.142137799994,"[0, 0, 0]",1,2106.1587976000155,2108.1588012999855,,,,,,,,,,,,,,,,,,,6,M,1,18,R,MH,49,49,2022_Aug_15_1722,2020.2.10,distractmap1,59.981093968840895,"['Left Face', 'Right Leg', 'Left Face', 'Right Leg']",
3,"[0.2, 0.2]",None,0,1,1,1,,,None,None,"[0, 0, 0]",2108.175471400027,2110.1754845000105,2108.175471400027,2109.1754810999846,2109.158809899993,2110.1588275000104,"[0, 0, 0]",1,2108.175471400027,2110.1754845000105,,,,,,,,,,,,,,,,,,,6,M,1,18,R,MH,49,49,2022_Aug_15_1722,2020.2.10,distractmap1,59.981093968840895,"['Left Face', 'Right Leg', 'Left Face', 'Right Leg']",
5,"[0, 0]",0,0,2,2,2,,,None,None,"[0, 0, 0]",2110.1921535999863,2112.1921574000153,2110.1921535999863,2111.192058900022,2111.175491400005,2112.1755065000034,"[0, 0, 0]",1,2110.1921535999863,2112.1921574000153,,,,,,,,,,,,,,,,,,,6,M,1,18,R,MH,49,49,2022_Aug_15_1722,2020.2.10,distractmap1,59.981093968840895,"['Left Face', 'Right Leg', 'Left Face', 'Right Leg']",
1,"[-0.2, 0.2]",0,0,3,3,3,,,None,None,"[0, 0, 0]",2112.2088420999935,2114.2088443000102,2112.2088420999935,2113.208844800014,2113.1921751000336,2114.192192699993,"[0, 0, 0]",1,2112.2088420999935,2114.2088443000102,,,,,,,,,,,,,,,,,,,6,M,1,18,R,MH,49,49,2022_Aug_15_1722,2020.2.10,distractmap1,59.981093968840895,"['Left Face', 'Right Leg', 'Left Face', 'Right Leg']",
5,"[0, 0]",1,0,4,4,4,,,None,None,"[0, 0, 0]",2114.2255175000173,2116.2255543000065,2114.2255175000173,2115.2255340000265,2115.2088679000153,2116.2088673000108,"[0, 0, 0]",1,2114.2255175000173,2116.2255543000065,,,,,,,,,,,,,,,,,,,6,M,1,18,R,MH,49,49,2022_Aug_15_1722,2020.2.10,distractmap1,59.981093968840895,"['Left Face', 'Right Leg', 'Left Face', 'Right Leg']",
8,"[0, -0.2]",0,0,5,5,5,,,None,None,"[0, 0, 0]",2116.2422267000074,2118.2422063000267,2116.2422267000074,2117.242226000002,2117.2255505999783,2118.2255572000286,"[0, 0, 0]",1,2116.2422267000074,2118.2422063000267,,,,,,,,,,,,,,,,,,,6,M,1,18,R,MH,49,49,2022_Aug_15_1722,2020.2.10,distractmap1,59.981093968840895,"['Left Face', 'Right Leg', 'Left Face', 'Right Leg']",
5,"[0, 0]",1,0,6,6,6,,,None,None,"[0, 0, 0]",2118.2588957999833,2120.258907900017,2118.2588957999833,2119.2588978999993,2119.2422320999904,2120.2422495000064,"[0, 0, 0]",1,2118.2588957999833,2120.258907900017,,,,,,,,,,,,,,,,,,,6,M,1,18,R,MH,49,49,2022_Aug_15_1722,2020.2.10,distractmap1,59.981093968840895,"['Left Face', 'Right Leg', 'Left Face', 'Right Leg']",
7,"[-0.2, -0.2]",0,0,7,7,7,,,None,None,"[0, 0, 0]",2120.2755671999766,2122.275596900028,2120.2755671999766,2121.2756033000187,2121.25892990001,2122.2589355999953,"[0, 0, 0]",1,2120.2755671999766,2122.275596900028,,,,,,,,,,,,,,,,,,,6,M,1,18,R,MH,49,49,2022_Aug_15_1722,2020.2.10,distractmap1,59.981093968840895,"['Left Face', 'Right Leg', 'Left Face', 'Right Leg']",
5,"[0, 0]",1,0,8,8,8,,,None,None,"[0, 0, 0]",2122.2922640999896,2124.2922827000148,2122.2922640999896,2123.2922620000318,2123.2755012999987,2124.2756131999777,"[0, 0, 0]",1,2122.2922640999896,2124.2922827000148,,,,,,,,,,,,,,,,,,,6,M,1,18,R,MH,49,49,2022_Aug_15_1722,2020.2.10,distractmap1,59.981093968840895,"['Left Face', 'Right Leg', 'Left Face', 'Right Leg']",
7,"[-0.2, -0.2]",1,0,9,9,9,,,None,None,"[0, 0, 0]",2124.3089422999765,2126.308957899979,2124.3089422999765,2125.3084345000098,2125.292302099988,2126.292294199986,"[0, 0, 0]",1,2124.3089422999765,2126.308957899979,,,,,,,,,,,,,,,,,,,6,M,1,18,R,MH,49,49,2022_Aug_15_1722,2020.2.10,distractmap1,59.981093968840895,"['Left Face', 'Right Leg', 'Left Face', 'Right Leg']",
,,,,,,,,,,,,,,,,,,,,,,2126.325615799986,None,,,,,,,,,,,,,,,,,6,M,1,18,R,MH,49,49,2022_Aug_15_1722,2020.2.10,distractmap1,59.981093968840895,"['Left Face', 'Right Leg', 'Left Face', 'Right Leg']",
6,"[0.2, 0]",None,0,0,0,0,2136.342396799999,None,None,None,"[0, 0, 0]",2141.3424197999993,2143.3424380000215,2141.3424197999993,2142.342434499995,2142.3257821000298,2143.325784399989,"[0, 0, 0]",1,2141.3424197999993,2143.3424380000215,,,,,,,,,,,,,,,,,,,6,M,1,18,R,MH,49,49,2022_Aug_15_1722,2020.2.10,distractmap1,59.981093968840895,"['Left Face', 'Right Leg', 'Left Face', 'Right Leg']",
1,"[-0.2, 0.2]",None,0,1,1,1,,,None,None,"[0, 0, 0]",2143.3591065999935,2145.359114699997,2143.3591065999935,2144.3591087000095,2144.342441099987,2145.3424709999817,"[0, 0, 0]",1,2143.3591065999935,2145.359114699997,,,,,,,,,,,,,,,,,,,6,M,1,18,R,MH,49,49,2022_Aug_15_1722,2020.2.10,distractmap1,59.981093968840895,"['Left Face', 'Right Leg', 'Left Face', 'Right Leg']",
6,"[0.2, 0]",1,0,2,2,2,,,None,None,"[0, 0, 0]",2145.3757976000197,2147.3758162999875,2145.3757976000197,2146.3758069000323,2146.359143699985,2147.359136999992,"[0, 0, 0]",1,2145.3757976000197,2147.3758162999875,,,,,,,,,,,,,,,,,,,6,M,1,18,R,MH,49,49,2022_Aug_15_1722,2020.2.10,distractmap1,59.981093968840895,"['Left Face', 'Right Leg', 'Left Face', 'Right Leg']",
4,"[-0.2, 0]",0,0,3,3,3,,,None,None,"[0, 0, 0]",2147.3925019000308,2149.3925015000277,2147.3925019000308,2148.3924767000135,2148.3758389999857,2149.3758390999865,"[0, 0, 0]",1,2147.3925019000308,2149.3925015000277,,,,,,,,,,,,,,,,,,,6,M,1,18,R,MH,49,49,2022_Aug_15_1722,2020.2.10,distractmap1,59.981093968840895,"['Left Face', 'Right Leg', 'Left Face', 'Right Leg']",
1,"[-0.2, 0.2]",0,0,4,4,4,,,None,None,"[0, 0, 0]",2149.409173000022,2151.409170900006,2149.409173000022,2150.409183299984,2150.392510399979,2151.3925978000043,"[0, 0, 0]",1,2149.409173000022,2151.409170900006,,,,,,,,,,,,,,,,,,,6,M,1,18,R,MH,49,49,2022_Aug_15_1722,2020.2.10,distractmap1,59.981093968840895,"['Left Face', 'Right Leg', 'Left Face', 'Right Leg']",
8,"[0, -0.2]",0,0,5,5,5,,,None,None,"[0, 0, 0]",2151.425853600027,2153.4258680000203,2151.425853600027,2152.425850300002,2152.4090891000233,2153.409207799996,"[0, 0, 0]",1,2151.425853600027,2153.4258680000203,,,,,,,,,,,,,,,,,,,6,M,1,18,R,MH,49,49,2022_Aug_15_1722,2020.2.10,distractmap1,59.981093968840895,"['Left Face', 'Right Leg', 'Left Face', 'Right Leg']",
1,"[-0.2, 0.2]",1,0,6,6,6,,,None,None,"[0, 0, 0]",2153.442543399986,2155.4425589999883,2153.442543399986,2154.4425478000194,2154.425876500027,2155.4258964000037,"[0, 0, 0]",1,2153.442543399986,2155.4425589999883,,,,,,,,,,,,,,,,,,,6,M,1,18,R,MH,49,49,2022_Aug_15_1722,2020.2.10,distractmap1,59.981093968840895,"['Left Face', 'Right Leg', 'Left Face', 'Right Leg']",
8,"[0, -0.2]",1,0,7,7,7,,,None,None,"[0, 0, 0]",2155.4591769999824,2157.4592355000204,2155.4591769999824,2156.459231399989,2156.442578600021,2157.4425659999833,"[0, 0, 0]",1,2155.4591769999824,2157.4592355000204,,,,,,,,,,,,,,,,,,,6,M,1,18,R,MH,49,49,2022_Aug_15_1722,2020.2.10,distractmap1,59.981093968840895,"['Left Face', 'Right Leg', 'Left Face', 'Right Leg']",
1,"[-0.2, 0.2]",1,0,8,8,8,,,None,None,"[0, 0, 0]",2157.4759211000055,2159.475935800001,2157.4759211000055,2158.475919599994,2158.459245899983,2159.4592553999973,"[0, 0, 0]",1,2157.4759211000055,2159.475935800001,,,,,,,,,,,,,,,,,,,6,M,1,18,R,MH,49,49,2022_Aug_15_1722,2020.2.10,distractmap1,59.981093968840895,"['Left Face', 'Right Leg', 'Left Face', 'Right Leg']",
6,"[0.2, 0]",0,0,9,9,9,,,None,None,"[0, 0, 0]",2159.4926219999907,2161.492617700016,2159.4926219999907,2160.4926054999814,2160.475937900017,2161.4759479999775,"[0, 0, 0]",1,2159.4926219999907,2161.492617700016,,,,,,,,,,,,,,,,,,,6,M,1,18,R,MH,49,49,2022_Aug_15_1722,2020.2.10,distractmap1,59.981093968840895,"['Left Face', 'Right Leg', 'Left Face', 'Right Leg']",
,,,,,,,,,,,,,,,,,,,,,,2161.5092698999797,None,,,,,,,,,,,,,,,,,6,M,1,18,R,MH,49,49,2022_Aug_15_1722,2020.2.10,distractmap1,59.981093968840895,"['Left Face', 'Right Leg', 'Left Face', 'Right Leg']",
,,,,,,,2406.311367199989,None,,,,,,,,,,,,,,,,,,,2203.6763212999795,2203.6763212999795,None,space,141.89265819999855,2203.6763212999795,None,32.839506172839506,2383.613641819975,,,2386.3112776000053,None,6,M,1,18,R,MH,49,49,2022_Aug_15_1722,2020.2.10,distractmap1,59.981093968840895,"['Left Face', 'Right Leg', 'Left Face', 'Right Leg']",
,,,,,,,2441.3284800000256,None,,,,,,,,,,,,,,,,,,,,,,,,,,23.271604938271608,2419.1305771199986,0.016572380030993372,5.016054880048614,2421.3282550000004,None,6,M,1,18,R,MH,49,49,2022_Aug_15_1722,2020.2.10,distractmap1,59.981093968840895,"['Left Face', 'Right Leg', 'Left Face', 'Right Leg']",
,,,,,,,2476.345396700024,None,,,,,,,,,,,,,,,,,,,,,,,,,,25.246913580246915,2454.4492740200367,0.016586580022703856,5.016129679977894,2456.3452580000157,None,6,M,1,18,R,MH,49,49,2022_Aug_15_1722,2020.2.10,distractmap1,59.981093968840895,"['Left Face', 'Right Leg', 'Left Face', 'Right Leg']",
7,"[-0.2, -0.2]",None,0,0,0,0,2491.3622222000267,None,None,None,"[0, 0, 0]",2496.3614349000272,2498.3622728000046,2496.3614349000272,2497.3622612000327,2497.3622612000327,2498.3622728000046,"[0, 0, 0]",1,2496.3614349000272,2498.3622728000046,,,,,,,,,,,,,,,0.0148924799868837,5.012595079955645,,,6,M,1,18,R,MH,49,49,2022_Aug_15_1722,2020.2.10,distractmap1,59.981093968840895,"['Left Face', 'Right Leg', 'Left Face', 'Right Leg']",
7,"[-0.2, -0.2]",None,0,1,1,1,,,None,None,"[0, 0, 0]",2498.3789408000303,2500.3789469000185,2498.3789408000303,2499.3789532000083,2499.362267300021,2500.362331899989,"[0, 0, 0]",1,2498.3789408000303,2500.3789469000185,,,,,,,,,,,,,,,,,,,6,M,1,18,R,MH,49,49,2022_Aug_15_1722,2020.2.10,distractmap1,59.981093968840895,"['Left Face', 'Right Leg', 'Left Face', 'Right Leg']",
7,"[-0.2, -0.2]",1,0,2,2,2,,,None,None,"[0, 0, 0]",2500.3956280000275,2502.395645899989,2500.3956280000275,2501.3956469999976,2501.378970800026,2502.3789821999962,"[0, 0, 0]",1,2500.3956280000275,2502.395645899989,,,,,,,,,,,,,,,,,,,6,M,1,18,R,MH,49,49,2022_Aug_15_1722,2020.2.10,distractmap1,59.981093968840895,"['Left Face', 'Right Leg', 'Left Face', 'Right Leg']",
5,"[0, 0]",0,0,3,3,3,,,None,None,"[0, 0, 0]",2502.4122996000224,2504.412324899982,2502.4122996000224,2503.412324099976,2503.395653799991,2504.3956884000218,"[0, 0, 0]",1,2502.4122996000224,2504.412324899982,,,,,,,,,,,,,,,,,,,6,M,1,18,R,MH,49,49,2022_Aug_15_1722,2020.2.10,distractmap1,59.981093968840895,"['Left Face', 'Right Leg', 'Left Face', 'Right Leg']",
1,"[-0.2, 0.2]",0,0,4,4,4,,,None,None,"[0, 0, 0]",2504.4289997000014,2506.429013199988,2504.4289997000014,2505.429006999999,2505.412340399984,2506.412346600031,"[0, 0, 0]",1,2504.4289997000014,2506.429013199988,,,,,,,,,,,,,,,,,,,6,M,1,18,R,MH,49,49,2022_Aug_15_1722,2020.2.10,distractmap1,59.981093968840895,"['Left Face', 'Right Leg', 'Left Face', 'Right Leg']",
6,"[0.2, 0]",0,0,5,5,5,,,None,None,"[0, 0, 0]",2506.445674700022,2508.445707799983,2506.445674700022,2507.4456853999873,2507.428939800011,2508.429024700017,"[0, 0, 0]",1,2506.445674700022,2508.445707799983,,,,,,,,,,,,,,,,,,,6,M,1,18,R,MH,49,49,2022_Aug_15_1722,2020.2.10,distractmap1,59.981093968840895,"['Left Face', 'Right Leg', 'Left Face', 'Right Leg']",
1,"[-0.2, 0.2]",1,0,6,6,6,,,None,None,"[0, 0, 0]",2508.462360000005,2510.4623863000306,2508.462360000005,2509.4623752000043,2509.445730699983,2510.445712100016,"[0, 0, 0]",1,2508.462360000005,2510.4623863000306,,,,,,,,,,,,,,,,,,,6,M,1,18,R,MH,49,49,2022_Aug_15_1722,2020.2.10,distractmap1,59.981093968840895,"['Left Face', 'Right Leg', 'Left Face', 'Right Leg']",
7,"[-0.2, -0.2]",0,0,7,7,7,,,None,None,"[0, 0, 0]",2510.479048900015,2512.4790598999825,2510.479048900015,2511.4790614999947,2511.462382800004,2512.462393100024,"[0, 0, 0]",1,2510.479048900015,2512.4790598999825,,,,,,,,,,,,,,,,,,,6,M,1,18,R,MH,49,49,2022_Aug_15_1722,2020.2.10,distractmap1,59.981093968840895,"['Left Face', 'Right Leg', 'Left Face', 'Right Leg']",
6,"[0.2, 0]",0,0,8,8,8,,,None,None,"[0, 0, 0]",2512.49574340001,2514.495687399991,2512.49574340001,2513.4957479999866,2513.479081700032,2514.479078300006,"[0, 0, 0]",1,2512.49574340001,2514.495687399991,,,,,,,,,,,,,,,,,,,6,M,1,18,R,MH,49,49,2022_Aug_15_1722,2020.2.10,distractmap1,59.981093968840895,"['Left Face', 'Right Leg', 'Left Face', 'Right Leg']",
7,"[-0.2, -0.2]",1,0,9,9,9,,,None,None,"[0, 0, 0]",2514.512408200011,2516.5124352999846,2514.512408200011,2515.512440600025,2515.4957675000187,2516.495777000033,"[0, 0, 0]",1,2514.512408200011,2516.5124352999846,,,,,,,,,,,,,,,,,,,6,M,1,18,R,MH,49,49,2022_Aug_15_1722,2020.2.10,distractmap1,59.981093968840895,"['Left Face', 'Right Leg', 'Left Face', 'Right Leg']",
,,,,,,,,,,,,,,,,,,,,,,2516.5290958000114,None,,,,,,,,,,,,,,,,,6,M,1,18,R,MH,49,49,2022_Aug_15_1722,2020.2.10,distractmap1,59.981093968840895,"['Left Face', 'Right Leg', 'Left Face', 'Right Leg']",
4,"[-0.2, 0]",None,0,0,0,0,2528.545876500022,None,None,None,"[0, 0, 0]",2531.5459044000017,2533.5459434000077,2531.5459044000017,2532.5459318999783,2532.5292437000317,2533.5292562000104,"[0, 0, 0]",1,2531.5459044000017,2533.5459434000077,,,,,,,,,,,,,,,,,,,6,M,1,18,R,MH,49,49,2022_Aug_15_1722,2020.2.10,distractmap1,59.981093968840895,"['Left Face', 'Right Leg', 'Left Face', 'Right Leg']",
5,"[0, 0]",None,0,1,1,1,,,None,None,"[0, 0, 0]",2533.562611100031,2535.5626666999888,2533.562611100031,2534.562588400033,2534.5459273000015,2535.5459438000107,"[0, 0, 0]",1,2533.562611100031,2535.5626666999888,,,,,,,,,,,,,,,,,,,6,M,1,18,R,MH,49,49,2022_Aug_15_1722,2020.2.10,distractmap1,59.981093968840895,"['Left Face', 'Right Leg', 'Left Face', 'Right Leg']",
6,"[0.2, 0]",0,0,2,2,2,,,None,None,"[0, 0, 0]",2535.5792680000304,2537.5792907000287,2535.5792680000304,2536.579273600015,2536.5625952000264,2537.562672799977,"[0, 0, 0]",1,2535.5792680000304,2537.5792907000287,,,,,,,,,,,,,,,,,,,6,M,1,18,R,MH,49,49,2022_Aug_15_1722,2020.2.10,distractmap1,59.981093968840895,"['Left Face', 'Right Leg', 'Left Face', 'Right Leg']",
1,"[-0.2, 0.2]",0,0,3,3,3,,,None,None,"[0, 0, 0]",2537.595954300021,2539.595970400027,2537.595954300021,2538.595955900033,2538.579300399986,2539.579298000026,"[0, 0, 0]",1,2537.595954300021,2539.595970400027,,,,,,,,,,,,,,,,,,,6,M,1,18,R,MH,49,49,2022_Aug_15_1722,2020.2.10,distractmap1,59.981093968840895,"['Left Face', 'Right Leg', 'Left Face', 'Right Leg']",
6,"[0.2, 0]",1,0,4,4,4,,,None,None,"[0, 0, 0]",2539.6126233999967,2541.6126479000086,2539.6126233999967,2540.6126603999874,2540.595980199985,2541.595998600009,"[0, 0, 0]",1,2539.6126233999967,2541.6126479000086,,,,,,,,,,,,,,,,,,,6,M,1,18,R,MH,49,49,2022_Aug_15_1722,2020.2.10,distractmap1,59.981093968840895,"['Left Face', 'Right Leg', 'Left Face', 'Right Leg']",
1,"[-0.2, 0.2]",1,0,5,5,5,,,None,None,"[0, 0, 0]",2541.629313000012,2543.6293436000124,2541.629313000012,2542.6293252999894,2542.612650600029,2543.612682099978,"[0, 0, 0]",1,2541.629313000012,2543.6293436000124,,,,,,,,,,,,,,,,,,,6,M,1,18,R,MH,49,49,2022_Aug_15_1722,2020.2.10,distractmap1,59.981093968840895,"['Left Face', 'Right Leg', 'Left Face', 'Right Leg']",
2,"[0, 0.2]",0,0,6,6,6,,,None,None,"[0, 0, 0]",2543.6460042999825,2545.6460269999807,2543.6460042999825,2544.646007800009,2544.629357500002,2545.629361600033,"[0, 0, 0]",1,2543.6460042999825,2545.6460269999807,,,,,,,,,,,,,,,,,,,6,M,1,18,R,MH,49,49,2022_Aug_15_1722,2020.2.10,distractmap1,59.981093968840895,"['Left Face', 'Right Leg', 'Left Face', 'Right Leg']",
3,"[0.2, 0.2]",0,0,7,7,7,,,None,None,"[0, 0, 0]",2545.662696400017,2547.662714599981,2545.662696400017,2546.6627338000108,2546.646032800025,2547.646047700022,"[0, 0, 0]",1,2545.662696400017,2547.662714599981,,,,,,,,,,,,,,,,,,,6,M,1,18,R,MH,49,49,2022_Aug_15_1722,2020.2.10,distractmap1,59.981093968840895,"['Left Face', 'Right Leg', 'Left Face', 'Right Leg']",
6,"[0.2, 0]",0,0,8,8,8,,,None,None,"[0, 0, 0]",2547.679376600019,2549.6793721999857,2547.679376600019,2548.679391100013,2548.6627229999867,2549.662743700028,"[0, 0, 0]",1,2547.679376600019,2549.6793721999857,,,,,,,,,,,,,,,,,,,6,M,1,18,R,MH,49,49,2022_Aug_15_1722,2020.2.10,distractmap1,59.981093968840895,"['Left Face', 'Right Leg', 'Left Face', 'Right Leg']",
3,"[0.2, 0.2]",1,0,9,9,9,,,None,None,"[0, 0, 0]",2549.6960683999932,2551.6960892999778,2549.6960683999932,2550.6960757999914,2550.6794162000297,2551.679419799999,"[0, 0, 0]",1,2549.6960683999932,2551.6960892999778,,,,,,,,,,,,,,,,,,,6,M,1,18,R,MH,49,49,2022_Aug_15_1722,2020.2.10,distractmap1,59.981093968840895,"['Left Face', 'Right Leg', 'Left Face', 'Right Leg']",
,,,,,,,,,,,,,,,,,,,,,,2551.7126783999847,None,,,,,,,,,,,,,,,,,6,M,1,18,R,MH,49,49,2022_Aug_15_1722,2020.2.10,distractmap1,59.981093968840895,"['Left Face', 'Right Leg', 'Left Face', 'Right Leg']",
2,"[0, 0.2]",None,0,0,0,0,2563.729511999991,None,None,None,"[0, 0, 0]",2566.729451399995,2568.729548000032,2566.729451399995,2567.7295470000245,2567.7128912000335,2568.712900499988,"[0, 0, 0]",1,2566.729451399995,2568.729548000032,,,,,,,,,,,,,,,,,,,6,M,1,18,R,MH,49,49,2022_Aug_15_1722,2020.2.10,distractmap1,59.981093968840895,"['Left Face', 'Right Leg', 'Left Face', 'Right Leg']",
5,"[0, 0]",None,0,1,1,1,,,None,None,"[0, 0, 0]",2568.746239100001,2570.7462406000122,2568.746239100001,2569.746241200017,2569.7295777000254,2570.729584000015,"[0, 0, 0]",1,2568.746239100001,2570.7462406000122,,,,,,,,,,,,,,,,,,,6,M,1,18,R,MH,49,49,2022_Aug_15_1722,2020.2.10,distractmap1,59.981093968840895,"['Left Face', 'Right Leg', 'Left Face', 'Right Leg']",
6,"[0.2, 0]",0,0,2,2,2,,,None,None,"[0, 0, 0]",2570.7629199000075,2572.7629464999773,2570.7629199000075,2571.7629234999768,2571.7462932000053,2572.7463413000223,"[0, 0, 0]",1,2570.7629199000075,2572.7629464999773,,,,,,,,,,,,,,,,,,,6,M,1,18,R,MH,49,49,2022_Aug_15_1722,2020.2.10,distractmap1,59.981093968840895,"['Left Face', 'Right Leg', 'Left Face', 'Right Leg']",
1,"[-0.2, 0.2]",0,0,3,3,3,,,None,None,"[0, 0, 0]",2572.7796031000325,2574.7796191999805,2572.7796031000325,2573.779608700017,2573.7629476999864,2574.762962299981,"[0, 0, 0]",1,2572.7796031000325,2574.7796191999805,,,,,,,,,,,,,,,,,,,6,M,1,18,R,MH,49,49,2022_Aug_15_1722,2020.2.10,distractmap1,59.981093968840895,"['Left Face', 'Right Leg', 'Left Face', 'Right Leg']",
6,"[0.2, 0]",1,0,4,4,4,,,None,None,"[0, 0, 0]",2574.7962932999944,2576.7963178000064,2574.7962932999944,2575.796291299979,2575.7796255000285,2576.779661800014,"[0, 0, 0]",1,2574.7962932999944,2576.7963178000064,,,,,,,,,,,,,,,,,,,6,M,1,18,R,MH,49,49,2022_Aug_15_1722,2020.2.10,distractmap1,59.981093968840895,"['Left Face', 'Right Leg', 'Left Face', 'Right Leg']",
6,"[0.2, 0]",0,0,5,5,5,,,None,None,"[0, 0, 0]",2576.8129757000133,2578.812987399986,2576.8129757000133,2577.812970400031,2577.796307499986,2578.796330799989,"[0, 0, 0]",1,2576.8129757000133,2578.812987399986,,,,,,,,,,,,,,,,,,,6,M,1,18,R,MH,49,49,2022_Aug_15_1722,2020.2.10,distractmap1,59.981093968840895,"['Left Face', 'Right Leg', 'Left Face', 'Right Leg']",
9,"[0.2, -0.2]",0,0,6,6,6,,,None,None,"[0, 0, 0]",2578.8296572000254,2580.829675899993,2578.8296572000254,2579.8296673999866,2579.8129664000007,2580.813030500023,"[0, 0, 0]",1,2578.8296572000254,2580.829675899993,,,,,,,,,,,,,,,,,,,6,M,1,18,R,MH,49,49,2022_Aug_15_1722,2020.2.10,distractmap1,59.981093968840895,"['Left Face', 'Right Leg', 'Left Face', 'Right Leg']",
6,"[0.2, 0]",1,0,7,7,7,,,None,None,"[0, 0, 0]",2580.846328900021,2582.8463610000326,2580.846328900021,2581.846312800015,2581.829689299979,2582.829690399987,"[0, 0, 0]",1,2580.846328900021,2582.8463610000326,,,,,,,,,,,,,,,,,,,6,M,1,18,R,MH,49,49,2022_Aug_15_1722,2020.2.10,distractmap1,59.981093968840895,"['Left Face', 'Right Leg', 'Left Face', 'Right Leg']",
3,"[0.2, 0.2]",0,0,8,8,8,,,None,None,"[0, 0, 0]",2582.8630554000265,2584.8630147000076,2582.8630554000265,2583.8630047999904,2583.8463677000254,2584.846374900022,"[0, 0, 0]",1,2582.8630554000265,2584.8630147000076,,,,,,,,,,,,,,,,,,,6,M,1,18,R,MH,49,49,2022_Aug_15_1722,2020.2.10,distractmap1,59.981093968840895,"['Left Face', 'Right Leg', 'Left Face', 'Right Leg']",
9,"[0.2, -0.2]",0,0,9,9,9,,,None,None,"[0, 0, 0]",2584.8797153999913,2586.879731699999,2584.8797153999913,2585.879726300016,2585.8630462000147,2586.8630447000032,"[0, 0, 0]",1,2584.8797153999913,2586.879731699999,,,,,,,,,,,,,,,,,,,6,M,1,18,R,MH,49,49,2022_Aug_15_1722,2020.2.10,distractmap1,59.981093968840895,"['Left Face', 'Right Leg', 'Left Face', 'Right Leg']",
,,,,,,,,,,,,,,,,,,,,,,2586.8963784999796,None,,,,,,,,,,,,,,,,,6,M,1,18,R,MH,49,49,2022_Aug_15_1722,2020.2.10,distractmap1,59.981093968840895,"['Left Face', 'Right Leg', 'Left Face', 'Right Leg']",
