	order	onset	duration	rt	correct
0	2	190.62686059996486	1.9242126801982522		1
1	2	192.5435249999864	1.9922034699702635		1
2	2	194.54354360001162	1.994355870061554		1
3	2	196.54355619999114	1.9941758699715137		1
4	2	198.54355050006416	1.994127570069395		1
5	2	200.5435967000667	1.9939349699998274		0
6	2	202.5435972000705	1.9942523699719459		1
7	2	204.5436192000052	1.994124769931659		1
8	2	206.54364619997796	1.9942615700419992		1
9	2	208.54365110001527	1.994378470000811		1
10	2	210.54366520000622	1.9936178700299934		0
11	2	212.54369019996375	1.9943480701185763		1
12	2	214.54370569996536	1.994316569995135		1
13	2	216.54371760005597	1.9943410700652748		0
14	2	218.5437416000059	1.9943213701481		1
15	2	220.54374820005614	1.99411237007007		1
16	2	222.54376090003643	1.9943584700813517		1
17	2	224.54378419998102	1.9944058699766174		1
18	2	226.54378649999853	1.9943425700766966		1
19	2	228.54382200003602	1.9944453700445592		1
20	2	230.54382340004668	1.993855069973506		0
21	2	232.54386069998145	1.9943381700431928		1
22	2	234.5438849000493	1.9943944700062275		1
23	2	236.54388240003027	1.9943633700022474	0.5002728999825194	1
24	2	238.54380280000623	1.994309370056726		1
25	2	240.54391859995667	1.9940950700547546		1
26	2	242.543921399978	1.9943423700751737		1
27	2	244.54395520000253	1.9943625699961558		1
28	2	246.54395540000405	1.993932869983837		1
29	2	248.54397969995625	1.9944053699728101		0
30	2	250.5440013000043	1.9942701701074839		1
31	2	252.5440068000462	1.9942813700763509		1
32	2	254.54401730000973	1.9942933700513095		0
33	2	256.5440534000518	1.9943335701245815		1
34	2	258.54405550006777	1.9943435702007264		1
35	2	260.5440331000136	1.99343867006246	0.5336210000095889	0
36	2	262.54408510006033	1.993816570029594		1
37	2	264.54411500005517	1.9943725700723007		1
38	2	266.54411500005517	1.9943492700112984		0
39	2	268.54412880004384	1.9943210700294003		1
40	2	270.5441617000615	1.9942783700535074		1
41	2	272.54416190006305	1.9943942700047046		0
42	2	274.5441958999727	1.9940370700787753		1
43	2	276.544196599978	1.9943996700458229		1
44	2	278.54421069996897	1.994203869951889		1
45	2	280.54424830002245	1.9942119700135663		1
46	2	282.54424860002473	1.9943165701115504		1
47	2	284.5442726999754	1.994118670001626		1
48	2	286.54429490002804	1.9941345701226965		0
49	2	288.5443297000602	1.993672970100306		1
50	2	290.54429720004555	1.9942452700342983		1
51	2	292.54432640003506	1.9943856700556353		0
52	2	294.54435310000554	1.994349170010537		1
53	2	296.5443687000079	1.994253269978799		1
54	2	298.54439429997	1.9942995700985193		1
55	2	300.5444208000554	1.993914470076561		1
56	2	302.544421800063	1.9941558700520545		0
57	2	304.5444332000334	1.9940910699078813		1
58	2	306.54444700002205	1.9941960701253265		1
59	2	308.54447159997653	1.9942133699078113		1
60	2	310.54449360002764	1.9939051700057462		1
61	2	312.54449560004286	1.9942354700760916		1
62	2	314.5445276000537	1.994317670003511		1
63	2	316.5445471999701	1.994257270009257		1
64	2	318.54457040003035	1.9942632700549439		1
65	2	320.5445710000349	1.9936563699739054		0
66	2	322.54457460006233	1.9943631700007245		1
67	2	324.54459129995666	1.99442366999574		1
68	2	326.54462060006335	1.994407769991085	0.7669121000217274	0
69	2	328.5446411999874	1.9943343698978424		1
70	2	330.54465529997833	1.9941911699716002		0
71	2	332.54466120002326	1.9940915700281039		1
72	2	334.5446934000356	1.994164269999601		1
73	2	336.5446895000059	1.994194170110859		0
74	2	338.54469949996565	1.9942144700326025		1
75	2	340.5447226000251	1.9941160699818283		1
76	2	342.5447524000192	1.9936107700923458		1
77	2	344.5447476999834	1.9942893699044362		1
78	2	346.54478520003613	1.9943152699852362		1
79	2	348.54478410002775	1.9943627699976787		1
80	2	350.5448024000507	1.9942203699611127	0.2835662999423221	1
81	2	352.54483350005466	1.9943048701388761		1
82	2	354.54484149999917	1.9943573699565604		1
83	2	356.5448500000639	1.9944548700004816	0.31691199995111674	1
84	2	358.5448740000138	1.9944225701037794		1
85	2	360.5448825999629	1.993757770047523		1
86	2	362.5449519000249	1.9943941700039431		1
87	2	364.54481750004925	1.9943350701360032		1
88	2	366.5449300999753	1.9942631700541824		1
89	2	368.54494190006517	1.994170070043765	0.266908899997361	1
90	2	370.54498230002355	1.9941360700177029		1
91	2	372.5449806000106	1.9944456700468436		1
92	2	374.54499159997795	1.9944869700120762	0.26692159997764975	1
93	2	376.5450326000573	1.9943869699491188		1
94	2	378.5450232999865	1.9944711700081825		1
95	2	380.5450572000118	1.993708370020613		1
96	2	382.5450537999859	1.9934790700208396		1
97	2	384.54508630000055	1.9944269701372832		1
98	2	386.5450906000333	1.9943971700267866		0
99	2	388.5450224999804	1.9942527699749917		1
100	2	390.54513109999243	1.9942032700637355		1
101	2	392.54513650003355	1.9942822699667886	0.26691060001030564	1
102	2	394.54515560006257	1.9940033701714128		1
103	2	396.5451834000414	1.9943269699579105		1
104	2	398.5451868000673	1.994430169928819		1
105	2	400.5452153000515	1.994141969946213		1
106	2	402.5452266000211	1.9944972699740902		1
107	2	404.5452374999877	1.9943304699845612		1
108	2	406.5452559000114	1.9943622701102868		0
109	2	408.5452758000465	1.9945088701788336		1
110	2	410.5453076000558	1.9940396699821576		1
111	2	412.5453063000459	1.9945888700895011		0
112	2	414.54532559996005	1.9942482700571418		1
113	2	416.54533940006513	1.9941948699997738		1
114	2	418.54535719996784	1.9941178701119497		1
115	2	420.54537579999305	1.9939034699928015		1
116	2	422.5453979000449	1.9942388701019809		0
117	2	424.5454056999879	1.994254770106636		1
118	2	426.5454305000603	1.9945179701317102		1
119	2	428.5454332999652	1.9943995700450614		1
