	SID	day	sex	session	handedness	scanner	onset	duration	value	body_site	skin_site	temperature	condition	keys	rt	phase	biopac_channel
0	2533	3	f	3	r	MS MH			-5.925925925925924	Chest	2	47.0	Threat		4.700330000021495	Placebo	
1	2533	3	f	3	r	MS MH			27.22222222222222	Chest	2	47.0	Stress		3.1170364000136033	Placebo	
2	2533	3	f	3	r	MS MH			31.604938271604937	Chest	2	47.0	PainAnxiety		1.7169798000250012	Placebo	
3	2533	3	f	3	r	MS MH			30.308641975308642	Chest	2	47.0	OtherAnxiety		2.8007399999769405	Placebo	
4	2533	3	f	3	r	MS MH			59.5679012345679	Chest	2	47.0	PainConfidence		3.0170360000338405	Placebo	
5	2533	3	f	3	r	MS MH	2.7743855000007898	5.012721533305012		Chest	2	47.0	Instructions			Placebo	19
6	2533	3	f	3	r	MS MH	8.153693199972622	5.005811659852043	35.55555555555556	Chest	2	47.0	Expectancy			Placebo	51
7	2533	3	f	3	r	MS MH	13.552946000010706	2.0073047797195613		Chest	2	47.0	Cue			Placebo	6
8	2533	3	f	3	r	MS MH	15.569496499956585	4.007593019981869		Chest	2	47.0	Pre-Jitter			Placebo	7
9	2533	3	f	3	r	MS MH	19.650158899952658	14.99648679990787		Chest	2	47.0	Placebo Heat 			Placebo	17
10	2533	3	f	3	r	MS MH	34.65032119990792	4.996339019970037		Chest	2	47.0	Mid-Jitter			Placebo	8
11	2533	3	f	3	r	MS MH	39.66896999999881	5.009133239858784	-1.0	Chest	2	47.0	PainBinary		1.8836108000250533	Placebo	20
12	2533	3	f	3	r	MS MH	49.69264469994232	5.0115108378231525		Chest	2	47.0	Post-Q-Jitter			Placebo	9
13	2533	3	f	3	r	MS MH	55.00894590001553	5.012830299907364	30.617283950617285	Chest	2	47.0	Expectancy		3.8169512000167742	Placebo	51
14	2533	3	f	3	r	MS MH	60.3853854999179	2.0100205598864704		Chest	2	47.0	Cue			Placebo	6
15	2533	3	f	3	r	MS MH	62.40389449999202	6.006413419963792		Chest	2	47.0	Pre-Jitter			Placebo	7
16	2533	3	f	3	r	MS MH	68.45270019990858	15.008990759961307		Chest	2	47.0	Placebo Heat 			Placebo	17
17	2533	3	f	3	r	MS MH	83.46822179993615	4.994811819982715		Chest	2	47.0	Mid-Jitter			Placebo	8
18	2533	3	f	3	r	MS MH	88.48618899995927	5.009011639980599	-1.0	Chest	2	47.0	PainBinary		1.450296999886632	Placebo	20
19	2533	3	f	3	r	MS MH	98.5094452999765	5.012236237758771		Chest	2	47.0	Post-Q-Jitter			Placebo	9
20	2533	3	f	3	r	MS MH	104.60696469992399	5.001015619491227	26.111111111111114	Chest	2	47.0	Expectancy		4.383648699964397	Placebo	51
21	2533	3	f	3	r	MS MH	109.9832083999645	2.0153272598981857		Chest	2	47.0	Cue			Placebo	6
22	2533	3	f	3	r	MS MH	112.00380279996898	6.007592020090669		Chest	2	47.0	Pre-Jitter			Placebo	7
23	2533	3	f	3	r	MS MH	118.07156139996368	15.005660779890604		Chest	2	47.0	Placebo Heat 			Placebo	17
24	2533	3	f	3	r	MS MH	133.08671249996405	7.008928220020607		Chest	2	47.0	Mid-Jitter			Placebo	8
25	2533	3	f	3	r	MS MH	140.1201056999853	5.008879839908332	-1.0	Chest	2	47.0	PainBinary		1.5003082000184804	Placebo	20
26	2533	3	f	3	r	MS MH	150.14332859998103	7.012168137705885		Chest	2	47.0	Post-Q-Jitter			Placebo	9
27	2533	3	f	3	r	MS MH	158.20580859994516	5.004448179621249	26.296296296296294	Chest	2	47.0	Expectancy		2.8336226999526843	Placebo	51
28	2533	3	f	3	r	MS MH	163.59946910000872	2.000607679830864		Chest	2	47.0	Cue			Placebo	6
29	2533	3	f	3	r	MS MH	165.60488180001266	6.006556220003404		Chest	2	47.0	Pre-Jitter			Placebo	7
30	2533	3	f	3	r	MS MH	171.68197499995586	15.002505099982955		Chest	2	47.0	Placebo Heat 			Placebo	17
31	2533	3	f	3	r	MS MH	186.6856790999882	8.99523711996153		Chest	2	47.0	Mid-Jitter			Placebo	8
32	2533	3	f	3	r	MS MH	195.70375969994348	5.0092346399324015	-1.0	Chest	2	47.0	PainBinary		1.2356157000176609	Placebo	20
33	2533	3	f	3	r	MS MH	205.72657039994374	9.013486437732354		Chest	2	47.0	Post-Q-Jitter			Placebo	9
34	2533	3	f	3	r	MS MH	215.03737389994785	5.009161579888314	26.172839506172842	Chest	2	47.0	Expectancy		3.70036350004375	Placebo	51
35	2533	3	f	3	r	MS MH	220.42452649993356	2.0015853598015383		Chest	2	47.0	Cue			Placebo	6
36	2533	3	f	3	r	MS MH	222.43856039992534	4.006958519923501		Chest	2	47.0	Pre-Jitter			Placebo	7
37	2533	3	f	3	r	MS MH	226.49472620000597	15.011477780062705		Chest	2	47.0	Placebo Heat 			Placebo	17
38	2533	3	f	3	r	MS MH	241.50288429996	4.995339520042762		Chest	2	47.0	Mid-Jitter			Placebo	8
39	2533	3	f	3	r	MS MH	246.5211599000031	5.008877739775926	-1.0	Chest	2	47.0	PainBinary		1.3504354000324383	Placebo	20
40	2533	3	f	3	r	MS MH	256.54379499994684	5.013336837757379		Chest	2	47.0	Post-Q-Jitter			Placebo	9
41	2533	3	f	3	r	MS MH	261.83886349992827	5.0072515598731115	29.38271604938272	Chest	2	47.0	Expectancy			Placebo	51
42	2533	3	f	3	r	MS MH	267.2208336999174	2.009923859848641		Chest	2	47.0	Cue			Placebo	6
43	2533	3	f	3	r	MS MH	269.23908520000987	4.00699851999525		Chest	2	47.0	Pre-Jitter			Placebo	7
44	2533	3	f	3	r	MS MH	273.306257899967	15.006141880061477		Chest	2	47.0	Placebo Heat 			Placebo	17
45	2533	3	f	3	r	MS MH	288.32014669990167	6.995064919930883		Chest	2	47.0	Mid-Jitter			Placebo	8
46	2533	3	f	3	r	MS MH	295.33887599990703	5.007767239934765	-1.0	Chest	2	47.0	PainBinary		2.9862222999799997	Placebo	20
47	2533	3	f	3	r	MS MH	305.3622250999324	7.010782137862407		Chest	2	47.0	Post-Q-Jitter			Placebo	9
48	2533	3	f	3	r	MS MH	312.39477169991005	4.546473960042931	-0.24691358024692533	Chest	2	47.0	ComfortRating		4.517054199939594	Placebo	26
49	2533	3	f	3	r	MS MH	316.9582320000045	3.1862901399144903	36.41975308641975	Chest	2	47.0	ValenceRating		3.1670014000264928	Placebo	24
50	2533	3	f	3	r	MS MH	320.16823089995887	1.7829587400192395	35.61728395061728	Chest	2	47.0	IntensityRating		1.7669667999725789	Placebo	26
51	2533	3	f	3	r	MS MH	321.9701714999974	2.0124759399332106	22.46913580246914	Chest	2	47.0	AvoidanceRating		1.9836649000644684	Placebo	27
52	2533	3	f	3	r	MS MH	323.99936079990584	2.0874101399676874	60.67901234567902	Chest	2	47.0	RelaxationRating		2.066956900060177	Placebo	28
53	2533	3	f	3	r	MS MH	326.10360679996666	1.9289302398683503	39.93827160493827	Chest	2	47.0	AttentionRating		1.9003026999998838	Placebo	29
54	2533	3	f	3	r	MS MH	328.0504376000026	1.8020404399139807	65.37037037037038	Chest	2	47.0	BoredomRating		1.7836725000524893	Placebo	30
55	2533	3	f	3	r	MS MH	329.8693588000024	2.4476331397891045	-44.44444444444444	Chest	2	47.0	AlertnessRating		2.433655600063503	Placebo	31
56	2533	3	f	3	r	MS MH	332.3361457999563	5.080779240000993	3.333333333333343	Chest	2	47.0	PosThxRating		5.067059600027278	Placebo	32
57	2533	3	f	3	r	MS MH	337.43557129998226	2.33199653995689	-3.9506172839506206	Chest	2	47.0	NegThxRating		2.317143699969165	Placebo	33
58	2533	3	f	3	r	MS MH	339.78428829996847	1.6346020399359986	7.283950617283949	Chest	2	47.0	SelfRating		1.6169786000391468	Placebo	34
59	2533	3	f	3	r	MS MH	341.4348676999798	1.7333585399901494	12.098765432098773	Chest	2	47.0	OtherRating		1.7168980001006275	Placebo	35
60	2533	3	f	3	r	MS MH	343.1862370999297	8.76422783988528	-15.679012345679013	Chest	2	47.0	ImageryRating		8.751137200044468	Placebo	32
61	2533	3	f	3	r	MS MH	351.97103539993986	2.611510040005669	-8.024691358024697	Chest	2	47.0	PresentRating		2.583693299908191	Placebo	37
