RestT1,TaskT1,square,location,corrAns,counterbalancer.thisRepN,counterbalancer.thisTrialN,counterbalancer.thisN,counterbalancer.thisIndex,RestT1Loop.thisRepN,RestT1Loop.thisTrialN,RestT1Loop.thisN,RestT1Loop.thisIndex,TaskT1Loop.thisRepN,TaskT1Loop.thisTrialN,TaskT1Loop.thisN,TaskT1Loop.thisIndex,trials_2.thisRepN,trials_2.thisTrialN,trials_2.thisN,trials_2.thisIndex,NbackInstructions.started,NbackInstructions.stopped,NbackStart.keys,NbackStart.rt,NbackStart.started,NbackStart.stopped,fixation_2.started,fixation_2.stopped,response_2.x,response_2.y,response_2.leftButton,grid_lines_2.started,grid_lines_2.stopped,target_square_2.started,target_square_2.stopped,fixation_3.started,fixation_3.stopped,response_2.click,response_2.corr,response_2.started,response_2.stopped,fixation_1.started,fixation_1.stopped,subject number,gender,session,handedness,scanner,date,expName,psychopyVersion,frameRate,
0,1,,,,0,0,0,0,,,,,0,0,0,0,,,,,28.15728469984606,None,space,53.44303480000235,28.15728469984606,None,,,,,,,,,,,,,,,,,,01002,m,2,r,MCK,2021_Oct_26_2110,WASABI Nback,2020.2.10,59.98051829103842,
0,1,5,"[0, 0]",None,0,0,0,0,,,,,0,0,0,0,0,0,0,0,,,,,,,None,None,None,None,[],None,None,None,None,None,None,[],[],None,None,,,01002,m,2,r,MCK,2021_Oct_26_2110,WASABI Nback,2020.2.10,59.98051829103842,
0,1,2,"[0, 0.2]",None,0,0,0,0,,,,,0,0,0,0,0,1,1,1,,,,,,,,,None,None,[],None,None,None,None,None,None,[],[],None,None,,,01002,m,2,r,MCK,2021_Oct_26_2110,WASABI Nback,2020.2.10,59.98051829103842,
0,1,6,"[0.2, 0]",None,0,0,0,0,,,,,0,0,0,0,0,2,2,2,,,,,,,,,None,None,[],None,None,None,None,None,None,[],[],None,None,,,01002,m,2,r,MCK,2021_Oct_26_2110,WASABI Nback,2020.2.10,59.98051829103842,
0,1,9,"[0.2, -0.2]",None,0,0,0,0,,,,,0,0,0,0,0,3,3,3,,,,,,,,,None,None,[],None,None,None,None,None,None,[],[],None,None,,,01002,m,2,r,MCK,2021_Oct_26_2110,WASABI Nback,2020.2.10,59.98051829103842,
0,1,3,"[0.2, 0.2]",None,0,0,0,0,,,,,0,0,0,0,0,4,4,4,,,,,,,,,None,None,[],None,None,None,None,None,None,[],[],None,None,,,01002,m,2,r,MCK,2021_Oct_26_2110,WASABI Nback,2020.2.10,59.98051829103842,
0,1,9,"[0.2, -0.2]",1,0,0,0,0,,,,,0,0,0,0,0,5,5,5,,,,,,,,,None,None,[],None,None,None,None,None,None,[],[],None,None,,,01002,m,2,r,MCK,2021_Oct_26_2110,WASABI Nback,2020.2.10,59.98051829103842,
0,1,7,"[-0.2, -0.2]",None,0,0,0,0,,,,,0,0,0,0,0,6,6,6,,,,,,,,,None,None,0,96.57131649996154,None,96.57131649996154,None,None,None,0,1,96.57131649996154,None,,,01002,m,2,r,MCK,2021_Oct_26_2110,WASABI Nback,2020.2.10,59.98051829103842,
0,1,1,"[-0.2, 0.2]",None,0,0,0,0,,,,,0,0,0,0,0,7,7,7,,,,,,,,,None,None,0,96.63800489995629,None,96.63800489995629,97.63799959979951,97.62129939999431,98.62131379987113,0,1,96.63800489995629,None,,,01002,m,2,r,MCK,2021_Oct_26_2110,WASABI Nback,2020.2.10,59.98051829103842,
0,1,5,"[0, 0]",None,0,0,0,0,,,,,0,0,0,0,0,8,8,8,,,,,,,,,None,None,0,98.63800259982236,None,98.63800259982236,99.63803319982253,99.62132149981335,100.62136140000075,0,1,98.63800259982236,None,,,01002,m,2,r,MCK,2021_Oct_26_2110,WASABI Nback,2020.2.10,59.98051829103842,
0,1,7,"[-0.2, -0.2]",None,0,0,0,0,,,,,0,0,0,0,0,9,9,9,,,,,,,,,None,None,0,100.63802549988031,None,100.63802549988031,101.63803439983167,101.62134069995955,102.62134889978915,0,1,100.63802549988031,None,,,01002,m,2,r,MCK,2021_Oct_26_2110,WASABI Nback,2020.2.10,59.98051829103842,
0,1,5,"[0, 0]",1,0,0,0,0,,,,,0,0,0,0,0,10,10,10,,,,,,,,,None,None,0,102.63804479991086,None,102.63804479991086,103.63794059981592,103.62141979997978,104.62139759981073,0,0,102.63804479991086,None,,,01002,m,2,r,MCK,2021_Oct_26_2110,WASABI Nback,2020.2.10,59.98051829103842,
0,1,6,"[0.2, 0]",None,0,0,0,0,,,,,0,0,0,0,0,11,11,11,,,,,,,,,None,None,0,104.6380518998485,None,104.6380518998485,105.63807439990342,105.62139629991725,106.62138879997656,0,1,104.6380518998485,None,,,01002,m,2,r,MCK,2021_Oct_26_2110,WASABI Nback,2020.2.10,59.98051829103842,
0,1,3,"[0.2, 0.2]",None,0,0,0,0,,,,,0,0,0,0,0,12,12,12,,,,,,,,,None,None,0,106.63806689996272,None,106.63806689996272,107.63807759992778,107.62139549991116,108.62142659979872,0,1,106.63806689996272,None,,,01002,m,2,r,MCK,2021_Oct_26_2110,WASABI Nback,2020.2.10,59.98051829103842,
0,1,6,"[0.2, 0]",1,0,0,0,0,,,,,0,0,0,0,0,13,13,13,,,,,,,,,None,None,0,108.63807719992474,None,108.63807719992474,109.6381030997727,109.62141869985498,110.62134649977088,0,1,108.63807719992474,None,,,01002,m,2,r,MCK,2021_Oct_26_2110,WASABI Nback,2020.2.10,59.98051829103842,
0,1,8,"[0, -0.2]",None,0,0,0,0,,,,,0,0,0,0,0,14,14,14,,,,,,,,,None,None,0,110.6380989998579,None,110.6380989998579,111.63812289992347,111.62137489998713,112.62142679980025,0,1,110.6380989998579,None,,,01002,m,2,r,MCK,2021_Oct_26_2110,WASABI Nback,2020.2.10,59.98051829103842,
0,1,9,"[0.2, -0.2]",None,0,0,0,0,,,,,0,0,0,0,0,15,15,15,,,,,,,,,None,None,0,112.63813889981247,None,112.63813889981247,113.63716519996524,113.62054269993678,114.6205381997861,0,1,112.63813889981247,None,,,01002,m,2,r,MCK,2021_Oct_26_2110,WASABI Nback,2020.2.10,59.98051829103842,
0,1,9,"[0.2, -0.2]",None,0,0,0,0,,,,,0,0,0,0,0,16,16,16,,,,,,,,,None,None,0,114.63720929995179,None,114.63720929995179,115.6372826998122,115.62059959978797,116.62125479988754,0,0,114.63720929995179,None,,,01002,m,2,r,MCK,2021_Oct_26_2110,WASABI Nback,2020.2.10,59.98051829103842,
0,1,1,"[-0.2, 0.2]",None,0,0,0,0,,,,,0,0,0,0,0,17,17,17,,,,,,,,,None,None,0,116.63790299999528,None,116.63790299999528,117.63793499977328,117.6212706998922,118.62147719995119,0,1,116.63790299999528,None,,,01002,m,2,r,MCK,2021_Oct_26_2110,WASABI Nback,2020.2.10,59.98051829103842,
0,1,3,"[0.2, 0.2]",None,0,0,0,0,,,,,0,0,0,0,0,18,18,18,,,,,,,,,None,None,0,118.6381512999069,None,118.6381512999069,119.63815689994954,119.6215042998083,120.62149329995736,0,1,118.6381512999069,None,,,01002,m,2,r,MCK,2021_Oct_26_2110,WASABI Nback,2020.2.10,59.98051829103842,
0,1,5,"[0, 0]",None,0,0,0,0,,,,,0,0,0,0,0,19,19,19,,,,,,,,,None,None,0,120.63816489977762,None,120.63816489977762,121.63817559997551,121.62150039989501,122.62150599993765,0,1,120.63816489977762,None,,,01002,m,2,r,MCK,2021_Oct_26_2110,WASABI Nback,2020.2.10,59.98051829103842,
0,1,3,"[0.2, 0.2]",1,0,0,0,0,,,,,0,0,0,0,0,20,20,20,,,,,,,,,None,None,0,122.63817299995571,None,122.63817299995571,123.63818739983253,123.62152359983884,124.6215208999347,0,1,122.63817299995571,None,,,01002,m,2,r,MCK,2021_Oct_26_2110,WASABI Nback,2020.2.10,59.98051829103842,
0,1,4,"[-0.2, 0]",None,0,0,0,0,,,,,0,0,0,0,0,21,21,21,,,,,,,,,None,None,0,124.63819589978084,None,124.63819589978084,125.6381957998965,125.62155209993944,126.62154189986177,0,1,124.63819589978084,None,,,01002,m,2,r,MCK,2021_Oct_26_2110,WASABI Nback,2020.2.10,59.98051829103842,
0,1,7,"[-0.2, -0.2]",None,0,0,0,0,,,,,0,0,0,0,0,22,22,22,,,,,,,,,None,None,0,126.63821229990572,None,126.63821229990572,127.63822259986773,127.6215441999957,128.62156229978427,0,1,126.63821229990572,None,,,01002,m,2,r,MCK,2021_Oct_26_2110,WASABI Nback,2020.2.10,59.98051829103842,
0,1,4,"[-0.2, 0]",1,0,0,0,0,,,,,0,0,0,0,0,23,23,23,,,,,,,,,None,None,0,128.63822299987078,None,128.63822299987078,129.63823759998195,129.62156619993038,130.62157399998978,0,1,128.63822299987078,None,,,01002,m,2,r,MCK,2021_Oct_26_2110,WASABI Nback,2020.2.10,59.98051829103842,
0,1,4,"[-0.2, 0]",None,0,0,0,0,,,,,0,0,0,0,0,24,24,24,,,,,,,,,None,None,0,130.63830299978144,None,130.63830299978144,131.63824020000175,131.6215813998133,132.62158509995788,0,1,130.63830299978144,None,,,01002,m,2,r,MCK,2021_Oct_26_2110,WASABI Nback,2020.2.10,59.98051829103842,
0,1,5,"[0, 0]",None,0,0,0,0,,,,,0,0,0,0,0,25,25,25,,,,,,,,,None,None,0,132.63826989987865,None,132.63826989987865,133.6382624998223,133.62161109992303,134.6216046998743,0,1,132.63826989987865,None,,,01002,m,2,r,MCK,2021_Oct_26_2110,WASABI Nback,2020.2.10,59.98051829103842,
0,1,2,"[0, 0.2]",None,0,0,0,0,,,,,0,0,0,0,0,26,26,26,,,,,,,,,None,None,0,134.63826339994557,None,134.63826339994557,135.63828669977374,135.6216041999869,136.62162519991398,0,1,134.63826339994557,None,,,01002,m,2,r,MCK,2021_Oct_26_2110,WASABI Nback,2020.2.10,59.98051829103842,
0,1,6,"[0.2, 0]",None,0,0,0,0,,,,,0,0,0,0,0,27,27,27,,,,,,,,,None,None,0,136.63829999999143,None,136.63829999999143,137.6383051997982,137.62163819978014,138.62165639991872,0,1,136.63829999999143,None,,,01002,m,2,r,MCK,2021_Oct_26_2110,WASABI Nback,2020.2.10,59.98051829103842,
0,1,7,"[-0.2, -0.2]",None,0,0,0,0,,,,,0,0,0,0,0,28,28,28,,,,,,,,,None,None,0,138.63838499994017,None,138.63838499994017,139.63832709984854,139.62164449994452,140.6216571999248,0,1,138.63838499994017,None,,,01002,m,2,r,MCK,2021_Oct_26_2110,WASABI Nback,2020.2.10,59.98051829103842,
0,1,6,"[0.2, 0]",1,0,0,0,0,,,,,0,0,0,0,0,29,29,29,,,,,,,,,None,None,0,140.63832839997485,None,140.63832839997485,141.63832749985158,141.62166159995832,142.62168609979562,0,0,140.63832839997485,None,,,01002,m,2,r,MCK,2021_Oct_26_2110,WASABI Nback,2020.2.10,59.98051829103842,
0,1,6,"[0.2, 0]",None,0,0,0,0,,,,,0,0,0,0,0,30,30,30,,,,,,,,,None,None,0,142.63833319977857,None,142.63833319977857,143.63834539987147,143.62169669987634,144.62170599983074,0,0,142.63833319977857,None,,,01002,m,2,r,MCK,2021_Oct_26_2110,WASABI Nback,2020.2.10,59.98051829103842,
0,1,7,"[-0.2, -0.2]",None,0,0,0,0,,,,,0,0,0,0,0,31,31,31,,,,,,,,,None,None,0,144.6383362999186,None,144.6383362999186,145.63839089986868,145.62177949980833,146.62170339981094,0,1,144.6383362999186,None,,,01002,m,2,r,MCK,2021_Oct_26_2110,WASABI Nback,2020.2.10,59.98051829103842,
0,1,6,"[0.2, 0]",1,0,0,0,0,,,,,0,0,0,0,0,32,32,32,,,,,,,,,None,None,0,146.63839019997977,None,146.63839019997977,147.63839349988848,147.62170649995096,148.6217135998886,0,0,146.63839019997977,None,,,01002,m,2,r,MCK,2021_Oct_26_2110,WASABI Nback,2020.2.10,59.98051829103842,
0,1,2,"[0, 0.2]",None,0,0,0,0,,,,,0,0,0,0,0,33,33,33,,,,,,,,,None,None,0,148.63834319985472,None,148.63834319985472,149.63841809984297,149.6217272998765,150.62173709995113,0,1,148.63834319985472,None,,,01002,m,2,r,MCK,2021_Oct_26_2110,WASABI Nback,2020.2.10,59.98051829103842,
0,1,5,"[0, 0]",None,0,0,0,0,,,,,0,0,0,0,0,34,34,34,,,,,,,,,None,None,0,150.63839979982004,None,150.63839979982004,151.6384086997714,151.62174459989183,152.6217557999771,0,1,150.63839979982004,None,,,01002,m,2,r,MCK,2021_Oct_26_2110,WASABI Nback,2020.2.10,59.98051829103842,
0,1,4,"[-0.2, 0]",None,0,0,0,0,,,,,0,0,0,0,0,35,35,35,,,,,,,,,None,None,0,152.63843469996937,None,152.63843469996937,153.63845209986903,153.62175799999386,154.6217725998722,0,1,152.63843469996937,None,,,01002,m,2,r,MCK,2021_Oct_26_2110,WASABI Nback,2020.2.10,59.98051829103842,
0,1,4,"[-0.2, 0]",None,0,0,0,0,,,,,0,0,0,0,0,36,36,36,,,,,,,,,None,None,0,154.63844949984923,None,154.63844949984923,155.6384467999451,155.6217855999712,156.62177709979005,0,0,154.63844949984923,None,,,01002,m,2,r,MCK,2021_Oct_26_2110,WASABI Nback,2020.2.10,59.98051829103842,
0,1,7,"[-0.2, -0.2]",None,0,0,0,0,,,,,0,0,0,0,0,37,37,37,,,,,,,,,None,None,0,156.63846519985236,None,156.63846519985236,157.63845509989187,157.62180969980545,158.62182709993795,0,1,156.63846519985236,None,,,01002,m,2,r,MCK,2021_Oct_26_2110,WASABI Nback,2020.2.10,59.98051829103842,
0,1,4,"[-0.2, 0]",1,0,0,0,0,,,,,0,0,0,0,0,38,38,38,,,,,,,,,None,None,0,158.63846569997258,None,158.63846569997258,159.6384901998099,159.62181179993786,160.62183169997297,0,0,158.63846569997258,None,,,01002,m,2,r,MCK,2021_Oct_26_2110,WASABI Nback,2020.2.10,59.98051829103842,
0,1,3,"[0.2, 0.2]",None,0,0,0,0,,,,,0,0,0,0,0,39,39,39,,,,,,,,,None,None,0,160.6385137999896,None,160.6385137999896,161.63849629997276,161.62182169989683,162.62185389990918,0,1,160.6385137999896,None,,,01002,m,2,r,MCK,2021_Oct_26_2110,WASABI Nback,2020.2.10,59.98051829103842,
0,1,5,"[0, 0]",None,0,0,0,0,,,,,0,0,0,0,0,40,40,40,,,,,,,,,None,None,0,162.63848909991793,None,162.63848909991793,163.63851849990897,163.62183579988778,164.6218581998255,0,1,162.63848909991793,None,,,01002,m,2,r,MCK,2021_Oct_26_2110,WASABI Nback,2020.2.10,59.98051829103842,
0,1,3,"[0.2, 0.2]",1,0,0,0,0,,,,,0,0,0,0,0,41,41,41,,,,,,,,,None,None,0,164.63850539992563,None,164.63850539992563,165.63853739993647,165.62185369990766,166.62187209981494,0,1,164.63850539992563,None,,,01002,m,2,r,MCK,2021_Oct_26_2110,WASABI Nback,2020.2.10,59.98051829103842,
0,1,1,"[-0.2, 0.2]",None,0,0,0,0,,,,,0,0,0,0,0,42,42,42,,,,,,,,,None,None,0,166.63854489987716,None,166.63854489987716,167.63854309986345,167.62187329982407,168.62190029979683,0,1,166.63854489987716,None,,,01002,m,2,r,MCK,2021_Oct_26_2110,WASABI Nback,2020.2.10,59.98051829103842,
0,1,9,"[0.2, -0.2]",None,0,0,0,0,,,,,0,0,0,0,0,43,43,43,,,,,,,,,None,None,0,168.6385460998863,None,168.6385460998863,169.63856399990618,169.62188589992002,170.6218962999992,0,1,168.6385460998863,None,,,01002,m,2,r,MCK,2021_Oct_26_2110,WASABI Nback,2020.2.10,59.98051829103842,
0,1,9,"[0.2, -0.2]",None,0,0,0,0,,,,,0,0,0,0,0,44,44,44,,,,,,,,,None,None,0,170.6385708998423,None,170.6385708998423,171.6385752998758,171.62193189980462,172.62193009979092,0,0,170.6385708998423,None,,,01002,m,2,r,MCK,2021_Oct_26_2110,WASABI Nback,2020.2.10,59.98051829103842,
0,1,8,"[0, -0.2]",None,0,0,0,0,,,,,0,0,0,0,0,45,45,45,,,,,,,,,None,None,0,172.63858339982107,None,172.63858339982107,173.63858679984696,173.62192149995826,174.62194959982298,0,1,172.63858339982107,None,,,01002,m,2,r,MCK,2021_Oct_26_2110,WASABI Nback,2020.2.10,59.98051829103842,
0,1,6,"[0.2, 0]",None,0,0,0,0,,,,,0,0,0,0,0,46,46,46,,,,,,,,,None,None,0,174.63860649988055,None,174.63860649988055,175.63861239980906,175.62195729999803,176.62197379977442,0,1,174.63860649988055,None,,,01002,m,2,r,MCK,2021_Oct_26_2110,WASABI Nback,2020.2.10,59.98051829103842,
0,1,3,"[0.2, 0.2]",None,0,0,0,0,,,,,0,0,0,0,0,47,47,47,,,,,,,,,None,None,0,176.63860519998707,None,176.63860519998707,177.6386301999446,177.6219508999493,178.62197549990378,0,1,176.63860519998707,None,,,01002,m,2,r,MCK,2021_Oct_26_2110,WASABI Nback,2020.2.10,59.98051829103842,
0,1,6,"[0.2, 0]",1,0,0,0,0,,,,,0,0,0,0,0,48,48,48,,,,,,,,,None,None,0,178.63863649987616,None,178.63863649987616,179.63862929982133,179.62200099998154,180.62200399977155,0,0,178.63863649987616,None,,,01002,m,2,r,MCK,2021_Oct_26_2110,WASABI Nback,2020.2.10,59.98051829103842,
0,1,5,"[0, 0]",None,0,0,0,0,,,,,0,0,0,0,0,49,49,49,,,,,,,,,None,None,0,180.63864199980162,None,180.63864199980162,181.63864899985492,181.62201309995726,182.62202319991775,0,1,180.63864199980162,None,,,01002,m,2,r,MCK,2021_Oct_26_2110,WASABI Nback,2020.2.10,59.98051829103842,
0,1,7,"[-0.2, -0.2]",None,0,0,0,0,,,,,0,0,0,0,0,50,50,50,,,,,,,,,None,None,0,182.63866579998285,None,182.63866579998285,183.63867059978656,183.6220243999269,184.6220465998631,0,1,182.63866579998285,None,,,01002,m,2,r,MCK,2021_Oct_26_2110,WASABI Nback,2020.2.10,59.98051829103842,
0,1,5,"[0, 0]",1,0,0,0,0,,,,,0,0,0,0,0,51,51,51,,,,,,,,,None,None,0,184.6386821998749,None,184.6386821998749,185.6386808999814,185.6220390999224,186.62205679994076,0,0,184.6386821998749,None,,,01002,m,2,r,MCK,2021_Oct_26_2110,WASABI Nback,2020.2.10,59.98051829103842,
0,1,1,"[-0.2, 0.2]",None,0,0,0,0,,,,,0,0,0,0,0,52,52,52,,,,,,,,,None,None,0,186.63865159987472,None,186.63865159987472,187.63871619990095,187.6220680999104,188.62206709990278,0,1,186.63865159987472,None,,,01002,m,2,r,MCK,2021_Oct_26_2110,WASABI Nback,2020.2.10,59.98051829103842,
0,1,7,"[-0.2, -0.2]",None,0,0,0,0,,,,,0,0,0,0,0,53,53,53,,,,,,,,,None,None,0,188.638718099799,None,188.638718099799,189.63872719998471,189.62207499984652,190.62208899995312,0,1,188.638718099799,None,,,01002,m,2,r,MCK,2021_Oct_26_2110,WASABI Nback,2020.2.10,59.98051829103842,
0,1,9,"[0.2, -0.2]",None,0,0,0,0,,,,,0,0,0,0,0,54,54,54,,,,,,,,,None,None,0,190.63874049996957,None,190.63874049996957,191.63873089989647,191.62209799978882,192.62210109992884,0,1,190.63874049996957,None,,,01002,m,2,r,MCK,2021_Oct_26_2110,WASABI Nback,2020.2.10,59.98051829103842,
0,1,3,"[0.2, 0.2]",None,0,0,0,0,,,,,0,0,0,0,0,55,55,55,,,,,,,,,None,None,0,192.63874450000003,None,192.63874450000003,193.63876219978556,193.6220168999862,194.6220879999455,0,1,192.63874450000003,None,,,01002,m,2,r,MCK,2021_Oct_26_2110,WASABI Nback,2020.2.10,59.98051829103842,
0,1,9,"[0.2, -0.2]",1,0,0,0,0,,,,,0,0,0,0,0,56,56,56,,,,,,,,,None,None,0,194.63876939984038,None,194.63876939984038,195.63876659981906,195.6221231999807,196.62212600000203,0,1,194.63876939984038,None,,,01002,m,2,r,MCK,2021_Oct_26_2110,WASABI Nback,2020.2.10,59.98051829103842,
0,1,6,"[0.2, 0]",None,0,0,0,0,,,,,0,0,0,0,0,57,57,57,,,,,,,,,None,None,0,196.63877269998193,None,196.63877269998193,197.63877569977194,197.6221174998209,198.6221184998285,0,1,196.63877269998193,None,,,01002,m,2,r,MCK,2021_Oct_26_2110,WASABI Nback,2020.2.10,59.98051829103842,
0,1,2,"[0, 0.2]",None,0,0,0,0,,,,,0,0,0,0,0,58,58,58,,,,,,,,,None,None,0,198.63879869994707,None,198.63879869994707,199.63879739982076,199.62214939994738,200.62213579984382,0,1,198.63879869994707,None,,,01002,m,2,r,MCK,2021_Oct_26_2110,WASABI Nback,2020.2.10,59.98051829103842,
0,1,5,"[0, 0]",None,0,0,0,0,,,,,0,0,0,0,0,59,59,59,,,,,,,,,None,None,0,200.63880419987254,None,200.63880419987254,201.6388185999822,201.62214189977385,202.62213859986514,0,1,200.63880419987254,None,,,01002,m,2,r,MCK,2021_Oct_26_2110,WASABI Nback,2020.2.10,59.98051829103842,
0,1,5,"[0, 0]",None,0,0,0,0,,,,,0,0,0,0,0,60,60,60,,,,,,,,,None,None,0,202.638837199891,None,202.638837199891,203.63884069980122,203.62216909998097,204.6221611998044,0,1,202.638837199891,None,,,01002,m,2,r,MCK,2021_Oct_26_2110,WASABI Nback,2020.2.10,59.98051829103842,
0,1,2,"[0, 0.2]",None,0,0,0,0,,,,,0,0,0,0,0,61,61,61,,,,,,,,,None,None,0,204.6388622999657,None,204.6388622999657,205.63886369997635,205.62216909998097,206.62218539998867,0,1,204.6388622999657,None,,,01002,m,2,r,MCK,2021_Oct_26_2110,WASABI Nback,2020.2.10,59.98051829103842,
0,1,6,"[0.2, 0]",None,0,0,0,0,,,,,0,0,0,0,0,62,62,62,,,,,,,,,None,None,0,206.63886829977855,None,206.63886829977855,207.6388658999931,207.62218999979086,208.62221199995838,0,1,206.63886829977855,None,,,01002,m,2,r,MCK,2021_Oct_26_2110,WASABI Nback,2020.2.10,59.98051829103842,
0,1,9,"[0.2, -0.2]",None,0,0,0,0,,,,,0,0,0,0,0,63,63,63,,,,,,,,,None,None,0,208.6388766998425,None,208.6388766998425,209.6388886999339,209.62223119987175,210.62221509986557,0,1,208.6388766998425,None,,,01002,m,2,r,MCK,2021_Oct_26_2110,WASABI Nback,2020.2.10,59.98051829103842,
0,1,3,"[0.2, 0.2]",None,0,0,0,0,,,,,0,0,0,0,0,64,64,64,,,,,,,,,None,None,0,210.63889919989742,None,210.63889919989742,211.63891049986705,211.6222180998884,212.6222292999737,0,1,210.63889919989742,None,,,01002,m,2,r,MCK,2021_Oct_26_2110,WASABI Nback,2020.2.10,59.98051829103842,
0,1,9,"[0.2, -0.2]",1,0,0,0,0,,,,,0,0,0,0,0,65,65,65,,,,,,,,,None,None,0,212.6389253998641,None,212.6389253998641,213.63891379977576,213.62225259980187,214.62223819992505,0,0,212.6389253998641,None,,,01002,m,2,r,MCK,2021_Oct_26_2110,WASABI Nback,2020.2.10,59.98051829103842,
0,1,7,"[-0.2, -0.2]",None,0,0,0,0,,,,,0,0,0,0,0,66,66,66,,,,,,,,,None,None,0,214.63893669983372,None,214.63893669983372,215.63894259999506,215.62226319988258,216.6222649998963,0,1,214.63893669983372,None,,,01002,m,2,r,MCK,2021_Oct_26_2110,WASABI Nback,2020.2.10,59.98051829103842,
0,1,1,"[-0.2, 0.2]",None,0,0,0,0,,,,,0,0,0,0,0,67,67,67,,,,,,,,,None,None,0,216.63895189994946,None,216.63895189994946,217.6389465997927,217.62227399996482,218.62228089990094,0,1,216.63895189994946,None,,,01002,m,2,r,MCK,2021_Oct_26_2110,WASABI Nback,2020.2.10,59.98051829103842,
0,1,5,"[0, 0]",None,0,0,0,0,,,,,0,0,0,0,0,68,68,68,,,,,,,,,None,None,0,218.63896349980496,None,218.63896349980496,219.63899539993145,219.62228399980813,220.62229849980213,0,1,218.63896349980496,None,,,01002,m,2,r,MCK,2021_Oct_26_2110,WASABI Nback,2020.2.10,59.98051829103842,
0,1,7,"[-0.2, -0.2]",None,0,0,0,0,,,,,0,0,0,0,0,69,69,69,,,,,,,,,None,None,0,220.63900409988128,None,220.63900409988128,221.6389915999025,221.6223282997962,222.62232589977793,0,1,220.63900409988128,None,,,01002,m,2,r,MCK,2021_Oct_26_2110,WASABI Nback,2020.2.10,59.98051829103842,
0,1,5,"[0, 0]",1,0,0,0,0,,,,,0,0,0,0,0,70,70,70,,,,,,,,,None,None,0,222.63901449996047,None,222.63901449996047,223.63901249994524,223.6223234999925,224.62232929980382,0,0,222.63901449996047,None,,,01002,m,2,r,MCK,2021_Oct_26_2110,WASABI Nback,2020.2.10,59.98051829103842,
0,1,6,"[0.2, 0]",None,0,0,0,0,,,,,0,0,0,0,0,71,71,71,,,,,,,,,None,None,0,224.6390202997718,None,224.6390202997718,225.63903289986774,225.62234189989977,226.6223474999424,0,1,224.6390202997718,None,,,01002,m,2,r,MCK,2021_Oct_26_2110,WASABI Nback,2020.2.10,59.98051829103842,
0,1,3,"[0.2, 0.2]",None,0,0,0,0,,,,,0,0,0,0,0,72,72,72,,,,,,,,,None,None,0,226.63901509996504,None,226.63901509996504,227.6390179998707,227.6223567998968,228.62235379987396,0,1,226.63901509996504,None,,,01002,m,2,r,MCK,2021_Oct_26_2110,WASABI Nback,2020.2.10,59.98051829103842,
0,1,6,"[0.2, 0]",1,0,0,0,0,,,,,0,0,0,0,0,73,73,73,,,,,,,,,None,None,0,228.63906049984507,None,228.63906049984507,229.6390756999608,229.62237679981627,230.62240419979207,0,0,228.63906049984507,None,,,01002,m,2,r,MCK,2021_Oct_26_2110,WASABI Nback,2020.2.10,59.98051829103842,
0,1,8,"[0, -0.2]",None,0,0,0,0,,,,,0,0,0,0,0,74,74,74,,,,,,,,,None,None,0,230.63906639977358,None,230.63906639977358,231.6389501998201,231.62240609992296,232.62242669984698,0,1,230.63906639977358,None,,,01002,m,2,r,MCK,2021_Oct_26_2110,WASABI Nback,2020.2.10,59.98051829103842,
0,1,9,"[0.2, -0.2]",None,0,0,0,0,,,,,0,0,0,0,0,75,75,75,,,,,,,,,None,None,0,232.63910059980117,None,232.63910059980117,233.6391012999229,233.62240429990925,234.62240889994428,0,1,232.63910059980117,None,,,01002,m,2,r,MCK,2021_Oct_26_2110,WASABI Nback,2020.2.10,59.98051829103842,
0,1,9,"[0.2, -0.2]",None,0,0,0,0,,,,,0,0,0,0,0,76,76,76,,,,,,,,,None,None,0,234.63911669980735,None,234.63911669980735,235.63910829997621,235.6224261999596,236.62242309981957,0,1,234.63911669980735,None,,,01002,m,2,r,MCK,2021_Oct_26_2110,WASABI Nback,2020.2.10,59.98051829103842,
0,1,1,"[-0.2, 0.2]",None,0,0,0,0,,,,,0,0,0,0,0,77,77,77,,,,,,,,,None,None,0,236.63910819985904,None,236.63910819985904,237.63913089991547,237.62245739996433,238.62245289981365,0,1,236.63910819985904,None,,,01002,m,2,r,MCK,2021_Oct_26_2110,WASABI Nback,2020.2.10,59.98051829103842,
0,1,3,"[0.2, 0.2]",None,0,0,0,0,,,,,0,0,0,0,0,78,78,78,,,,,,,,,None,None,0,238.6391281997785,None,238.6391281997785,239.6391227999702,239.62244469998404,240.62246019998565,0,1,238.6391281997785,None,,,01002,m,2,r,MCK,2021_Oct_26_2110,WASABI Nback,2020.2.10,59.98051829103842,
0,1,5,"[0, 0]",None,0,0,0,0,,,,,0,0,0,0,0,79,79,79,,,,,,,,,None,None,0,240.63913359981962,None,240.63913359981962,241.63913349993527,241.62247799988836,242.62247589998879,0,1,240.63913359981962,None,,,01002,m,2,r,MCK,2021_Oct_26_2110,WASABI Nback,2020.2.10,59.98051829103842,
0,1,3,"[0.2, 0.2]",1,0,0,0,0,,,,,0,0,0,0,0,80,80,80,,,,,,,,,None,None,0,242.6391025998164,None,242.6391025998164,243.63915689988062,243.62247569998726,244.6224840998184,0,1,242.6391025998164,None,,,01002,m,2,r,MCK,2021_Oct_26_2110,WASABI Nback,2020.2.10,59.98051829103842,
0,1,4,"[-0.2, 0]",None,0,0,0,0,,,,,0,0,0,0,0,81,81,81,,,,,,,,,None,None,0,244.6391524998471,None,244.6391524998471,245.6391672999598,245.62250529997982,246.62250209995545,0,1,244.6391524998471,None,,,01002,m,2,r,MCK,2021_Oct_26_2110,WASABI Nback,2020.2.10,59.98051829103842,
0,1,7,"[-0.2, -0.2]",None,0,0,0,0,,,,,0,0,0,0,0,82,82,82,,,,,,,,,None,None,0,246.63917499990202,None,246.63917499990202,247.63917979993857,247.622522899881,248.6225396997761,0,1,246.63917499990202,None,,,01002,m,2,r,MCK,2021_Oct_26_2110,WASABI Nback,2020.2.10,59.98051829103842,
0,1,4,"[-0.2, 0]",1,0,0,0,0,,,,,0,0,0,0,0,83,83,83,,,,,,,,,None,None,0,248.63919689995237,None,248.63919689995237,249.63919559982605,249.6225314999465,250.62253089994192,0,1,248.63919689995237,None,,,01002,m,2,r,MCK,2021_Oct_26_2110,WASABI Nback,2020.2.10,59.98051829103842,
0,1,4,"[-0.2, 0]",None,0,0,0,0,,,,,0,0,0,0,0,84,84,84,,,,,,,,,None,None,0,250.63930249982513,None,250.63930249982513,251.63921549986117,251.6225479999557,252.62256869999692,0,1,250.63930249982513,None,,,01002,m,2,r,MCK,2021_Oct_26_2110,WASABI Nback,2020.2.10,59.98051829103842,
0,1,5,"[0, 0]",None,0,0,0,0,,,,,0,0,0,0,0,85,85,85,,,,,,,,,None,None,0,252.63922649994493,None,252.63922649994493,253.63922669994645,253.622562199831,254.6225681998767,0,1,252.63922649994493,None,,,01002,m,2,r,MCK,2021_Oct_26_2110,WASABI Nback,2020.2.10,59.98051829103842,
0,1,2,"[0, 0.2]",None,0,0,0,0,,,,,0,0,0,0,0,86,86,86,,,,,,,,,None,None,0,254.63924809987657,None,254.63924809987657,255.63924679998308,255.6226030997932,256.62259159982204,0,1,254.63924809987657,None,,,01002,m,2,r,MCK,2021_Oct_26_2110,WASABI Nback,2020.2.10,59.98051829103842,
0,1,6,"[0.2, 0]",None,0,0,0,0,,,,,0,0,0,0,0,87,87,87,,,,,,,,,None,None,0,256.6392694998067,None,256.6392694998067,257.63926669978537,257.6226150000002,258.62261849991046,0,1,256.6392694998067,None,,,01002,m,2,r,MCK,2021_Oct_26_2110,WASABI Nback,2020.2.10,59.98051829103842,
0,1,7,"[-0.2, -0.2]",None,0,0,0,0,,,,,0,0,0,0,0,88,88,88,,,,,,,,,None,None,0,258.6392850999255,None,258.6392850999255,259.6392842999194,259.6226297998801,260.6226276999805,0,1,258.6392850999255,None,,,01002,m,2,r,MCK,2021_Oct_26_2110,WASABI Nback,2020.2.10,59.98051829103842,
0,1,6,"[0.2, 0]",1,0,0,0,0,,,,,0,0,0,0,0,89,89,89,,,,,,,,,None,None,0,260.63929809979163,None,260.63929809979163,261.6392979999073,261.62262779986486,262.62264389987104,0,1,260.63929809979163,None,,,01002,m,2,r,MCK,2021_Oct_26_2110,WASABI Nback,2020.2.10,59.98051829103842,
0,1,6,"[0.2, 0]",None,0,0,0,0,,,,,0,0,0,0,0,90,90,90,,,,,,,,,None,None,0,262.6393077999819,None,262.6393077999819,263.63931119977497,263.6226383999456,264.6226646997966,0,1,262.6393077999819,None,,,01002,m,2,r,MCK,2021_Oct_26_2110,WASABI Nback,2020.2.10,59.98051829103842,
0,1,7,"[-0.2, -0.2]",None,0,0,0,0,,,,,0,0,0,0,0,91,91,91,,,,,,,,,None,None,0,264.63930119993165,None,264.63930119993165,265.63933899998665,265.62267159996554,266.6226639999077,0,1,264.63930119993165,None,,,01002,m,2,r,MCK,2021_Oct_26_2110,WASABI Nback,2020.2.10,59.98051829103842,
0,1,6,"[0.2, 0]",1,0,0,0,0,,,,,0,0,0,0,0,92,92,92,,,,,,,,,None,None,0,266.63934729993343,None,266.63934729993343,267.6393586997874,267.62267439998686,268.62268259981647,0,1,266.63934729993343,None,,,01002,m,2,r,MCK,2021_Oct_26_2110,WASABI Nback,2020.2.10,59.98051829103842,
0,1,2,"[0, 0.2]",None,0,0,0,0,,,,,0,0,0,0,0,93,93,93,,,,,,,,,None,None,0,268.6393757998012,None,268.6393757998012,269.63937279977836,269.6226872999687,270.62269979994744,0,1,268.6393757998012,None,,,01002,m,2,r,MCK,2021_Oct_26_2110,WASABI Nback,2020.2.10,59.98051829103842,
0,1,5,"[0, 0]",None,0,0,0,0,,,,,0,0,0,0,0,94,94,94,,,,,,,,,None,None,0,270.639376899926,None,270.639376899926,271.63939999998547,271.62271609995514,272.6227150999475,0,1,270.639376899926,None,,,01002,m,2,r,MCK,2021_Oct_26_2110,WASABI Nback,2020.2.10,59.98051829103842,
0,1,4,"[-0.2, 0]",None,0,0,0,0,,,,,0,0,0,0,0,95,95,95,,,,,,,,,None,None,0,272.6393995999824,None,272.6393995999824,273.6394178997725,273.6228139998857,274.62278609978966,0,1,272.6393995999824,None,,,01002,m,2,r,MCK,2021_Oct_26_2110,WASABI Nback,2020.2.10,59.98051829103842,
0,1,4,"[-0.2, 0]",None,0,0,0,0,,,,,0,0,0,0,0,96,96,96,,,,,,,,,None,None,0,274.6394274998456,None,274.6394274998456,275.639421899803,275.6227611999493,276.62274839985184,0,1,274.6394274998456,None,,,01002,m,2,r,MCK,2021_Oct_26_2110,WASABI Nback,2020.2.10,59.98051829103842,
0,1,7,"[-0.2, -0.2]",None,0,0,0,0,,,,,0,0,0,0,0,97,97,97,,,,,,,,,None,None,0,276.63941249996424,None,276.63941249996424,277.6394414999522,277.6227593999356,278.62276879977435,0,1,276.63941249996424,None,,,01002,m,2,r,MCK,2021_Oct_26_2110,WASABI Nback,2020.2.10,59.98051829103842,
0,1,4,"[-0.2, 0]",1,0,0,0,0,,,,,0,0,0,0,0,98,98,98,,,,,,,,,None,None,0,278.6394254998304,None,278.6394254998304,279.6394365997985,279.6227710999083,280.6227844997775,0,1,278.6394254998304,None,,,01002,m,2,r,MCK,2021_Oct_26_2110,WASABI Nback,2020.2.10,59.98051829103842,
0,1,3,"[0.2, 0.2]",None,0,0,0,0,,,,,0,0,0,0,0,99,99,99,,,,,,,,,None,None,0,280.63946469989605,None,280.63946469989605,281.6394660999067,281.62278439989313,282.62280559982173,0,1,280.63946469989605,None,,,01002,m,2,r,MCK,2021_Oct_26_2110,WASABI Nback,2020.2.10,59.98051829103842,
0,1,5,"[0, 0]",None,0,0,0,0,,,,,0,0,0,0,0,100,100,100,,,,,,,,,None,None,0,282.6394718999509,None,282.6394718999509,283.63948849984445,283.622806499945,284.62281259987503,0,1,282.6394718999509,None,,,01002,m,2,r,MCK,2021_Oct_26_2110,WASABI Nback,2020.2.10,59.98051829103842,
0,1,3,"[0.2, 0.2]",1,0,0,0,0,,,,,0,0,0,0,0,101,101,101,,,,,,,,,None,None,0,284.6394785998855,None,284.6394785998855,285.63950069993734,285.6228317997884,286.62282339995727,0,1,284.6394785998855,None,,,01002,m,2,r,MCK,2021_Oct_26_2110,WASABI Nback,2020.2.10,59.98051829103842,
0,1,1,"[-0.2, 0.2]",None,0,0,0,0,,,,,0,0,0,0,0,102,102,102,,,,,,,,,None,None,0,286.6395000999328,None,286.6395000999328,287.6395030999556,287.62286789994687,288.6228598000016,0,1,286.6395000999328,None,,,01002,m,2,r,MCK,2021_Oct_26_2110,WASABI Nback,2020.2.10,59.98051829103842,
0,1,9,"[0.2, -0.2]",None,0,0,0,0,,,,,0,0,0,0,0,103,103,103,,,,,,,,,None,None,0,288.63952519977465,None,288.63952519977465,289.6395393998828,289.6228661998175,290.62287689978257,0,1,288.63952519977465,None,,,01002,m,2,r,MCK,2021_Oct_26_2110,WASABI Nback,2020.2.10,59.98051829103842,
0,1,9,"[0.2, -0.2]",None,0,0,0,0,,,,,0,0,0,0,0,104,104,104,,,,,,,,,None,None,0,290.63954409980215,None,290.63954409980215,291.6395361998584,291.62288189982064,292.6228887999896,0,1,290.63954409980215,None,,,01002,m,2,r,MCK,2021_Oct_26_2110,WASABI Nback,2020.2.10,59.98051829103842,
0,1,8,"[0, -0.2]",None,0,0,0,0,,,,,0,0,0,0,0,105,105,105,,,,,,,,,None,None,0,292.6395514998585,None,292.6395514998585,293.63956249994226,293.62292139977217,294.6229184998665,0,1,292.6395514998585,None,,,01002,m,2,r,MCK,2021_Oct_26_2110,WASABI Nback,2020.2.10,59.98051829103842,
0,1,6,"[0.2, 0]",None,0,0,0,0,,,,,0,0,0,0,0,106,106,106,,,,,,,,,None,None,0,294.6395652999636,None,294.6395652999636,295.6395736997947,295.62292149988934,296.6229399999138,0,1,294.6395652999636,None,,,01002,m,2,r,MCK,2021_Oct_26_2110,WASABI Nback,2020.2.10,59.98051829103842,
0,1,3,"[0.2, 0.2]",None,0,0,0,0,,,,,0,0,0,0,0,107,107,107,,,,,,,,,None,None,0,296.6395907998085,None,296.6395907998085,297.63959169993177,297.62293029995635,298.62293289997615,0,1,296.6395907998085,None,,,01002,m,2,r,MCK,2021_Oct_26_2110,WASABI Nback,2020.2.10,59.98051829103842,
0,1,6,"[0.2, 0]",1,0,0,0,0,,,,,0,0,0,0,0,108,108,108,,,,,,,,,None,None,0,298.63959559984505,None,298.63959559984505,299.6396099999547,299.6229657998774,300.62294479995035,0,0,298.63959559984505,None,,,01002,m,2,r,MCK,2021_Oct_26_2110,WASABI Nback,2020.2.10,59.98051829103842,
0,1,5,"[0, 0]",None,0,0,0,0,,,,,0,0,0,0,0,109,109,109,,,,,,,,,None,None,0,300.6396080998238,None,300.6396080998238,301.6396334997844,301.62295429990627,302.62298409990035,0,1,300.6396080998238,None,,,01002,m,2,r,MCK,2021_Oct_26_2110,WASABI Nback,2020.2.10,59.98051829103842,
0,1,7,"[-0.2, -0.2]",None,0,0,0,0,,,,,0,0,0,0,0,110,110,110,,,,,,,,,None,None,0,302.63964169984683,None,302.63964169984683,303.63963439990766,303.62299929978326,304.62301079998724,0,1,302.63964169984683,None,,,01002,m,2,r,MCK,2021_Oct_26_2110,WASABI Nback,2020.2.10,59.98051829103842,
0,1,5,"[0, 0]",1,0,0,0,0,,,,,0,0,0,0,0,111,111,111,,,,,,,,,None,None,0,304.63966009998694,None,304.63966009998694,305.6396689999383,305.62301899981685,306.62302289996296,0,0,304.63966009998694,None,,,01002,m,2,r,MCK,2021_Oct_26_2110,WASABI Nback,2020.2.10,59.98051829103842,
0,1,1,"[-0.2, 0.2]",None,0,0,0,0,,,,,0,0,0,0,0,112,112,112,,,,,,,,,None,None,0,306.6396606999915,None,306.6396606999915,307.6396839998197,307.62303629983217,308.62304099998437,0,1,306.6396606999915,None,,,01002,m,2,r,MCK,2021_Oct_26_2110,WASABI Nback,2020.2.10,59.98051829103842,
0,1,7,"[-0.2, -0.2]",None,0,0,0,0,,,,,0,0,0,0,0,113,113,113,,,,,,,,,None,None,0,308.6396844999399,None,308.6396844999399,309.63969089998864,309.6230472999159,310.62305909977295,0,1,308.6396844999399,None,,,01002,m,2,r,MCK,2021_Oct_26_2110,WASABI Nback,2020.2.10,59.98051829103842,
0,1,9,"[0.2, -0.2]",None,0,0,0,0,,,,,0,0,0,0,0,114,114,114,,,,,,,,,None,None,0,310.6397136999294,None,310.6397136999294,311.6396939998958,311.6230661999434,312.6230702998582,0,1,310.6397136999294,None,,,01002,m,2,r,MCK,2021_Oct_26_2110,WASABI Nback,2020.2.10,59.98051829103842,
0,1,3,"[0.2, 0.2]",None,0,0,0,0,,,,,0,0,0,0,0,115,115,115,,,,,,,,,None,None,0,312.6397089997772,None,312.6397089997772,313.6397392998915,313.62306709983386,314.6230882999953,0,1,312.6397089997772,None,,,01002,m,2,r,MCK,2021_Oct_26_2110,WASABI Nback,2020.2.10,59.98051829103842,
0,1,9,"[0.2, -0.2]",1,0,0,0,0,,,,,0,0,0,0,0,116,116,116,,,,,,,,,None,None,0,314.63972809980623,None,314.63972809980623,315.63973709987476,315.62309119990095,316.623087399872,0,1,314.63972809980623,None,,,01002,m,2,r,MCK,2021_Oct_26_2110,WASABI Nback,2020.2.10,59.98051829103842,
0,1,6,"[0.2, 0]",None,0,0,0,0,,,,,0,0,0,0,0,117,117,117,,,,,,,,,None,None,0,316.63975629978813,None,316.63975629978813,317.6397475998383,317.6231280998327,318.62313309987076,0,1,316.63975629978813,None,,,01002,m,2,r,MCK,2021_Oct_26_2110,WASABI Nback,2020.2.10,59.98051829103842,
0,1,2,"[0, 0.2]",None,0,0,0,0,,,,,0,0,0,0,0,118,118,118,,,,,,,,,None,None,0,318.63975809980184,None,318.63975809980184,319.63978469977155,319.62314919987693,320.6230609999038,0,1,318.63975809980184,None,,,01002,m,2,r,MCK,2021_Oct_26_2110,WASABI Nback,2020.2.10,59.98051829103842,
0,1,5,"[0, 0]",None,0,0,0,0,,,,,0,0,0,0,0,119,119,119,,,,,,,,,None,None,0,320.6397723997943,None,320.6397723997943,321.6397873999085,321.6231754999608,322.62315879995003,0,1,320.6397723997943,None,,,01002,m,2,r,MCK,2021_Oct_26_2110,WASABI Nback,2020.2.10,59.98051829103842,
1,0,,,,0,1,1,1,0,0,0,0,,,,,,,,,,,,,,,,,,,,,,,,,,,,,,389.45703469985165,None,01002,m,2,r,MCK,2021_Oct_26_2110,WASABI Nback,2020.2.10,59.98051829103842,
