BodySiteInstructionText.started,BodySiteImg.started,BodySiteImg.stopped,BodySiteInstructionRead.keys,BodySiteInstructionRead.rt,BodySiteInstructionRead.started,BodySiteInstructionRead.stopped,fixation.started,fixation.stopped,IntensityRating.response,IntensityRating.rt,IntensityRating.started,IntensityRating.stopped,ComfortRating.response,ComfortRating.rt,ComfortRating.started,ComfortRating.stopped,ValenceRating.response,ValenceRating.rt,ValenceRating.started,ValenceRating.stopped,AvoidRating.response,AvoidRating.rt,AvoidRating.started,AvoidRating.stopped,RelaxRating.response,RelaxRating.rt,RelaxRating.started,RelaxRating.stopped,TaskAttentionRating.response,TaskAttentionRating.rt,TaskAttentionRating.started,TaskAttentionRating.stopped,BoredomRating.response,BoredomRating.rt,BoredomRating.started,BoredomRating.stopped,AlertnessRating.response,AlertnessRating.rt,AlertnessRating.started,AlertnessRating.stopped,PosThxRating.response,PosThxRating.rt,PosThxRating.started,PosThxRating.stopped,NegThxRating.response,NegThxRating.rt,NegThxRating.started,NegThxRating.stopped,SelfRating.response,SelfRating.rt,SelfRating.started,SelfRating.stopped,OtherRating.response,OtherRating.rt,OtherRating.started,OtherRating.stopped,ImageryRating.response,ImageryRating.rt,ImageryRating.started,ImageryRating.stopped,PresentRating.response,PresentRating.rt,PresentRating.started,PresentRating.stopped,subject number,gender,acceptMap body-site # (day1: 1-4; day2: 5-8),acceptMap (1)pre- or (2)post-Experience (1 or 2),session,handedness,scanner,run,date,psychopyVersion,expName,frameRate,
36.11192349999328,36.11192349999328,None,space,133.97752049998962,36.11192349999328,None,209.0965431999939,None,49.25925925925927,185.12216580001405,,,,,,,,,,,,,,,,,,,,,,,,,,,,,,,,,,,,,,,,,,,,,,,,,,,,,,,1002,M,1,1,8,R,EIM,2,2022_Feb_22_2103,2020.2.10,acceptmap-pre-exp,60.038785053422096,
,,,,,,,237.11345989999245,None,47.46913580246914,213.13904880001792,0.015055900003062561,5.012611399986781,,,,,,,,,,,,,,,,,,,,,,,,,,,,,,,,,,,,,,,,,,,,,,,,,,,,,1002,M,1,1,8,R,EIM,2,2022_Feb_22_2103,2020.2.10,acceptmap-pre-exp,60.038785053422096,
,,,,,,,265.130350499996,None,42.34567901234568,237.15610370002105,0.014991300005931407,5.012562799995067,,,,,,,,,,,,,,,,,,,,,,,,,,,,,,,,,,,,,,,,,,,,,,,,,,,,,1002,M,1,1,8,R,EIM,2,2022_Feb_22_2103,2020.2.10,acceptmap-pre-exp,60.038785053422096,
,,,,,,,293.16392009999254,None,37.28395061728395,267.18911980002304,0.014805299986619502,5.01223699998809,,,,,,,,,,,,,,,,,,,,,,,,,,,,,,,,,,,,,,,,,,,,,,,,,,,,,1002,M,1,1,8,R,EIM,2,2022_Feb_22_2103,2020.2.10,acceptmap-pre-exp,60.038785053422096,
,,,,,,,321.18082270000014,None,36.91358024691358,295.2061407000001,0.0153670999861788,5.013357699965127,,,,,,,,,,,,,,,,,,,,,,,,,,,,,,,,,,,,,,,,,,,,,,,,,,,,,1002,M,1,1,8,R,EIM,2,2022_Feb_22_2103,2020.2.10,acceptmap-pre-exp,60.038785053422096,
,,,,,,,349.19764090000535,None,37.53086419753087,321.2231706000166,0.015216300002066419,5.013045699975919,,,,,,,,,,,,,,,,,,,,,,,,,,,,,,,,,,,,,,,,,,,,,,,,,,,,,1002,M,1,1,8,R,EIM,2,2022_Feb_22_2103,2020.2.10,acceptmap-pre-exp,60.038785053422096,
,,,,,,,377.21455000000424,None,37.22222222222222,351.2401847000292,0.015077999996719882,5.012774700007867,,,,,,,,,,,,,,,,,,,,,,,,,,,,,,,,,,,,,,,,,,,,,,,,,,,,,1002,M,1,1,8,R,EIM,2,2022_Feb_22_2103,2020.2.10,acceptmap-pre-exp,60.038785053422096,
,,,,,,,405.2314377000148,None,36.91358024691358,381.2573191000265,0.014951899996958673,5.012447999994038,,,,,,,,,,,,,,,,,,,,,,,,,,,,,,,,,,,,,,,,,,,,,,,,,,,,,1002,M,1,1,8,R,EIM,2,2022_Feb_22_2103,2020.2.10,acceptmap-pre-exp,60.038785053422096,
,,,,,,,433.24835050001275,None,37.407407407407405,405.27422780002235,0.014720599981956184,5.012155000003986,,,,,,,,,,,,,,,,,,,,,,,,,,,,,,,,,,,,,,,,,,,,,,,,,,,,,1002,M,1,1,8,R,EIM,2,2022_Feb_22_2103,2020.2.10,acceptmap-pre-exp,60.038785053422096,
,,,,,,,461.2652247000078,None,39.93827160493827,437.2912126000447,0.014622799993958324,5.011849299975438,,,,,,,,,,,,,,,,,,,,,,,,,,,,,,,,,,,,,,,,,,,,,,,,,,,,,1002,M,1,1,8,R,EIM,2,2022_Feb_22_2103,2020.2.10,acceptmap-pre-exp,60.038785053422096,
,,,,,,,489.29874570001266,None,41.72839506172839,465.32429780001985,0.014563799981260672,5.01168789996882,,,,,,,,,,,,,,,,,,,,,,,,,,,,,,,,,,,,,,,,,,,,,,,,,,,,,1002,M,1,1,8,R,EIM,2,2022_Feb_22_2103,2020.2.10,acceptmap-pre-exp,60.038785053422096,
,,,,,,,517.3156394000107,None,41.172839506172835,489.341257400054,0.015088799991644919,5.01277490000939,,,,,,,,,,,,,,,,,,,,,,,,,,,,,,,,,,,,,,,,,,,,,,,,,,,,,1002,M,1,1,8,R,EIM,2,2022_Feb_22_2103,2020.2.10,acceptmap-pre-exp,60.038785053422096,
,,,,,,,545.3325321000011,None,39.81481481481482,519.3583601000137,0.014971299970056862,5.012499399977969,,,,,,,,,,,,,,,,,,,,,,,,,,,,,,,,,,,,,,,,,,,,,,,,,,,,,1002,M,1,1,8,R,EIM,2,2022_Feb_22_2103,2020.2.10,acceptmap-pre-exp,60.038785053422096,
,,,,,,,573.3494439999922,None,39.44444444444444,549.3731878000253,0.014783699996769428,5.012223300000187,,,,,,,,,,,,,,,,,,,,,,,,,,,,,,,,,,,,,,,,,,,,,,,,,,,,,1002,M,1,1,8,R,EIM,2,2022_Feb_22_2103,2020.2.10,acceptmap-pre-exp,60.038785053422096,
,,,,,,,601.3662132000027,None,40.06172839506172,573.3923742999905,0.01672569999936968,5.015889599977527,,,,,,,,,,,,,,,,,,,,,,,,,,,,,,,,,,,,,,,,,,,,,,,,,,,,,1002,M,1,1,8,R,EIM,2,2022_Feb_22_2103,2020.2.10,acceptmap-pre-exp,60.038785053422096,
,,,,,,,629.3998870000069,None,45.24691358024691,601.4253469000105,0.014484400016954169,5.011603799997829,,,,,,,,,,,,,,,,,,,,,,,,,,,,,,,,,,,,,,,,,,,,,,,,,,,,,1002,M,1,1,8,R,EIM,2,2022_Feb_22_2103,2020.2.10,acceptmap-pre-exp,60.038785053422096,
,,,,,,,,,,,0.015084999991813675,5.012736299977405,30.370370370370352,619.0106819999928,,,,,,,,,,,,,,,,,,,,,,,,,,,,,,,,,,,,,,,,,,,,,,,,,,,1002,M,1,1,8,R,EIM,2,2022_Feb_22_2103,2020.2.10,acceptmap-pre-exp,60.038785053422096,
,,,,,,,,,,,,,,,0.01324120000936091,None,69.13580246913583,628.6279827000108,,,,,,,,,,,,,,,,,,,,,,,,,,,,,,,,,,,,,,,,,,,,,,,1002,M,1,1,8,R,EIM,2,2022_Feb_22_2103,2020.2.10,acceptmap-pre-exp,60.038785053422096,
,,,,,,,,,85.74074074074073,634.7875281000161,,,,,,,,,0.012711599993053824,None,,,,,,,,,,,,,,,,,,,,,,,,,,,,,,,,,,,,,,,,,,,,,1002,M,1,1,8,R,EIM,2,2022_Feb_22_2103,2020.2.10,acceptmap-pre-exp,60.038785053422096,
,,,,,,,,,,,0.0031374999962281436,None,,,,,,,,,69.32098765432099,645.8273478000483,,,,,,,,,,,,,,,,,,,,,,,,,,,,,,,,,,,,,,,,,,,1002,M,1,1,8,R,EIM,2,2022_Feb_22_2103,2020.2.10,acceptmap-pre-exp,60.038785053422096,
,,,,,,,,,,,,,,,,,,,,,,,0.013451299979351461,None,100.0,649.1107309000217,,,,,,,,,,,,,,,,,,,,,,,,,,,,,,,,,,,,,,,1002,M,1,1,8,R,EIM,2,2022_Feb_22_2103,2020.2.10,acceptmap-pre-exp,60.038785053422096,
,,,,,,,,,,,,,,,,,,,,,,,,,,,0.013475699990522116,None,100.0,654.3613484000089,,,,,,,,,,,,,,,,,,,,,,,,,,,,,,,,,,,1002,M,1,1,8,R,EIM,2,2022_Feb_22_2103,2020.2.10,acceptmap-pre-exp,60.038785053422096,
,,,,,,,,,,,,,,,,,,,,,,,,,,,,,,,0.01287360000424087,None,43.7037037037037,664.361452400015,,,,,,,,,,,,,,,,,,,,,,,,,,,,,,,1002,M,1,1,8,R,EIM,2,2022_Feb_22_2103,2020.2.10,acceptmap-pre-exp,60.038785053422096,
,,,,,,,,,,,,,,,,,,,,,,,,,,,,,,,,,,,0.012864599993918091,None,78.27160493827162,670.3112720000208,,,,,,,,,,,,,,,,,,,,,,,,,,,1002,M,1,1,8,R,EIM,2,2022_Feb_22_2103,2020.2.10,acceptmap-pre-exp,60.038785053422096,
,,,,,,,,,,,,,,,,,,,,,,,,,,,,,,,,,,,,,,,0.013091300002997741,None,-58.27160493827161,676.86131940005,,,,,,,,,,,,,,,,,,,,,,,1002,M,1,1,8,R,EIM,2,2022_Feb_22_2103,2020.2.10,acceptmap-pre-exp,60.038785053422096,
,,,,,,,,,,,,,,,,,,,,,,,,,,,,,,,,,,,,,,,,,,,0.01309879997279495,None,28.271604938271622,683.3280071000336,,,,,,,,,,,,,,,,,,,1002,M,1,1,8,R,EIM,2,2022_Feb_22_2103,2020.2.10,acceptmap-pre-exp,60.038785053422096,
,,,,,,,,,,,,,,,,,,,,,,,,,,,,,,,,,,,,,,,,,,,,,,,0.013120499992510304,None,0.8641975308642031,694.778374800022,,,,,,,,,,,,,,,1002,M,1,1,8,R,EIM,2,2022_Feb_22_2103,2020.2.10,acceptmap-pre-exp,60.038785053422096,
,,,,,,,,,,,,,,,,,,,,,,,,,,,,,,,,,,,,,,,,,,,,,,,,,,,0.012852499989094213,None,43.580246913580226,700.9273404999985,,,,,,,,,,,1002,M,1,1,8,R,EIM,2,2022_Feb_22_2103,2020.2.10,acceptmap-pre-exp,60.038785053422096,
,,,,,,,,,,,,,,,,,,,,,,,,,,,,,,,,,,,,,,,,,,,,,,,,,,,,,,,0.013926300016464666,None,0.0,711.7774554000061,,,,,,,1002,M,1,1,8,R,EIM,2,2022_Feb_22_2103,2020.2.10,acceptmap-pre-exp,60.038785053422096,
,,,,,,,,,,,,,,,,,,,,,,,,,,,,,,,,,,,,,,,,,,,,,,,,,,,,,,,,,,,0.013895100011723116,None,76.54320987654319,721.9617356999952,,,1002,M,1,1,8,R,EIM,2,2022_Feb_22_2103,2020.2.10,acceptmap-pre-exp,60.038785053422096,
,,,,,,,,,,,,,,,,,,,,,,,,,,,,,,,,,,,,,,,,,,,,,,,,,,,,,,,,,,,,,,,0.013000800012378022,None,,,,,,,,,,,,,
