	SID	day	sex	session	handedness	scanner	onset	duration	value	body_site	skin_site	temperature	condition	keys	rt	phase	biopac_channel
0	1102	3	M	03	R	MH			59.75308641975309	Left Leg	2	48.5	Threat		4.419414500007406	Placebo	
1	1102	3	M	03	R	MH			33.086419753086425	Left Leg	2	48.5	Stress		3.400356699945405	Placebo	
2	1102	3	M	03	R	MH			35.67901234567901	Left Leg	2	48.5	PainAnxiety		2.0336833999026567	Placebo	
3	1102	3	M	03	R	MH			20.493827160493826	Left Leg	2	48.5	OtherAnxiety		2.1836144998669624	Placebo	
4	1102	3	M	03	R	MH			72.53086419753086	Left Leg	2	48.5	PainConfidence		2.117030000081286	Placebo	
5	1102	3	M	03	R	MH	2.7745435999240726	4.999301133910194		Left Leg	2	48.5	Instructions			Placebo	19
6	1102	3	M	03	R	MH	8.019330499926582	5.003834999864921	21.975308641975307	Left Leg	2	48.5	Expectancy		4.1002968000248075	Placebo	51
7	1102	3	M	03	R	MH	13.41840389999561	2.0057882200926542		Left Leg	2	48.5	Cue			Placebo	6
8	1102	3	M	03	R	MH	15.433829300105572	4.0082398797385395		Left Leg	2	48.5	Pre-Jitter			Placebo	7
9	1102	3	M	03	R	MH	19.493124899920076	15.006478320108727		Left Leg	2	48.5	Placebo Heat 			Placebo	15
10	1102	3	M	03	R	MH	34.4990650000982	8.994826880050823		Left Leg	2	48.5	Mid-Jitter			Placebo	8
11	1102	3	M	03	R	MH	43.51735440012999	5.008433959679678	1.0	Left Leg	2	48.5	PainBinary		2.6500050998292863	Placebo	20
12	1102	3	M	03	R	MH	48.54897530004382	5.01194385997951	33.14814814814815	Left Leg	2	48.5	IntensityRating		4.669611100107431	Placebo	21
13	1102	3	M	03	R	MH	53.56788960006088	9.007559679681435		Left Leg	2	48.5	Post-Q-Jitter			Placebo	9
14	1102	3	M	03	R	MH	62.75776740000583	5.011299659963697	30.37037037037037	Left Leg	2	48.5	Expectancy		3.6196697999257594	Placebo	51
15	1102	3	M	03	R	MH	68.1387358000502	2.0161651198286563		Left Leg	2	48.5	Cue			Placebo	6
16	1102	3	M	03	R	MH	70.15099740005098	6.0082761796657		Left Leg	2	48.5	Pre-Jitter			Placebo	7
17	1102	3	M	03	R	MH	76.20158890006132	15.00731633999385		Left Leg	2	48.5	Placebo Heat 			Placebo	15
18	1102	3	M	03	R	MH	91.21486279997043	4.997610479826108		Left Leg	2	48.5	Mid-Jitter			Placebo	8
19	1102	3	M	03	R	MH	96.23399560013786	5.009476159932092	1.0	Left Leg	2	48.5	PainBinary		1.4500263000372797	Placebo	20
20	1102	3	M	03	R	MH	101.26648220000789	5.011361259967089	33.7037037037037	Left Leg	2	48.5	IntensityRating			Placebo	21
21	1102	3	M	03	R	MH	106.28567100013606	5.006285179872066		Left Leg	2	48.5	Post-Q-Jitter			Placebo	9
22	1102	3	M	03	R	MH	111.95727970008738	5.0133286798372865	36.48148148148149	Left Leg	2	48.5	Expectancy		3.0003305999562144	Placebo	51
23	1102	3	M	03	R	MH	117.3441262000706	2.006286019925028		Left Leg	2	48.5	Cue			Placebo	6
24	1102	3	M	03	R	MH	119.35223449999467	8.006764279911295		Left Leg	2	48.5	Pre-Jitter			Placebo	7
25	1102	3	M	03	R	MH	127.4143894999288	14.99928661994636		Left Leg	2	48.5	Placebo Heat 			Placebo	15
26	1102	3	M	03	R	MH	142.41641449998133	8.995469080051407		Left Leg	2	48.5	Mid-Jitter			Placebo	8
27	1102	3	M	03	R	MH	151.43576000002213	5.006997460033745	1.0	Left Leg	2	48.5	PainBinary		2.1500575998798013	Placebo	20
28	1102	3	M	03	R	MH	156.4667867999524	5.011691859923303	37.03703703703704	Left Leg	2	48.5	IntensityRating		3.333355699898675	Placebo	21
29	1102	3	M	03	R	MH	161.48786920006387	9.002926080022007		Left Leg	2	48.5	Post-Q-Jitter			Placebo	9
30	1102	3	M	03	R	MH	170.71255420008674	5.003747920272872	36.851851851851855	Left Leg	2	48.5	Expectancy		3.2169407000765204	Placebo	51
31	1102	3	M	03	R	MH	176.10945260012522	2.0100925997830927		Left Leg	2	48.5	Cue			Placebo	6
32	1102	3	M	03	R	MH	178.11925170011818	8.007224079919979		Left Leg	2	48.5	Pre-Jitter			Placebo	7
33	1102	3	M	03	R	MH	186.17768150009215	15.007257119985297		Left Leg	2	48.5	Placebo Heat 			Placebo	15
34	1102	3	M	03	R	MH	201.18392640003003	6.994898879900575		Left Leg	2	48.5	Mid-Jitter			Placebo	8
35	1102	3	M	03	R	MH	208.20252349996008	5.007906360086054	1.0	Left Leg	2	48.5	PainBinary		2.2166941000614315	Placebo	20
36	1102	3	M	03	R	MH	213.2348253999371	5.01007716008462	38.7037037037037	Left Leg	2	48.5	IntensityRating		2.316702000098303	Placebo	21
37	1102	3	M	03	R	MH	218.25341779994778	7.006278479704633		Left Leg	2	48.5	Post-Q-Jitter			Placebo	9
38	1102	3	M	03	R	MH	225.4752279999666	5.012836619978771	39.32098765432099	Left Leg	2	48.5	Expectancy		2.316944200079888	Placebo	51
39	1102	3	M	03	R	MH	230.8621426001191	2.0057743198703974		Left Leg	2	48.5	Cue			Placebo	6
40	1102	3	M	03	R	MH	232.86961679998785	4.0074556798208505		Left Leg	2	48.5	Pre-Jitter			Placebo	7
41	1102	3	M	03	R	MH	236.94661900005303	15.003662899835035		Left Leg	2	48.5	Placebo Heat 			Placebo	15
42	1102	3	M	03	R	MH	251.9507432000246	6.995612379861996		Left Leg	2	48.5	Mid-Jitter			Placebo	8
43	1102	3	M	03	R	MH	258.9697464001365	5.0077336598187685	1.0	Left Leg	2	48.5	PainBinary		1.4834210998378694	Placebo	20
44	1102	3	M	03	R	MH	264.0011050000321	5.01176905981265	34.19753086419753	Left Leg	2	48.5	IntensityRating		2.366273900028318	Placebo	21
45	1102	3	M	03	R	MH	269.0205916000996	7.00623157992959		Left Leg	2	48.5	Post-Q-Jitter			Placebo	9
46	1102	3	M	03	R	MH	276.74935119994916	4.99899872019887	39.876543209876544	Left Leg	2	48.5	Expectancy		3.6003938000649214	Placebo	51
47	1102	3	M	03	R	MH	282.1296135999728	2.005110519938171		Left Leg	2	48.5	Cue			Placebo	6
48	1102	3	M	03	R	MH	284.1372996000573	4.0063908798620105		Left Leg	2	48.5	Pre-Jitter			Placebo	7
49	1102	3	M	03	R	MH	288.1883944000583	15.00441573979333		Left Leg	2	48.5	Placebo Heat 			Placebo	15
50	1102	3	M	03	R	MH	303.2010542000644	6.9959462797269225		Left Leg	2	48.5	Mid-Jitter			Placebo	8
51	1102	3	M	03	R	MH	310.2192480000667	5.009841960156336	1.0	Left Leg	2	48.5	PainBinary			Placebo	20
52	1102	3	M	03	R	MH	315.2526610000059	5.0096461600624025	33.02469135802469	Left Leg	2	48.5	IntensityRating		3.1166717000305653	Placebo	21
53	1102	3	M	03	R	MH	320.2710096000228	7.006340580061078		Left Leg	2	48.5	Post-Q-Jitter			Placebo	9
54	1102	3	M	03	R	MH	327.3098098000046	5.245681239757687	26.172839506172835	Left Leg	2	48.5	ComfortRating		5.217065900098532	Placebo	26
55	1102	3	M	03	R	MH	332.5728881000541	3.2862558600027114	70.37037037037037	Left Leg	2	48.5	ValenceRating		3.266643699957058	Placebo	24
56	1102	3	M	03	R	MH	335.88305089995265	2.2993070599623024	71.9753086419753	Left Leg	2	48.5	IntensityRating		2.2838010999839753	Placebo	26
57	1102	3	M	03	R	MH	338.20127910003066	2.146255560219288	-51.48148148148148	Left Leg	2	48.5	AvoidanceRating		2.1171446999069303	Placebo	27
58	1102	3	M	03	R	MH	340.3653076000046	1.9182521600741893	71.29629629629629	Left Leg	2	48.5	RelaxationRating		1.9004246999975294	Placebo	28
59	1102	3	M	03	R	MH	342.3018193000462	2.6785958600230515	71.79012345679011	Left Leg	2	48.5	AttentionRating		2.6358902000356466	Placebo	29
60	1102	3	M	03	R	MH	344.99842710001394	2.3687664601020515	18.333333333333336	Left Leg	2	48.5	BoredomRating		2.3503902999218553	Placebo	30
61	1102	3	M	03	R	MH	347.38320540008135	1.9659112601075321	57.40740740740742	Left Leg	2	48.5	AlertnessRating		1.9504289000760764	Placebo	31
62	1102	3	M	03	R	MH	349.36792040010914	3.0631757602095604	43.580246913580226	Left Leg	2	48.5	PosThxRating		3.0511672999709845	Placebo	32
63	1102	3	M	03	R	MH	352.45050560007803	1.8147144601680338	-29.75308641975309	Left Leg	2	48.5	NegThxRating		1.8004316999576986	Placebo	33
64	1102	3	M	03	R	MH	354.2844720000867	2.1299915600102395	45.55555555555557	Left Leg	2	48.5	SelfRating		2.099855500040576	Placebo	34
65	1102	3	M	03	R	MH	356.4328616000712	1.7999465602915734	26.419753086419746	Left Leg	2	48.5	OtherRating		1.78366840002127	Placebo	35
66	1102	3	M	03	R	MH	358.25127130001783	1.7466458601411432	44.69135802469137	Left Leg	2	48.5	ImageryRating		1.7166750999167562	Placebo	32
67	1102	3	M	03	R	MH	360.0206609000452	2.29122525989078	38.765432098765444	Left Leg	2	48.5	PresentRating		2.253036300186068	Placebo	37
