RestT1,TaskT1,square,location,corrAns,counterbalancer.thisRepN,counterbalancer.thisTrialN,counterbalancer.thisN,counterbalancer.thisIndex,RestT1Loop.thisRepN,RestT1Loop.thisTrialN,RestT1Loop.thisN,RestT1Loop.thisIndex,TaskT1Loop.thisRepN,TaskT1Loop.thisTrialN,TaskT1Loop.thisN,TaskT1Loop.thisIndex,trials_2.thisRepN,trials_2.thisTrialN,trials_2.thisN,trials_2.thisIndex,fixation_1.started,fixation_1.stopped,NbackInstructions.started,NbackInstructions.stopped,NbackStart.keys,NbackStart.rt,NbackStart.started,NbackStart.stopped,fixation_2.started,fixation_2.stopped,response_2.x,response_2.y,response_2.leftButton,grid_lines_2.started,grid_lines_2.stopped,target_square_2.started,target_square_2.stopped,fixation_3.started,fixation_3.stopped,response_2.click,response_2.corr,response_2.started,response_2.stopped,subject number,gender,session,handedness,scanner,date,expName,psychopyVersion,frameRate,
1,0,,,,0,0,0,0,0,0,0,0,,,,,,,,,73.0000696000061,None,,,,,,,,,,,,,,,,,,,,,,3,f,16,l,MS,2021_Aug_13_1215,WASABI Nback,2020.2.10,59.98026649567994,
0,1,,,,0,1,1,1,,,,,0,0,0,0,,,,,,,346.63539059998584,None,space,44.20326280000154,346.63539059998584,None,,,,,,,,,,,,,,,,3,f,16,l,MS,2021_Aug_13_1215,WASABI Nback,2020.2.10,59.98026649567994,
0,1,5,"[0, 0]",None,0,1,1,1,,,,,0,0,0,0,0,0,0,0,,,,,,,,,None,None,None,None,[],None,None,None,None,None,None,[],[],None,None,3,f,16,l,MS,2021_Aug_13_1215,WASABI Nback,2020.2.10,59.98026649567994,
0,1,2,"[0, 0.2]",None,0,1,1,1,,,,,0,0,0,0,0,1,1,1,,,,,,,,,,,None,None,[],None,None,None,None,None,None,[],[],None,None,3,f,16,l,MS,2021_Aug_13_1215,WASABI Nback,2020.2.10,59.98026649567994,
0,1,6,"[0.2, 0]",None,0,1,1,1,,,,,0,0,0,0,0,2,2,2,,,,,,,,,,,None,None,[],None,None,None,None,None,None,[],[],None,None,3,f,16,l,MS,2021_Aug_13_1215,WASABI Nback,2020.2.10,59.98026649567994,
0,1,9,"[0.2, -0.2]",None,0,1,1,1,,,,,0,0,0,0,0,3,3,3,,,,,,,,,,,None,None,[],None,None,None,None,None,None,[],[],None,None,3,f,16,l,MS,2021_Aug_13_1215,WASABI Nback,2020.2.10,59.98026649567994,
0,1,3,"[0.2, 0.2]",None,0,1,1,1,,,,,0,0,0,0,0,4,4,4,,,,,,,,,,,None,None,[],None,None,None,None,None,None,[],[],None,None,3,f,16,l,MS,2021_Aug_13_1215,WASABI Nback,2020.2.10,59.98026649567994,
0,1,9,"[0.2, -0.2]",1,0,1,1,1,,,,,0,0,0,0,0,5,5,5,,,,,,,,,,,None,None,0,402.4524877999793,None,402.4524877999793,403.4524875000061,403.4191210999852,None,0,0,402.4524877999793,None,3,f,16,l,MS,2021_Aug_13_1215,WASABI Nback,2020.2.10,59.98026649567994,
0,1,7,"[-0.2, -0.2]",None,0,1,1,1,,,,,0,0,0,0,0,6,6,6,,,,,,,,,,,None,None,0,403.88578509999206,None,403.88578509999206,404.8857909000071,404.86914080000133,405.8691467999888,0,1,403.88578509999206,None,3,f,16,l,MS,2021_Aug_13_1215,WASABI Nback,2020.2.10,59.98026649567994,
0,1,1,"[-0.2, 0.2]",None,0,1,1,1,,,,,0,0,0,0,0,7,7,7,,,,,,,,,,,None,None,0,405.8858084999956,None,405.8858084999956,406.8858089999994,406.8691591999959,407.8691448000027,0,1,405.8858084999956,None,3,f,16,l,MS,2021_Aug_13_1215,WASABI Nback,2020.2.10,59.98026649567994,
0,1,5,"[0, 0]",None,0,1,1,1,,,,,0,0,0,0,0,8,8,8,,,,,,,,,,,None,None,0,407.88582520000637,None,407.88582520000637,408.88583559999825,408.8691906000022,409.8691642000049,0,1,407.88582520000637,None,3,f,16,l,MS,2021_Aug_13_1215,WASABI Nback,2020.2.10,59.98026649567994,
0,1,7,"[-0.2, -0.2]",None,0,1,1,1,,,,,0,0,0,0,0,9,9,9,,,,,,,,,,,None,None,0,409.88584879998234,None,409.88584879998234,410.88584929998615,410.86918809998315,411.86921629999415,0,1,409.88584879998234,None,3,f,16,l,MS,2021_Aug_13_1215,WASABI Nback,2020.2.10,59.98026649567994,
0,1,5,"[0, 0]",1,0,1,1,1,,,,,0,0,0,0,0,10,10,10,,,,,,,,,,,None,None,0,411.8858682999853,None,411.8858682999853,412.8858806999924,412.869185699994,413.86919070000295,0,1,411.8858682999853,None,3,f,16,l,MS,2021_Aug_13_1215,WASABI Nback,2020.2.10,59.98026649567994,
0,1,6,"[0.2, 0]",None,0,1,1,1,,,,,0,0,0,0,0,11,11,11,,,,,,,,,,,None,None,0,413.8858670000045,None,413.8858670000045,414.885889600002,414.8691848999879,415.8692186999833,0,1,413.8858670000045,None,3,f,16,l,MS,2021_Aug_13_1215,WASABI Nback,2020.2.10,59.98026649567994,
0,1,3,"[0.2, 0.2]",None,0,1,1,1,,,,,0,0,0,0,0,12,12,12,,,,,,,,,,,None,None,0,415.88587699999334,None,415.88587699999334,416.8858917999896,416.86923549999483,417.8692231999885,0,1,415.88587699999334,None,3,f,16,l,MS,2021_Aug_13_1215,WASABI Nback,2020.2.10,59.98026649567994,
0,1,6,"[0.2, 0]",1,0,1,1,1,,,,,0,0,0,0,0,13,13,13,,,,,,,,,,,None,None,0,417.88589119998505,None,417.88589119998505,418.8859252999828,418.8692468999943,419.8692339999834,0,1,417.88589119998505,None,3,f,16,l,MS,2021_Aug_13_1215,WASABI Nback,2020.2.10,59.98026649567994,
0,1,8,"[0, -0.2]",None,0,1,1,1,,,,,0,0,0,0,0,14,14,14,,,,,,,,,,,None,None,0,419.8859187999915,None,419.8859187999915,420.885913599981,420.8692594000022,421.8692681999819,0,1,419.8859187999915,None,3,f,16,l,MS,2021_Aug_13_1215,WASABI Nback,2020.2.10,59.98026649567994,
0,1,9,"[0.2, -0.2]",None,0,1,1,1,,,,,0,0,0,0,0,15,15,15,,,,,,,,,,,None,None,0,421.88592559998506,None,421.88592559998506,422.885927299998,422.8692815999966,423.86926489998586,0,1,421.88592559998506,None,3,f,16,l,MS,2021_Aug_13_1215,WASABI Nback,2020.2.10,59.98026649567994,
0,1,9,"[0.2, -0.2]",None,0,1,1,1,,,,,0,0,0,0,0,16,16,16,,,,,,,,,,,None,None,0,423.8859087000019,None,423.8859087000019,424.88595589998295,424.86928250000346,425.86930659998325,0,1,423.8859087000019,None,3,f,16,l,MS,2021_Aug_13_1215,WASABI Nback,2020.2.10,59.98026649567994,
0,1,1,"[-0.2, 0.2]",None,0,1,1,1,,,,,0,0,0,0,0,17,17,17,,,,,,,,,,,None,None,0,425.88595609998447,None,425.88595609998447,426.8859743999783,426.8692880999879,427.86930269998265,0,1,425.88595609998447,None,3,f,16,l,MS,2021_Aug_13_1215,WASABI Nback,2020.2.10,59.98026649567994,
0,1,3,"[0.2, 0.2]",None,0,1,1,1,,,,,0,0,0,0,0,18,18,18,,,,,,,,,,,None,None,0,427.88597299999674,None,427.88597299999674,428.88600969998515,428.86941469999147,429.8693255999824,0,1,427.88597299999674,None,3,f,16,l,MS,2021_Aug_13_1215,WASABI Nback,2020.2.10,59.98026649567994,
0,1,5,"[0, 0]",None,0,1,1,1,,,,,0,0,0,0,0,19,19,19,,,,,,,,,,,None,None,0,429.8860028999916,None,429.8860028999916,430.8860019999847,430.86932319999323,431.8693529999873,0,1,429.8860028999916,None,3,f,16,l,MS,2021_Aug_13_1215,WASABI Nback,2020.2.10,59.98026649567994,
0,1,3,"[0.2, 0.2]",1,0,1,1,1,,,,,0,0,0,0,0,20,20,20,,,,,,,,,,,None,None,0,431.8860059999861,None,431.8860059999861,432.8860097999859,432.8693454999884,433.8693561999826,0,1,431.8860059999861,None,3,f,16,l,MS,2021_Aug_13_1215,WASABI Nback,2020.2.10,59.98026649567994,
0,1,4,"[-0.2, 0]",None,0,1,1,1,,,,,0,0,0,0,0,21,21,21,,,,,,,,,,,None,None,0,433.88601819999167,None,433.88601819999167,434.8860323999834,434.8693684999889,435.86935910000466,0,1,433.88601819999167,None,3,f,16,l,MS,2021_Aug_13_1215,WASABI Nback,2020.2.10,59.98026649567994,
0,1,7,"[-0.2, -0.2]",None,0,1,1,1,,,,,0,0,0,0,0,22,22,22,,,,,,,,,,,None,None,0,435.88603150000563,None,435.88603150000563,436.8860577000014,436.86937959998613,437.8693592000054,0,1,435.88603150000563,None,3,f,16,l,MS,2021_Aug_13_1215,WASABI Nback,2020.2.10,59.98026649567994,
0,1,4,"[-0.2, 0]",1,0,1,1,1,,,,,0,0,0,0,0,23,23,23,,,,,,,,,,,None,None,0,437.8860178999894,None,437.8860178999894,438.88606920000166,438.8693951999885,439.8694007000013,0,1,437.8860178999894,None,3,f,16,l,MS,2021_Aug_13_1215,WASABI Nback,2020.2.10,59.98026649567994,
0,1,4,"[-0.2, 0]",None,0,1,1,1,,,,,0,0,0,0,0,24,24,24,,,,,,,,,,,None,None,0,439.8860591999837,None,439.8860591999837,440.88602710000123,440.8693847999966,441.8694201000035,0,1,439.8860591999837,None,3,f,16,l,MS,2021_Aug_13_1215,WASABI Nback,2020.2.10,59.98026649567994,
0,1,5,"[0, 0]",None,0,1,1,1,,,,,0,0,0,0,0,25,25,25,,,,,,,,,,,None,None,0,441.8860863999871,None,441.8860863999871,442.886079399992,442.8692882999894,443.8694477999816,0,1,441.8860863999871,None,3,f,16,l,MS,2021_Aug_13_1215,WASABI Nback,2020.2.10,59.98026649567994,
0,1,2,"[0, 0.2]",None,0,1,1,1,,,,,0,0,0,0,0,26,26,26,,,,,,,,,,,None,None,0,443.88611969997874,None,443.88611969997874,444.886096799979,444.86943649998284,445.869444299984,0,1,443.88611969997874,None,3,f,16,l,MS,2021_Aug_13_1215,WASABI Nback,2020.2.10,59.98026649567994,
0,1,6,"[0.2, 0]",None,0,1,1,1,,,,,0,0,0,0,0,27,27,27,,,,,,,,,,,None,None,0,445.88600219998625,None,445.88600219998625,446.8861173999903,446.86947059998056,447.86946570000146,0,1,445.88600219998625,None,3,f,16,l,MS,2021_Aug_13_1215,WASABI Nback,2020.2.10,59.98026649567994,
0,1,7,"[-0.2, -0.2]",None,0,1,1,1,,,,,0,0,0,0,0,28,28,28,,,,,,,,,,,None,None,0,447.8861140999943,None,447.8861140999943,448.886131199979,448.86947370000416,449.86946309998166,0,1,447.8861140999943,None,3,f,16,l,MS,2021_Aug_13_1215,WASABI Nback,2020.2.10,59.98026649567994,
0,1,6,"[0.2, 0]",1,0,1,1,1,,,,,0,0,0,0,0,29,29,29,,,,,,,,,,,None,None,0,449.88613860000623,None,449.88613860000623,450.8861391999817,450.86946779998834,451.86947370000416,0,1,449.88613860000623,None,3,f,16,l,MS,2021_Aug_13_1215,WASABI Nback,2020.2.10,59.98026649567994,
0,1,6,"[0.2, 0]",None,0,1,1,1,,,,,0,0,0,0,0,30,30,30,,,,,,,,,,,None,None,0,451.88616209998145,None,451.88616209998145,452.8861582999816,452.86950499998056,453.8694976999832,0,1,451.88616209998145,None,3,f,16,l,MS,2021_Aug_13_1215,WASABI Nback,2020.2.10,59.98026649567994,
0,1,7,"[-0.2, -0.2]",None,0,1,1,1,,,,,0,0,0,0,0,31,31,31,,,,,,,,,,,None,None,0,453.8861621999822,None,453.8861621999822,454.88617059998796,454.8695121000055,455.8695252999896,0,1,453.8861621999822,None,3,f,16,l,MS,2021_Aug_13_1215,WASABI Nback,2020.2.10,59.98026649567994,
0,1,6,"[0.2, 0]",1,0,1,1,1,,,,,0,0,0,0,0,32,32,32,,,,,,,,,,,None,None,0,455.8861803000036,None,455.8861803000036,456.88618249999126,456.8695061999897,457.8695366999891,0,0,455.8861803000036,None,3,f,16,l,MS,2021_Aug_13_1215,WASABI Nback,2020.2.10,59.98026649567994,
0,1,2,"[0, 0.2]",None,0,1,1,1,,,,,0,0,0,0,0,33,33,33,,,,,,,,,,,None,None,0,457.8861881000048,None,457.8861881000048,458.88621510000667,458.86957179999445,459.8695353999792,0,0,457.8861881000048,None,3,f,16,l,MS,2021_Aug_13_1215,WASABI Nback,2020.2.10,59.98026649567994,
0,1,5,"[0, 0]",None,0,1,1,1,,,,,0,0,0,0,0,34,34,34,,,,,,,,,,,None,None,0,459.8861124999821,None,459.8861124999821,460.88622260000557,460.8695780999842,461.8695734999783,0,1,459.8861124999821,None,3,f,16,l,MS,2021_Aug_13_1215,WASABI Nback,2020.2.10,59.98026649567994,
0,1,4,"[-0.2, 0]",None,0,1,1,1,,,,,0,0,0,0,0,35,35,35,,,,,,,,,,,None,None,0,461.8862276999862,None,461.8862276999862,462.8862489000021,462.86958139998023,463.86956789999385,0,1,461.8862276999862,None,3,f,16,l,MS,2021_Aug_13_1215,WASABI Nback,2020.2.10,59.98026649567994,
0,1,4,"[-0.2, 0]",None,0,1,1,1,,,,,0,0,0,0,0,36,36,36,,,,,,,,,,,None,None,0,463.88624589997926,None,463.88624589997926,464.8862555999949,464.8695856999839,465.8695892999822,0,1,463.88624589997926,None,3,f,16,l,MS,2021_Aug_13_1215,WASABI Nback,2020.2.10,59.98026649567994,
0,1,7,"[-0.2, -0.2]",None,0,1,1,1,,,,,0,0,0,0,0,37,37,37,,,,,,,,,,,None,None,0,465.88625079998747,None,465.88625079998747,466.8862556999957,466.8696108000004,467.8696197999816,0,1,465.88625079998747,None,3,f,16,l,MS,2021_Aug_13_1215,WASABI Nback,2020.2.10,59.98026649567994,
0,1,4,"[-0.2, 0]",1,0,1,1,1,,,,,0,0,0,0,0,38,38,38,,,,,,,,,,,None,None,0,467.88626480000676,None,467.88626480000676,468.88629699999,468.8696233999799,469.86962739998125,0,1,467.88626480000676,None,3,f,16,l,MS,2021_Aug_13_1215,WASABI Nback,2020.2.10,59.98026649567994,
0,1,3,"[0.2, 0.2]",None,0,1,1,1,,,,,0,0,0,0,0,39,39,39,,,,,,,,,,,None,None,0,469.8862872000027,None,469.8862872000027,470.88628679999965,470.86962539999513,471.8696029999992,0,1,469.8862872000027,None,3,f,16,l,MS,2021_Aug_13_1215,WASABI Nback,2020.2.10,59.98026649567994,
0,1,5,"[0, 0]",None,0,1,1,1,,,,,0,0,0,0,0,40,40,40,,,,,,,,,,,None,None,0,471.886293699994,None,471.886293699994,472.8863111999817,472.86965099998633,473.8696650000056,0,1,471.886293699994,None,3,f,16,l,MS,2021_Aug_13_1215,WASABI Nback,2020.2.10,59.98026649567994,
0,1,3,"[0.2, 0.2]",1,0,1,1,1,,,,,0,0,0,0,0,41,41,41,,,,,,,,,,,None,None,0,473.88629530000617,None,473.88629530000617,474.8863262999803,474.86966389999725,475.86966669998947,0,1,473.88629530000617,None,3,f,16,l,MS,2021_Aug_13_1215,WASABI Nback,2020.2.10,59.98026649567994,
0,1,1,"[-0.2, 0.2]",None,0,1,1,1,,,,,0,0,0,0,0,42,42,42,,,,,,,,,,,None,None,0,475.8862147000036,None,475.8862147000036,476.8863055999973,476.86968589999015,477.8696937999921,0,1,475.8862147000036,None,3,f,16,l,MS,2021_Aug_13_1215,WASABI Nback,2020.2.10,59.98026649567994,
0,1,9,"[0.2, -0.2]",None,0,1,1,1,,,,,0,0,0,0,0,43,43,43,,,,,,,,,,,None,None,0,477.88637089999975,None,477.88637089999975,478.88636289999704,478.86971379999886,479.8697070000053,0,1,477.88637089999975,None,3,f,16,l,MS,2021_Aug_13_1215,WASABI Nback,2020.2.10,59.98026649567994,
0,1,9,"[0.2, -0.2]",None,0,1,1,1,,,,,0,0,0,0,0,44,44,44,,,,,,,,,,,None,None,0,479.8863725999836,None,479.8863725999836,480.88636370000313,480.8697092999937,481.86971929998253,0,1,479.8863725999836,None,3,f,16,l,MS,2021_Aug_13_1215,WASABI Nback,2020.2.10,59.98026649567994,
0,1,8,"[0, -0.2]",None,0,1,1,1,,,,,0,0,0,0,0,45,45,45,,,,,,,,,,,None,None,0,481.8863890999928,None,481.8863890999928,482.8863793000055,482.86972369998693,483.86973069998203,0,1,481.8863890999928,None,3,f,16,l,MS,2021_Aug_13_1215,WASABI Nback,2020.2.10,59.98026649567994,
0,1,6,"[0.2, 0]",None,0,1,1,1,,,,,0,0,0,0,0,46,46,46,,,,,,,,,,,None,None,0,483.88639189998503,None,483.88639189998503,484.8864154999901,484.8697270999837,485.8697516999964,0,1,483.88639189998503,None,3,f,16,l,MS,2021_Aug_13_1215,WASABI Nback,2020.2.10,59.98026649567994,
0,1,3,"[0.2, 0.2]",None,0,1,1,1,,,,,0,0,0,0,0,47,47,47,,,,,,,,,,,None,None,0,485.8864095000026,None,485.8864095000026,486.88641099998495,486.869755599997,487.8696421000059,0,1,485.8864095000026,None,3,f,16,l,MS,2021_Aug_13_1215,WASABI Nback,2020.2.10,59.98026649567994,
0,1,6,"[0.2, 0]",1,0,1,1,1,,,,,0,0,0,0,0,48,48,48,,,,,,,,,,,None,None,0,487.88642439999967,None,487.88642439999967,488.8864423999912,488.86977930000285,489.86979709999287,0,1,487.88642439999967,None,3,f,16,l,MS,2021_Aug_13_1215,WASABI Nback,2020.2.10,59.98026649567994,
0,1,5,"[0, 0]",None,0,1,1,1,,,,,0,0,0,0,0,49,49,49,,,,,,,,,,,None,None,0,489.8864464999933,None,489.8864464999933,490.8864526999823,490.86977079999633,491.8698184999812,0,1,489.8864464999933,None,3,f,16,l,MS,2021_Aug_13_1215,WASABI Nback,2020.2.10,59.98026649567994,
0,1,7,"[-0.2, -0.2]",None,0,1,1,1,,,,,0,0,0,0,0,50,50,50,,,,,,,,,,,None,None,0,491.8864515000023,None,491.8864515000023,492.8864592000027,492.86980099999346,493.86982150000404,0,1,491.8864515000023,None,3,f,16,l,MS,2021_Aug_13_1215,WASABI Nback,2020.2.10,59.98026649567994,
0,1,5,"[0, 0]",1,0,1,1,1,,,,,0,0,0,0,0,51,51,51,,,,,,,,,,,None,None,0,493.8864765999897,None,493.8864765999897,494.8863533999829,494.86981239999295,495.86983489998966,0,1,493.8864765999897,None,3,f,16,l,MS,2021_Aug_13_1215,WASABI Nback,2020.2.10,59.98026649567994,
0,1,1,"[-0.2, 0.2]",None,0,1,1,1,,,,,0,0,0,0,0,52,52,52,,,,,,,,,,,None,None,0,495.8864923999936,None,495.8864923999936,496.8864949999843,496.8698350999912,497.8698429999931,0,1,495.8864923999936,None,3,f,16,l,MS,2021_Aug_13_1215,WASABI Nback,2020.2.10,59.98026649567994,
0,1,7,"[-0.2, -0.2]",None,0,1,1,1,,,,,0,0,0,0,0,53,53,53,,,,,,,,,,,None,None,0,497.88649119998445,None,497.88649119998445,498.8865037999931,498.8698489999806,499.869858399994,0,1,497.88649119998445,None,3,f,16,l,MS,2021_Aug_13_1215,WASABI Nback,2020.2.10,59.98026649567994,
0,1,9,"[0.2, -0.2]",None,0,1,1,1,,,,,0,0,0,0,0,54,54,54,,,,,,,,,,,None,None,0,499.8865072999906,None,499.8865072999906,500.8865120999981,500.8698614999885,501.8698720999819,0,1,499.8865072999906,None,3,f,16,l,MS,2021_Aug_13_1215,WASABI Nback,2020.2.10,59.98026649567994,
0,1,3,"[0.2, 0.2]",None,0,1,1,1,,,,,0,0,0,0,0,55,55,55,,,,,,,,,,,None,None,0,501.8865858000063,None,501.8865858000063,502.886525799986,502.8698456999846,503.8698611999862,0,1,501.8865858000063,None,3,f,16,l,MS,2021_Aug_13_1215,WASABI Nback,2020.2.10,59.98026649567994,
0,1,9,"[0.2, -0.2]",1,0,1,1,1,,,,,0,0,0,0,0,56,56,56,,,,,,,,,,,None,None,0,503.88653960000374,None,503.88653960000374,504.8865588000044,504.8698702999973,505.86990679998416,0,1,503.88653960000374,None,3,f,16,l,MS,2021_Aug_13_1215,WASABI Nback,2020.2.10,59.98026649567994,
0,1,6,"[0.2, 0]",None,0,1,1,1,,,,,0,0,0,0,0,57,57,57,,,,,,,,,,,None,None,0,505.88654499998665,None,505.88654499998665,506.8865703000047,506.8699107999855,507.86988769998425,0,1,505.88654499998665,None,3,f,16,l,MS,2021_Aug_13_1215,WASABI Nback,2020.2.10,59.98026649567994,
0,1,2,"[0, 0.2]",None,0,1,1,1,,,,,0,0,0,0,0,58,58,58,,,,,,,,,,,None,None,0,507.8865828999842,None,507.8865828999842,508.8865834999888,508.8698994999868,509.8698742999986,0,1,507.8865828999842,None,3,f,16,l,MS,2021_Aug_13_1215,WASABI Nback,2020.2.10,59.98026649567994,
0,1,5,"[0, 0]",None,0,1,1,1,,,,,0,0,0,0,0,59,59,59,,,,,,,,,,,None,None,0,509.88657579998835,None,509.88657579998835,510.88660249998793,510.86991539999144,511.8699301999877,0,1,509.88657579998835,None,3,f,16,l,MS,2021_Aug_13_1215,WASABI Nback,2020.2.10,59.98026649567994,
0,1,5,"[0, 0]",None,0,1,1,1,,,,,0,0,0,0,0,60,60,60,,,,,,,,,,,None,None,0,511.8866885000025,None,511.8866885000025,512.8866077999992,512.8699273999955,513.8699505999975,0,1,511.8866885000025,None,3,f,16,l,MS,2021_Aug_13_1215,WASABI Nback,2020.2.10,59.98026649567994,
0,1,2,"[0, 0.2]",None,0,1,1,1,,,,,0,0,0,0,0,61,61,61,,,,,,,,,,,None,None,0,513.8866166999796,None,513.8866166999796,514.8866114999983,514.8699446999817,515.8699570999888,0,1,513.8866166999796,None,3,f,16,l,MS,2021_Aug_13_1215,WASABI Nback,2020.2.10,59.98026649567994,
0,1,6,"[0.2, 0]",None,0,1,1,1,,,,,0,0,0,0,0,62,62,62,,,,,,,,,,,None,None,0,515.8866295999906,None,515.8866295999906,516.8866523999895,516.8699600999826,517.8699640999839,0,1,515.8866295999906,None,3,f,16,l,MS,2021_Aug_13_1215,WASABI Nback,2020.2.10,59.98026649567994,
0,1,9,"[0.2, -0.2]",None,0,1,1,1,,,,,0,0,0,0,0,63,63,63,,,,,,,,,,,None,None,0,517.8866417999961,None,517.8866417999961,518.8866653000005,518.8700101999857,519.869979799987,0,1,517.8866417999961,None,3,f,16,l,MS,2021_Aug_13_1215,WASABI Nback,2020.2.10,59.98026649567994,
0,1,3,"[0.2, 0.2]",None,0,1,1,1,,,,,0,0,0,0,0,64,64,64,,,,,,,,,,,None,None,0,519.8866648999974,None,519.8866648999974,520.8866558999871,520.8700024999853,521.8700642999902,0,1,519.8866648999974,None,3,f,16,l,MS,2021_Aug_13_1215,WASABI Nback,2020.2.10,59.98026649567994,
0,1,9,"[0.2, -0.2]",1,0,1,1,1,,,,,0,0,0,0,0,65,65,65,,,,,,,,,,,None,None,0,521.8866796999937,None,521.8866796999937,522.8866767,522.8700171999808,523.8700321999786,0,1,521.8866796999937,None,3,f,16,l,MS,2021_Aug_13_1215,WASABI Nback,2020.2.10,59.98026649567994,
0,1,7,"[-0.2, -0.2]",None,0,1,1,1,,,,,0,0,0,0,0,66,66,66,,,,,,,,,,,None,None,0,523.8866842999996,None,523.8866842999996,524.8866965000052,524.8700321999786,525.8700283999788,0,1,523.8866842999996,None,3,f,16,l,MS,2021_Aug_13_1215,WASABI Nback,2020.2.10,59.98026649567994,
0,1,1,"[-0.2, 0.2]",None,0,1,1,1,,,,,0,0,0,0,0,67,67,67,,,,,,,,,,,None,None,0,525.8867117000045,None,525.8867117000045,526.8867158999783,526.8700467000017,527.8700611999957,0,1,525.8867117000045,None,3,f,16,l,MS,2021_Aug_13_1215,WASABI Nback,2020.2.10,59.98026649567994,
0,1,5,"[0, 0]",None,0,1,1,1,,,,,0,0,0,0,0,68,68,68,,,,,,,,,,,None,None,0,527.8867496000021,None,527.8867496000021,528.886747099983,528.870042399998,529.8700751999859,0,1,527.8867496000021,None,3,f,16,l,MS,2021_Aug_13_1215,WASABI Nback,2020.2.10,59.98026649567994,
0,1,7,"[-0.2, -0.2]",None,0,1,1,1,,,,,0,0,0,0,0,69,69,69,,,,,,,,,,,None,None,0,529.8867439999885,None,529.8867439999885,530.8867483999929,530.8700844999985,531.8700810000009,0,0,529.8867439999885,None,3,f,16,l,MS,2021_Aug_13_1215,WASABI Nback,2020.2.10,59.98026649567994,
0,1,5,"[0, 0]",1,0,1,1,1,,,,,0,0,0,0,0,70,70,70,,,,,,,,,,,None,None,0,531.8867637999938,None,531.8867637999938,532.8867690000043,532.8700827999855,533.8701212999877,0,0,531.8867637999938,None,3,f,16,l,MS,2021_Aug_13_1215,WASABI Nback,2020.2.10,59.98026649567994,
0,1,6,"[0.2, 0]",None,0,1,1,1,,,,,0,0,0,0,0,71,71,71,,,,,,,,,,,None,None,0,533.8867703999858,None,533.8867703999858,534.8867891999835,534.8700911999913,535.8701228999998,0,1,533.8867703999858,None,3,f,16,l,MS,2021_Aug_13_1215,WASABI Nback,2020.2.10,59.98026649567994,
0,1,3,"[0.2, 0.2]",None,0,1,1,1,,,,,0,0,0,0,0,72,72,72,,,,,,,,,,,None,None,0,535.8867739999841,None,535.8867739999841,536.8867858999874,536.8701428000059,537.8700128000055,0,1,535.8867739999841,None,3,f,16,l,MS,2021_Aug_13_1215,WASABI Nback,2020.2.10,59.98026649567994,
0,1,6,"[0.2, 0]",1,0,1,1,1,,,,,0,0,0,0,0,73,73,73,,,,,,,,,,,None,None,0,537.8867833999975,None,537.8867833999975,538.8866846000019,538.8701383000007,539.8701287999866,0,1,537.8867833999975,None,3,f,16,l,MS,2021_Aug_13_1215,WASABI Nback,2020.2.10,59.98026649567994,
0,1,8,"[0, -0.2]",None,0,1,1,1,,,,,0,0,0,0,0,74,74,74,,,,,,,,,,,None,None,0,539.8868136999954,None,539.8868136999954,540.8868431999872,540.8701246999844,541.8701607999974,0,1,539.8868136999954,None,3,f,16,l,MS,2021_Aug_13_1215,WASABI Nback,2020.2.10,59.98026649567994,
0,1,9,"[0.2, -0.2]",None,0,1,1,1,,,,,0,0,0,0,0,75,75,75,,,,,,,,,,,None,None,0,541.8868339000037,None,541.8868339000037,542.8868496999785,542.8701565999945,543.8701434999821,0,1,541.8868339000037,None,3,f,16,l,MS,2021_Aug_13_1215,WASABI Nback,2020.2.10,59.98026649567994,
0,1,9,"[0.2, -0.2]",None,0,1,1,1,,,,,0,0,0,0,0,76,76,76,,,,,,,,,,,None,None,0,543.8868618999841,None,543.8868618999841,544.8868683000037,544.8701825999888,545.8701810000057,0,1,543.8868618999841,None,3,f,16,l,MS,2021_Aug_13_1215,WASABI Nback,2020.2.10,59.98026649567994,
0,1,1,"[-0.2, 0.2]",None,0,1,1,1,,,,,0,0,0,0,0,77,77,77,,,,,,,,,,,None,None,0,545.8868840999785,None,545.8868840999785,546.8868795000017,546.8702022999933,547.8701957000012,0,1,545.8868840999785,None,3,f,16,l,MS,2021_Aug_13_1215,WASABI Nback,2020.2.10,59.98026649567994,
0,1,3,"[0.2, 0.2]",None,0,1,1,1,,,,,0,0,0,0,0,78,78,78,,,,,,,,,,,None,None,0,547.8868969999894,None,547.8868969999894,548.8869766999851,548.8701931999822,549.8701722999976,0,1,547.8868969999894,None,3,f,16,l,MS,2021_Aug_13_1215,WASABI Nback,2020.2.10,59.98026649567994,
0,1,5,"[0, 0]",None,0,1,1,1,,,,,0,0,0,0,0,79,79,79,,,,,,,,,,,None,None,0,549.8868638999993,None,549.8868638999993,550.8869110999804,550.8702290999936,551.87018909998,0,1,549.8868638999993,None,3,f,16,l,MS,2021_Aug_13_1215,WASABI Nback,2020.2.10,59.98026649567994,
0,1,3,"[0.2, 0.2]",1,0,1,1,1,,,,,0,0,0,0,0,80,80,80,,,,,,,,,,,None,None,0,551.8868807999825,None,551.8868807999825,552.8869181000046,552.8702193000063,553.8702506999834,0,0,551.8868807999825,None,3,f,16,l,MS,2021_Aug_13_1215,WASABI Nback,2020.2.10,59.98026649567994,
0,1,4,"[-0.2, 0]",None,0,1,1,1,,,,,0,0,0,0,0,81,81,81,,,,,,,,,,,None,None,0,553.886940700002,None,553.886940700002,554.8869520000007,554.870246299979,555.8702809999813,0,1,553.886940700002,None,3,f,16,l,MS,2021_Aug_13_1215,WASABI Nback,2020.2.10,59.98026649567994,
0,1,7,"[-0.2, -0.2]",None,0,1,1,1,,,,,0,0,0,0,0,82,82,82,,,,,,,,,,,None,None,0,555.8869454999804,None,555.8869454999804,556.8869535999838,556.8702652000065,557.8702835000004,0,1,555.8869454999804,None,3,f,16,l,MS,2021_Aug_13_1215,WASABI Nback,2020.2.10,59.98026649567994,
0,1,4,"[-0.2, 0]",1,0,1,1,1,,,,,0,0,0,0,0,83,83,83,,,,,,,,,,,None,None,0,557.8869472999941,None,557.8869472999941,558.8869840999832,558.8702903999947,559.870276600006,0,1,557.8869472999941,None,3,f,16,l,MS,2021_Aug_13_1215,WASABI Nback,2020.2.10,59.98026649567994,
0,1,4,"[-0.2, 0]",None,0,1,1,1,,,,,0,0,0,0,0,84,84,84,,,,,,,,,,,None,None,0,559.8869902000006,None,559.8869902000006,560.8869930999936,560.8703091999923,561.8703172999958,0,1,559.8869902000006,None,3,f,16,l,MS,2021_Aug_13_1215,WASABI Nback,2020.2.10,59.98026649567994,
0,1,5,"[0, 0]",None,0,1,1,1,,,,,0,0,0,0,0,85,85,85,,,,,,,,,,,None,None,0,561.886997900001,None,561.886997900001,562.8870039999892,562.8702061999938,563.8702959999791,0,1,561.886997900001,None,3,f,16,l,MS,2021_Aug_13_1215,WASABI Nback,2020.2.10,59.98026649567994,
0,1,2,"[0, 0.2]",None,0,1,1,1,,,,,0,0,0,0,0,86,86,86,,,,,,,,,,,None,None,0,563.8869961999881,None,563.8869961999881,564.8870234999922,564.8703136999975,565.8703221000032,0,1,563.8869961999881,None,3,f,16,l,MS,2021_Aug_13_1215,WASABI Nback,2020.2.10,59.98026649567994,
0,1,6,"[0.2, 0]",None,0,1,1,1,,,,,0,0,0,0,0,87,87,87,,,,,,,,,,,None,None,0,565.8870314999949,None,565.8870314999949,566.8870266999875,566.870330899983,567.870359099994,0,1,565.8870314999949,None,3,f,16,l,MS,2021_Aug_13_1215,WASABI Nback,2020.2.10,59.98026649567994,
0,1,7,"[-0.2, -0.2]",None,0,1,1,1,,,,,0,0,0,0,0,88,88,88,,,,,,,,,,,None,None,0,567.887040200003,None,567.887040200003,568.8870121999935,568.8703261000046,569.8703414000047,0,1,567.887040200003,None,3,f,16,l,MS,2021_Aug_13_1215,WASABI Nback,2020.2.10,59.98026649567994,
0,1,6,"[0.2, 0]",1,0,1,1,1,,,,,0,0,0,0,0,89,89,89,,,,,,,,,,,None,None,0,569.8869956999843,None,569.8869956999843,570.8870669000025,570.8702237999823,571.870385599992,0,1,569.8869956999843,None,3,f,16,l,MS,2021_Aug_13_1215,WASABI Nback,2020.2.10,59.98026649567994,
0,1,6,"[0.2, 0]",None,0,1,1,1,,,,,0,0,0,0,0,90,90,90,,,,,,,,,,,None,None,0,571.8870605999837,None,571.8870605999837,572.8870547999977,572.8703900999972,573.8703830000013,0,1,571.8870605999837,None,3,f,16,l,MS,2021_Aug_13_1215,WASABI Nback,2020.2.10,59.98026649567994,
0,1,7,"[-0.2, -0.2]",None,0,1,1,1,,,,,0,0,0,0,0,91,91,91,,,,,,,,,,,None,None,0,573.88693529999,None,573.88693529999,574.8870685999864,574.8703880999819,575.8703928999894,0,1,573.88693529999,None,3,f,16,l,MS,2021_Aug_13_1215,WASABI Nback,2020.2.10,59.98026649567994,
0,1,6,"[0.2, 0]",1,0,1,1,1,,,,,0,0,0,0,0,92,92,92,,,,,,,,,,,None,None,0,575.8870701999986,None,575.8870701999986,576.8871193999948,576.870391799981,577.8704418999841,0,1,575.8870701999986,None,3,f,16,l,MS,2021_Aug_13_1215,WASABI Nback,2020.2.10,59.98026649567994,
0,1,2,"[0, 0.2]",None,0,1,1,1,,,,,0,0,0,0,0,93,93,93,,,,,,,,,,,None,None,0,577.8871070999885,None,577.8871070999885,578.8871157999965,578.8704285999993,579.8704349999898,0,1,577.8871070999885,None,3,f,16,l,MS,2021_Aug_13_1215,WASABI Nback,2020.2.10,59.98026649567994,
0,1,5,"[0, 0]",None,0,1,1,1,,,,,0,0,0,0,0,94,94,94,,,,,,,,,,,None,None,0,579.887131800002,None,579.887131800002,580.8871280000021,580.870434099983,581.8704583999934,0,1,579.887131800002,None,3,f,16,l,MS,2021_Aug_13_1215,WASABI Nback,2020.2.10,59.98026649567994,
0,1,4,"[-0.2, 0]",None,0,1,1,1,,,,,0,0,0,0,0,95,95,95,,,,,,,,,,,None,None,0,581.8871407999832,None,581.8871407999832,582.887149599992,582.8704702999967,583.8704755999788,0,1,581.8871407999832,None,3,f,16,l,MS,2021_Aug_13_1215,WASABI Nback,2020.2.10,59.98026649567994,
0,1,4,"[-0.2, 0]",None,0,1,1,1,,,,,0,0,0,0,0,96,96,96,,,,,,,,,,,None,None,0,583.8871632999799,None,583.8871632999799,584.887166200002,584.8704882999882,585.8704861000006,0,1,583.8871632999799,None,3,f,16,l,MS,2021_Aug_13_1215,WASABI Nback,2020.2.10,59.98026649567994,
0,1,7,"[-0.2, -0.2]",None,0,1,1,1,,,,,0,0,0,0,0,97,97,97,,,,,,,,,,,None,None,0,585.8871432000014,None,585.8871432000014,586.887069199991,586.8704964999924,587.870485099993,0,1,585.8871432000014,None,3,f,16,l,MS,2021_Aug_13_1215,WASABI Nback,2020.2.10,59.98026649567994,
0,1,4,"[-0.2, 0]",1,0,1,1,1,,,,,0,0,0,0,0,98,98,98,,,,,,,,,,,None,None,0,587.8871552000055,None,587.8871552000055,588.8871672999812,588.8705141999817,589.8705218999821,0,1,587.8871552000055,None,3,f,16,l,MS,2021_Aug_13_1215,WASABI Nback,2020.2.10,59.98026649567994,
0,1,3,"[0.2, 0.2]",None,0,1,1,1,,,,,0,0,0,0,0,99,99,99,,,,,,,,,,,None,None,0,589.8871745999786,None,589.8871745999786,590.8871845999965,590.8705454999872,591.8705132000032,0,1,589.8871745999786,None,3,f,16,l,MS,2021_Aug_13_1215,WASABI Nback,2020.2.10,59.98026649567994,
0,1,5,"[0, 0]",None,0,1,1,1,,,,,0,0,0,0,0,100,100,100,,,,,,,,,,,None,None,0,591.8871776000015,None,591.8871776000015,592.8871664000035,592.8705328999786,593.8705594000057,0,1,591.8871776000015,None,3,f,16,l,MS,2021_Aug_13_1215,WASABI Nback,2020.2.10,59.98026649567994,
0,1,3,"[0.2, 0.2]",1,0,1,1,1,,,,,0,0,0,0,0,101,101,101,,,,,,,,,,,None,None,0,593.8871681999881,None,593.8871681999881,594.8872117999999,594.8705648999894,595.8705772999965,0,1,593.8871681999881,None,3,f,16,l,MS,2021_Aug_13_1215,WASABI Nback,2020.2.10,59.98026649567994,
0,1,1,"[-0.2, 0.2]",None,0,1,1,1,,,,,0,0,0,0,0,102,102,102,,,,,,,,,,,None,None,0,595.8872342999966,None,595.8872342999966,596.8872630999831,596.8705666000023,597.8705809999956,0,1,595.8872342999966,None,3,f,16,l,MS,2021_Aug_13_1215,WASABI Nback,2020.2.10,59.98026649567994,
0,1,9,"[0.2, -0.2]",None,0,1,1,1,,,,,0,0,0,0,0,103,103,103,,,,,,,,,,,None,None,0,597.8872774000047,None,597.8872774000047,598.8872688999982,598.8705879999907,599.870591999992,0,1,597.8872774000047,None,3,f,16,l,MS,2021_Aug_13_1215,WASABI Nback,2020.2.10,59.98026649567994,
0,1,9,"[0.2, -0.2]",None,0,1,1,1,,,,,0,0,0,0,0,104,104,104,,,,,,,,,,,None,None,0,599.8872877999966,None,599.8872877999966,600.8872569999949,600.870606499986,601.8706123000011,0,1,599.8872877999966,None,3,f,16,l,MS,2021_Aug_13_1215,WASABI Nback,2020.2.10,59.98026649567994,
0,1,8,"[0, -0.2]",None,0,1,1,1,,,,,0,0,0,0,0,105,105,105,,,,,,,,,,,None,None,0,601.8872667999822,None,601.8872667999822,602.8872790999885,602.8706216999853,603.8706213999831,0,1,601.8872667999822,None,3,f,16,l,MS,2021_Aug_13_1215,WASABI Nback,2020.2.10,59.98026649567994,
0,1,6,"[0.2, 0]",None,0,1,1,1,,,,,0,0,0,0,0,106,106,106,,,,,,,,,,,None,None,0,603.8872778999794,None,603.8872778999794,604.8872921000002,604.8706392000022,605.8706248999806,0,1,603.8872778999794,None,3,f,16,l,MS,2021_Aug_13_1215,WASABI Nback,2020.2.10,59.98026649567994,
0,1,3,"[0.2, 0.2]",None,0,1,1,1,,,,,0,0,0,0,0,107,107,107,,,,,,,,,,,None,None,0,605.887299199996,None,605.887299199996,606.8873173999891,606.870649199991,607.8706532999931,0,1,605.887299199996,None,3,f,16,l,MS,2021_Aug_13_1215,WASABI Nback,2020.2.10,59.98026649567994,
0,1,6,"[0.2, 0]",1,0,1,1,1,,,,,0,0,0,0,0,108,108,108,,,,,,,,,,,None,None,0,607.8873278999818,None,607.8873278999818,608.8873238999804,608.870666999981,609.8706497999956,0,1,607.8873278999818,None,3,f,16,l,MS,2021_Aug_13_1215,WASABI Nback,2020.2.10,59.98026649567994,
0,1,5,"[0, 0]",None,0,1,1,1,,,,,0,0,0,0,0,109,109,109,,,,,,,,,,,None,None,0,609.887321599992,None,609.887321599992,610.8873464000062,610.8706725999946,611.8706917999953,0,1,609.887321599992,None,3,f,16,l,MS,2021_Aug_13_1215,WASABI Nback,2020.2.10,59.98026649567994,
0,1,7,"[-0.2, -0.2]",None,0,1,1,1,,,,,0,0,0,0,0,110,110,110,,,,,,,,,,,None,None,0,611.8873405999911,None,611.8873405999911,612.8873442999902,612.8706917999953,613.8706839999941,0,1,611.8873405999911,None,3,f,16,l,MS,2021_Aug_13_1215,WASABI Nback,2020.2.10,59.98026649567994,
0,1,5,"[0, 0]",1,0,1,1,1,,,,,0,0,0,0,0,111,111,111,,,,,,,,,,,None,None,0,613.8873586999835,None,613.8873586999835,614.8873660999816,614.8707119000028,615.8705941999797,0,1,613.8873586999835,None,3,f,16,l,MS,2021_Aug_13_1215,WASABI Nback,2020.2.10,59.98026649567994,
0,1,1,"[-0.2, 0.2]",None,0,1,1,1,,,,,0,0,0,0,0,112,112,112,,,,,,,,,,,None,None,0,615.8873688000022,None,615.8873688000022,616.8873821999878,616.8707275000052,617.8707329999888,0,1,615.8873688000022,None,3,f,16,l,MS,2021_Aug_13_1215,WASABI Nback,2020.2.10,59.98026649567994,
0,1,7,"[-0.2, -0.2]",None,0,1,1,1,,,,,0,0,0,0,0,113,113,113,,,,,,,,,,,None,None,0,617.8873872999975,None,617.8873872999975,618.8874108000018,618.8707380999986,619.8707474999828,0,1,617.8873872999975,None,3,f,16,l,MS,2021_Aug_13_1215,WASABI Nback,2020.2.10,59.98026649567994,
0,1,9,"[0.2, -0.2]",None,0,1,1,1,,,,,0,0,0,0,0,114,114,114,,,,,,,,,,,None,None,0,619.887404499983,None,619.887404499983,620.8874101999972,620.8707605999953,621.8707693000033,0,1,619.887404499983,None,3,f,16,l,MS,2021_Aug_13_1215,WASABI Nback,2020.2.10,59.98026649567994,
0,1,3,"[0.2, 0.2]",None,0,1,1,1,,,,,0,0,0,0,0,115,115,115,,,,,,,,,,,None,None,0,621.8874268999789,None,621.8874268999789,622.8873316999816,622.8707513999834,623.8707775999792,0,1,621.8874268999789,None,3,f,16,l,MS,2021_Aug_13_1215,WASABI Nback,2020.2.10,59.98026649567994,
0,1,9,"[0.2, -0.2]",1,0,1,1,1,,,,,0,0,0,0,0,116,116,116,,,,,,,,,,,None,None,0,623.8874439999927,None,623.8874439999927,624.8874551999907,624.8708050999849,625.8707873999956,0,1,623.8874439999927,None,3,f,16,l,MS,2021_Aug_13_1215,WASABI Nback,2020.2.10,59.98026649567994,
0,1,6,"[0.2, 0]",None,0,1,1,1,,,,,0,0,0,0,0,117,117,117,,,,,,,,,,,None,None,0,625.8874217999983,None,625.8874217999983,626.8874431999866,626.8708036000025,627.8707991999981,0,1,625.8874217999983,None,3,f,16,l,MS,2021_Aug_13_1215,WASABI Nback,2020.2.10,59.98026649567994,
0,1,2,"[0, 0.2]",None,0,1,1,1,,,,,0,0,0,0,0,118,118,118,,,,,,,,,,,None,None,0,627.8874570000044,None,627.8874570000044,628.8874337000016,628.8708081999794,629.8707953999983,0,1,627.8874570000044,None,3,f,16,l,MS,2021_Aug_13_1215,WASABI Nback,2020.2.10,59.98026649567994,
0,1,5,"[0, 0]",None,0,1,1,1,,,,,0,0,0,0,0,119,119,119,,,,,,,,,,,None,None,0,629.8874572000059,None,629.8874572000059,630.8875024000008,630.8708252999932,631.8708299999998,0,1,629.8874572000059,None,3,f,16,l,MS,2021_Aug_13_1215,WASABI Nback,2020.2.10,59.98026649567994,
