square,location,corrAns,trials_2.thisRepN,trials_2.thisTrialN,trials_2.thisN,trials_2.thisIndex,fixation_1.started,fixation_1.stopped,response_2.x,response_2.y,response_2.leftButton,grid_lines_2.started,grid_lines_2.stopped,target_square_2.started,target_square_2.stopped,fixation_3.started,fixation_3.stopped,response_2.click,response_2.corr,response_2.started,response_2.stopped,ScoreReportText.started,ScoreReportText.stopped,ScoreReportResponse.keys,ScoreReportResponse.started,ScoreReportResponse.stopped,BodySiteInstructionText.started,BodySiteImg.started,BodySiteImg.stopped,BodySiteInstructionRead.keys,BodySiteInstructionRead.rt,BodySiteInstructionRead.started,BodySiteInstructionRead.stopped,fixation_rest.started,fixation_rest.stopped,IntensityRating.response,IntensityRating.rt,IntensityRating.started,IntensityRating.stopped,subject number,gender,distractMap first- or second-half (1 or 2),session,handedness,scanner,bodysite1 temp,bodysite2 temp,date,psychopyVersion,expName,frameRate,body_site_order,
6,"[0.2, 0]",None,0,0,0,0,93.05184770002961,None,None,None,"[0, 0, 0]",94.08517249999568,None,94.08517249999568,95.0851968000643,95.06851650006138,None,"[0, 0, 0]",1,94.08517249999568,None,,,,,,,,,,,,,,,,,,,1,M,3.2,42,r,,49,49,2022_Jul_05_1101,2020.2.10,distractmap,59.977640360920795,"['Left Leg', 'Left Face', 'Left Leg', 'Left Face']",
7,"[-0.2, -0.2]",None,0,1,1,1,,,None,None,"[0, 0, 0]",96.06853280006908,98.06854090001434,96.06853280006908,97.06853849999607,97.05189049988985,98.05189860006794,"[0, 0, 0]",1,96.06853280006908,98.06854090001434,,,,,,,,,,,,,,,,,,,1,M,3.2,42,r,,49,49,2022_Jul_05_1101,2020.2.10,distractmap,59.977640360920795,"['Left Leg', 'Left Face', 'Left Leg', 'Left Face']",
6,"[0.2, 0]",1,0,2,2,2,,,None,None,"[0, 0, 0]",98.08523329999298,100.08523950004019,98.08523329999298,99.0852049998939,99.06855929992162,100.06855369987898,"[0, 0, 0]",1,98.08523329999298,100.08523950004019,,,,,,,,,,,,,,,,,,,1,M,3.2,42,r,,49,49,2022_Jul_05_1101,2020.2.10,distractmap,59.977640360920795,"['Left Leg', 'Left Face', 'Left Leg', 'Left Face']",
2,"[0, 0.2]",0,0,3,3,3,,,None,None,"[0, 0, 0]",100.10193879995495,102.10193939995952,100.10193879995495,101.10194019996561,101.08526289998554,102.08523879991844,"[0, 0, 0]",1,100.10193879995495,102.10193939995952,,,,,,,,,,,,,,,,,,,1,M,3.2,42,r,,49,49,2022_Jul_05_1101,2020.2.10,distractmap,59.977640360920795,"['Left Leg', 'Left Face', 'Left Leg', 'Left Face']",
5,"[0, 0]",0,0,4,4,4,,,None,None,"[0, 0, 0]",102.11856890004128,104.11860059993342,102.11856890004128,103.11859049997292,103.10194449988194,104.1019569998607,"[0, 0, 0]",1,102.11856890004128,104.11860059993342,,,,,,,,,,,,,,,,,,,1,M,3.2,42,r,,49,49,2022_Jul_05_1101,2020.2.10,distractmap,59.977640360920795,"['Left Leg', 'Left Face', 'Left Leg', 'Left Face']",
4,"[-0.2, 0]",0,0,5,5,5,,,None,None,"[0, 0, 0]",104.13526390003972,106.13531009992585,104.13526390003972,105.13519449997693,105.11860679998063,106.11861929995939,"[0, 0, 0]",1,104.13526390003972,106.13531009992585,,,,,,,,,,,,,,,,,,,1,M,3.2,42,r,,49,49,2022_Jul_05_1101,2020.2.10,distractmap,59.977640360920795,"['Left Leg', 'Left Face', 'Left Leg', 'Left Face']",
4,"[-0.2, 0]",0,0,6,6,6,,,None,None,"[0, 0, 0]",106.15194689994678,108.1519712000154,106.15194689994678,107.15196709986776,107.13529619993642,108.13529350003228,"[0, 0, 0]",1,106.15194689994678,108.1519712000154,,,,,,,,,,,,,,,,,,,1,M,3.2,42,r,,49,49,2022_Jul_05_1101,2020.2.10,distractmap,59.977640360920795,"['Left Leg', 'Left Face', 'Left Leg', 'Left Face']",
7,"[-0.2, -0.2]",0,0,7,7,7,,,None,None,"[0, 0, 0]",108.16863809991628,110.168650199892,108.16863809991628,109.16863640001975,109.15197889995761,110.15197569993325,"[0, 0, 0]",1,108.16863809991628,110.168650199892,,,,,,,,,,,,,,,,,,,1,M,3.2,42,r,,49,49,2022_Jul_05_1101,2020.2.10,distractmap,59.977640360920795,"['Left Leg', 'Left Face', 'Left Leg', 'Left Face']",
4,"[-0.2, 0]",1,0,8,8,8,,,None,None,"[0, 0, 0]",110.18521529994905,112.1853324000258,110.18521529994905,111.18532809987664,111.16865850007161,112.16866849991493,"[0, 0, 0]",1,110.18521529994905,112.1853324000258,,,,,,,,,,,,,,,,,,,1,M,3.2,42,r,,49,49,2022_Jul_05_1101,2020.2.10,distractmap,59.977640360920795,"['Left Leg', 'Left Face', 'Left Leg', 'Left Face']",
3,"[0.2, 0.2]",0,0,9,9,9,,,None,None,"[0, 0, 0]",112.20200380007736,114.20202869991772,112.20200380007736,113.20200939988717,113.18533129990101,114.18534309999086,"[0, 0, 0]",1,112.20200380007736,114.20202869991772,,,,,,,,,,,,,,,,,,,1,M,3.2,42,r,,49,49,2022_Jul_05_1101,2020.2.10,distractmap,59.977640360920795,"['Left Leg', 'Left Face', 'Left Leg', 'Left Face']",
5,"[0, 0]",0,0,10,10,10,,,None,None,"[0, 0, 0]",114.21869000000879,116.2186918000225,114.21869000000879,115.21868980000727,115.2020125000272,116.20202729990706,"[0, 0, 0]",1,114.21869000000879,116.2186918000225,,,,,,,,,,,,,,,,,,,1,M,3.2,42,r,,49,49,2022_Jul_05_1101,2020.2.10,distractmap,59.977640360920795,"['Left Leg', 'Left Face', 'Left Leg', 'Left Face']",
3,"[0.2, 0.2]",1,0,11,11,11,,,None,None,"[0, 0, 0]",116.23534479993396,118.23537990008481,116.23534479993396,117.23536189994775,117.2187133000698,118.21871259994805,"[0, 0, 0]",0,116.23534479993396,118.23537990008481,,,,,,,,,,,,,,,,,,,1,M,3.2,42,r,,49,49,2022_Jul_05_1101,2020.2.10,distractmap,59.977640360920795,"['Left Leg', 'Left Face', 'Left Leg', 'Left Face']",
1,"[-0.2, 0.2]",0,0,12,12,12,,,None,None,"[0, 0, 0]",118.2520627998747,120.25204799999483,118.2520627998747,119.25206650001928,119.23538640001789,120.2354182000272,"[0, 0, 0]",0,118.2520627998747,120.25204799999483,,,,,,,,,,,,,,,,,,,1,M,3.2,42,r,,49,49,2022_Jul_05_1101,2020.2.10,distractmap,59.977640360920795,"['Left Leg', 'Left Face', 'Left Leg', 'Left Face']",
9,"[0.2, -0.2]",0,0,13,13,13,,,None,None,"[0, 0, 0]",120.26872970000841,122.26874889992177,120.26872970000841,121.26873399992473,121.25212419987656,122.25207729986869,"[0, 0, 0]",1,120.26872970000841,122.26874889992177,,,,,,,,,,,,,,,,,,,1,M,3.2,42,r,,49,49,2022_Jul_05_1101,2020.2.10,distractmap,59.977640360920795,"['Left Leg', 'Left Face', 'Left Leg', 'Left Face']",
9,"[0.2, -0.2]",0,0,14,14,14,,,None,None,"[0, 0, 0]",122.28536559990607,124.28544789995067,122.28536559990607,123.28542000008747,123.26875739987008,124.26876470004208,"[0, 0, 0]",1,122.28536559990607,124.28544789995067,,,,,,,,,,,,,,,,,,,1,M,3.2,42,r,,49,49,2022_Jul_05_1101,2020.2.10,distractmap,59.977640360920795,"['Left Leg', 'Left Face', 'Left Leg', 'Left Face']",
8,"[0, -0.2]",0,0,15,15,15,,,None,None,"[0, 0, 0]",124.30210159998387,126.30215790006332,124.30210159998387,125.30211129994132,125.28547240002081,126.28544020000845,"[0, 0, 0]",1,124.30210159998387,126.30215790006332,,,,,,,,,,,,,,,,,,,1,M,3.2,42,r,,49,49,2022_Jul_05_1101,2020.2.10,distractmap,59.977640360920795,"['Left Leg', 'Left Face', 'Left Leg', 'Left Face']",
6,"[0.2, 0]",0,0,16,16,16,,,None,None,"[0, 0, 0]",126.31880429992452,128.31880109990016,126.31880429992452,127.31880209990777,127.3021180999931,128.30213299999014,"[0, 0, 0]",1,126.31880429992452,128.31880109990016,,,,,,,,,,,,,,,,,,,1,M,3.2,42,r,,49,49,2022_Jul_05_1101,2020.2.10,distractmap,59.977640360920795,"['Left Leg', 'Left Face', 'Left Leg', 'Left Face']",
3,"[0.2, 0.2]",0,0,17,17,17,,,None,None,"[0, 0, 0]",128.33544970001094,130.33547689998522,128.33544970001094,129.33546159998514,129.3188262998592,130.31883249990642,"[0, 0, 0]",1,128.33544970001094,130.33547689998522,,,,,,,,,,,,,,,,,,,1,M,3.2,42,r,,49,49,2022_Jul_05_1101,2020.2.10,distractmap,59.977640360920795,"['Left Leg', 'Left Face', 'Left Leg', 'Left Face']",
6,"[0.2, 0]",1,0,18,18,18,,,None,None,"[0, 0, 0]",130.35215920000337,132.3521575999912,130.35215920000337,131.35215929988772,131.33547240006737,132.33548279991373,"[0, 0, 0]",0,130.35215920000337,132.3521575999912,,,,,,,,,,,,,,,,,,,1,M,3.2,42,r,,49,49,2022_Jul_05_1101,2020.2.10,distractmap,59.977640360920795,"['Left Leg', 'Left Face', 'Left Leg', 'Left Face']",
5,"[0, 0]",0,0,19,19,19,,,None,None,"[0, 0, 0]",132.36883890000172,134.36885869991966,132.36883890000172,133.3688383998815,133.3521585999988,134.35218889988028,"[0, 0, 0]",1,132.36883890000172,134.36885869991966,,,,,,,,,,,,,,,,,,,1,M,3.2,42,r,,49,49,2022_Jul_05_1101,2020.2.10,distractmap,59.977640360920795,"['Left Leg', 'Left Face', 'Left Leg', 'Left Face']",
7,"[-0.2, -0.2]",0,0,20,20,20,,,None,None,"[0, 0, 0]",134.38551270007156,136.3855264999438,134.38551270007156,135.38551039993763,135.36885820003226,136.36886440007947,"[0, 0, 0]",1,134.38551270007156,136.3855264999438,,,,,,,,,,,,,,,,,,,1,M,3.2,42,r,,49,49,2022_Jul_05_1101,2020.2.10,distractmap,59.977640360920795,"['Left Leg', 'Left Face', 'Left Leg', 'Left Face']",
5,"[0, 0]",1,0,21,21,21,,,None,None,"[0, 0, 0]",136.40222829999402,138.40221319999546,136.40222829999402,137.4022198000457,137.38553490000777,138.38553079986013,"[0, 0, 0]",0,136.40222829999402,138.40221319999546,,,,,,,,,,,,,,,,,,,1,M,3.2,42,r,,49,49,2022_Jul_05_1101,2020.2.10,distractmap,59.977640360920795,"['Left Leg', 'Left Face', 'Left Leg', 'Left Face']",
1,"[-0.2, 0.2]",0,0,22,22,22,,,None,None,"[0, 0, 0]",138.4188907998614,140.4188925998751,138.4188907998614,139.41890519997105,139.40220979996957,140.40222200006247,"[0, 0, 0]",1,138.4188907998614,140.4188925998751,,,,,,,,,,,,,,,,,,,1,M,3.2,42,r,,49,49,2022_Jul_05_1101,2020.2.10,distractmap,59.977640360920795,"['Left Leg', 'Left Face', 'Left Leg', 'Left Face']",
7,"[-0.2, -0.2]",0,0,23,23,23,,,None,None,"[0, 0, 0]",140.43554509989917,142.4355726998765,140.43554509989917,141.43556839996018,141.41893939999864,142.41891160001978,"[0, 0, 0]",1,140.43554509989917,142.4355726998765,,,,,,,,,,,,,,,,,,,1,M,3.2,42,r,,49,49,2022_Jul_05_1101,2020.2.10,distractmap,59.977640360920795,"['Left Leg', 'Left Face', 'Left Leg', 'Left Face']",
9,"[0.2, -0.2]",0,0,24,24,24,,,None,None,"[0, 0, 0]",142.45209929998964,144.45224680006504,142.45209929998964,143.45224109990522,143.43557849992067,144.43560980004258,"[0, 0, 0]",1,142.45209929998964,144.45224680006504,,,,,,,,,,,,,,,,,,,1,M,3.2,42,r,,49,49,2022_Jul_05_1101,2020.2.10,distractmap,59.977640360920795,"['Left Leg', 'Left Face', 'Left Leg', 'Left Face']",
3,"[0.2, 0.2]",0,0,25,25,25,,,None,None,"[0, 0, 0]",144.46895159990527,146.46897719986737,144.46895159990527,145.46897859987803,145.45226050005294,146.4522720000241,"[0, 0, 0]",1,144.46895159990527,146.46897719986737,,,,,,,,,,,,,,,,,,,1,M,3.2,42,r,,49,49,2022_Jul_05_1101,2020.2.10,distractmap,59.977640360920795,"['Left Leg', 'Left Face', 'Left Leg', 'Left Face']",
9,"[0.2, -0.2]",1,0,26,26,26,,,None,None,"[0, 0, 0]",146.4856076000724,148.48562569986098,146.4856076000724,147.48560009989887,147.4689473998733,148.4689778999891,"[0, 0, 0]",0,146.4856076000724,148.48562569986098,,,,,,,,,,,,,,,,,,,1,M,3.2,42,r,,49,49,2022_Jul_05_1101,2020.2.10,distractmap,59.977640360920795,"['Left Leg', 'Left Face', 'Left Leg', 'Left Face']",
6,"[0.2, 0]",0,0,27,27,27,,,None,None,"[0, 0, 0]",148.502285100054,150.5023095998913,148.502285100054,149.502292299876,149.48562709987164,150.48563149990514,"[0, 0, 0]",1,148.502285100054,150.5023095998913,,,,,,,,,,,,,,,,,,,1,M,3.2,42,r,,49,49,2022_Jul_05_1101,2020.2.10,distractmap,59.977640360920795,"['Left Leg', 'Left Face', 'Left Leg', 'Left Face']",
2,"[0, 0.2]",0,0,28,28,28,,,None,None,"[0, 0, 0]",150.5189684999641,152.51897189999,150.5189684999641,151.51896640006453,151.5023147999309,152.50230719987303,"[0, 0, 0]",1,150.5189684999641,152.51897189999,,,,,,,,,,,,,,,,,,,1,M,3.2,42,r,,49,49,2022_Jul_05_1101,2020.2.10,distractmap,59.977640360920795,"['Left Leg', 'Left Face', 'Left Leg', 'Left Face']",
5,"[0, 0]",0,0,29,29,29,,,None,None,"[0, 0, 0]",152.5356425999198,154.53564770007506,152.5356425999198,153.5356626000721,153.51899469993077,154.51899760006927,"[0, 0, 0]",1,152.5356425999198,154.53564770007506,,,,,,,,,,,,,,,,,,,1,M,3.2,42,r,,49,49,2022_Jul_05_1101,2020.2.10,distractmap,59.977640360920795,"['Left Leg', 'Left Face', 'Left Leg', 'Left Face']",
,,,,,,,,,,,,,,,,,,,,,,154.56900419993326,None,space,154.56900419993326,None,,,,,,,,,,,,,,1,M,3.2,42,r,,49,49,2022_Jul_05_1101,2020.2.10,distractmap,59.977640360920795,"['Left Leg', 'Left Face', 'Left Leg', 'Left Face']",
3,"[0.2, 0.2]",None,0,0,0,0,414.6212075999938,None,None,None,"[0, 0, 0]",417.25450839987025,None,417.25450839987025,418.2544964000117,418.23784309998155,419.23785399994813,"[0, 0, 0]",1,417.25450839987025,None,,,,,,185.43619269994088,185.43619269994088,None,space,114.99277739995159,185.43619269994088,None,382.17088109999895,None,,,,,1,M,3.2,42,r,,49,49,2022_Jul_05_1101,2020.2.10,distractmap,59.977640360920795,"['Left Leg', 'Left Face', 'Left Leg', 'Left Face']",
3,"[0.2, 0.2]",None,0,1,1,1,,,None,None,"[0, 0, 0]",419.2545173999388,421.25452289986424,419.2545173999388,420.2545213000849,420.2378700999543,421.2378741998691,"[0, 0, 0]",1,419.2545173999388,421.25452289986424,,,,,,,,,,,,,,,,,,,1,M,3.2,42,r,,49,49,2022_Jul_05_1101,2020.2.10,distractmap,59.977640360920795,"['Left Leg', 'Left Face', 'Left Leg', 'Left Face']",
5,"[0, 0]",0,0,2,2,2,,,None,None,"[0, 0, 0]",421.271177199902,423.27120739989914,421.271177199902,422.271194800036,422.2545322999358,423.2545217999723,"[0, 0, 0]",1,421.271177199902,423.27120739989914,,,,,,,,,,,,,,,,,,,1,M,3.2,42,r,,49,49,2022_Jul_05_1101,2020.2.10,distractmap,59.977640360920795,"['Left Leg', 'Left Face', 'Left Leg', 'Left Face']",
1,"[-0.2, 0.2]",0,0,3,3,3,,,None,None,"[0, 0, 0]",423.2878789000679,425.2879113999661,423.2878789000679,424.28787850006483,424.27121639996767,425.27121210005134,"[0, 0, 0]",1,423.2878789000679,425.2879113999661,,,,,,,,,,,,,,,,,,,1,M,3.2,42,r,,49,49,2022_Jul_05_1101,2020.2.10,distractmap,59.977640360920795,"['Left Leg', 'Left Face', 'Left Leg', 'Left Face']",
5,"[0, 0]",1,0,4,4,4,,,None,None,"[0, 0, 0]",425.37147090001963,None,425.37147090001963,426.37122659990564,426.3545653000474,None,"[0, 0, 0]",1,425.37147090001963,None,,,,,,,,,,,,,,,,,,,1,M,3.2,42,r,,49,49,2022_Jul_05_1101,2020.2.10,distractmap,59.977640360920795,"['Left Leg', 'Left Face', 'Left Leg', 'Left Face']",
8,"[0, -0.2]",0,0,5,5,5,,,None,None,"[0, 0, 0]",427.32123699993826,429.32126470003277,427.32123699993826,428.32123419991694,428.304607699858,429.30452020000666,"[0, 0, 0]",1,427.32123699993826,429.32126470003277,,,,,,,,,,,,,,,,,,,1,M,3.2,42,r,,49,49,2022_Jul_05_1101,2020.2.10,distractmap,59.977640360920795,"['Left Leg', 'Left Face', 'Left Leg', 'Left Face']",
5,"[0, 0]",1,0,6,6,6,,,None,None,"[0, 0, 0]",429.33793610008433,431.33796079992317,429.33793610008433,430.3379361999687,430.32126839994453,431.32128160004504,"[0, 0, 0]",1,429.33793610008433,431.33796079992317,,,,,,,,,,,,,,,,,,,1,M,3.2,42,r,,49,49,2022_Jul_05_1101,2020.2.10,distractmap,59.977640360920795,"['Left Leg', 'Left Face', 'Left Leg', 'Left Face']",
7,"[-0.2, -0.2]",0,0,7,7,7,,,None,None,"[0, 0, 0]",431.3546096999198,433.35461360006593,431.3546096999198,432.35464009991847,432.3379402998835,433.3379673000891,"[0, 0, 0]",1,431.3546096999198,433.35461360006593,,,,,,,,,,,,,,,,,,,1,M,3.2,42,r,,49,49,2022_Jul_05_1101,2020.2.10,distractmap,59.977640360920795,"['Left Leg', 'Left Face', 'Left Leg', 'Left Face']",
5,"[0, 0]",1,0,8,8,8,,,None,None,"[0, 0, 0]",433.37127920007333,435.3713193000294,433.37127920007333,434.3712933999486,434.35463940002955,435.35464169993065,"[0, 0, 0]",1,433.37127920007333,435.3713193000294,,,,,,,,,,,,,,,,,,,1,M,3.2,42,r,,49,49,2022_Jul_05_1101,2020.2.10,distractmap,59.977640360920795,"['Left Leg', 'Left Face', 'Left Leg', 'Left Face']",
7,"[-0.2, -0.2]",1,0,9,9,9,,,None,None,"[0, 0, 0]",435.38791309995577,437.387993699871,435.38791309995577,436.3879918998573,436.3713070000522,437.37134349998087,"[0, 0, 0]",0,435.38791309995577,437.387993699871,,,,,,,,,,,,,,,,,,,1,M,3.2,42,r,,49,49,2022_Jul_05_1101,2020.2.10,distractmap,59.977640360920795,"['Left Leg', 'Left Face', 'Left Leg', 'Left Face']",
,,,,,,,,,,,,,,,,,,,,,,437.43799220002256,None,,,,,,,,,,,,,,,,,1,M,3.2,42,r,,49,49,2022_Jul_05_1101,2020.2.10,distractmap,59.977640360920795,"['Left Leg', 'Left Face', 'Left Leg', 'Left Face']",
,,,,,,,,,,,,,,,,,,,,,,,,,,,,,,,,,,,,23.14814814814815,399.24616239010356,,,1,M,3.2,42,r,,49,49,2022_Jul_05_1101,2020.2.10,distractmap,59.977640360920795,"['Left Leg', 'Left Face', 'Left Leg', 'Left Face']",
6,"[0.2, 0]",None,0,0,0,0,452.72110289987177,None,None,None,"[0, 0, 0]",457.5214931999799,None,457.5214931999799,458.5214905999601,458.50489189988,459.504840800073,"[0, 0, 0]",1,457.5214931999799,None,,,,,,,,,,,,,,,,,0.012132609961554408,5.023324909852818,1,M,3.2,42,r,,49,49,2022_Jul_05_1101,2020.2.10,distractmap,59.977640360920795,"['Left Leg', 'Left Face', 'Left Leg', 'Left Face']",
1,"[-0.2, 0.2]",None,0,1,1,1,,,None,None,"[0, 0, 0]",459.52150420006365,461.52151710004546,459.52150420006365,460.5215177999344,460.5048919999972,461.5048587999772,"[0, 0, 0]",1,459.52150420006365,461.52151710004546,,,,,,,,,,,,,,,,,,,1,M,3.2,42,r,,49,49,2022_Jul_05_1101,2020.2.10,distractmap,59.977640360920795,"['Left Leg', 'Left Face', 'Left Leg', 'Left Face']",
6,"[0.2, 0]",1,0,2,2,2,,,None,None,"[0, 0, 0]",461.5381781999022,463.5382018000819,461.5381781999022,462.5382010000758,462.52152279997244,463.5215489999391,"[0, 0, 0]",1,461.5381781999022,463.5382018000819,,,,,,,,,,,,,,,,,,,1,M,3.2,42,r,,49,49,2022_Jul_05_1101,2020.2.10,distractmap,59.977640360920795,"['Left Leg', 'Left Face', 'Left Leg', 'Left Face']",
4,"[-0.2, 0]",0,0,3,3,3,,,None,None,"[0, 0, 0]",463.55489329993725,465.554900099989,463.55489329993725,464.5548964999616,464.53820260008797,465.53821270004846,"[0, 0, 0]",1,463.55489329993725,465.554900099989,,,,,,,,,,,,,,,,,,,1,M,3.2,42,r,,49,49,2022_Jul_05_1101,2020.2.10,distractmap,59.977640360920795,"['Left Leg', 'Left Face', 'Left Leg', 'Left Face']",
1,"[-0.2, 0.2]",0,0,4,4,4,,,None,None,"[0, 0, 0]",465.60506889992394,None,465.60506889992394,466.6049069999717,466.5882393999491,None,"[0, 0, 0]",1,465.60506889992394,None,,,,,,,,,,,,,,,,,,,1,M,3.2,42,r,,49,49,2022_Jul_05_1101,2020.2.10,distractmap,59.977640360920795,"['Left Leg', 'Left Face', 'Left Leg', 'Left Face']",
8,"[0, -0.2]",0,0,5,5,5,,,None,None,"[0, 0, 0]",467.58823979995213,469.5882621000055,467.58823979995213,468.58826019987464,468.57157470006496,469.5716051000636,"[0, 0, 0]",1,467.58823979995213,469.5882621000055,,,,,,,,,,,,,,,,,,,1,M,3.2,42,r,,49,49,2022_Jul_05_1101,2020.2.10,distractmap,59.977640360920795,"['Left Leg', 'Left Face', 'Left Leg', 'Left Face']",
1,"[-0.2, 0.2]",1,0,6,6,6,,,None,None,"[0, 0, 0]",469.6049057999626,471.6049343000632,469.6049057999626,470.6049603000283,470.5882780000102,471.58827849989757,"[0, 0, 0]",1,469.6049057999626,471.6049343000632,,,,,,,,,,,,,,,,,,,1,M,3.2,42,r,,49,49,2022_Jul_05_1101,2020.2.10,distractmap,59.977640360920795,"['Left Leg', 'Left Face', 'Left Leg', 'Left Face']",
8,"[0, -0.2]",1,0,7,7,7,,,None,None,"[0, 0, 0]",471.6216057999991,473.6216327000875,471.6216057999991,472.6216193998698,472.604817799991,473.6049409999978,"[0, 0, 0]",1,471.6216057999991,473.6216327000875,,,,,,,,,,,,,,,,,,,1,M,3.2,42,r,,49,49,2022_Jul_05_1101,2020.2.10,distractmap,59.977640360920795,"['Left Leg', 'Left Face', 'Left Leg', 'Left Face']",
1,"[-0.2, 0.2]",1,0,8,8,8,,,None,None,"[0, 0, 0]",473.6382782999426,475.6383088999428,473.6382782999426,474.6382881999016,474.62162479991093,475.6216434999369,"[0, 0, 0]",1,473.6382782999426,475.6383088999428,,,,,,,,,,,,,,,,,,,1,M,3.2,42,r,,49,49,2022_Jul_05_1101,2020.2.10,distractmap,59.977640360920795,"['Left Leg', 'Left Face', 'Left Leg', 'Left Face']",
6,"[0.2, 0]",0,0,9,9,9,,,None,None,"[0, 0, 0]",475.6550127998926,477.65495879994705,475.6550127998926,476.6549948998727,476.6383114999626,477.638325399952,"[0, 0, 0]",1,475.6550127998926,477.65495879994705,,,,,,,,,,,,,,,,,,,1,M,3.2,42,r,,49,49,2022_Jul_05_1101,2020.2.10,distractmap,59.977640360920795,"['Left Leg', 'Left Face', 'Left Leg', 'Left Face']",
,,,,,,,,,,,,,,,,,,,,,,477.70500020007603,None,,,,,,,,,,,,,,,,,1,M,3.2,42,r,,49,49,2022_Jul_05_1101,2020.2.10,distractmap,59.977640360920795,"['Left Leg', 'Left Face', 'Left Leg', 'Left Face']",
,,,,,,,,,,,,,,,,,,,,,,,,,,,,,,,,,,,,22.962962962962962,437.14618719019927,,,1,M,3.2,42,r,,49,49,2022_Jul_05_1101,2020.2.10,distractmap,59.977640360920795,"['Left Leg', 'Left Face', 'Left Leg', 'Left Face']",
7,"[-0.2, -0.2]",None,0,0,0,0,491.67209300003015,None,None,None,"[0, 0, 0]",497.77183480001986,None,497.77183480001986,498.77183949993923,498.75518530001864,499.75516230007634,"[0, 0, 0]",1,497.77183480001986,None,,,,,,,,,,,,,,,,,0.012423209846019745,5.007198609644547,1,M,3.2,42,r,,49,49,2022_Jul_05_1101,2020.2.10,distractmap,59.977640360920795,"['Left Leg', 'Left Face', 'Left Leg', 'Left Face']",
7,"[-0.2, -0.2]",None,0,1,1,1,,,None,None,"[0, 0, 0]",499.7718450999819,501.77186449989676,499.7718450999819,500.77183740003966,500.7551603000611,501.7552103998605,"[0, 0, 0]",1,499.7718450999819,501.77186449989676,,,,,,,,,,,,,,,,,,,1,M,3.2,42,r,,49,49,2022_Jul_05_1101,2020.2.10,distractmap,59.977640360920795,"['Left Leg', 'Left Face', 'Left Leg', 'Left Face']",
7,"[-0.2, -0.2]",1,0,2,2,2,,,None,None,"[0, 0, 0]",501.7885145000182,503.7885362999514,501.7885145000182,502.7885964999441,502.77186740003526,503.77189380000345,"[0, 0, 0]",1,501.7885145000182,503.7885362999514,,,,,,,,,,,,,,,,,,,1,M,3.2,42,r,,49,49,2022_Jul_05_1101,2020.2.10,distractmap,59.977640360920795,"['Left Leg', 'Left Face', 'Left Leg', 'Left Face']",
5,"[0, 0]",0,0,3,3,3,,,None,None,"[0, 0, 0]",503.8051986999344,505.80522159999236,503.8051986999344,504.80521570006385,504.7885573999956,505.7885608000215,"[0, 0, 0]",1,503.8051986999344,505.80522159999236,,,,,,,,,,,,,,,,,,,1,M,3.2,42,r,,49,49,2022_Jul_05_1101,2020.2.10,distractmap,59.977640360920795,"['Left Leg', 'Left Face', 'Left Leg', 'Left Face']",
1,"[-0.2, 0.2]",0,0,4,4,4,,,None,None,"[0, 0, 0]",505.889823500067,None,505.889823500067,506.90523590007797,506.87191220000386,None,"[0, 0, 0]",1,505.889823500067,None,,,,,,,,,,,,,,,,,,,1,M,3.2,42,r,,49,49,2022_Jul_05_1101,2020.2.10,distractmap,59.977640360920795,"['Left Leg', 'Left Face', 'Left Leg', 'Left Face']",
6,"[0.2, 0]",0,0,5,5,5,,,None,None,"[0, 0, 0]",507.8385679998901,509.83859790000133,507.8385679998901,508.83859549998306,508.8219508000184,509.82141419989057,"[0, 0, 0]",1,507.8385679998901,509.83859790000133,,,,,,,,,,,,,,,,,,,1,M,3.2,42,r,,49,49,2022_Jul_05_1101,2020.2.10,distractmap,59.977640360920795,"['Left Leg', 'Left Face', 'Left Leg', 'Left Face']",
1,"[-0.2, 0.2]",1,0,6,6,6,,,None,None,"[0, 0, 0]",509.8552595998626,511.855446399888,509.8552595998626,510.8552943000104,510.83850189996883,511.8386236000806,"[0, 0, 0]",1,509.8552595998626,511.855446399888,,,,,,,,,,,,,,,,,,,1,M,3.2,42,r,,49,49,2022_Jul_05_1101,2020.2.10,distractmap,59.977640360920795,"['Left Leg', 'Left Face', 'Left Leg', 'Left Face']",
7,"[-0.2, -0.2]",0,0,7,7,7,,,None,None,"[0, 0, 0]",511.87200269987807,513.8719567998778,511.87200269987807,512.8719561998732,512.8552858000621,513.855300599942,"[0, 0, 0]",1,511.87200269987807,513.8719567998778,,,,,,,,,,,,,,,,,,,1,M,3.2,42,r,,49,49,2022_Jul_05_1101,2020.2.10,distractmap,59.977640360920795,"['Left Leg', 'Left Face', 'Left Leg', 'Left Face']",
6,"[0.2, 0]",0,0,8,8,8,,,None,None,"[0, 0, 0]",513.8886325999629,515.888653999893,513.8886325999629,514.8886400000192,514.8719842999708,515.8719860999845,"[0, 0, 0]",1,513.8886325999629,515.888653999893,,,,,,,,,,,,,,,,,,,1,M,3.2,42,r,,49,49,2022_Jul_05_1101,2020.2.10,distractmap,59.977640360920795,"['Left Leg', 'Left Face', 'Left Leg', 'Left Face']",
7,"[-0.2, -0.2]",1,0,9,9,9,,,None,None,"[0, 0, 0]",515.9053185000084,517.9053295999765,515.9053185000084,516.905338200042,516.8886400999036,517.8886607000604,"[0, 0, 0]",1,515.9053185000084,517.9053295999765,,,,,,,,,,,,,,,,,,,1,M,3.2,42,r,,49,49,2022_Jul_05_1101,2020.2.10,distractmap,59.977640360920795,"['Left Leg', 'Left Face', 'Left Leg', 'Left Face']",
,,,,,,,,,,,,,,,,,,,,,,517.9386563000735,None,,,,,,,,,,,,,,,,,1,M,3.2,42,r,,49,49,2022_Jul_05_1101,2020.2.10,distractmap,59.977640360920795,"['Left Leg', 'Left Face', 'Left Leg', 'Left Face']",
,,,,,,,,,,,,,,,,,,,,,,,,,,,,,,,,,,,,22.098765432098766,476.97993329004385,,,1,M,3.2,42,r,,49,49,2022_Jul_05_1101,2020.2.10,distractmap,59.977640360920795,"['Left Leg', 'Left Face', 'Left Leg', 'Left Face']",
,,,,,,,552.9556468999945,None,,,,,,,,,,,,,,,,,,,,,,,,,,532.9554427999537,None,29.01234567901235,515.2778694899753,0.012343009933829308,5.007109409896657,1,M,3.2,42,r,,49,49,2022_Jul_05_1101,2020.2.10,distractmap,59.977640360920795,"['Left Leg', 'Left Face', 'Left Leg', 'Left Face']",
,,,,,,,587.9725724000018,None,,,,,,,,,,,,,,,,,,,,,,,,,,567.9724121000618,None,24.93827160493827,550.3284533901606,0.01472371001727879,5.011909009888768,1,M,3.2,42,r,,49,49,2022_Jul_05_1101,2020.2.10,distractmap,59.977640360920795,"['Left Leg', 'Left Face', 'Left Leg', 'Left Face']",
,,,,,,,622.9895385999698,None,,,,,,,,,,,,,,,,,,,,,,,,,,602.9893821000587,None,23.45679012345679,586.7116687900852,0.014443909982219338,5.011302510043606,1,M,3.2,42,r,,49,49,2022_Jul_05_1101,2020.2.10,distractmap,59.977640360920795,"['Left Leg', 'Left Face', 'Left Leg', 'Left Face']",
4,"[-0.2, 0]",None,0,0,0,0,640.0230469999369,None,None,None,"[0, 0, 0]",643.039722800022,None,643.039722800022,644.0396197000518,644.0230574000161,645.0230755000375,"[0, 0, 0]",1,643.039722800022,None,,,,,,,,,,,,,,,,,0.014870109967887402,5.0122898099943995,1,M,3.2,42,r,,49,49,2022_Jul_05_1101,2020.2.10,distractmap,59.977640360920795,"['Left Leg', 'Left Face', 'Left Leg', 'Left Face']",
5,"[0, 0]",None,0,1,1,1,,,None,None,"[0, 0, 0]",645.039708300028,647.0396600998938,645.039708300028,646.0397361998912,646.0230874000117,647.0230858998839,"[0, 0, 0]",1,645.039708300028,647.0396600998938,,,,,,,,,,,,,,,,,,,1,M,3.2,42,r,,49,49,2022_Jul_05_1101,2020.2.10,distractmap,59.977640360920795,"['Left Leg', 'Left Face', 'Left Leg', 'Left Face']",
6,"[0.2, 0]",0,0,2,2,2,,,None,None,"[0, 0, 0]",647.056424499955,649.0564266000874,647.056424499955,648.0564293998759,648.0397677000146,649.0397592999507,"[0, 0, 0]",1,647.056424499955,649.0564266000874,,,,,,,,,,,,,,,,,,,1,M,3.2,42,r,,49,49,2022_Jul_05_1101,2020.2.10,distractmap,59.977640360920795,"['Left Leg', 'Left Face', 'Left Leg', 'Left Face']",
1,"[-0.2, 0.2]",0,0,3,3,3,,,None,None,"[0, 0, 0]",649.0731027999427,651.073128500022,649.0731027999427,650.073120099958,650.0564540999476,651.0564560999628,"[0, 0, 0]",1,649.0731027999427,651.073128500022,,,,,,,,,,,,,,,,,,,1,M,3.2,42,r,,49,49,2022_Jul_05_1101,2020.2.10,distractmap,59.977640360920795,"['Left Leg', 'Left Face', 'Left Leg', 'Left Face']",
6,"[0.2, 0]",1,0,4,4,4,,,None,None,"[0, 0, 0]",651.0897903998848,653.0897913998924,651.0897903998848,652.0898082999047,652.073132700054,653.0731470999308,"[0, 0, 0]",1,651.0897903998848,653.0897913998924,,,,,,,,,,,,,,,,,,,1,M,3.2,42,r,,49,49,2022_Jul_05_1101,2020.2.10,distractmap,59.977640360920795,"['Left Leg', 'Left Face', 'Left Leg', 'Left Face']",
1,"[-0.2, 0.2]",1,0,5,5,5,,,None,None,"[0, 0, 0]",653.106501000002,655.1064845998771,653.106501000002,654.106505200034,654.0898203998804,655.0898173998576,"[0, 0, 0]",1,653.106501000002,655.1064845998771,,,,,,,,,,,,,,,,,,,1,M,3.2,42,r,,49,49,2022_Jul_05_1101,2020.2.10,distractmap,59.977640360920795,"['Left Leg', 'Left Face', 'Left Leg', 'Left Face']",
2,"[0, 0.2]",0,0,6,6,6,,,None,None,"[0, 0, 0]",655.1231678000186,657.123167200014,655.1231678000186,656.123162599979,656.1065116999671,657.1065231000539,"[0, 0, 0]",1,655.1231678000186,657.123167200014,,,,,,,,,,,,,,,,,,,1,M,3.2,42,r,,49,49,2022_Jul_05_1101,2020.2.10,distractmap,59.977640360920795,"['Left Leg', 'Left Face', 'Left Leg', 'Left Face']",
3,"[0.2, 0.2]",0,0,7,7,7,,,None,None,"[0, 0, 0]",657.139824599959,659.139853599947,657.139824599959,658.1398438999895,658.1231960000005,659.1231926998589,"[0, 0, 0]",1,657.139824599959,659.139853599947,,,,,,,,,,,,,,,,,,,1,M,3.2,42,r,,49,49,2022_Jul_05_1101,2020.2.10,distractmap,59.977640360920795,"['Left Leg', 'Left Face', 'Left Leg', 'Left Face']",
6,"[0.2, 0]",0,0,8,8,8,,,None,None,"[0, 0, 0]",659.1565461999271,661.1565447999164,659.1565461999271,660.1565258000046,660.1398660000414,661.1398769998923,"[0, 0, 0]",1,659.1565461999271,661.1565447999164,,,,,,,,,,,,,,,,,,,1,M,3.2,42,r,,49,49,2022_Jul_05_1101,2020.2.10,distractmap,59.977640360920795,"['Left Leg', 'Left Face', 'Left Leg', 'Left Face']",
3,"[0.2, 0.2]",1,0,9,9,9,,,None,None,"[0, 0, 0]",661.1732091000304,663.1732631998602,661.1732091000304,662.1732300000731,662.1565523999743,663.1565622000489,"[0, 0, 0]",1,661.1732091000304,663.1732631998602,,,,,,,,,,,,,,,,,,,1,M,3.2,42,r,,49,49,2022_Jul_05_1101,2020.2.10,distractmap,59.977640360920795,"['Left Leg', 'Left Face', 'Left Leg', 'Left Face']",
,,,,,,,,,,,,,,,,,,,,,,663.2064785000402,None,,,,,,,,,,,,,,,,,1,M,3.2,42,r,,49,49,2022_Jul_05_1101,2020.2.10,distractmap,59.977640360920795,"['Left Leg', 'Left Face', 'Left Leg', 'Left Face']",
2,"[0, 0.2]",None,0,0,0,0,671.2399452000391,None,None,None,"[0, 0, 0]",678.2566809998825,None,678.2566809998825,679.2566955999937,679.2400465998799,None,"[0, 0, 0]",1,678.2566809998825,None,,,,,,,,,,,,,,,,,,,1,M,3.2,42,r,,49,49,2022_Jul_05_1101,2020.2.10,distractmap,59.977640360920795,"['Left Leg', 'Left Face', 'Left Leg', 'Left Face']",
5,"[0, 0]",None,0,1,1,1,,,None,None,"[0, 0, 0]",680.2400320998859,682.24006500002,680.2400320998859,681.2400463998783,681.2233627999667,682.223389599938,"[0, 0, 0]",1,680.2400320998859,682.24006500002,,,,,,,,,,,,,,,,,,,1,M,3.2,42,r,,49,49,2022_Jul_05_1101,2020.2.10,distractmap,59.977640360920795,"['Left Leg', 'Left Face', 'Left Leg', 'Left Face']",
6,"[0.2, 0]",0,0,2,2,2,,,None,None,"[0, 0, 0]",682.2567012000363,684.2567395998631,682.2567012000363,683.2567336000502,683.2400644998997,684.2400732999668,"[0, 0, 0]",1,682.2567012000363,684.2567395998631,,,,,,,,,,,,,,,,,,,1,M,3.2,42,r,,49,49,2022_Jul_05_1101,2020.2.10,distractmap,59.977640360920795,"['Left Leg', 'Left Face', 'Left Leg', 'Left Face']",
1,"[-0.2, 0.2]",0,0,3,3,3,,,None,None,"[0, 0, 0]",684.273394000018,686.273424499901,684.273394000018,685.2734218998812,685.2567396999802,686.2567540998571,"[0, 0, 0]",1,684.273394000018,686.273424499901,,,,,,,,,,,,,,,,,,,1,M,3.2,42,r,,49,49,2022_Jul_05_1101,2020.2.10,distractmap,59.977640360920795,"['Left Leg', 'Left Face', 'Left Leg', 'Left Face']",
6,"[0.2, 0]",1,0,4,4,4,,,None,None,"[0, 0, 0]",686.2900993998628,688.2901131000835,686.2900993998628,687.2901035998948,687.2734262000304,688.2734457999468,"[0, 0, 0]",1,686.2900993998628,688.2901131000835,,,,,,,,,,,,,,,,,,,1,M,3.2,42,r,,49,49,2022_Jul_05_1101,2020.2.10,distractmap,59.977640360920795,"['Left Leg', 'Left Face', 'Left Leg', 'Left Face']",
6,"[0.2, 0]",0,0,5,5,5,,,None,None,"[0, 0, 0]",688.3067618000787,690.3067886000499,688.3067618000787,689.3067798998673,689.2901145999786,690.2901312999893,"[0, 0, 0]",1,688.3067618000787,690.3067886000499,,,,,,,,,,,,,,,,,,,1,M,3.2,42,r,,49,49,2022_Jul_05_1101,2020.2.10,distractmap,59.977640360920795,"['Left Leg', 'Left Face', 'Left Leg', 'Left Face']",
9,"[0.2, -0.2]",0,0,6,6,6,,,None,None,"[0, 0, 0]",690.323461299995,692.3234582999721,690.323461299995,691.3234671000391,691.3068094998598,692.3068013999145,"[0, 0, 0]",1,690.323461299995,692.3234582999721,,,,,,,,,,,,,,,,,,,1,M,3.2,42,r,,49,49,2022_Jul_05_1101,2020.2.10,distractmap,59.977640360920795,"['Left Leg', 'Left Face', 'Left Leg', 'Left Face']",
6,"[0.2, 0]",1,0,7,7,7,,,None,None,"[0, 0, 0]",692.3401436998975,694.3401659000665,692.3401436998975,693.3401510999538,693.3234802000225,694.323477299884,"[0, 0, 0]",1,692.3401436998975,694.3401659000665,,,,,,,,,,,,,,,,,,,1,M,3.2,42,r,,49,49,2022_Jul_05_1101,2020.2.10,distractmap,59.977640360920795,"['Left Leg', 'Left Face', 'Left Leg', 'Left Face']",
3,"[0.2, 0.2]",0,0,8,8,8,,,None,None,"[0, 0, 0]",694.3568216999993,696.3568388000131,694.3568216999993,695.3568229998928,695.3401637999341,696.3401764999144,"[0, 0, 0]",1,694.3568216999993,696.3568388000131,,,,,,,,,,,,,,,,,,,1,M,3.2,42,r,,49,49,2022_Jul_05_1101,2020.2.10,distractmap,59.977640360920795,"['Left Leg', 'Left Face', 'Left Leg', 'Left Face']",
9,"[0.2, -0.2]",0,0,9,9,9,,,None,None,"[0, 0, 0]",696.3734959999565,698.3735227000434,696.3734959999565,697.373516399879,697.3568881000392,698.3568454999477,"[0, 0, 0]",0,696.3734959999565,698.3735227000434,,,,,,,,,,,,,,,,,,,1,M,3.2,42,r,,49,49,2022_Jul_05_1101,2020.2.10,distractmap,59.977640360920795,"['Left Leg', 'Left Face', 'Left Leg', 'Left Face']",
,,,,,,,,,,,,,,,,,,,,,,698.4068630000111,None,,,,,,,,,,,,,,,,,1,M,3.2,42,r,,49,49,2022_Jul_05_1101,2020.2.10,distractmap,59.977640360920795,"['Left Leg', 'Left Face', 'Left Leg', 'Left Face']",
3,"[0.2, 0.2]",None,0,0,0,0,710.4403047000524,None,None,None,"[0, 0, 0]",713.4569858000614,None,713.4569858000614,714.4569886000827,714.4403138000052,715.4403377999552,"[0, 0, 0]",1,713.4569858000614,None,,,,,,,,,,,,,,,,,,,1,M,3.2,42,r,,49,49,2022_Jul_05_1101,2020.2.10,distractmap,59.977640360920795,"['Left Leg', 'Left Face', 'Left Leg', 'Left Face']",
9,"[0.2, -0.2]",None,0,1,1,1,,,None,None,"[0, 0, 0]",715.4570128000341,717.4569105000701,715.4570128000341,716.4570196000859,716.4403369999491,717.440339300083,"[0, 0, 0]",1,715.4570128000341,717.4569105000701,,,,,,,,,,,,,,,,,,,1,M,3.2,42,r,,49,49,2022_Jul_05_1101,2020.2.10,distractmap,59.977640360920795,"['Left Leg', 'Left Face', 'Left Leg', 'Left Face']",
3,"[0.2, 0.2]",1,0,2,2,2,,,None,None,"[0, 0, 0]",717.4736742998939,719.4737098999321,717.4736742998939,718.4736871998757,718.4570362998638,719.4570651000831,"[0, 0, 0]",1,717.4736742998939,719.4737098999321,,,,,,,,,,,,,,,,,,,1,M,3.2,42,r,,49,49,2022_Jul_05_1101,2020.2.10,distractmap,59.977640360920795,"['Left Leg', 'Left Face', 'Left Leg', 'Left Face']",
7,"[-0.2, -0.2]",0,0,3,3,3,,,None,None,"[0, 0, 0]",719.4903684998862,721.4903883999214,719.4903684998862,720.4903696998954,720.4737116000615,721.4737152000889,"[0, 0, 0]",1,719.4903684998862,721.4903883999214,,,,,,,,,,,,,,,,,,,1,M,3.2,42,r,,49,49,2022_Jul_05_1101,2020.2.10,distractmap,59.977640360920795,"['Left Leg', 'Left Face', 'Left Leg', 'Left Face']",
8,"[0, -0.2]",0,0,4,4,4,,,None,None,"[0, 0, 0]",721.5070505000185,723.5070789998863,721.5070505000185,722.5070674000308,722.4903974998742,723.4904034000356,"[0, 0, 0]",1,721.5070505000185,723.5070789998863,,,,,,,,,,,,,,,,,,,1,M,3.2,42,r,,49,49,2022_Jul_05_1101,2020.2.10,distractmap,59.977640360920795,"['Left Leg', 'Left Face', 'Left Leg', 'Left Face']",
4,"[-0.2, 0]",0,0,5,5,5,,,None,None,"[0, 0, 0]",723.523743199883,725.5237430999987,723.523743199883,724.5237602000125,724.5070768999867,725.5070940998849,"[0, 0, 0]",1,723.523743199883,725.5237430999987,,,,,,,,,,,,,,,,,,,1,M,3.2,42,r,,49,49,2022_Jul_05_1101,2020.2.10,distractmap,59.977640360920795,"['Left Leg', 'Left Face', 'Left Leg', 'Left Face']",
4,"[-0.2, 0]",0,0,6,6,6,,,None,None,"[0, 0, 0]",725.5404115000274,727.5404453000519,725.5404115000274,726.5404252000153,726.5238111000508,727.5237761000171,"[0, 0, 0]",1,725.5404115000274,727.5404453000519,,,,,,,,,,,,,,,,,,,1,M,3.2,42,r,,49,49,2022_Jul_05_1101,2020.2.10,distractmap,59.977640360920795,"['Left Leg', 'Left Face', 'Left Leg', 'Left Face']",
1,"[-0.2, 0.2]",0,0,7,7,7,,,None,None,"[0, 0, 0]",727.5571075999178,729.5571258999407,727.5571075999178,728.55711230007,728.5404358999804,729.5404568999074,"[0, 0, 0]",1,727.5571075999178,729.5571258999407,,,,,,,,,,,,,,,,,,,1,M,3.2,42,r,,49,49,2022_Jul_05_1101,2020.2.10,distractmap,59.977640360920795,"['Left Leg', 'Left Face', 'Left Leg', 'Left Face']",
4,"[-0.2, 0]",1,0,8,8,8,,,None,None,"[0, 0, 0]",729.5737781000789,731.5738055000547,729.5737781000789,730.5737876000348,730.5571323998738,731.5571596000809,"[0, 0, 0]",1,729.5737781000789,731.5738055000547,,,,,,,,,,,,,,,,,,,1,M,3.2,42,r,,49,49,2022_Jul_05_1101,2020.2.10,distractmap,59.977640360920795,"['Left Leg', 'Left Face', 'Left Leg', 'Left Face']",
8,"[0, -0.2]",0,0,9,9,9,,,None,None,"[0, 0, 0]",731.5904745999724,733.5904828999192,731.5904745999724,732.5904746998567,732.5738063000608,733.5738200999331,"[0, 0, 0]",1,731.5904745999724,733.5904828999192,,,,,,,,,,,,,,,,,,,1,M,3.2,42,r,,49,49,2022_Jul_05_1101,2020.2.10,distractmap,59.977640360920795,"['Left Leg', 'Left Face', 'Left Leg', 'Left Face']",
,,,,,,,,,,,,,,,,,,,,,,733.6238233998884,None,,,,,,,,,,,,,,,,,1,M,3.2,42,r,,49,49,2022_Jul_05_1101,2020.2.10,distractmap,59.977640360920795,"['Left Leg', 'Left Face', 'Left Leg', 'Left Face']",
,,,,,,,763.6407363999169,None,,,,,,,,,,,,,,,,,,,,,,,,,,743.6405767998658,None,32.46913580246913,721.4462007901166,,,1,M,3.2,42,r,,49,49,2022_Jul_05_1101,2020.2.10,distractmap,59.977640360920795,"['Left Leg', 'Left Face', 'Left Leg', 'Left Face']",
,,,,,,,798.6576932999305,None,,,,,,,,,,,,,,,,,,,,,,,,,,778.6575376000255,None,31.851851851851855,757.1470474901143,0.014800010016188025,5.012030109995976,1,M,3.2,42,r,,49,49,2022_Jul_05_1101,2020.2.10,distractmap,59.977640360920795,"['Left Leg', 'Left Face', 'Left Leg', 'Left Face']",
,,,,,,,833.67467759992,None,,,,,,,,,,,,,,,,,,,,,,,,,,813.6745114999358,None,32.03703703703704,793.7139981898945,0.014174809912219644,5.010787709848955,1,M,3.2,42,r,,49,49,2022_Jul_05_1101,2020.2.10,distractmap,59.977640360920795,"['Left Leg', 'Left Face', 'Left Leg', 'Left Face']",
2,"[0, 0.2]",None,0,0,0,0,848.9416429998819,None,None,None,"[0, 0, 0]",853.7415251999628,None,853.7415251999628,854.74153140001,854.7248843999114,855.7248748000711,"[0, 0, 0]",1,853.7415251999628,None,,,,,,,,,,,,,,,,,0.014292010106146336,5.010960610117763,1,M,3.2,42,r,,49,49,2022_Jul_05_1101,2020.2.10,distractmap,59.977640360920795,"['Left Leg', 'Left Face', 'Left Leg', 'Left Face']",
5,"[0, 0]",None,0,1,1,1,,,None,None,"[0, 0, 0]",855.7415388000663,857.7415525000542,855.7415388000663,856.741546300007,856.7248668998946,857.7248889000621,"[0, 0, 0]",1,855.7415388000663,857.7415525000542,,,,,,,,,,,,,,,,,,,1,M,3.2,42,r,,49,49,2022_Jul_05_1101,2020.2.10,distractmap,59.977640360920795,"['Left Leg', 'Left Face', 'Left Leg', 'Left Face']",
3,"[0.2, 0.2]",0,0,2,2,2,,,None,None,"[0, 0, 0]",857.7582231999841,859.7581610998604,857.7582231999841,858.7582364999689,858.7415686000604,859.7415747998748,"[0, 0, 0]",1,857.7582231999841,859.7581610998604,,,,,,,,,,,,,,,,,,,1,M,3.2,42,r,,49,49,2022_Jul_05_1101,2020.2.10,distractmap,59.977640360920795,"['Left Leg', 'Left Face', 'Left Leg', 'Left Face']",
5,"[0, 0]",1,0,3,3,3,,,None,None,"[0, 0, 0]",859.7749170998577,861.7749679000117,859.7749170998577,860.7752383998595,860.758231600048,861.7582630000543,"[0, 0, 0]",0,859.7749170998577,861.7749679000117,,,,,,,,,,,,,,,,,,,1,M,3.2,42,r,,49,49,2022_Jul_05_1101,2020.2.10,distractmap,59.977640360920795,"['Left Leg', 'Left Face', 'Left Leg', 'Left Face']",
2,"[0, 0.2]",0,0,4,4,4,,,None,None,"[0, 0, 0]",861.8249699999578,None,861.8249699999578,862.8249186999165,862.808262599865,None,"[0, 0, 0]",1,861.8249699999578,None,,,,,,,,,,,,,,,,,,,1,M,3.2,42,r,,49,49,2022_Jul_05_1101,2020.2.10,distractmap,59.977640360920795,"['Left Leg', 'Left Face', 'Left Leg', 'Left Face']",
8,"[0, -0.2]",0,0,5,5,5,,,None,None,"[0, 0, 0]",863.8082673999015,865.808285899926,863.8082673999015,864.8082737999503,864.7916067000479,865.7916113000829,"[0, 0, 0]",1,863.8082673999015,865.808285899926,,,,,,,,,,,,,,,,,,,1,M,3.2,42,r,,49,49,2022_Jul_05_1101,2020.2.10,distractmap,59.977640360920795,"['Left Leg', 'Left Face', 'Left Leg', 'Left Face']",
4,"[-0.2, 0]",0,0,6,6,6,,,None,None,"[0, 0, 0]",865.8249550000764,867.8249885998666,865.8249550000764,866.8249720998574,866.8083116000053,867.8083134999033,"[0, 0, 0]",1,865.8249550000764,867.8249885998666,,,,,,,,,,,,,,,,,,,1,M,3.2,42,r,,49,49,2022_Jul_05_1101,2020.2.10,distractmap,59.977640360920795,"['Left Leg', 'Left Face', 'Left Leg', 'Left Face']",
8,"[0, -0.2]",1,0,7,7,7,,,None,None,"[0, 0, 0]",867.8416458999272,869.8416512999684,867.8416458999272,868.8416406998876,868.8249784000218,869.8249935999047,"[0, 0, 0]",1,867.8416458999272,869.8416512999684,,,,,,,,,,,,,,,,,,,1,M,3.2,42,r,,49,49,2022_Jul_05_1101,2020.2.10,distractmap,59.977640360920795,"['Left Leg', 'Left Face', 'Left Leg', 'Left Face']",
7,"[-0.2, -0.2]",0,0,8,8,8,,,None,None,"[0, 0, 0]",869.858319999883,871.8583537000231,869.858319999883,870.8583372998983,870.84156109998,871.8416957000736,"[0, 0, 0]",1,869.858319999883,871.8583537000231,,,,,,,,,,,,,,,,,,,1,M,3.2,42,r,,49,49,2022_Jul_05_1101,2020.2.10,distractmap,59.977640360920795,"['Left Leg', 'Left Face', 'Left Leg', 'Left Face']",
8,"[0, -0.2]",1,0,9,9,9,,,None,None,"[0, 0, 0]",871.8750185999088,873.8750265999697,871.8750185999088,872.8750497999135,872.8583486999851,873.8583575999364,"[0, 0, 0]",0,871.8750185999088,873.8750265999697,,,,,,,,,,,,,,,,,,,1,M,3.2,42,r,,49,49,2022_Jul_05_1101,2020.2.10,distractmap,59.977640360920795,"['Left Leg', 'Left Face', 'Left Leg', 'Left Face']",
,,,,,,,,,,,,,,,,,,,,,,873.9083666999359,None,,,,,,,,,,,,,,,,,1,M,3.2,42,r,,49,49,2022_Jul_05_1101,2020.2.10,distractmap,59.977640360920795,"['Left Leg', 'Left Face', 'Left Leg', 'Left Face']",
,,,,,,,,,,,,,,,,,,,,,,,,,,,,,,,,,,,,29.629629629629626,832.7158507900313,,,1,M,3.2,42,r,,49,49,2022_Jul_05_1101,2020.2.10,distractmap,59.977640360920795,"['Left Leg', 'Left Face', 'Left Leg', 'Left Face']",
2,"[0, 0.2]",None,0,0,0,0,887.1756201998796,None,None,None,"[0, 0, 0]",893.9752298998646,None,893.9752298998646,894.975197999971,894.9585464000702,895.9585543000139,"[0, 0, 0]",1,893.9752298998646,None,,,,,,,,,,,,,,,,,0.0127991100307554,5.008059809915721,1,M,3.2,42,r,,49,49,2022_Jul_05_1101,2020.2.10,distractmap,59.977640360920795,"['Left Leg', 'Left Face', 'Left Leg', 'Left Face']",
2,"[0, 0.2]",None,0,1,1,1,,,None,None,"[0, 0, 0]",895.9752183998935,897.9752163998783,895.9752183998935,896.9752487000078,896.9585448999424,897.9585583000444,"[0, 0, 0]",1,895.9752183998935,897.9752163998783,,,,,,,,,,,,,,,,,,,1,M,3.2,42,r,,49,49,2022_Jul_05_1101,2020.2.10,distractmap,59.977640360920795,"['Left Leg', 'Left Face', 'Left Leg', 'Left Face']",
2,"[0, 0.2]",1,0,2,2,2,,,None,None,"[0, 0, 0]",897.991904299939,899.9919167999178,897.991904299939,898.9918982998934,898.9752227000427,899.9752495000139,"[0, 0, 0]",1,897.991904299939,899.9919167999178,,,,,,,,,,,,,,,,,,,1,M,3.2,42,r,,49,49,2022_Jul_05_1101,2020.2.10,distractmap,59.977640360920795,"['Left Leg', 'Left Face', 'Left Leg', 'Left Face']",
8,"[0, -0.2]",0,0,3,3,3,,,None,None,"[0, 0, 0]",900.0085813000333,902.008603299968,900.0085813000333,901.008584599942,900.9919344999362,901.9919260998722,"[0, 0, 0]",1,900.0085813000333,902.008603299968,,,,,,,,,,,,,,,,,,,1,M,3.2,42,r,,49,49,2022_Jul_05_1101,2020.2.10,distractmap,59.977640360920795,"['Left Leg', 'Left Face', 'Left Leg', 'Left Face']",
2,"[0, 0.2]",1,0,4,4,4,,,None,None,"[0, 0, 0]",902.0918520998675,None,902.0918520998675,903.0919512000401,903.0752834999003,None,"[0, 0, 0]",1,902.0918520998675,None,,,,,,,,,,,,,,,,,,,1,M,3.2,42,r,,49,49,2022_Jul_05_1101,2020.2.10,distractmap,59.977640360920795,"['Left Leg', 'Left Face', 'Left Leg', 'Left Face']",
5,"[0, 0]",0,0,5,5,5,,,None,None,"[0, 0, 0]",904.0419403000269,906.0419725999236,904.0419403000269,905.0419763000682,905.0253079999238,906.0253051999025,"[0, 0, 0]",1,904.0419403000269,906.0419725999236,,,,,,,,,,,,,,,,,,,1,M,3.2,42,r,,49,49,2022_Jul_05_1101,2020.2.10,distractmap,59.977640360920795,"['Left Leg', 'Left Face', 'Left Leg', 'Left Face']",
1,"[-0.2, 0.2]",0,0,6,6,6,,,None,None,"[0, 0, 0]",906.0586423000786,908.0586591998581,906.0586423000786,907.0586389999371,907.0419844998978,908.0419904000591,"[0, 0, 0]",1,906.0586423000786,908.0586591998581,,,,,,,,,,,,,,,,,,,1,M,3.2,42,r,,49,49,2022_Jul_05_1101,2020.2.10,distractmap,59.977640360920795,"['Left Leg', 'Left Face', 'Left Leg', 'Left Face']",
1,"[-0.2, 0.2]",0,0,7,7,7,,,None,None,"[0, 0, 0]",908.0753228999674,910.0753406998701,908.0753228999674,909.0754336998798,909.0587329999544,910.0586647000164,"[0, 0, 0]",1,908.0753228999674,910.0753406998701,,,,,,,,,,,,,,,,,,,1,M,3.2,42,r,,49,49,2022_Jul_05_1101,2020.2.10,distractmap,59.977640360920795,"['Left Leg', 'Left Face', 'Left Leg', 'Left Face']",
6,"[0.2, 0]",0,0,8,8,8,,,None,None,"[0, 0, 0]",910.0920178000815,912.0920299000572,910.0920178000815,911.0920212999918,911.0753522999585,912.0753579000011,"[0, 0, 0]",1,910.0920178000815,912.0920299000572,,,,,,,,,,,,,,,,,,,1,M,3.2,42,r,,49,49,2022_Jul_05_1101,2020.2.10,distractmap,59.977640360920795,"['Left Leg', 'Left Face', 'Left Leg', 'Left Face']",
1,"[-0.2, 0.2]",1,0,9,9,9,,,None,None,"[0, 0, 0]",912.1086897000205,914.1086987999734,912.1086897000205,913.1087020998821,913.0920412000269,914.0920303999446,"[0, 0, 0]",1,912.1086897000205,914.1086987999734,,,,,,,,,,,,,,,,,,,1,M,3.2,42,r,,49,49,2022_Jul_05_1101,2020.2.10,distractmap,59.977640360920795,"['Left Leg', 'Left Face', 'Left Leg', 'Left Face']",
,,,,,,,,,,,,,,,,,,,,,,914.1420396000613,None,,,,,,,,,,,,,,,,,1,M,3.2,42,r,,49,49,2022_Jul_05_1101,2020.2.10,distractmap,59.977640360920795,"['Left Leg', 'Left Face', 'Left Leg', 'Left Face']",
,,,,,,,,,,,,,,,,,,,,,,,,,,,,,,,,,,,,22.160493827160497,877.7334136902355,,,1,M,3.2,42,r,,49,49,2022_Jul_05_1101,2020.2.10,distractmap,59.977640360920795,"['Left Leg', 'Left Face', 'Left Leg', 'Left Face']",
3,"[0.2, 0.2]",None,0,0,0,0,931.6591300000437,None,None,None,"[0, 0, 0]",934.2088855998591,None,934.2088855998591,935.2089008998591,935.1922472000588,936.1922373999842,"[0, 0, 0]",1,934.2088855998591,None,,,,,,,,,,,,,,,,,0.012273209867998958,5.00703670992516,1,M,3.2,42,r,,49,49,2022_Jul_05_1101,2020.2.10,distractmap,59.977640360920795,"['Left Leg', 'Left Face', 'Left Leg', 'Left Face']",
3,"[0.2, 0.2]",None,0,1,1,1,,,None,None,"[0, 0, 0]",936.2088927000295,938.2089072999079,936.2088927000295,937.2089088000357,937.1922424999066,938.19224080001,"[0, 0, 0]",1,936.2088927000295,938.2089072999079,,,,,,,,,,,,,,,,,,,1,M,3.2,42,r,,49,49,2022_Jul_05_1101,2020.2.10,distractmap,59.977640360920795,"['Left Leg', 'Left Face', 'Left Leg', 'Left Face']",
5,"[0, 0]",0,0,2,2,2,,,None,None,"[0, 0, 0]",938.2255790999625,940.2256068999413,938.2255790999625,939.2256094999611,939.2089126000647,940.208925700048,"[0, 0, 0]",1,938.2255790999625,940.2256068999413,,,,,,,,,,,,,,,,,,,1,M,3.2,42,r,,49,49,2022_Jul_05_1101,2020.2.10,distractmap,59.977640360920795,"['Left Leg', 'Left Face', 'Left Leg', 'Left Face']",
1,"[-0.2, 0.2]",0,0,3,3,3,,,None,None,"[0, 0, 0]",940.242268800037,942.2422772999853,940.242268800037,941.2422825999092,941.2256088999566,942.2256271999795,"[0, 0, 0]",1,940.242268800037,942.2422772999853,,,,,,,,,,,,,,,,,,,1,M,3.2,42,r,,49,49,2022_Jul_05_1101,2020.2.10,distractmap,59.977640360920795,"['Left Leg', 'Left Face', 'Left Leg', 'Left Face']",
5,"[0, 0]",1,0,4,4,4,,,None,None,"[0, 0, 0]",942.3259306000546,None,942.3259306000546,943.3256264999509,943.3089646000881,None,"[0, 0, 0]",1,942.3259306000546,None,,,,,,,,,,,,,,,,,,,1,M,3.2,42,r,,49,49,2022_Jul_05_1101,2020.2.10,distractmap,59.977640360920795,"['Left Leg', 'Left Face', 'Left Leg', 'Left Face']",
8,"[0, -0.2]",0,0,5,5,5,,,None,None,"[0, 0, 0]",944.2756260000169,946.2756598999258,944.2756260000169,945.2756304999348,945.258884999901,946.2589807000477,"[0, 0, 0]",1,944.2756260000169,946.2756598999258,,,,,,,,,,,,,,,,,,,1,M,3.2,42,r,,49,49,2022_Jul_05_1101,2020.2.10,distractmap,59.977640360920795,"['Left Leg', 'Left Face', 'Left Leg', 'Left Face']",
5,"[0, 0]",1,0,6,6,6,,,None,None,"[0, 0, 0]",946.2923310999759,948.2923413000535,946.2923310999759,947.2923381000292,947.2756471000612,948.2756582000293,"[0, 0, 0]",1,946.2923310999759,948.2923413000535,,,,,,,,,,,,,,,,,,,1,M,3.2,42,r,,49,49,2022_Jul_05_1101,2020.2.10,distractmap,59.977640360920795,"['Left Leg', 'Left Face', 'Left Leg', 'Left Face']",
7,"[-0.2, -0.2]",0,0,7,7,7,,,None,None,"[0, 0, 0]",948.3090206000488,950.3090462000109,948.3090206000488,949.3090244999621,949.292337999912,950.2923657000065,"[0, 0, 0]",1,948.3090206000488,950.3090462000109,,,,,,,,,,,,,,,,,,,1,M,3.2,42,r,,49,49,2022_Jul_05_1101,2020.2.10,distractmap,59.977640360920795,"['Left Leg', 'Left Face', 'Left Leg', 'Left Face']",
5,"[0, 0]",1,0,8,8,8,,,None,None,"[0, 0, 0]",950.3256862000562,952.3256721000653,950.3256862000562,951.3256892000791,951.3090337000322,952.3090468998998,"[0, 0, 0]",1,950.3256862000562,952.3256721000653,,,,,,,,,,,,,,,,,,,1,M,3.2,42,r,,49,49,2022_Jul_05_1101,2020.2.10,distractmap,59.977640360920795,"['Left Leg', 'Left Face', 'Left Leg', 'Left Face']",
7,"[-0.2, -0.2]",1,0,9,9,9,,,None,None,"[0, 0, 0]",952.3423689000774,954.3424118000548,952.3423689000774,953.3424468000885,953.3257744000293,954.3257293000352,"[0, 0, 0]",1,952.3423689000774,954.3424118000548,,,,,,,,,,,,,,,,,,,1,M,3.2,42,r,,49,49,2022_Jul_05_1101,2020.2.10,distractmap,59.977640360920795,"['Left Leg', 'Left Face', 'Left Leg', 'Left Face']",
,,,,,,,,,,,,,,,,,,,,,,954.3757251999341,None,,,,,,,,,,,,,,,,,1,M,3.2,42,r,,49,49,2022_Jul_05_1101,2020.2.10,distractmap,59.977640360920795,"['Left Leg', 'Left Face', 'Left Leg', 'Left Face']",
,,,,,,,,,,,,,,,,,,,,,,,,,,,,,,,,,,,,19.876543209876544,912.5840587902348,,,1,M,3.2,42,r,,49,49,2022_Jul_05_1101,2020.2.10,distractmap,59.977640360920795,"['Left Leg', 'Left Face', 'Left Leg', 'Left Face']",
,,,,,,,1312.4954856999684,None,,,,,,,,,,,,,,,,,,,1016.7098626000807,1016.7098626000807,None,space,165.0392030000221,1016.7098626000807,None,1292.4953393999022,None,27.962962962962962,1272.6840639903676,0.011950009735301137,5.022989109857008,1,M,3.2,42,r,,49,49,2022_Jul_05_1101,2020.2.10,distractmap,59.977640360920795,"['Left Leg', 'Left Face', 'Left Leg', 'Left Face']",
,,,,,,,1347.5124667000491,None,,,,,,,,,,,,,,,,,,,,,,,,,,1327.5123079998884,None,26.851851851851855,1306.801387090236,0.015079409815371037,5.012606809847057,1,M,3.2,42,r,,49,49,2022_Jul_05_1101,2020.2.10,distractmap,59.977640360920795,"['Left Leg', 'Left Face', 'Left Leg', 'Left Face']",
,,,,,,,1382.5294597998727,None,,,,,,,,,,,,,,,,,,,,,,,,,,1362.529278999893,None,23.14814814814815,1343.451629490126,0.014700209954753518,5.011862910119817,1,M,3.2,42,r,,49,49,2022_Jul_05_1101,2020.2.10,distractmap,59.977640360920795,"['Left Leg', 'Left Face', 'Left Leg', 'Left Face']",
6,"[0.2, 0]",None,0,0,0,0,1397.7961551998742,None,None,None,"[0, 0, 0]",1402.5962878998835,None,1402.5962878998835,1403.5962819000706,1403.5796141000465,1404.5796546000056,"[0, 0, 0]",1,1402.5962878998835,None,,,,,,,,,,,,,,,,,0.014764209976419806,5.011977809946984,1,M,3.2,42,r,,49,49,2022_Jul_05_1101,2020.2.10,distractmap,59.977640360920795,"['Left Leg', 'Left Face', 'Left Leg', 'Left Face']",
1,"[-0.2, 0.2]",None,0,1,1,1,,,None,None,"[0, 0, 0]",1404.5963051998988,1406.5963347998913,1404.5963051998988,1405.5963007998653,1405.5796463999432,1406.579657400027,"[0, 0, 0]",1,1404.5963051998988,1406.5963347998913,,,,,,,,,,,,,,,,,,,1,M,3.2,42,r,,49,49,2022_Jul_05_1101,2020.2.10,distractmap,59.977640360920795,"['Left Leg', 'Left Face', 'Left Leg', 'Left Face']",
6,"[0.2, 0]",1,0,2,2,2,,,None,None,"[0, 0, 0]",1406.6129824998789,1408.6129083000124,1406.6129824998789,1407.6129971998744,1407.5963172998745,1408.5963417000603,"[0, 0, 0]",1,1406.6129824998789,1408.6129083000124,,,,,,,,,,,,,,,,,,,1,M,3.2,42,r,,49,49,2022_Jul_05_1101,2020.2.10,distractmap,59.977640360920795,"['Left Leg', 'Left Face', 'Left Leg', 'Left Face']",
4,"[-0.2, 0]",0,0,3,3,3,,,None,None,"[0, 0, 0]",1408.6295509999618,1410.629692999879,1408.6295509999618,1409.6296898999717,1409.6130109999795,1410.613007399952,"[0, 0, 0]",1,1408.6295509999618,1410.629692999879,,,,,,,,,,,,,,,,,,,1,M,3.2,42,r,,49,49,2022_Jul_05_1101,2020.2.10,distractmap,59.977640360920795,"['Left Leg', 'Left Face', 'Left Leg', 'Left Face']",
1,"[-0.2, 0.2]",0,0,4,4,4,,,None,None,"[0, 0, 0]",1410.7131042000838,None,1410.7131042000838,1411.7133452999406,1411.7133452999406,None,"[0, 0, 0]",1,1410.7131042000838,None,,,,,,,,,,,,,,,,,,,1,M,3.2,42,r,,49,49,2022_Jul_05_1101,2020.2.10,distractmap,59.977640360920795,"['Left Leg', 'Left Face', 'Left Leg', 'Left Face']",
8,"[0, -0.2]",0,0,5,5,5,,,None,None,"[0, 0, 0]",1412.6630418000277,1414.6630472000688,1412.6630418000277,1413.6630537998863,1413.6463762999047,1414.6463852000888,"[0, 0, 0]",1,1412.6630418000277,1414.6630472000688,,,,,,,,,,,,,,,,,,,1,M,3.2,42,r,,49,49,2022_Jul_05_1101,2020.2.10,distractmap,59.977640360920795,"['Left Leg', 'Left Face', 'Left Leg', 'Left Face']",
1,"[-0.2, 0.2]",1,0,6,6,6,,,None,None,"[0, 0, 0]",1414.6797340998892,1416.6797261999454,1414.6797340998892,1415.6797358000185,1415.6630875000264,1416.6630770999473,"[0, 0, 0]",0,1414.6797340998892,1416.6797261999454,,,,,,,,,,,,,,,,,,,1,M,3.2,42,r,,49,49,2022_Jul_05_1101,2020.2.10,distractmap,59.977640360920795,"['Left Leg', 'Left Face', 'Left Leg', 'Left Face']",
8,"[0, -0.2]",1,0,7,7,7,,,None,None,"[0, 0, 0]",1416.696412499994,1418.6964292998891,1416.696412499994,1417.6964239999652,1417.6797464999836,1418.679755399935,"[0, 0, 0]",1,1416.696412499994,1418.6964292998891,,,,,,,,,,,,,,,,,,,1,M,3.2,42,r,,49,49,2022_Jul_05_1101,2020.2.10,distractmap,59.977640360920795,"['Left Leg', 'Left Face', 'Left Leg', 'Left Face']",
1,"[-0.2, 0.2]",1,0,8,8,8,,,None,None,"[0, 0, 0]",1418.7130803000182,1420.713131800061,1418.7130803000182,1419.713101200061,1419.696435800055,1420.6964529999532,"[0, 0, 0]",1,1418.7130803000182,1420.713131800061,,,,,,,,,,,,,,,,,,,1,M,3.2,42,r,,49,49,2022_Jul_05_1101,2020.2.10,distractmap,59.977640360920795,"['Left Leg', 'Left Face', 'Left Leg', 'Left Face']",
6,"[0.2, 0]",0,0,9,9,9,,,None,None,"[0, 0, 0]",1420.7297843000852,1422.7298133999575,1420.7297843000852,1421.7297875999939,1421.713122599991,1422.7131219999865,"[0, 0, 0]",1,1420.7297843000852,1422.7298133999575,,,,,,,,,,,,,,,,,,,1,M,3.2,42,r,,49,49,2022_Jul_05_1101,2020.2.10,distractmap,59.977640360920795,"['Left Leg', 'Left Face', 'Left Leg', 'Left Face']",
,,,,,,,,,,,,,,,,,,,,,,1422.7631226000376,None,,,,,,,,,,,,,,,,,1,M,3.2,42,r,,49,49,2022_Jul_05_1101,2020.2.10,distractmap,59.977640360920795,"['Left Leg', 'Left Face', 'Left Leg', 'Left Face']",
,,,,,,,,,,,,,,,,,,,,,,,,,,,,,,,,,,,,24.19753086419753,1387.403841489926,,,1,M,3.2,42,r,,49,49,2022_Jul_05_1101,2020.2.10,distractmap,59.977640360920795,"['Left Leg', 'Left Face', 'Left Leg', 'Left Face']",
7,"[-0.2, -0.2]",None,0,0,0,0,1440.78015269991,None,None,None,"[0, 0, 0]",1442.8299715998583,None,1442.8299715998583,1443.8299841999542,1443.8133117000107,1444.8133248998784,"[0, 0, 0]",1,1442.8299715998583,None,,,,,,,,,,,,,,,,,0.012936710147187114,5.008318110136315,1,M,3.2,42,r,,49,49,2022_Jul_05_1101,2020.2.10,distractmap,59.977640360920795,"['Left Leg', 'Left Face', 'Left Leg', 'Left Face']",
7,"[-0.2, -0.2]",None,0,1,1,1,,,None,None,"[0, 0, 0]",1444.8299954000395,1446.829999000067,1444.8299954000395,1445.82999940007,1445.8133435999043,1446.8133387998678,"[0, 0, 0]",1,1444.8299954000395,1446.829999000067,,,,,,,,,,,,,,,,,,,1,M,3.2,42,r,,49,49,2022_Jul_05_1101,2020.2.10,distractmap,59.977640360920795,"['Left Leg', 'Left Face', 'Left Leg', 'Left Face']",
7,"[-0.2, -0.2]",1,0,2,2,2,,,None,None,"[0, 0, 0]",1446.846683899872,1448.8466900000349,1446.846683899872,1447.8465722000692,1447.8300071998965,1448.8300206998829,"[0, 0, 0]",0,1446.846683899872,1448.8466900000349,,,,,,,,,,,,,,,,,,,1,M,3.2,42,r,,49,49,2022_Jul_05_1101,2020.2.10,distractmap,59.977640360920795,"['Left Leg', 'Left Face', 'Left Leg', 'Left Face']",
5,"[0, 0]",0,0,3,3,3,,,None,None,"[0, 0, 0]",1448.8633576999418,1450.863369599916,1448.8633576999418,1449.8633711000439,1449.8467214000411,1450.8467466998845,"[0, 0, 0]",1,1448.8633576999418,1450.863369599916,,,,,,,,,,,,,,,,,,,1,M,3.2,42,r,,49,49,2022_Jul_05_1101,2020.2.10,distractmap,59.977640360920795,"['Left Leg', 'Left Face', 'Left Leg', 'Left Face']",
1,"[-0.2, 0.2]",0,0,4,4,4,,,None,None,"[0, 0, 0]",1450.93050999986,None,1450.93050999986,1451.930058900034,1451.9133864999749,None,"[0, 0, 0]",1,1450.93050999986,None,,,,,,,,,,,,,,,,,,,1,M,3.2,42,r,,49,49,2022_Jul_05_1101,2020.2.10,distractmap,59.977640360920795,"['Left Leg', 'Left Face', 'Left Leg', 'Left Face']",
6,"[0.2, 0]",0,0,5,5,5,,,None,None,"[0, 0, 0]",1452.896714600036,1454.8967651000712,1452.896714600036,1453.8967432999052,1453.8800703000743,1454.8800651000347,"[0, 0, 0]",1,1452.896714600036,1454.8967651000712,,,,,,,,,,,,,,,,,,,1,M,3.2,42,r,,49,49,2022_Jul_05_1101,2020.2.10,distractmap,59.977640360920795,"['Left Leg', 'Left Face', 'Left Leg', 'Left Face']",
1,"[-0.2, 0.2]",1,0,6,6,6,,,None,None,"[0, 0, 0]",1454.9134154000785,1456.9134313000832,1454.9134154000785,1455.9134056998882,1455.896754699992,1456.896763100056,"[0, 0, 0]",0,1454.9134154000785,1456.9134313000832,,,,,,,,,,,,,,,,,,,1,M,3.2,42,r,,49,49,2022_Jul_05_1101,2020.2.10,distractmap,59.977640360920795,"['Left Leg', 'Left Face', 'Left Leg', 'Left Face']",
7,"[-0.2, -0.2]",0,0,7,7,7,,,None,None,"[0, 0, 0]",1456.9300796999596,1458.9301159000024,1456.9300796999596,1457.9301004998852,1457.9134452000726,1458.9134497998748,"[0, 0, 0]",1,1456.9300796999596,1458.9301159000024,,,,,,,,,,,,,,,,,,,1,M,3.2,42,r,,49,49,2022_Jul_05_1101,2020.2.10,distractmap,59.977640360920795,"['Left Leg', 'Left Face', 'Left Leg', 'Left Face']",
6,"[0.2, 0]",0,0,8,8,8,,,None,None,"[0, 0, 0]",1458.946782300016,1460.946793399984,1458.946782300016,1459.9467790999915,1459.9301239000633,1460.9301370000467,"[0, 0, 0]",1,1458.946782300016,1460.946793399984,,,,,,,,,,,,,,,,,,,1,M,3.2,42,r,,49,49,2022_Jul_05_1101,2020.2.10,distractmap,59.977640360920795,"['Left Leg', 'Left Face', 'Left Leg', 'Left Face']",
7,"[-0.2, -0.2]",1,0,9,9,9,,,None,None,"[0, 0, 0]",1460.9634694000706,1462.9634863999672,1460.9634694000706,1461.9634755000006,1461.9468073998578,1462.9468203999568,"[0, 0, 0]",1,1460.9634694000706,1462.9634863999672,,,,,,,,,,,,,,,,,,,1,M,3.2,42,r,,49,49,2022_Jul_05_1101,2020.2.10,distractmap,59.977640360920795,"['Left Leg', 'Left Face', 'Left Leg', 'Left Face']",
,,,,,,,,,,,,,,,,,,,,,,1462.9968051998876,None,,,,,,,,,,,,,,,,,1,M,3.2,42,r,,49,49,2022_Jul_05_1101,2020.2.10,distractmap,59.977640360920795,"['Left Leg', 'Left Face', 'Left Leg', 'Left Face']",
,,,,,,,,,,,,,,,,,,,,,,,,,,,,,,,,,,,,23.209876543209877,1426.6378545903135,,,1,M,3.2,42,r,,49,49,2022_Jul_05_1101,2020.2.10,distractmap,59.977640360920795,"['Left Leg', 'Left Face', 'Left Leg', 'Left Face']",
4,"[-0.2, 0]",None,0,0,0,0,1480.247450799914,None,None,None,"[0, 0, 0]",1483.063670600066,None,1483.063670600066,1484.063667499926,1484.0470006999094,1485.0470127998851,"[0, 0, 0]",1,1483.063670600066,None,,,,,,,,,,,,,,,,,0.012623509857803583,5.007638609968126,1,M,3.2,42,r,,49,49,2022_Jul_05_1101,2020.2.10,distractmap,59.977640360920795,"['Left Leg', 'Left Face', 'Left Leg', 'Left Face']",
5,"[0, 0]",None,0,1,1,1,,,None,None,"[0, 0, 0]",1485.06368510006,1487.063677399885,1485.06368510006,1486.0636923999991,1486.0470155999064,1487.0470215000678,"[0, 0, 0]",1,1485.06368510006,1487.063677399885,,,,,,,,,,,,,,,,,,,1,M,3.2,42,r,,49,49,2022_Jul_05_1101,2020.2.10,distractmap,59.977640360920795,"['Left Leg', 'Left Face', 'Left Leg', 'Left Face']",
6,"[0.2, 0]",0,0,2,2,2,,,None,None,"[0, 0, 0]",1487.080348999938,1489.0803626000416,1487.080348999938,1488.0803567999974,1488.0637022000737,1489.0637234000023,"[0, 0, 0]",1,1487.080348999938,1489.0803626000416,,,,,,,,,,,,,,,,,,,1,M,3.2,42,r,,49,49,2022_Jul_05_1101,2020.2.10,distractmap,59.977640360920795,"['Left Leg', 'Left Face', 'Left Leg', 'Left Face']",
1,"[-0.2, 0.2]",0,0,3,3,3,,,None,None,"[0, 0, 0]",1489.0970532998908,1491.0970588000491,1489.0970532998908,1490.0970528000034,1490.0803743998986,1491.0803854998667,"[0, 0, 0]",1,1489.0970532998908,1491.0970588000491,,,,,,,,,,,,,,,,,,,1,M,3.2,42,r,,49,49,2022_Jul_05_1101,2020.2.10,distractmap,59.977640360920795,"['Left Leg', 'Left Face', 'Left Leg', 'Left Face']",
6,"[0.2, 0]",1,0,4,4,4,,,None,None,"[0, 0, 0]",1491.1471120000351,None,1491.1471120000351,1492.1470665999223,1492.130397999892,None,"[0, 0, 0]",1,1491.1471120000351,None,,,,,,,,,,,,,,,,,,,1,M,3.2,42,r,,49,49,2022_Jul_05_1101,2020.2.10,distractmap,59.977640360920795,"['Left Leg', 'Left Face', 'Left Leg', 'Left Face']",
1,"[-0.2, 0.2]",1,0,5,5,5,,,None,None,"[0, 0, 0]",1493.1304168000352,1495.1304289998952,1493.1304168000352,1494.130425099982,1494.1137459999882,1495.1137681999244,"[0, 0, 0]",1,1493.1304168000352,1495.1304289998952,,,,,,,,,,,,,,,,,,,1,M,3.2,42,r,,49,49,2022_Jul_05_1101,2020.2.10,distractmap,59.977640360920795,"['Left Leg', 'Left Face', 'Left Leg', 'Left Face']",
2,"[0, 0.2]",0,0,6,6,6,,,None,None,"[0, 0, 0]",1495.1470840000547,1497.1471184000839,1495.1470840000547,1496.1470981000457,1496.130446499912,1497.1304460000247,"[0, 0, 0]",1,1495.1470840000547,1497.1471184000839,,,,,,,,,,,,,,,,,,,1,M,3.2,42,r,,49,49,2022_Jul_05_1101,2020.2.10,distractmap,59.977640360920795,"['Left Leg', 'Left Face', 'Left Leg', 'Left Face']",
3,"[0.2, 0.2]",0,0,7,7,7,,,None,None,"[0, 0, 0]",1497.1637836000882,1499.1637027999386,1497.1637836000882,1498.163796799956,1498.1471283000428,1499.1470755999908,"[0, 0, 0]",1,1497.1637836000882,1499.1637027999386,,,,,,,,,,,,,,,,,,,1,M,3.2,42,r,,49,49,2022_Jul_05_1101,2020.2.10,distractmap,59.977640360920795,"['Left Leg', 'Left Face', 'Left Leg', 'Left Face']",
6,"[0.2, 0]",0,0,8,8,8,,,None,None,"[0, 0, 0]",1499.1804561000317,1501.1804760999512,1499.1804561000317,1500.1804859999102,1500.1638116000686,1501.1638030998874,"[0, 0, 0]",1,1499.1804561000317,1501.1804760999512,,,,,,,,,,,,,,,,,,,1,M,3.2,42,r,,49,49,2022_Jul_05_1101,2020.2.10,distractmap,59.977640360920795,"['Left Leg', 'Left Face', 'Left Leg', 'Left Face']",
3,"[0.2, 0.2]",1,0,9,9,9,,,None,None,"[0, 0, 0]",1501.197217399953,1503.197173600085,1501.197217399953,1502.197165499907,1502.180493199965,1503.1805175000336,"[0, 0, 0]",1,1501.197217399953,1503.197173600085,,,,,,,,,,,,,,,,,,,1,M,3.2,42,r,,49,49,2022_Jul_05_1101,2020.2.10,distractmap,59.977640360920795,"['Left Leg', 'Left Face', 'Left Leg', 'Left Face']",
,,,,,,,,,,,,,,,,,,,,,,1503.2305117999204,None,,,,,,,,,,,,,,,,,1,M,3.2,42,r,,49,49,2022_Jul_05_1101,2020.2.10,distractmap,59.977640360920795,"['Left Leg', 'Left Face', 'Left Leg', 'Left Face']",
,,,,,,,,,,,,,,,,,,,,,,,,,,,,,,,,,,,,19.62962962962963,1462.7218166904058,,,1,M,3.2,42,r,,49,49,2022_Jul_05_1101,2020.2.10,distractmap,59.977640360920795,"['Left Leg', 'Left Face', 'Left Leg', 'Left Face']",
2,"[0, 0.2]",None,0,0,0,0,1516.2639542000834,None,None,None,"[0, 0, 0]",1523.2806863998994,None,1523.2806863998994,1524.2806978998706,1524.2640229000244,1525.2640229999088,"[0, 0, 0]",1,1523.2806863998994,None,,,,,,,,,,,,,,,,,0.012301909737288952,5.007065609795973,1,M,3.2,42,r,,49,49,2022_Jul_05_1101,2020.2.10,distractmap,59.977640360920795,"['Left Leg', 'Left Face', 'Left Leg', 'Left Face']",
5,"[0, 0]",None,0,1,1,1,,,None,None,"[0, 0, 0]",1525.2806962998584,1527.2807127998676,1525.2806962998584,1526.2807020000182,1526.264039499918,1527.2640553999227,"[0, 0, 0]",1,1525.2806962998584,1527.2807127998676,,,,,,,,,,,,,,,,,,,1,M,3.2,42,r,,49,49,2022_Jul_05_1101,2020.2.10,distractmap,59.977640360920795,"['Left Leg', 'Left Face', 'Left Leg', 'Left Face']",
6,"[0.2, 0]",0,0,2,2,2,,,None,None,"[0, 0, 0]",1527.297381799901,1529.2973013999872,1527.297381799901,1528.2974030000623,1528.280719900038,1529.2807414999697,"[0, 0, 0]",1,1527.297381799901,1529.2973013999872,,,,,,,,,,,,,,,,,,,1,M,3.2,42,r,,49,49,2022_Jul_05_1101,2020.2.10,distractmap,59.977640360920795,"['Left Leg', 'Left Face', 'Left Leg', 'Left Face']",
1,"[-0.2, 0.2]",0,0,3,3,3,,,None,None,"[0, 0, 0]",1529.3140600000042,1531.314085900085,1529.3140600000042,1530.3140624000225,1530.2973466999829,1531.2974147999194,"[0, 0, 0]",1,1529.3140600000042,1531.314085900085,,,,,,,,,,,,,,,,,,,1,M,3.2,42,r,,49,49,2022_Jul_05_1101,2020.2.10,distractmap,59.977640360920795,"['Left Leg', 'Left Face', 'Left Leg', 'Left Face']",
6,"[0.2, 0]",1,0,4,4,4,,,None,None,"[0, 0, 0]",1531.3307487000711,1533.3307677998673,1531.3307487000711,1532.3307692999952,1532.3141489999834,1533.314101899974,"[0, 0, 0]",1,1531.3307487000711,1533.3307677998673,,,,,,,,,,,,,,,,,,,1,M,3.2,42,r,,49,49,2022_Jul_05_1101,2020.2.10,distractmap,59.977640360920795,"['Left Leg', 'Left Face', 'Left Leg', 'Left Face']",
6,"[0.2, 0]",0,0,5,5,5,,,None,None,"[0, 0, 0]",1533.3474425000604,1535.3474516000133,1533.3474425000604,1534.3474602999631,1534.3307858000044,1535.3307926000562,"[0, 0, 0]",1,1533.3474425000604,1535.3474516000133,,,,,,,,,,,,,,,,,,,1,M,3.2,42,r,,49,49,2022_Jul_05_1101,2020.2.10,distractmap,59.977640360920795,"['Left Leg', 'Left Face', 'Left Leg', 'Left Face']",
9,"[0.2, -0.2]",0,0,6,6,6,,,None,None,"[0, 0, 0]",1535.3640218998771,1537.3641325999051,1535.3640218998771,1536.3641283998732,1536.3474806000013,1537.3474608999677,"[0, 0, 0]",1,1535.3640218998771,1537.3641325999051,,,,,,,,,,,,,,,,,,,1,M,3.2,42,r,,49,49,2022_Jul_05_1101,2020.2.10,distractmap,59.977640360920795,"['Left Leg', 'Left Face', 'Left Leg', 'Left Face']",
6,"[0.2, 0]",1,0,7,7,7,,,None,None,"[0, 0, 0]",1537.3808079999872,1539.3808238999918,1537.3808079999872,1538.3807975000236,1538.364149800036,1539.3641611000057,"[0, 0, 0]",0,1537.3808079999872,1539.3808238999918,,,,,,,,,,,,,,,,,,,1,M,3.2,42,r,,49,49,2022_Jul_05_1101,2020.2.10,distractmap,59.977640360920795,"['Left Leg', 'Left Face', 'Left Leg', 'Left Face']",
3,"[0.2, 0.2]",0,0,8,8,8,,,None,None,"[0, 0, 0]",1539.3974756000098,1541.3975116999354,1539.3974756000098,1540.397516899975,1540.380829700036,1541.3808384998702,"[0, 0, 0]",1,1539.3974756000098,1541.3975116999354,,,,,,,,,,,,,,,,,,,1,M,3.2,42,r,,49,49,2022_Jul_05_1101,2020.2.10,distractmap,59.977640360920795,"['Left Leg', 'Left Face', 'Left Leg', 'Left Face']",
9,"[0.2, -0.2]",0,0,9,9,9,,,None,None,"[0, 0, 0]",1541.4141714998987,1543.4141913000494,1541.4141714998987,1542.4141660998575,1542.3975200999994,1543.397541699931,"[0, 0, 0]",0,1541.4141714998987,1543.4141913000494,,,,,,,,,,,,,,,,,,,1,M,3.2,42,r,,49,49,2022_Jul_05_1101,2020.2.10,distractmap,59.977640360920795,"['Left Leg', 'Left Face', 'Left Leg', 'Left Face']",
,,,,,,,,,,,,,,,,,,,,,,1543.4475229999516,None,,,,,,,,,,,,,,,,,1,M,3.2,42,r,,49,49,2022_Jul_05_1101,2020.2.10,distractmap,59.977640360920795,"['Left Leg', 'Left Face', 'Left Leg', 'Left Face']",
3,"[0.2, 0.2]",None,0,0,0,0,1553.4809512000065,None,None,None,"[0, 0, 0]",1558.497657599859,None,1558.497657599859,1559.4976742998697,1559.4809852000326,1560.4809943998698,"[0, 0, 0]",1,1558.497657599859,None,,,,,,,,,,,,,,,,,,,1,M,3.2,42,r,,49,49,2022_Jul_05_1101,2020.2.10,distractmap,59.977640360920795,"['Left Leg', 'Left Face', 'Left Leg', 'Left Face']",
9,"[0.2, -0.2]",None,0,1,1,1,,,None,None,"[0, 0, 0]",1560.49767479999,1562.4976750998758,1560.49767479999,1561.4976717000827,1561.4810134998988,1562.4810152999125,"[0, 0, 0]",1,1560.49767479999,1562.4976750998758,,,,,,,,,,,,,,,,,,,1,M,3.2,42,r,,49,49,2022_Jul_05_1101,2020.2.10,distractmap,59.977640360920795,"['Left Leg', 'Left Face', 'Left Leg', 'Left Face']",
3,"[0.2, 0.2]",1,0,2,2,2,,,None,None,"[0, 0, 0]",1562.514361599926,1564.5143804999534,1562.514361599926,1563.5143597999122,1563.4976989999413,1564.4976977999322,"[0, 0, 0]",1,1562.514361599926,1564.5143804999534,,,,,,,,,,,,,,,,,,,1,M,3.2,42,r,,49,49,2022_Jul_05_1101,2020.2.10,distractmap,59.977640360920795,"['Left Leg', 'Left Face', 'Left Leg', 'Left Face']",
7,"[-0.2, -0.2]",0,0,3,3,3,,,None,None,"[0, 0, 0]",1564.5310299999546,1566.5311397998594,1564.5310299999546,1565.531034299871,1565.5143955000676,1566.5143951000646,"[0, 0, 0]",1,1564.5310299999546,1566.5311397998594,,,,,,,,,,,,,,,,,,,1,M,3.2,42,r,,49,49,2022_Jul_05_1101,2020.2.10,distractmap,59.977640360920795,"['Left Leg', 'Left Face', 'Left Leg', 'Left Face']",
8,"[0, -0.2]",0,0,4,4,4,,,None,None,"[0, 0, 0]",1566.5477346999105,1568.5477483998984,1566.5477346999105,1567.547733000014,1567.5310569999274,1568.530995799927,"[0, 0, 0]",1,1566.5477346999105,1568.5477483998984,,,,,,,,,,,,,,,,,,,1,M,3.2,42,r,,49,49,2022_Jul_05_1101,2020.2.10,distractmap,59.977640360920795,"['Left Leg', 'Left Face', 'Left Leg', 'Left Face']",
4,"[-0.2, 0]",0,0,5,5,5,,,None,None,"[0, 0, 0]",1568.5643984999042,1570.564432800049,1568.5643984999042,1569.5644062999636,1569.5478099999018,1570.5477613999974,"[0, 0, 0]",1,1568.5643984999042,1570.564432800049,,,,,,,,,,,,,,,,,,,1,M,3.2,42,r,,49,49,2022_Jul_05_1101,2020.2.10,distractmap,59.977640360920795,"['Left Leg', 'Left Face', 'Left Leg', 'Left Face']",
4,"[-0.2, 0]",0,0,6,6,6,,,None,None,"[0, 0, 0]",1570.5811109999195,1572.5811117000412,1570.5811109999195,1571.581104699988,1571.5643970000092,1572.5644330000505,"[0, 0, 0]",1,1570.5811109999195,1572.5811117000412,,,,,,,,,,,,,,,,,,,1,M,3.2,42,r,,49,49,2022_Jul_05_1101,2020.2.10,distractmap,59.977640360920795,"['Left Leg', 'Left Face', 'Left Leg', 'Left Face']",
1,"[-0.2, 0.2]",0,0,7,7,7,,,None,None,"[0, 0, 0]",1572.5977823000867,1574.597797299968,1572.5977823000867,1573.5978069000412,1573.581107799895,1574.5811211999971,"[0, 0, 0]",1,1572.5977823000867,1574.597797299968,,,,,,,,,,,,,,,,,,,1,M,3.2,42,r,,49,49,2022_Jul_05_1101,2020.2.10,distractmap,59.977640360920795,"['Left Leg', 'Left Face', 'Left Leg', 'Left Face']",
4,"[-0.2, 0]",1,0,8,8,8,,,None,None,"[0, 0, 0]",1574.614464999875,1576.6144646999892,1574.614464999875,1575.6144920000806,1575.59780759993,1576.5978005998768,"[0, 0, 0]",1,1574.614464999875,1576.6144646999892,,,,,,,,,,,,,,,,,,,1,M,3.2,42,r,,49,49,2022_Jul_05_1101,2020.2.10,distractmap,59.977640360920795,"['Left Leg', 'Left Face', 'Left Leg', 'Left Face']",
8,"[0, -0.2]",0,0,9,9,9,,,None,None,"[0, 0, 0]",1576.631142300088,1578.6311482999008,1576.631142300088,1577.631153699942,1577.6144898999482,1578.6145754999015,"[0, 0, 0]",1,1576.631142300088,1578.6311482999008,,,,,,,,,,,,,,,,,,,1,M,3.2,42,r,,49,49,2022_Jul_05_1101,2020.2.10,distractmap,59.977640360920795,"['Left Leg', 'Left Face', 'Left Leg', 'Left Face']",
,,,,,,,,,,,,,,,,,,,,,,1578.66440410004,None,,,,,,,,,,,,,,,,,1,M,3.2,42,r,,49,49,2022_Jul_05_1101,2020.2.10,distractmap,59.977640360920795,"['Left Leg', 'Left Face', 'Left Leg', 'Left Face']",
2,"[0, 0.2]",None,0,0,0,0,1588.6979366999585,None,None,None,"[0, 0, 0]",1593.7146683998872,None,1593.7146683998872,1594.7146439000499,1594.6979686999694,1595.6980059000198,"[0, 0, 0]",1,1593.7146683998872,None,,,,,,,,,,,,,,,,,,,1,M,3.2,42,r,,49,49,2022_Jul_05_1101,2020.2.10,distractmap,59.977640360920795,"['Left Leg', 'Left Face', 'Left Leg', 'Left Face']",
5,"[0, 0]",None,0,1,1,1,,,None,None,"[0, 0, 0]",1595.7146685998887,1597.714667199878,1595.7146685998887,1596.714661099948,1596.697982300073,1597.6980121999513,"[0, 0, 0]",1,1595.7146685998887,1597.714667199878,,,,,,,,,,,,,,,,,,,1,M,3.2,42,r,,49,49,2022_Jul_05_1101,2020.2.10,distractmap,59.977640360920795,"['Left Leg', 'Left Face', 'Left Leg', 'Left Face']",
3,"[0.2, 0.2]",0,0,2,2,2,,,None,None,"[0, 0, 0]",1597.7313206000254,1599.731337999925,1597.7313206000254,1598.731331099989,1598.7146715999115,1599.7147033999208,"[0, 0, 0]",1,1597.7313206000254,1599.731337999925,,,,,,,,,,,,,,,,,,,1,M,3.2,42,r,,49,49,2022_Jul_05_1101,2020.2.10,distractmap,59.977640360920795,"['Left Leg', 'Left Face', 'Left Leg', 'Left Face']",
5,"[0, 0]",1,0,3,3,3,,,None,None,"[0, 0, 0]",1599.7480184999295,1601.74803779996,1599.7480184999295,1600.7480293000117,1600.731244100025,1601.7313721999526,"[0, 0, 0]",0,1599.7480184999295,1601.74803779996,,,,,,,,,,,,,,,,,,,1,M,3.2,42,r,,49,49,2022_Jul_05_1101,2020.2.10,distractmap,59.977640360920795,"['Left Leg', 'Left Face', 'Left Leg', 'Left Face']",
2,"[0, 0.2]",0,0,4,4,4,,,None,None,"[0, 0, 0]",1601.764762399951,1603.764722299995,1601.764762399951,1602.764710099902,1602.748028199887,1603.7480522000697,"[0, 0, 0]",1,1601.764762399951,1603.764722299995,,,,,,,,,,,,,,,,,,,1,M,3.2,42,r,,49,49,2022_Jul_05_1101,2020.2.10,distractmap,59.977640360920795,"['Left Leg', 'Left Face', 'Left Leg', 'Left Face']",
8,"[0, -0.2]",0,0,5,5,5,,,None,None,"[0, 0, 0]",1603.781381699955,1605.7814096000511,1603.781381699955,1604.7813996998593,1604.764732300071,1605.7647319999523,"[0, 0, 0]",1,1603.781381699955,1605.7814096000511,,,,,,,,,,,,,,,,,,,1,M,3.2,42,r,,49,49,2022_Jul_05_1101,2020.2.10,distractmap,59.977640360920795,"['Left Leg', 'Left Face', 'Left Leg', 'Left Face']",
4,"[-0.2, 0]",0,0,6,6,6,,,None,None,"[0, 0, 0]",1605.7979744998738,1607.7980794999748,1605.7979744998738,1606.798068499891,1606.781409200048,1607.781376299914,"[0, 0, 0]",1,1605.7979744998738,1607.7980794999748,,,,,,,,,,,,,,,,,,,1,M,3.2,42,r,,49,49,2022_Jul_05_1101,2020.2.10,distractmap,59.977640360920795,"['Left Leg', 'Left Face', 'Left Leg', 'Left Face']",
8,"[0, -0.2]",1,0,7,7,7,,,None,None,"[0, 0, 0]",1607.8147450999822,1609.814787399955,1607.8147450999822,1608.814762599999,1608.7981066000648,1609.79808759992,"[0, 0, 0]",1,1607.8147450999822,1609.814787399955,,,,,,,,,,,,,,,,,,,1,M,3.2,42,r,,49,49,2022_Jul_05_1101,2020.2.10,distractmap,59.977640360920795,"['Left Leg', 'Left Face', 'Left Leg', 'Left Face']",
7,"[-0.2, -0.2]",0,0,8,8,8,,,None,None,"[0, 0, 0]",1609.8314473000355,1611.83146269992,1609.8314473000355,1610.8314568998758,1610.8147732999641,1611.8147976000328,"[0, 0, 0]",1,1609.8314473000355,1611.83146269992,,,,,,,,,,,,,,,,,,,1,M,3.2,42,r,,49,49,2022_Jul_05_1101,2020.2.10,distractmap,59.977640360920795,"['Left Leg', 'Left Face', 'Left Leg', 'Left Face']",
8,"[0, -0.2]",1,0,9,9,9,,,None,None,"[0, 0, 0]",1611.848113700049,1613.8481411999092,1611.848113700049,1612.8481165000703,1612.831473799888,1613.8314703998622,"[0, 0, 0]",0,1611.848113700049,1613.8481411999092,,,,,,,,,,,,,,,,,,,1,M,3.2,42,r,,49,49,2022_Jul_05_1101,2020.2.10,distractmap,59.977640360920795,"['Left Leg', 'Left Face', 'Left Leg', 'Left Face']",
,,,,,,,,,,,,,,,,,,,,,,1613.8814838000108,None,,,,,,,,,,,,,,,,,1,M,3.2,42,r,,49,49,2022_Jul_05_1101,2020.2.10,distractmap,59.977640360920795,"['Left Leg', 'Left Face', 'Left Leg', 'Left Face']",
,,,,,,,1643.898417700082,None,,,,,,,,,,,,,,,,,,,,,,,,,,1623.8982309000567,None,30.49382716049383,1604.2539198903833,,,1,M,3.2,42,r,,49,49,2022_Jul_05_1101,2020.2.10,distractmap,59.977640360920795,"['Left Leg', 'Left Face', 'Left Leg', 'Left Face']",
,,,,,,,1678.9153618998826,None,,,,,,,,,,,,,,,,,,,,,,,,,,1658.9152013000567,None,30.80246913580247,1639.8213207903318,0.014766409760341048,5.01190950977616,1,M,3.2,42,r,,49,49,2022_Jul_05_1101,2020.2.10,distractmap,59.977640360920795,"['Left Leg', 'Left Face', 'Left Leg', 'Left Face']",
,,,,,,,1713.9323628998827,None,,,,,,,,,,,,,,,,,,,,,,,,,,1693.9321663000155,None,31.049382716049383,1672.2384193900507,0.014353509759530425,5.011243009706959,1,M,3.2,42,r,,49,49,2022_Jul_05_1101,2020.2.10,distractmap,59.977640360920795,"['Left Leg', 'Left Face', 'Left Leg', 'Left Face']",
2,"[0, 0.2]",None,0,0,0,0,1727.182650799863,None,None,None,"[0, 0, 0]",1733.9992104999255,None,1733.9992104999255,1734.9992249000352,1734.9825533998664,1735.9825575998984,"[0, 0, 0]",1,1733.9992104999255,None,,,,,,,,,,,,,,,,,0.014212209964171052,5.0108999100048095,1,M,3.2,42,r,,49,49,2022_Jul_05_1101,2020.2.10,distractmap,59.977640360920795,"['Left Leg', 'Left Face', 'Left Leg', 'Left Face']",
2,"[0, 0.2]",None,0,1,1,1,,,None,None,"[0, 0, 0]",1735.9992128000595,1737.9992352998815,1735.9992128000595,1736.9992245000321,1736.982553299982,1737.982586099999,"[0, 0, 0]",1,1735.9992128000595,1737.9992352998815,,,,,,,,,,,,,,,,,,,1,M,3.2,42,r,,49,49,2022_Jul_05_1101,2020.2.10,distractmap,59.977640360920795,"['Left Leg', 'Left Face', 'Left Leg', 'Left Face']",
2,"[0, 0.2]",1,0,2,2,2,,,None,None,"[0, 0, 0]",1738.0159048999194,1740.0159237000626,1738.0159048999194,1739.0159211000428,1738.99924429995,1739.9991697000805,"[0, 0, 0]",1,1738.0159048999194,1740.0159237000626,,,,,,,,,,,,,,,,,,,1,M,3.2,42,r,,49,49,2022_Jul_05_1101,2020.2.10,distractmap,59.977640360920795,"['Left Leg', 'Left Face', 'Left Leg', 'Left Face']",
8,"[0, -0.2]",0,0,3,3,3,,,None,None,"[0, 0, 0]",1740.0325946998782,1742.0326159000397,1740.0325946998782,1741.0326044000685,1741.0159503999166,1742.0159229999408,"[0, 0, 0]",1,1740.0325946998782,1742.0326159000397,,,,,,,,,,,,,,,,,,,1,M,3.2,42,r,,49,49,2022_Jul_05_1101,2020.2.10,distractmap,59.977640360920795,"['Left Leg', 'Left Face', 'Left Leg', 'Left Face']",
2,"[0, 0.2]",1,0,4,4,4,,,None,None,"[0, 0, 0]",1742.116384099936,None,1742.116384099936,1743.1159490998834,1743.0992892000359,None,"[0, 0, 0]",1,1742.116384099936,None,,,,,,,,,,,,,,,,,,,1,M,3.2,42,r,,49,49,2022_Jul_05_1101,2020.2.10,distractmap,59.977640360920795,"['Left Leg', 'Left Face', 'Left Leg', 'Left Face']",
5,"[0, 0]",0,0,5,5,5,,,None,None,"[0, 0, 0]",1744.065966400085,1746.0659819000866,1744.065966400085,1745.0659737999085,1745.0492984999437,1746.0492503000423,"[0, 0, 0]",1,1744.065966400085,1746.0659819000866,,,,,,,,,,,,,,,,,,,1,M,3.2,42,r,,49,49,2022_Jul_05_1101,2020.2.10,distractmap,59.977640360920795,"['Left Leg', 'Left Face', 'Left Leg', 'Left Face']",
1,"[-0.2, 0.2]",0,0,6,6,6,,,None,None,"[0, 0, 0]",1746.0826315998565,1748.0826721000485,1746.0826315998565,1747.082654299913,1747.0659938000608,1748.0659855999984,"[0, 0, 0]",1,1746.0826315998565,1748.0826721000485,,,,,,,,,,,,,,,,,,,1,M,3.2,42,r,,49,49,2022_Jul_05_1101,2020.2.10,distractmap,59.977640360920795,"['Left Leg', 'Left Face', 'Left Leg', 'Left Face']",
1,"[-0.2, 0.2]",0,0,7,7,7,,,None,None,"[0, 0, 0]",1748.0993335999083,1750.0993359000422,1748.0993335999083,1749.0993397000711,1749.0826703999192,1750.0826751999557,"[0, 0, 0]",1,1748.0993335999083,1750.0993359000422,,,,,,,,,,,,,,,,,,,1,M,3.2,42,r,,49,49,2022_Jul_05_1101,2020.2.10,distractmap,59.977640360920795,"['Left Leg', 'Left Face', 'Left Leg', 'Left Face']",
6,"[0.2, 0]",0,0,8,8,8,,,None,None,"[0, 0, 0]",1750.1160013999324,1752.1160323000513,1750.1160013999324,1751.1160216999706,1751.0993621000089,1752.0993596999906,"[0, 0, 0]",1,1750.1160013999324,1752.1160323000513,,,,,,,,,,,,,,,,,,,1,M,3.2,42,r,,49,49,2022_Jul_05_1101,2020.2.10,distractmap,59.977640360920795,"['Left Leg', 'Left Face', 'Left Leg', 'Left Face']",
1,"[-0.2, 0.2]",1,0,9,9,9,,,None,None,"[0, 0, 0]",1752.1326810000464,1754.1327249000315,1752.1326810000464,1753.132720099995,1753.1160365999676,1754.1160341999494,"[0, 0, 0]",1,1752.1326810000464,1754.1327249000315,,,,,,,,,,,,,,,,,,,1,M,3.2,42,r,,49,49,2022_Jul_05_1101,2020.2.10,distractmap,59.977640360920795,"['Left Leg', 'Left Face', 'Left Leg', 'Left Face']",
,,,,,,,,,,,,,,,,,,,,,,1754.1660452000797,None,,,,,,,,,,,,,,,,,1,M,3.2,42,r,,49,49,2022_Jul_05_1101,2020.2.10,distractmap,59.977640360920795,"['Left Leg', 'Left Face', 'Left Leg', 'Left Face']",
,,,,,,,,,,,,,,,,,,,,,,,,,,,,,,,,,,,,16.296296296296298,1712.5407734904438,,,1,M,3.2,42,r,,49,49,2022_Jul_05_1101,2020.2.10,distractmap,59.977640360920795,"['Left Leg', 'Left Face', 'Left Leg', 'Left Face']",
3,"[0.2, 0.2]",None,0,0,0,0,1767.433184399968,None,None,None,"[0, 0, 0]",1774.2328965999186,None,1774.2328965999186,1775.2329205998685,1775.2162245998625,1776.2162621000316,"[0, 0, 0]",1,1774.2328965999186,None,,,,,,,,,,,,,,,,,0.01222200971096754,5.006864809663966,1,M,3.2,42,r,,49,49,2022_Jul_05_1101,2020.2.10,distractmap,59.977640360920795,"['Left Leg', 'Left Face', 'Left Leg', 'Left Face']",
3,"[0.2, 0.2]",None,0,1,1,1,,,None,None,"[0, 0, 0]",1776.2329255000222,1778.2329406000208,1776.2329255000222,1777.2329168999568,1777.2161598000675,1778.2162609000225,"[0, 0, 0]",1,1776.2329255000222,1778.2329406000208,,,,,,,,,,,,,,,,,,,1,M,3.2,42,r,,49,49,2022_Jul_05_1101,2020.2.10,distractmap,59.977640360920795,"['Left Leg', 'Left Face', 'Left Leg', 'Left Face']",
5,"[0, 0]",0,0,2,2,2,,,None,None,"[0, 0, 0]",1778.2495883000083,1780.249609200051,1778.2495883000083,1779.2496070999186,1779.232958599925,1780.2329589000437,"[0, 0, 0]",1,1778.2495883000083,1780.249609200051,,,,,,,,,,,,,,,,,,,1,M,3.2,42,r,,49,49,2022_Jul_05_1101,2020.2.10,distractmap,59.977640360920795,"['Left Leg', 'Left Face', 'Left Leg', 'Left Face']",
1,"[-0.2, 0.2]",0,0,3,3,3,,,None,None,"[0, 0, 0]",1780.2662788999733,1782.2662859000266,1780.2662788999733,1781.2661885998677,1781.2496128000785,1782.2496325999964,"[0, 0, 0]",1,1780.2662788999733,1782.2662859000266,,,,,,,,,,,,,,,,,,,1,M,3.2,42,r,,49,49,2022_Jul_05_1101,2020.2.10,distractmap,59.977640360920795,"['Left Leg', 'Left Face', 'Left Leg', 'Left Face']",
5,"[0, 0]",1,0,4,4,4,,,None,None,"[0, 0, 0]",1782.3330033000093,None,1782.3330033000093,1783.3329839999788,1783.3162932000123,None,"[0, 0, 0]",0,1782.3330033000093,None,,,,,,,,,,,,,,,,,,,1,M,3.2,42,r,,49,49,2022_Jul_05_1101,2020.2.10,distractmap,59.977640360920795,"['Left Leg', 'Left Face', 'Left Leg', 'Left Face']",
8,"[0, -0.2]",0,0,5,5,5,,,None,None,"[0, 0, 0]",1784.2996656999458,1786.299732599873,1784.2996656999458,1785.2996739998925,1785.2829791998956,1786.2829909999855,"[0, 0, 0]",1,1784.2996656999458,1786.299732599873,,,,,,,,,,,,,,,,,,,1,M,3.2,42,r,,49,49,2022_Jul_05_1101,2020.2.10,distractmap,59.977640360920795,"['Left Leg', 'Left Face', 'Left Leg', 'Left Face']",
5,"[0, 0]",1,0,6,6,6,,,None,None,"[0, 0, 0]",1786.316324400017,1788.3163387998939,1786.316324400017,1787.3163457000628,1787.2996841000859,1788.299685999984,"[0, 0, 0]",1,1786.316324400017,1788.3163387998939,,,,,,,,,,,,,,,,,,,1,M,3.2,42,r,,49,49,2022_Jul_05_1101,2020.2.10,distractmap,59.977640360920795,"['Left Leg', 'Left Face', 'Left Leg', 'Left Face']",
7,"[-0.2, -0.2]",0,0,7,7,7,,,None,None,"[0, 0, 0]",1788.3329411000013,1790.3330327998847,1788.3329411000013,1789.3330165999942,1789.316348100081,1790.3163747999351,"[0, 0, 0]",1,1788.3329411000013,1790.3330327998847,,,,,,,,,,,,,,,,,,,1,M,3.2,42,r,,49,49,2022_Jul_05_1101,2020.2.10,distractmap,59.977640360920795,"['Left Leg', 'Left Face', 'Left Leg', 'Left Face']",
5,"[0, 0]",1,0,8,8,8,,,None,None,"[0, 0, 0]",1790.3497180000413,1792.349725099979,1790.3497180000413,1791.3497283000033,1791.3330471999943,1792.3330468998756,"[0, 0, 0]",1,1790.3497180000413,1792.349725099979,,,,,,,,,,,,,,,,,,,1,M,3.2,42,r,,49,49,2022_Jul_05_1101,2020.2.10,distractmap,59.977640360920795,"['Left Leg', 'Left Face', 'Left Leg', 'Left Face']",
7,"[-0.2, -0.2]",1,0,9,9,9,,,None,None,"[0, 0, 0]",1792.366392099997,1794.3664082998876,1792.366392099997,1793.3663846999407,1793.3497409999836,1794.3497526999563,"[0, 0, 0]",1,1792.366392099997,1794.3664082998876,,,,,,,,,,,,,,,,,,,1,M,3.2,42,r,,49,49,2022_Jul_05_1101,2020.2.10,distractmap,59.977640360920795,"['Left Leg', 'Left Face', 'Left Leg', 'Left Face']",
,,,,,,,,,,,,,,,,,,,,,,1794.3997525998857,None,,,,,,,,,,,,,,,,,1,M,3.2,42,r,,49,49,2022_Jul_05_1101,2020.2.10,distractmap,59.977640360920795,"['Left Leg', 'Left Face', 'Left Leg', 'Left Face']",
,,,,,,,,,,,,,,,,,,,,,,,,,,,,,,,,,,,,19.259259259259256,1757.0741978900041,,,1,M,3.2,42,r,,49,49,2022_Jul_05_1101,2020.2.10,distractmap,59.977640360920795,"['Left Leg', 'Left Face', 'Left Leg', 'Left Face']",
6,"[0.2, 0]",None,0,0,0,0,1811.6833426998928,None,None,None,"[0, 0, 0]",1814.4665864999406,None,1814.4665864999406,1815.4665973000228,1815.4499645999167,1816.4499637999106,"[0, 0, 0]",1,1814.4665864999406,None,,,,,,,,,,,,,,,,,0.012499510077759624,5.007479910040274,1,M,3.2,42,r,,49,49,2022_Jul_05_1101,2020.2.10,distractmap,59.977640360920795,"['Left Leg', 'Left Face', 'Left Leg', 'Left Face']",
1,"[-0.2, 0.2]",None,0,1,1,1,,,None,None,"[0, 0, 0]",1816.4665943,1818.466619899962,1816.4665943,1817.466608799994,1817.4499760998879,1818.4499822000507,"[0, 0, 0]",1,1816.4665943,1818.466619899962,,,,,,,,,,,,,,,,,,,1,M,3.2,42,r,,49,49,2022_Jul_05_1101,2020.2.10,distractmap,59.977640360920795,"['Left Leg', 'Left Face', 'Left Leg', 'Left Face']",
6,"[0.2, 0]",1,0,2,2,2,,,None,None,"[0, 0, 0]",1818.4831922999583,1820.4833058000077,1818.4831922999583,1819.4832869998645,1819.466633199947,1820.4666309000459,"[0, 0, 0]",1,1818.4831922999583,1820.4833058000077,,,,,,,,,,,,,,,,,,,1,M,3.2,42,r,,49,49,2022_Jul_05_1101,2020.2.10,distractmap,59.977640360920795,"['Left Leg', 'Left Face', 'Left Leg', 'Left Face']",
4,"[-0.2, 0]",0,0,3,3,3,,,None,None,"[0, 0, 0]",1820.4999851998873,1822.4999913999345,1820.4999851998873,1821.5000022000168,1821.4833154000808,1822.4833168999758,"[0, 0, 0]",1,1820.4999851998873,1822.4999913999345,,,,,,,,,,,,,,,,,,,1,M,3.2,42,r,,49,49,2022_Jul_05_1101,2020.2.10,distractmap,59.977640360920795,"['Left Leg', 'Left Face', 'Left Leg', 'Left Face']",
1,"[-0.2, 0.2]",0,0,4,4,4,,,None,None,"[0, 0, 0]",1822.5667135000695,None,1822.5667135000695,1823.566666800063,1823.5500189999584,None,"[0, 0, 0]",0,1822.5667135000695,None,,,,,,,,,,,,,,,,,,,1,M,3.2,42,r,,49,49,2022_Jul_05_1101,2020.2.10,distractmap,59.977640360920795,"['Left Leg', 'Left Face', 'Left Leg', 'Left Face']",
8,"[0, -0.2]",0,0,5,5,5,,,None,None,"[0, 0, 0]",1824.5333425998688,1826.5333569999784,1824.5333425998688,1825.5333447998855,1825.516703600064,1826.5166948998813,"[0, 0, 0]",1,1824.5333425998688,1826.5333569999784,,,,,,,,,,,,,,,,,,,1,M,3.2,42,r,,49,49,2022_Jul_05_1101,2020.2.10,distractmap,59.977640360920795,"['Left Leg', 'Left Face', 'Left Leg', 'Left Face']",
1,"[-0.2, 0.2]",1,0,6,6,6,,,None,None,"[0, 0, 0]",1826.5500216998626,1828.5500310999341,1826.5500216998626,1827.550048999954,1827.5333555000834,1828.5333676000591,"[0, 0, 0]",1,1826.5500216998626,1828.5500310999341,,,,,,,,,,,,,,,,,,,1,M,3.2,42,r,,49,49,2022_Jul_05_1101,2020.2.10,distractmap,59.977640360920795,"['Left Leg', 'Left Face', 'Left Leg', 'Left Face']",
8,"[0, -0.2]",1,0,7,7,7,,,None,None,"[0, 0, 0]",1828.5667115000542,1830.566772799939,1828.5667115000542,1829.5667345998809,1829.5500729000196,1830.5500807999633,"[0, 0, 0]",1,1828.5667115000542,1830.566772799939,,,,,,,,,,,,,,,,,,,1,M,3.2,42,r,,49,49,2022_Jul_05_1101,2020.2.10,distractmap,59.977640360920795,"['Left Leg', 'Left Face', 'Left Leg', 'Left Face']",
1,"[-0.2, 0.2]",1,0,8,8,8,,,None,None,"[0, 0, 0]",1830.583391000051,1832.5834003000055,1830.583391000051,1831.583386400016,1831.5667556999251,1832.5666499999352,"[0, 0, 0]",1,1830.583391000051,1832.5834003000055,,,,,,,,,,,,,,,,,,,1,M,3.2,42,r,,49,49,2022_Jul_05_1101,2020.2.10,distractmap,59.977640360920795,"['Left Leg', 'Left Face', 'Left Leg', 'Left Face']",
6,"[0.2, 0]",0,0,9,9,9,,,None,None,"[0, 0, 0]",1832.6000919998623,1834.6001031000633,1832.6000919998623,1833.600115600042,1833.583425299963,1834.5834154998884,"[0, 0, 0]",1,1832.6000919998623,1834.6001031000633,,,,,,,,,,,,,,,,,,,1,M,3.2,42,r,,49,49,2022_Jul_05_1101,2020.2.10,distractmap,59.977640360920795,"['Left Leg', 'Left Face', 'Left Leg', 'Left Face']",
,,,,,,,,,,,,,,,,,,,,,,1834.6168434999418,None,,,,,,,,,,,,,,,,,1,M,3.2,42,r,,49,49,2022_Jul_05_1101,2020.2.10,distractmap,59.977640360920795,"['Left Leg', 'Left Face', 'Left Leg', 'Left Face']",
,,,,,,,,,,,,,,,,,,,,,,,,,,,,,,,,,,,,21.91358024691358,1796.124730490148,,,1,M,3.2,42,r,,49,49,2022_Jul_05_1101,2020.2.10,distractmap,59.977640360920795,"['Left Leg', 'Left Face', 'Left Leg', 'Left Face']",
7,"[-0.2, -0.2]",None,0,0,0,0,2036.735241000075,None,None,None,"[0, 0, 0]",2041.7519600000232,None,2041.7519600000232,2042.7519596999045,2042.7352791999,2043.7352791000158,"[0, 0, 0]",1,2041.7519600000232,None,,,,,,1907.3673981998581,1907.3673981998581,None,space,108.90243300003931,1907.3673981998581,None,,,,,0.0123206099960953,5.007134709972888,1,M,3.2,42,r,,49,49,2022_Jul_05_1101,2020.2.10,distractmap,59.977640360920795,"['Left Leg', 'Left Face', 'Left Leg', 'Left Face']",
7,"[-0.2, -0.2]",None,0,1,1,1,,,None,None,"[0, 0, 0]",2043.7519554998726,2045.751849199878,2043.7519554998726,2044.7519664999563,2044.7352984999306,2045.73530629999,"[0, 0, 0]",1,2043.7519554998726,2045.751849199878,,,,,,,,,,,,,,,,,,,1,M,3.2,42,r,,49,49,2022_Jul_05_1101,2020.2.10,distractmap,59.977640360920795,"['Left Leg', 'Left Face', 'Left Leg', 'Left Face']",
7,"[-0.2, -0.2]",1,0,2,2,2,,,None,None,"[0, 0, 0]",2045.768635299988,2047.76864819997,2045.768635299988,2046.7686423000414,2046.7519755000249,2047.7519779999275,"[0, 0, 0]",1,2045.768635299988,2047.76864819997,,,,,,,,,,,,,,,,,,,1,M,3.2,42,r,,49,49,2022_Jul_05_1101,2020.2.10,distractmap,59.977640360920795,"['Left Leg', 'Left Face', 'Left Leg', 'Left Face']",
5,"[0, 0]",0,0,3,3,3,,,None,None,"[0, 0, 0]",2047.7853111999575,2049.7853202999104,2047.7853111999575,2048.7853250000626,2048.768657699926,2049.768684499897,"[0, 0, 0]",1,2047.7853111999575,2049.7853202999104,,,,,,,,,,,,,,,,,,,1,M,3.2,42,r,,49,49,2022_Jul_05_1101,2020.2.10,distractmap,59.977640360920795,"['Left Leg', 'Left Face', 'Left Leg', 'Left Face']",
1,"[-0.2, 0.2]",0,0,4,4,4,,,None,None,"[0, 0, 0]",2049.802070299862,2051.802021499956,2049.802070299862,2050.80198800005,2050.7853367999196,2051.7853375999257,"[0, 0, 0]",1,2049.802070299862,2051.802021499956,,,,,,,,,,,,,,,,,,,1,M,3.2,42,r,,49,49,2022_Jul_05_1101,2020.2.10,distractmap,59.977640360920795,"['Left Leg', 'Left Face', 'Left Leg', 'Left Face']",
6,"[0.2, 0]",0,0,5,5,5,,,None,None,"[0, 0, 0]",2051.818699599942,2053.8187273000367,2051.818699599942,2052.818698399933,2052.80203250004,2053.8020367000718,"[0, 0, 0]",1,2051.818699599942,2053.8187273000367,,,,,,,,,,,,,,,,,,,1,M,3.2,42,r,,49,49,2022_Jul_05_1101,2020.2.10,distractmap,59.977640360920795,"['Left Leg', 'Left Face', 'Left Leg', 'Left Face']",
1,"[-0.2, 0.2]",1,0,6,6,6,,,None,None,"[0, 0, 0]",2053.835358399898,2055.8353860999923,2053.835358399898,2054.835389100015,2054.8187279000413,2055.8187257000245,"[0, 0, 0]",0,2053.835358399898,2055.8353860999923,,,,,,,,,,,,,,,,,,,1,M,3.2,42,r,,49,49,2022_Jul_05_1101,2020.2.10,distractmap,59.977640360920795,"['Left Leg', 'Left Face', 'Left Leg', 'Left Face']",
7,"[-0.2, -0.2]",0,0,7,7,7,,,None,None,"[0, 0, 0]",2055.852063199971,2057.8520770999603,2055.852063199971,2056.852053700015,2056.8354014998768,2057.8353917999193,"[0, 0, 0]",1,2055.852063199971,2057.8520770999603,,,,,,,,,,,,,,,,,,,1,M,3.2,42,r,,49,49,2022_Jul_05_1101,2020.2.10,distractmap,59.977640360920795,"['Left Leg', 'Left Face', 'Left Leg', 'Left Face']",
6,"[0.2, 0]",0,0,8,8,8,,,None,None,"[0, 0, 0]",2057.8687513999175,2059.868777199881,2057.8687513999175,2058.8687621999998,2058.8520909000654,2059.852115599904,"[0, 0, 0]",1,2057.8687513999175,2059.868777199881,,,,,,,,,,,,,,,,,,,1,M,3.2,42,r,,49,49,2022_Jul_05_1101,2020.2.10,distractmap,59.977640360920795,"['Left Leg', 'Left Face', 'Left Leg', 'Left Face']",
7,"[-0.2, -0.2]",1,0,9,9,9,,,None,None,"[0, 0, 0]",2059.8854276000056,2061.88543340005,2059.8854276000056,2060.885438499972,2060.8687851000577,2061.8687922998797,"[0, 0, 0]",1,2059.8854276000056,2061.88543340005,,,,,,,,,,,,,,,,,,,1,M,3.2,42,r,,49,49,2022_Jul_05_1101,2020.2.10,distractmap,59.977640360920795,"['Left Leg', 'Left Face', 'Left Leg', 'Left Face']",
,,,,,,,,,,,,,,,,,,,,,,2061.902139399899,None,,,,,,,,,,,,,,,,,1,M,3.2,42,r,,49,49,2022_Jul_05_1101,2020.2.10,distractmap,59.977640360920795,"['Left Leg', 'Left Face', 'Left Leg', 'Left Face']",
4,"[-0.2, 0]",None,0,0,0,0,2073.9355359999463,None,None,None,"[0, 0, 0]",2077.001432500081,None,2077.001432500081,2078.002234000014,2078.002234000014,None,"[0, 0, 0]",1,2077.001432500081,None,,,,,,,,,,,,,,,,,,,1,M,3.2,42,r,,49,49,2022_Jul_05_1101,2020.2.10,distractmap,59.977640360920795,"['Left Leg', 'Left Face', 'Left Leg', 'Left Face']",
5,"[0, 0]",None,0,1,1,1,,,None,None,"[0, 0, 0]",2078.9521832000464,2080.95222119987,2078.9521832000464,2079.9522587999236,2079.9355878999922,2080.9355949000455,"[0, 0, 0]",1,2078.9521832000464,2080.95222119987,,,,,,,,,,,,,,,,,,,1,M,3.2,42,r,,49,49,2022_Jul_05_1101,2020.2.10,distractmap,59.977640360920795,"['Left Leg', 'Left Face', 'Left Leg', 'Left Face']",
6,"[0.2, 0]",0,0,2,2,2,,,None,None,"[0, 0, 0]",2080.9689559000544,2082.9689513000194,2080.9689559000544,2081.9689579000697,2081.952273099916,2082.952302499907,"[0, 0, 0]",1,2080.9689559000544,2082.9689513000194,,,,,,,,,,,,,,,,,,,1,M,3.2,42,r,,49,49,2022_Jul_05_1101,2020.2.10,distractmap,59.977640360920795,"['Left Leg', 'Left Face', 'Left Leg', 'Left Face']",
1,"[-0.2, 0.2]",0,0,3,3,3,,,None,None,"[0, 0, 0]",2082.9856392999645,2084.985629099887,2082.9856392999645,2083.985621500062,2083.9689845000394,2084.9689646998886,"[0, 0, 0]",1,2082.9856392999645,2084.985629099887,,,,,,,,,,,,,,,,,,,1,M,3.2,42,r,,49,49,2022_Jul_05_1101,2020.2.10,distractmap,59.977640360920795,"['Left Leg', 'Left Face', 'Left Leg', 'Left Face']",
6,"[0.2, 0]",1,0,4,4,4,,,None,None,"[0, 0, 0]",2085.002315700054,2087.002329299925,2085.002315700054,2086.002317199949,2085.9856408999767,2086.9856575999875,"[0, 0, 0]",1,2085.002315700054,2087.002329299925,,,,,,,,,,,,,,,,,,,1,M,3.2,42,r,,49,49,2022_Jul_05_1101,2020.2.10,distractmap,59.977640360920795,"['Left Leg', 'Left Face', 'Left Leg', 'Left Face']",
1,"[-0.2, 0.2]",1,0,5,5,5,,,None,None,"[0, 0, 0]",2087.0189873999916,2089.0190091000404,2087.0189873999916,2088.019015699858,2088.002325600013,2089.0023407000117,"[0, 0, 0]",1,2087.0189873999916,2089.0190091000404,,,,,,,,,,,,,,,,,,,1,M,3.2,42,r,,49,49,2022_Jul_05_1101,2020.2.10,distractmap,59.977640360920795,"['Left Leg', 'Left Face', 'Left Leg', 'Left Face']",
2,"[0, 0.2]",0,0,6,6,6,,,None,None,"[0, 0, 0]",2089.0356672999915,2091.035734300036,2089.0356672999915,2090.0356745000463,2090.019016499864,2091.019035999896,"[0, 0, 0]",1,2089.0356672999915,2091.035734300036,,,,,,,,,,,,,,,,,,,1,M,3.2,42,r,,49,49,2022_Jul_05_1101,2020.2.10,distractmap,59.977640360920795,"['Left Leg', 'Left Face', 'Left Leg', 'Left Face']",
3,"[0.2, 0.2]",0,0,7,7,7,,,None,None,"[0, 0, 0]",2091.0523532999214,2093.052367300028,2091.0523532999214,2092.0523814999033,2092.0356928999536,2093.0357562000863,"[0, 0, 0]",1,2091.0523532999214,2093.052367300028,,,,,,,,,,,,,,,,,,,1,M,3.2,42,r,,49,49,2022_Jul_05_1101,2020.2.10,distractmap,59.977640360920795,"['Left Leg', 'Left Face', 'Left Leg', 'Left Face']",
6,"[0.2, 0]",0,0,8,8,8,,,None,None,"[0, 0, 0]",2093.06905140006,2095.0690470999107,2093.06905140006,2094.0690577998757,2094.0523915998638,2095.052387200063,"[0, 0, 0]",1,2093.06905140006,2095.0690470999107,,,,,,,,,,,,,,,,,,,1,M,3.2,42,r,,49,49,2022_Jul_05_1101,2020.2.10,distractmap,59.977640360920795,"['Left Leg', 'Left Face', 'Left Leg', 'Left Face']",
3,"[0.2, 0.2]",1,0,9,9,9,,,None,None,"[0, 0, 0]",2095.0856544000562,2097.0857627999503,2095.0856544000562,2096.0857178000733,2096.06909419992,2097.069106400013,"[0, 0, 0]",1,2095.0856544000562,2097.0857627999503,,,,,,,,,,,,,,,,,,,1,M,3.2,42,r,,49,49,2022_Jul_05_1101,2020.2.10,distractmap,59.977640360920795,"['Left Leg', 'Left Face', 'Left Leg', 'Left Face']",
,,,,,,,,,,,,,,,,,,,,,,2097.118972599972,None,,,,,,,,,,,,,,,,,1,M,3.2,42,r,,49,49,2022_Jul_05_1101,2020.2.10,distractmap,59.977640360920795,"['Left Leg', 'Left Face', 'Left Leg', 'Left Face']",
2,"[0, 0.2]",None,0,0,0,0,2109.152546599973,None,None,None,"[0, 0, 0]",2112.1692160998937,None,2112.1692160998937,2113.1692164998967,2113.152560000075,2114.1525802998804,"[0, 0, 0]",1,2112.1692160998937,None,,,,,,,,,,,,,,,,,,,1,M,3.2,42,r,,49,49,2022_Jul_05_1101,2020.2.10,distractmap,59.977640360920795,"['Left Leg', 'Left Face', 'Left Leg', 'Left Face']",
5,"[0, 0]",None,0,1,1,1,,,None,None,"[0, 0, 0]",2114.1691540998872,2116.169324199902,2114.1691540998872,2115.169241799973,2115.152576100081,2116.152580599999,"[0, 0, 0]",1,2114.1691540998872,2116.169324199902,,,,,,,,,,,,,,,,,,,1,M,3.2,42,r,,49,49,2022_Jul_05_1101,2020.2.10,distractmap,59.977640360920795,"['Left Leg', 'Left Face', 'Left Leg', 'Left Face']",
6,"[0.2, 0]",0,0,2,2,2,,,None,None,"[0, 0, 0]",2116.1859420998953,2118.18592219986,2116.1859420998953,2117.1860112999566,2117.169429499889,2118.16930170008,"[0, 0, 0]",1,2116.1859420998953,2118.18592219986,,,,,,,,,,,,,,,,,,,1,M,3.2,42,r,,49,49,2022_Jul_05_1101,2020.2.10,distractmap,59.977640360920795,"['Left Leg', 'Left Face', 'Left Leg', 'Left Face']",
1,"[-0.2, 0.2]",0,0,3,3,3,,,None,None,"[0, 0, 0]",2118.202605099883,2120.2026736000553,2118.202605099883,2119.2026185998693,2119.1859484000597,2120.1859426999,"[0, 0, 0]",1,2118.202605099883,2120.2026736000553,,,,,,,,,,,,,,,,,,,1,M,3.2,42,r,,49,49,2022_Jul_05_1101,2020.2.10,distractmap,59.977640360920795,"['Left Leg', 'Left Face', 'Left Leg', 'Left Face']",
6,"[0.2, 0]",1,0,4,4,4,,,None,None,"[0, 0, 0]",2120.2192905999254,2122.2192943999544,2120.2192905999254,2121.2192989999894,2121.2026249000337,2122.202642099932,"[0, 0, 0]",0,2120.2192905999254,2122.2192943999544,,,,,,,,,,,,,,,,,,,1,M,3.2,42,r,,49,49,2022_Jul_05_1101,2020.2.10,distractmap,59.977640360920795,"['Left Leg', 'Left Face', 'Left Leg', 'Left Face']",
6,"[0.2, 0]",0,0,5,5,5,,,None,None,"[0, 0, 0]",2122.2359784999862,2124.235965099884,2122.2359784999862,2123.2359698999207,2123.2193219000474,2124.219323300058,"[0, 0, 0]",1,2122.2359784999862,2124.235965099884,,,,,,,,,,,,,,,,,,,1,M,3.2,42,r,,49,49,2022_Jul_05_1101,2020.2.10,distractmap,59.977640360920795,"['Left Leg', 'Left Face', 'Left Leg', 'Left Face']",
9,"[0.2, -0.2]",0,0,6,6,6,,,None,None,"[0, 0, 0]",2124.2526568998583,2126.2525754000526,2124.2526568998583,2125.2526592998765,2125.235993699869,2126.2359956,"[0, 0, 0]",1,2124.2526568998583,2126.2525754000526,,,,,,,,,,,,,,,,,,,1,M,3.2,42,r,,49,49,2022_Jul_05_1101,2020.2.10,distractmap,59.977640360920795,"['Left Leg', 'Left Face', 'Left Leg', 'Left Face']",
6,"[0.2, 0]",1,0,7,7,7,,,None,None,"[0, 0, 0]",2126.269348199945,2128.2693602999207,2126.269348199945,2127.2693551999982,2127.2526894998737,2128.252715700073,"[0, 0, 0]",1,2126.269348199945,2128.2693602999207,,,,,,,,,,,,,,,,,,,1,M,3.2,42,r,,49,49,2022_Jul_05_1101,2020.2.10,distractmap,59.977640360920795,"['Left Leg', 'Left Face', 'Left Leg', 'Left Face']",
3,"[0.2, 0.2]",0,0,8,8,8,,,None,None,"[0, 0, 0]",2128.28601479996,2130.286041500047,2128.28601479996,2129.2860409000423,2129.26936149993,2130.2693809000775,"[0, 0, 0]",1,2128.28601479996,2130.286041500047,,,,,,,,,,,,,,,,,,,1,M,3.2,42,r,,49,49,2022_Jul_05_1101,2020.2.10,distractmap,59.977640360920795,"['Left Leg', 'Left Face', 'Left Leg', 'Left Face']",
9,"[0.2, -0.2]",0,0,9,9,9,,,None,None,"[0, 0, 0]",2130.3027287998702,2132.3027319998946,2130.3027287998702,2131.302738300059,2131.286044199951,2132.2860467000864,"[0, 0, 0]",1,2130.3027287998702,2132.3027319998946,,,,,,,,,,,,,,,,,,,1,M,3.2,42,r,,49,49,2022_Jul_05_1101,2020.2.10,distractmap,59.977640360920795,"['Left Leg', 'Left Face', 'Left Leg', 'Left Face']",
,,,,,,,,,,,,,,,,,,,,,,2132.336068799952,None,,,,,,,,,,,,,,,,,1,M,3.2,42,r,,49,49,2022_Jul_05_1101,2020.2.10,distractmap,59.977640360920795,"['Left Leg', 'Left Face', 'Left Leg', 'Left Face']",
3,"[0.2, 0.2]",None,0,0,0,0,2144.786449600011,None,None,None,"[0, 0, 0]",2147.402869099984,None,2147.402869099984,2148.4028691998683,2148.3862064999994,2149.3862020000815,"[0, 0, 0]",1,2147.402869099984,None,,,,,,,,,,,,,,,,,,,1,M,3.2,42,r,,49,49,2022_Jul_05_1101,2020.2.10,distractmap,59.977640360920795,"['Left Leg', 'Left Face', 'Left Leg', 'Left Face']",
9,"[0.2, -0.2]",None,0,1,1,1,,,None,None,"[0, 0, 0]",2149.40289129992,2151.402932799887,2149.40289129992,2150.402881300077,2150.386223499896,2151.3862318000756,"[0, 0, 0]",1,2149.40289129992,2151.402932799887,,,,,,,,,,,,,,,,,,,1,M,3.2,42,r,,49,49,2022_Jul_05_1101,2020.2.10,distractmap,59.977640360920795,"['Left Leg', 'Left Face', 'Left Leg', 'Left Face']",
3,"[0.2, 0.2]",1,0,2,2,2,,,None,None,"[0, 0, 0]",2151.41955640004,2153.419587299926,2151.41955640004,2152.419609799981,2152.4029232000466,2153.4029234999325,"[0, 0, 0]",1,2151.41955640004,2153.419587299926,,,,,,,,,,,,,,,,,,,1,M,3.2,42,r,,49,49,2022_Jul_05_1101,2020.2.10,distractmap,59.977640360920795,"['Left Leg', 'Left Face', 'Left Leg', 'Left Face']",
7,"[-0.2, -0.2]",0,0,3,3,3,,,None,None,"[0, 0, 0]",2153.436252699932,2155.4362564000767,2153.436252699932,2154.436255000066,2154.4195832998957,2155.419603700051,"[0, 0, 0]",1,2153.436252699932,2155.4362564000767,,,,,,,,,,,,,,,,,,,1,M,3.2,42,r,,49,49,2022_Jul_05_1101,2020.2.10,distractmap,59.977640360920795,"['Left Leg', 'Left Face', 'Left Leg', 'Left Face']",
8,"[0, -0.2]",0,0,4,4,4,,,None,None,"[0, 0, 0]",2155.503406799864,None,2155.503406799864,2156.5029623999726,2156.4862671999726,None,"[0, 0, 0]",1,2155.503406799864,None,,,,,,,,,,,,,,,,,,,1,M,3.2,42,r,,49,49,2022_Jul_05_1101,2020.2.10,distractmap,59.977640360920795,"['Left Leg', 'Left Face', 'Left Leg', 'Left Face']",
4,"[-0.2, 0]",0,0,5,5,5,,,None,None,"[0, 0, 0]",2157.4696166000795,2159.46964149992,2157.4696166000795,2158.469612200046,2158.452975400025,2159.452983800089,"[0, 0, 0]",1,2157.4696166000795,2159.46964149992,,,,,,,,,,,,,,,,,,,1,M,3.2,42,r,,49,49,2022_Jul_05_1101,2020.2.10,distractmap,59.977640360920795,"['Left Leg', 'Left Face', 'Left Leg', 'Left Face']",
