	SID	day	sex	session	handedness	scanner	onset	duration	value	body_site	skin_site	temperature	condition	keys	rt	phase	biopac_channel
0	1248	3	M	3	R	MS ZZ			72.59259259259255	Left Leg	2	46.5	Threat		5.435821300023235	Placebo	
1	1248	3	M	3	R	MS ZZ			11.296296296296294	Left Leg	2	46.5	Stress		4.1337246999610215	Placebo	
2	1248	3	M	3	R	MS ZZ			7.345679012345678	Left Leg	2	46.5	PainAnxiety		3.916965899989009	Placebo	
3	1248	3	M	3	R	MS ZZ			1.2345679012345658	Left Leg	2	46.5	OtherAnxiety		1.9669530000537634	Placebo	
4	1248	3	M	3	R	MS ZZ			60.98765432098765	Left Leg	2	46.5	PainConfidence		3.869665400008671	Placebo	
5	1248	3	M	3	R	MS ZZ	2.774378800066188	5.008528011152521		Left Leg	2	46.5	Instructions			Placebo	19
6	1248	3	M	3	R	MS ZZ	8.118734600022435	5.003718330175616	41.604938271604944	Left Leg	2	46.5	Expectancy		2.650277700042352	Placebo	51
7	1248	3	M	3	R	MS ZZ	13.507284700055607	2.0100633199326694		Left Leg	2	46.5	Cue			Placebo	6
8	1248	3	M	3	R	MS ZZ	15.524476599995978	6.0090451299911365		Left Leg	2	46.5	Pre-Jitter			Placebo	7
9	1248	3	M	3	R	MS ZZ	21.57131400005892	14.998922590049915		Left Leg	2	46.5	Placebo Heat 			Placebo	15
10	1248	3	M	3	R	MS ZZ	36.5725373000605	8.996581830084324		Left Leg	2	46.5	Mid-Jitter			Placebo	8
11	1248	3	M	3	R	MS ZZ	45.590851700049825	5.010062759858556	1.0	Left Leg	2	46.5	PainBinary		1.0500186000717804	Placebo	20
12	1248	3	M	3	R	MS ZZ	50.622416500002146	4.997145059984177	40.49382716049383	Left Leg	2	46.5	IntensityRating		2.201146300067194	Placebo	21
13	1248	3	M	3	R	MS ZZ	55.62522619997617	9.008370829978958		Left Leg	2	46.5	Post-Q-Jitter			Placebo	9
14	1248	3	M	3	R	MS ZZ	64.89124899997842	5.009815279976465	34.876543209876544	Left Leg	2	46.5	Expectancy		3.6001115000108257	Placebo	51
15	1248	3	M	3	R	MS ZZ	70.27925360004883	2.000527990050614		Left Leg	2	46.5	Cue			Placebo	6
16	1248	3	M	3	R	MS ZZ	72.29248249996454	8.007516329991631		Left Leg	2	46.5	Pre-Jitter			Placebo	7
17	1248	3	M	3	R	MS ZZ	80.3811476000119	15.013759280089289		Left Leg	2	46.5	Placebo Heat 			Placebo	15
18	1248	3	M	3	R	MS ZZ	95.38979230006225	6.996705929981545		Left Leg	2	46.5	Mid-Jitter			Placebo	8
19	1248	3	M	3	R	MS ZZ	102.40801959997043	5.010397559963167	-1.0	Left Leg	2	46.5	PainBinary		1.1333538999315351	Placebo	20
20	1248	3	M	3	R	MS ZZ	112.43078799999785	7.0148857603780925		Left Leg	2	46.5	Post-Q-Jitter			Placebo	9
21	1248	3	M	3	R	MS ZZ	119.71862830000464	5.00616344017908	33.51851851851852	Left Leg	2	46.5	Expectancy		3.0503281999845058	Placebo	51
22	1248	3	M	3	R	MS ZZ	125.10590590001084	1.9983558200765401		Left Leg	2	46.5	Cue			Placebo	6
23	1248	3	M	3	R	MS ZZ	127.10941699997056	6.008058529929258		Left Leg	2	46.5	Pre-Jitter			Placebo	7
24	1248	3	M	3	R	MS ZZ	133.1602977999719	15.006501790019684		Left Leg	2	46.5	Placebo Heat 			Placebo	15
25	1248	3	M	3	R	MS ZZ	148.1736230000388	6.996740230126306		Left Leg	2	46.5	Mid-Jitter			Placebo	8
26	1248	3	M	3	R	MS ZZ	155.19233440002427	5.009427259908989	-1.0	Left Leg	2	46.5	PainBinary		1.9166230999398977	Placebo	20
27	1248	3	M	3	R	MS ZZ	165.214278700063	7.015609160414897		Left Leg	2	46.5	Post-Q-Jitter			Placebo	9
28	1248	3	M	3	R	MS ZZ	172.49036249995697	4.997079210006632	34.19753086419753	Left Leg	2	46.5	Expectancy		3.5170831999275833	Placebo	51
29	1248	3	M	3	R	MS ZZ	177.86350019997917	2.00086629006546		Left Leg	2	46.5	Cue			Placebo	6
30	1248	3	M	3	R	MS ZZ	179.87709139997605	4.007088329992257		Left Leg	2	46.5	Pre-Jitter			Placebo	7
31	1248	3	M	3	R	MS ZZ	183.93193459999748	15.014267020043917		Left Leg	2	46.5	Placebo Heat 			Placebo	15
32	1248	3	M	3	R	MS ZZ	198.9409268000163	8.996505030198023		Left Leg	2	46.5	Mid-Jitter			Placebo	8
33	1248	3	M	3	R	MS ZZ	207.95997990004253	5.008552559884265	-1.0	Left Leg	2	46.5	PainBinary		1.3833211000310257	Placebo	20
34	1248	3	M	3	R	MS ZZ	217.98197069996968	9.014677560306154		Left Leg	2	46.5	Post-Q-Jitter			Placebo	9
35	1248	3	M	3	R	MS ZZ	227.26480320002884	5.015978140057996	27.962962962962962	Left Leg	2	46.5	Expectancy		3.333604000043124	Placebo	51
36	1248	3	M	3	R	MS ZZ	232.64769789995626	2.0002385899424553		Left Leg	2	46.5	Cue			Placebo	6
37	1248	3	M	3	R	MS ZZ	234.6605795000214	6.007914630114101		Left Leg	2	46.5	Pre-Jitter			Placebo	7
38	1248	3	M	3	R	MS ZZ	240.70674910000525	14.999102090019733		Left Leg	2	46.5	Placebo Heat 			Placebo	15
39	1248	3	M	3	R	MS ZZ	255.70846600004006	4.995878030080348		Left Leg	2	46.5	Mid-Jitter			Placebo	8
40	1248	3	M	3	R	MS ZZ	260.7263359000208	5.0103241599863395	-1.0	Left Leg	2	46.5	PainBinary		1.0832805000245571	Placebo	20
41	1248	3	M	3	R	MS ZZ	270.7489762000041	5.015067060361616		Left Leg	2	46.5	Post-Q-Jitter			Placebo	9
42	1248	3	M	3	R	MS ZZ	276.02861370006576	5.0059602099936455	26.358024691358022	Left Leg	2	46.5	Expectancy		3.200157899991609	Placebo	51
43	1248	3	M	3	R	MS ZZ	281.4250129000284	2.013219919987023		Left Leg	2	46.5	Cue			Placebo	6
44	1248	3	M	3	R	MS ZZ	283.4434828000376	5.993053430109285		Left Leg	2	46.5	Pre-Jitter			Placebo	7
45	1248	3	M	3	R	MS ZZ	289.46488240000326	15.000450259889476		Left Leg	2	46.5	Placebo Heat 			Placebo	15
46	1248	3	M	3	R	MS ZZ	304.47519989998545	4.996683130040765		Left Leg	2	46.5	Mid-Jitter			Placebo	8
47	1248	3	M	3	R	MS ZZ	309.49402900005225	5.009171959944069	-1.0	Left Leg	2	46.5	PainBinary		1.7501015000743791	Placebo	20
48	1248	3	M	3	R	MS ZZ	319.5165285000112	5.014194060349837		Left Leg	2	46.5	Post-Q-Jitter			Placebo	9
49	1248	3	M	3	R	MS ZZ	324.5504995000083	4.4799548900919035	30.12345679012344	Left Leg	2	46.5	ComfortRating		4.450347200036049	Placebo	26
50	1248	3	M	3	R	MS ZZ	329.04655279999133	4.554616259993054	55.49382716049382	Left Leg	2	46.5	ValenceRating		4.533360399887897	Placebo	24
51	1248	3	M	3	R	MS ZZ	333.62314280006103	1.6514791599474847	61.172839506172835	Left Leg	2	46.5	IntensityRating		1.6336555000161752	Placebo	26
52	1248	3	M	3	R	MS ZZ	335.29192440002225	3.8806516599142924	61.851851851851876	Left Leg	2	46.5	AvoidanceRating		3.867150300065987	Placebo	27
53	1248	3	M	3	R	MS ZZ	339.18911310005933	3.2030123599106446	79.50617283950618	Left Leg	2	46.5	RelaxationRating		3.183626399957575	Placebo	28
54	1248	3	M	3	R	MS ZZ	342.4089667999651	3.230020359973423	68.27160493827161	Left Leg	2	46.5	AttentionRating		3.217532599926926	Placebo	29
55	1248	3	M	3	R	MS ZZ	345.66279570001643	3.0557383600389585	61.48148148148148	Left Leg	2	46.5	BoredomRating		3.0186436999356374	Placebo	30
56	1248	3	M	3	R	MS ZZ	348.74023890006356	4.584266559919342	-37.53086419753087	Left Leg	2	46.5	AlertnessRating		4.5670798000646755	Placebo	31
57	1248	3	M	3	R	MS ZZ	353.3410352000501	5.382801559986547	17.407407407407405	Left Leg	2	46.5	PosThxRating		5.367015999974683	Placebo	32
58	1248	3	M	3	R	MS ZZ	358.74109919997863	2.8827587600098923	-19.135802469135797	Left Leg	2	46.5	NegThxRating		2.8527637000661343	Placebo	33
59	1248	3	M	3	R	MS ZZ	361.6407981000375	2.450069659971632	0.0	Left Leg	2	46.5	SelfRating		2.433786700014025	Placebo	34
60	1248	3	M	3	R	MS ZZ	364.1079740000423	2.765797959989868	0.0	Left Leg	2	46.5	OtherRating		2.7503420000430197	Placebo	35
61	1248	3	M	3	R	MS ZZ	366.89194720005617	4.247881759889424	14.81481481481481	Left Leg	2	46.5	ImageryRating		4.233498700079508	Placebo	32
62	1248	3	M	3	R	MS ZZ	371.1606305000605	5.643951460020617	14.81481481481481	Left Leg	2	46.5	PresentRating		5.61673420004081	Placebo	37
