	SID	date	sex	session	handedness	scanner	onset	duration	repetition	rating	body_site	keys	temperature	conditionrt	mouseclick	biopac_channel	condition	rt	value
0	2876	2024_Feb_17_1324	f	1	r	MS SS SK	2.784405999991577	5.005101641523652								19	Instructions		
1	2876	2024_Feb_17_1324	f	1	r	MS SS SK	8.359098200016888	2.002510600053938								6	Cue		
2	2876	2024_Feb_17_1324	f	1	r	MS SS SK	10.369532500015339	4.014944420021493								7	Pre-Jitter		
3	2876	2024_Feb_17_1324	f	1	r	MS SS SK	14.413416399998823	15.010692380019464			Right Arm		48.0			14	Heat-Stimulation		
4	2876	2024_Feb_17_1324	f	1	r	MS SS SK	29.522725300019374	7.00901991999126								8	Mid-Jitter		
5	2876	2024_Feb_17_1324	f	1	r	MS SS SK	36.56020060001174	5.000876979989698								20	PainBinary	1.4337560000130907	1.0
6	2876	2024_Feb_17_1324	f	1	r	MS SS SK	41.59540819999529	5.013863680011127								21	IntensityRating	2.0167264000047	52.65432098765432
7	2876	2024_Feb_17_1324	f	1	r	MS SS SK	46.64092520001577	5.006235979992198								22	ToleranceRating	1.919989500020165	-1.0
8	2876	2024_Feb_17_1324	f	1	r	MS SS SK	51.65645690000383	7.008694620017195								9	Post-Q-Jitter		
9	2876	2024_Feb_17_1324	f	1	r	MS SS SK	59.927113500016276	2.0010092200827785								6	Cue		
10	2876	2024_Feb_17_1324	f	1	r	MS SS SK	61.93654460000107	8.015363020007499								7	Pre-Jitter		
11	2876	2024_Feb_17_1324	f	1	r	MS SS SK	70.0065794000111	15.008877000014763			Right Arm		47.5			14	Heat-Stimulation		
12	2876	2024_Feb_17_1324	f	1	r	MS SS SK	85.104496200016	7.013270919997012								8	Mid-Jitter		
13	2876	2024_Feb_17_1324	f	1	r	MS SS SK	92.14464670000598	4.999797280004714								20	PainBinary	1.3004280000168364	1.0
14	2876	2024_Feb_17_1324	f	1	r	MS SS SK	97.17703789999359	5.0017858799837995								21	IntensityRating	2.26707639999222	52.65432098765432
15	2876	2024_Feb_17_1324	f	1	r	MS SS SK	102.20939299999736	5.003827079985058								22	ToleranceRating	2.0837624999985565	-1.0
16	2876	2024_Feb_17_1324	f	1	r	MS SS SK	107.22450599999866	7.00707931999932								9	Post-Q-Jitter		
17	2876	2024_Feb_17_1324	f	1	r	MS SS SK	115.45845130001544	2.006152700079838								6	Cue		
18	2876	2024_Feb_17_1324	f	1	r	MS SS SK	117.47049579999293	6.015269219991751								7	Pre-Jitter		
19	2876	2024_Feb_17_1324	f	1	r	MS SS SK	123.5214898000122	15.013526940019801			Right Arm		47.0			14	Heat-Stimulation		
20	2876	2024_Feb_17_1324	f	1	r	MS SS SK	138.6309988000139	5.011380320007447								8	Mid-Jitter		
21	2876	2024_Feb_17_1324	f	1	r	MS SS SK	143.67974870000035	4.997320880007464								20	PainBinary	1.267615399992792	1.0
22	2876	2024_Feb_17_1324	f	1	r	MS SS SK	148.71069760000682	5.002198580012191								21	IntensityRating	3.967113699996844	48.7037037037037
23	2876	2024_Feb_17_1324	f	1	r	MS SS SK	153.74277470001834	5.004813780018594								22	ToleranceRating	2.700454299978446	-1.0
24	2876	2024_Feb_17_1324	f	1	r	MS SS SK	158.75957789999666	5.004624920053175								9	Post-Q-Jitter		
25	2876	2024_Feb_17_1324	f	1	r	MS SS SK	164.99640820000786	2.0146003001136705								6	Cue		
26	2876	2024_Feb_17_1324	f	1	r	MS SS SK	167.02044160000514	4.016421520034783								7	Pre-Jitter		
27	2876	2024_Feb_17_1324	f	1	r	MS SS SK	171.0677599000046	15.005314980022376			Right Arm		46.5			14	Heat-Stimulation		
28	2876	2024_Feb_17_1324	f	1	r	MS SS SK	186.17170420000912	7.0143266200320795								8	Mid-Jitter		
29	2876	2024_Feb_17_1324	f	1	r	MS SS SK	193.21334459999343	5.014500580000458								20	PainBinary	1.1501130999822635	1.0
30	2876	2024_Feb_17_1324	f	1	r	MS SS SK	198.26206949999323	5.017323279986158								21	IntensityRating		37.407407407407405
31	2876	2024_Feb_17_1324	f	1	r	MS SS SK	203.31021870000404	5.004281080007786								22	ToleranceRating	1.6698045000084676	1.0
32	2876	2024_Feb_17_1324	f	1	r	MS SS SK	208.32582160001039	7.006548420002218								9	Post-Q-Jitter		
33	2876	2024_Feb_17_1324	f	1	r	MS SS SK	216.57823770001414	2.002027960057603								6	Cue		
34	2876	2024_Feb_17_1324	f	1	r	MS SS SK	218.58819080001558	6.015386620012578								7	Pre-Jitter		
35	2876	2024_Feb_17_1324	f	1	r	MS SS SK	224.65451180000673	15.016297400026815			Right Arm		46.5			14	Heat-Stimulation		
36	2876	2024_Feb_17_1324	f	1	r	MS SS SK	239.75767190000624	9.010185920022195								8	Mid-Jitter		
37	2876	2024_Feb_17_1324	f	1	r	MS SS SK	248.79518980000285	5.001979280001251								20	PainBinary	2.1696530999906827	-1.0
38	2876	2024_Feb_17_1324	f	1	r	MS SS SK	263.8196351999941	9.004944220680045								9	Post-Q-Jitter		
39	2876	2024_Feb_17_1324	f	1	r	MS SS SK	274.10135260000243	2.006996220065048								6	Cue		
40	2876	2024_Feb_17_1324	f	1	r	MS SS SK	276.1216389000183	4.0162989200034644								7	Pre-Jitter		
41	2876	2024_Feb_17_1324	f	1	r	MS SS SK	280.1641876999929	14.99807557996246			Right Arm		46.5			14	Heat-Stimulation		
42	2876	2024_Feb_17_1324	f	1	r	MS SS SK	295.256540900009	5.013599020021502								8	Mid-Jitter		
43	2876	2024_Feb_17_1324	f	1	r	MS SS SK	300.2980242999911	4.997386780014494								20	PainBinary	0.9032398000126705	1.0
44	2876	2024_Feb_17_1324	f	1	r	MS SS SK	305.3297836999991	5.000670079985866								21	IntensityRating	2.9837530000077095	37.160493827160494
45	2876	2024_Feb_17_1324	f	1	r	MS SS SK	310.36189749999903	5.00321737997001								22	ToleranceRating	1.4338025999895763	1.0
46	2876	2024_Feb_17_1324	f	1	r	MS SS SK	315.3759374000074	5.008567220036639								9	Post-Q-Jitter		
47	2876	2024_Feb_17_1324	f	1	r	MS SS SK	320.9359870000044	2.0052812400681432								6	Cue		
48	2876	2024_Feb_17_1324	f	1	r	MS SS SK	322.9554890000145	6.01627702001133								7	Pre-Jitter		
49	2876	2024_Feb_17_1324	f	1	r	MS SS SK	329.0169898000022	15.010183740028879			Right Arm		46.5			14	Heat-Stimulation		
50	2876	2024_Feb_17_1324	f	1	r	MS SS SK	344.1248024000088	7.011475520004751								8	Mid-Jitter		
51	2876	2024_Feb_17_1324	f	1	r	MS SS SK	351.1643292999943	4.999198580015218								20	PainBinary	1.3502633000025526	1.0
52	2876	2024_Feb_17_1324	f	1	r	MS SS SK	356.1962690000073	5.00210218000575								21	IntensityRating	2.4337717999878805	36.41975308641975
53	2876	2024_Feb_17_1324	f	1	r	MS SS SK	361.22811970001203	5.005166980001377								22	ToleranceRating	1.553769399994053	1.0
54	2876	2024_Feb_17_1324	f	1	r	MS SS SK	366.24405639999895	7.006746320024831								9	Post-Q-Jitter		
55	2876	2024_Feb_17_1324	f	1	r	MS SS SK	373.2915858000051	10.128771440009587								26	ComfortRating	10.100635300012073	-14.691358024691354
56	2876	2024_Feb_17_1324	f	1	r	MS SS SK	383.45605549999163	4.933256240008632								24	ValenceRating	4.900459399999818	46.11111111111111
57	2876	2024_Feb_17_1324	f	1	r	MS SS SK	388.4119215999963	2.8549494800099637								26	IntensityRating	2.8337814999977127	48.45679012345679
58	2876	2024_Feb_17_1324	f	1	r	MS SS SK	391.3009684999997	3.4269029799907003								27	AvoidanceRating	3.400119400001131	13.95061728395062
59	2876	2024_Feb_17_1324	f	1	r	MS SS SK	394.7594653000124	3.726667280017864								28	RelaxationRating	3.7004827999917325	37.71604938271605
60	2876	2024_Feb_17_1324	f	1	r	MS SS SK	398.51533769999514	5.148327679984504								29	AttentionRating	5.116800099989632	61.11111111111111
61	2876	2024_Feb_17_1324	f	1	r	MS SS SK	403.6936499000003	4.825174879981205								30	BoredomRating	4.800507399981143	24.19753086419753
62	2876	2024_Feb_17_1324	f	1	r	MS SS SK	408.54643529999885	2.4863435800070874								31	AlertnessRating	2.453806099976646	-12.098765432098773
63	2876	2024_Feb_17_1324	f	1	r	MS SS SK	411.06309700000565	5.386318280012347								32	PosThxRating	5.367053599999053	-41.7283950617284
64	2876	2024_Feb_17_1324	f	1	r	MS SS SK	416.4798727000016	3.1528739799687173								33	NegThxRating	3.1338217000011355	34.320987654321016
65	2876	2024_Feb_17_1324	f	1	r	MS SS SK	419.6630167000112	6.386766280018492								34	SelfRating	6.353870199993253	61.358024691358025
66	2876	2024_Feb_17_1324	f	1	r	MS SS SK	426.08046840000316	5.468655080010649								35	OtherRating	5.437900399992941	-62.592592592592595
67	2876	2024_Feb_17_1324	f	1	r	MS SS SK	431.58298300000024	9.613784479995957								32	ImageryRating	9.583505999995396	0.9876543209876587
68	2876	2024_Feb_17_1324	f	1	r	MS SS SK	441.2359041000018	5.574772380030481								37	PresentRating	5.536103400023421	61.97530864197532
