	SID	date	sex	session	handedness	scanner	onset	duration	repetition	rating	body_site	keys	temperature	conditionrt	mouseclick	biopac_channel	condition	rt	value
0	2876	2024_Feb_17_1403	f	1	r	ms ss sk	2.7843023000168614	4.999990498647094								19	Instructions		
1	2876	2024_Feb_17_1403	f	1	r	ms ss sk	8.591715700022178	1.9996216399304103								6	Cue		
2	2876	2024_Feb_17_1403	f	1	r	ms ss sk	10.617821600026218	6.014000680006575								7	Pre-Jitter		
3	2876	2024_Feb_17_1403	f	1	r	ms ss sk	16.65890860001673	14.998825580027187			Abdomen		48.0			18	Heat-Stimulation		
4	2876	2024_Feb_17_1403	f	1	r	ms ss sk	31.757318400021177	9.002314519981155								8	Mid-Jitter		
5	2876	2024_Feb_17_1403	f	1	r	ms ss sk	40.79338120002649	5.013641080004163								20	PainBinary	2.2003087000048254	1.0
6	2876	2024_Feb_17_1403	f	1	r	ms ss sk	45.84399950000807	5.012712979980279								21	IntensityRating		29.32098765432099
7	2876	2024_Feb_17_1403	f	1	r	ms ss sk	50.89128500001971	5.001425180002116								22	ToleranceRating	2.717132900026627	1.0
8	2876	2024_Feb_17_1403	f	1	r	ms ss sk	55.90605580000556	9.00532651998219								9	Post-Q-Jitter		
9	2876	2024_Feb_17_1403	f	1	r	ms ss sk	66.49280259999796	1.9989330598618835								6	Cue		
10	2876	2024_Feb_17_1403	f	1	r	ms ss sk	68.50097900000401	6.015726119978353								7	Pre-Jitter		
11	2876	2024_Feb_17_1403	f	1	r	ms ss sk	74.53260110001429	15.002724619989749			Abdomen		48.5			18	Heat-Stimulation		
12	2876	2024_Feb_17_1403	f	1	r	ms ss sk	89.63622710001073	7.012384720001137								8	Mid-Jitter		
13	2876	2024_Feb_17_1403	f	1	r	ms ss sk	96.67564480000874	5.000360780017218								20	PainBinary	1.0365718000102788	1.0
14	2876	2024_Feb_17_1403	f	1	r	ms ss sk	101.70907150002313	5.000322880019667								21	IntensityRating	2.666866100014886	36.851851851851855
15	2876	2024_Feb_17_1403	f	1	r	ms ss sk	106.73925400001463	5.006733980000718								22	ToleranceRating	1.9505198999831919	-1.0
16	2876	2024_Feb_17_1403	f	1	r	ms ss sk	111.75638390000677	7.0059102199738845								9	Post-Q-Jitter		
17	2876	2024_Feb_17_1403	f	1	r	ms ss sk	120.29405920000863	2.014273779845098								6	Cue		
18	2876	2024_Feb_17_1403	f	1	r	ms ss sk	122.31855460000224	4.015090319968294								7	Pre-Jitter		
19	2876	2024_Feb_17_1403	f	1	r	ms ss sk	126.37092020001728	15.010583839990431			Abdomen		48.0			18	Heat-Stimulation		
20	2876	2024_Feb_17_1403	f	1	r	ms ss sk	141.46954730001744	5.0135627199779265								8	Mid-Jitter		
21	2876	2024_Feb_17_1403	f	1	r	ms ss sk	146.5177000000258	5.000677580013871								20	PainBinary	1.1337681000004523	1.0
22	2876	2024_Feb_17_1403	f	1	r	ms ss sk	151.55845410001348	5.002626180008519								21	IntensityRating	3.7197947000095155	37.03703703703704
23	2876	2024_Feb_17_1403	f	1	r	ms ss sk	156.5909446000005	5.0044235800160095								22	ToleranceRating	2.217080400005216	1.0
24	2876	2024_Feb_17_1403	f	1	r	ms ss sk	161.60639870000887	5.00697181999567								9	Post-Q-Jitter		
25	2876	2024_Feb_17_1403	f	1	r	ms ss sk	167.30510500000673	2.009782679931959								6	Cue		
26	2876	2024_Feb_17_1403	f	1	r	ms ss sk	169.31897449999815	6.015326919965446								7	Pre-Jitter		
27	2876	2024_Feb_17_1403	f	1	r	ms ss sk	175.3676315000048	15.001551379973534			Abdomen		48.0			18	Heat-Stimulation		
28	2876	2024_Feb_17_1403	f	1	r	ms ss sk	190.46801450001658	7.001042460004101								8	Mid-Jitter		
29	2876	2024_Feb_17_1403	f	1	r	ms ss sk	197.51091470001847	4.998712180036819								20	PainBinary	1.9174143000273034	1.0
30	2876	2024_Feb_17_1403	f	1	r	ms ss sk	202.54302080001798	5.001263779995497								21	IntensityRating	3.4171147999877576	35.55555555555556
31	2876	2024_Feb_17_1403	f	1	r	ms ss sk	207.57351430002018	5.007053580018692								22	ToleranceRating	0.8835839999956079	1.0
32	2876	2024_Feb_17_1403	f	1	r	ms ss sk	212.59062500001164	7.006331819982734								9	Post-Q-Jitter		
33	2876	2024_Feb_17_1403	f	1	r	ms ss sk	220.33917550000479	2.0094705599185545								6	Cue		
34	2876	2024_Feb_17_1403	f	1	r	ms ss sk	222.3520049000217	4.000401559955208								7	Pre-Jitter		
35	2876	2024_Feb_17_1403	f	1	r	ms ss sk	226.41171420001774	14.99786423999467			Abdomen		48.0			18	Heat-Stimulation		
36	2876	2024_Feb_17_1403	f	1	r	ms ss sk	241.5059833000123	5.009569619985996								8	Mid-Jitter		
37	2876	2024_Feb_17_1403	f	1	r	ms ss sk	246.544206999999	4.99986527999863								20	PainBinary	1.169628500007093	1.0
38	2876	2024_Feb_17_1403	f	1	r	ms ss sk	251.5778645000246	4.999325979995774								21	IntensityRating	2.1373907000233885	46.2962962962963
39	2876	2024_Feb_17_1403	f	1	r	ms ss sk	256.60791099999915	5.006020680011716								22	ToleranceRating	1.7696373999933712	-1.0
40	2876	2024_Feb_17_1403	f	1	r	ms ss sk	261.62410490002367	5.0070696199836675								9	Post-Q-Jitter		
41	2876	2024_Feb_17_1403	f	1	r	ms ss sk	268.00188650001655	2.001867579878308								6	Cue		
42	2876	2024_Feb_17_1403	f	1	r	ms ss sk	270.0201418000215	4.0151875199517235								7	Pre-Jitter		
43	2876	2024_Feb_17_1403	f	1	r	ms ss sk	274.0679557000112	15.003109479992418			Abdomen		47.5			18	Heat-Stimulation		
44	2876	2024_Feb_17_1403	f	1	r	ms ss sk	289.16998770000646	7.015962219942594								8	Mid-Jitter		
45	2876	2024_Feb_17_1403	f	1	r	ms ss sk	296.21196090002195	4.998808380012633								20	PainBinary	1.6032986999780405	1.0
46	2876	2024_Feb_17_1403	f	1	r	ms ss sk	301.2441006000154	5.001312180014793								21	IntensityRating	2.2671075999969617	42.65432098765432
47	2876	2024_Feb_17_1403	f	1	r	ms ss sk	306.27433200000087	5.0076262800139375								22	ToleranceRating	1.2004596999904606	1.0
48	2876	2024_Feb_17_1403	f	1	r	ms ss sk	311.2912529000023	7.007256419979967								9	Post-Q-Jitter		
49	2876	2024_Feb_17_1403	f	1	r	ms ss sk	319.7651776999992	2.0097886398725677								6	Cue		
50	2876	2024_Feb_17_1403	f	1	r	ms ss sk	321.7869366000232	6.016074319981271								7	Pre-Jitter		
51	2876	2024_Feb_17_1403	f	1	r	ms ss sk	327.8272104000207	15.002434380003251			Abdomen		47.5			18	Heat-Stimulation		
52	2876	2024_Feb_17_1403	f	1	r	ms ss sk	342.9304101000016	8.996312319970457								8	Mid-Jitter		
53	2876	2024_Feb_17_1403	f	1	r	ms ss sk	351.9629833000072	4.997988379996968								20	PainBinary	2.050881200004369	1.0
54	2876	2024_Feb_17_1403	f	1	r	ms ss sk	356.9952514000179	5.000229580007726								21	IntensityRating	3.567153599986341	32.77777777777778
55	2876	2024_Feb_17_1403	f	1	r	ms ss sk	362.02515610001865	5.007150279998314								22	ToleranceRating	1.950435100006871	1.0
56	2876	2024_Feb_17_1403	f	1	r	ms ss sk	367.04255880002165	9.005856520001544								9	Post-Q-Jitter		
57	2876	2024_Feb_17_1403	f	1	r	ms ss sk	376.0888660000055	8.496951640001498								26	ComfortRating	8.46775300000445	-15.18518518518519
58	2876	2024_Feb_17_1403	f	1	r	ms ss sk	384.62280820001615	4.979193239996675								24	ValenceRating	4.95049120002659	26.913580246913583
59	2876	2024_Feb_17_1403	f	1	r	ms ss sk	389.62677370000165	2.538014980003936								26	IntensityRating	2.5171669999836013	36.54320987654321
60	2876	2024_Feb_17_1403	f	1	r	ms ss sk	392.1993332999991	4.5763317800010554								27	AvoidanceRating	4.550251499982551	7.53086419753086
61	2876	2024_Feb_17_1403	f	1	r	ms ss sk	396.80694239999866	4.97783898000489								28	RelaxationRating	4.9504553000151645	27.098765432098766
62	2876	2024_Feb_17_1403	f	1	r	ms ss sk	401.8141031000123	5.3469630800245795								29	AttentionRating	5.316960299998755	38.20987654320988
63	2876	2024_Feb_17_1403	f	1	r	ms ss sk	407.1920812000171	4.024479879997671								30	BoredomRating	4.000240399996983	46.11111111111111
64	2876	2024_Feb_17_1403	f	1	r	ms ss sk	411.2442883000185	6.820169979997445								31	AlertnessRating	6.800502099998994	-26.172839506172835
65	2876	2024_Feb_17_1403	f	1	r	ms ss sk	418.09748770002625	6.6305928800138645								32	PosThxRating	6.587246300012339	-33.20987654320989
66	2876	2024_Feb_17_1403	f	1	r	ms ss sk	424.76156990000163	4.135888380027609								33	NegThxRating	4.117218999977922	33.0864197530864
67	2876	2024_Feb_17_1403	f	1	r	ms ss sk	428.9283768000023	4.96903598002973								34	SelfRating	4.950807100016391	63.456790123456784
68	2876	2024_Feb_17_1403	f	1	r	ms ss sk	433.9294179000135	4.617077980044996								35	OtherRating	4.586780499987071	-41.7283950617284
69	2876	2024_Feb_17_1403	f	1	r	ms ss sk	438.5815227999992	4.3129627800080925								32	ImageryRating	4.270407299976796	51.60493827160494
70	2876	2024_Feb_17_1403	f	1	r	ms ss sk	442.9349347000243	3.3062245800101664								37	PresentRating	3.2702281000092626	4.691358024691368
