square,location,corrAns,trials.thisRepN,trials.thisTrialN,trials.thisN,trials.thisIndex,trials_2.thisRepN,trials_2.thisTrialN,trials_2.thisN,trials_2.thisIndex,fixation_1.started,fixation_1.stopped,grid_lines.started,grid_lines.stopped,target_square.started,target_square.stopped,fixation_2.started,fixation_2.stopped,response.corr,response.x,response.y,response.leftButton,response.click_left,response.click_right,response.started,response.stopped,ScoreReportText.started,ScoreReportText.stopped,ScoreReportResponse.keys,ScoreReportResponse.started,ScoreReportResponse.stopped,response_2.x,response_2.y,response_2.leftButton,grid_lines_2.started,grid_lines_2.stopped,target_square_2.started,target_square_2.stopped,fixation_3.started,fixation_3.stopped,response_2.click,response_2.corr,response_2.started,response_2.stopped,BodySiteInstructionText.started,BodySiteImg.started,BodySiteImg.stopped,BodySiteInstructionRead.keys,BodySiteInstructionRead.rt,BodySiteInstructionRead.started,BodySiteInstructionRead.stopped,response.click,IntensityRating.response,IntensityRating.rt,IntensityRating.started,IntensityRating.stopped,response_2.rt_left,response_2.rt_right,subject number,gender,session,handedness,scanner,date,expName,psychopyVersion,frameRate,body_site_order,
6,"[0.2, 0]",None,0,0,0,0,,,,,1495.6399418000365,None,1496.6733006000286,None,1496.6733006000286,1497.6732717000414,1497.656606500037,None,1,-0.15833333333333333,0.07592592592592592,"[0, 0, 0]",0,0,1496.6733006000286,None,,,,,,,,,,,,,,,,,,,,,,,,,,,,,,,,,1,M,21,r,CIB,2021_Aug_20_1402,distractmap,2020.2.10,59.993400703609076,"['Abdomen', 'Left Arm', 'Chest', 'Right Arm', 'Right Face', 'Right Arm', 'Left Leg', 'Right Leg', 'Left Face', 'Chest', 'Left Arm', 'Right Leg', 'Left Leg', 'Abdomen', 'Right Face', 'Left Face']",
6,"[0.2, 0]",1,0,1,1,1,,,,,,,1498.656612400082,None,1498.656612400082,1499.6566147999838,1499.6400125999935,1500.6399647999788,1,-0.15833333333333333,0.07592592592592592,"[0, 0, 0]",0,0,1498.656612400082,None,,,,,,,,,,,,,,,,,,,,,,,,,,,,,,,,,1,M,21,r,CIB,2021_Aug_20_1402,distractmap,2020.2.10,59.993400703609076,"['Abdomen', 'Left Arm', 'Chest', 'Right Arm', 'Right Face', 'Right Arm', 'Left Leg', 'Right Leg', 'Left Face', 'Chest', 'Left Arm', 'Right Leg', 'Left Leg', 'Abdomen', 'Right Face', 'Left Face']",
2,"[0, 0.2]",0,0,2,2,2,,,,,,,1500.6566276000813,None,1500.6566276000813,1501.656620600028,1501.6399866000284,1502.6398627000162,1,-0.15833333333333333,0.07592592592592592,"[0, 0, 0]",0,0,1500.6566276000813,None,,,,,,,,,,,,,,,,,,,,,,,,,,,,,,,,,1,M,21,r,CIB,2021_Aug_20_1402,distractmap,2020.2.10,59.993400703609076,"['Abdomen', 'Left Arm', 'Chest', 'Right Arm', 'Right Face', 'Right Arm', 'Left Leg', 'Right Leg', 'Left Face', 'Chest', 'Left Arm', 'Right Leg', 'Left Leg', 'Abdomen', 'Right Face', 'Left Face']",
9,"[0.2, -0.2]",0,0,3,3,3,,,,,,,1502.6566407000646,None,1502.6566407000646,1503.656659499975,1503.6399193999823,1504.6399928000756,1,-0.15833333333333333,0.07592592592592592,"[0, 0, 0]",0,0,1502.6566407000646,None,,,,,,,,,,,,,,,,,,,,,,,,,,,,,,,,,1,M,21,r,CIB,2021_Aug_20_1402,distractmap,2020.2.10,59.993400703609076,"['Abdomen', 'Left Arm', 'Chest', 'Right Arm', 'Right Face', 'Right Arm', 'Left Leg', 'Right Leg', 'Left Face', 'Chest', 'Left Arm', 'Right Leg', 'Left Leg', 'Abdomen', 'Right Face', 'Left Face']",
9,"[0.2, -0.2]",1,0,4,4,4,,,,,,,1504.6566489000106,None,1504.6566489000106,1505.656546800048,1505.6400002000155,1506.6400022000307,1,-0.15833333333333333,0.07592592592592592,"[0, 0, 0]",0,0,1504.6566489000106,None,,,,,,,,,,,,,,,,,,,,,,,,,,,,,,,,,1,M,21,r,CIB,2021_Aug_20_1402,distractmap,2020.2.10,59.993400703609076,"['Abdomen', 'Left Arm', 'Chest', 'Right Arm', 'Right Face', 'Right Arm', 'Left Leg', 'Right Leg', 'Left Face', 'Chest', 'Left Arm', 'Right Leg', 'Left Leg', 'Abdomen', 'Right Face', 'Left Face']",
6,"[0.2, 0]",0,0,5,5,5,,,,,,,1506.6566742999712,None,1506.6566742999712,1507.6566774999956,1507.6400036000414,1508.6400257999776,1,-0.15833333333333333,0.07592592592592592,"[0, 0, 0]",0,0,1506.6566742999712,None,,,,,,,,,,,,,,,,,,,,,,,,,,,,,,,,,1,M,21,r,CIB,2021_Aug_20_1402,distractmap,2020.2.10,59.993400703609076,"['Abdomen', 'Left Arm', 'Chest', 'Right Arm', 'Right Face', 'Right Arm', 'Left Leg', 'Right Leg', 'Left Face', 'Chest', 'Left Arm', 'Right Leg', 'Left Leg', 'Abdomen', 'Right Face', 'Left Face']",
4,"[-0.2, 0]",0,0,6,6,6,,,,,,,1508.6566890000831,None,1508.6566890000831,1509.6566942000063,1509.6400265999837,1510.6400273999898,1,-0.15833333333333333,0.07592592592592592,"[0, 0, 0]",0,0,1508.6566890000831,None,,,,,,,,,,,,,,,,,,,,,,,,,,,,,,,,,1,M,21,r,CIB,2021_Aug_20_1402,distractmap,2020.2.10,59.993400703609076,"['Abdomen', 'Left Arm', 'Chest', 'Right Arm', 'Right Face', 'Right Arm', 'Left Leg', 'Right Leg', 'Left Face', 'Chest', 'Left Arm', 'Right Leg', 'Left Leg', 'Abdomen', 'Right Face', 'Left Face']",
3,"[0.2, 0.2]",0,0,7,7,7,,,,,,,1510.6566893999698,None,1510.6566893999698,1511.6567174000666,1511.6400392000796,1512.640032300027,1,-0.15833333333333333,0.07592592592592592,"[0, 0, 0]",0,0,1510.6566893999698,None,,,,,,,,,,,,,,,,,,,,,,,,,,,,,,,,,1,M,21,r,CIB,2021_Aug_20_1402,distractmap,2020.2.10,59.993400703609076,"['Abdomen', 'Left Arm', 'Chest', 'Right Arm', 'Right Face', 'Right Arm', 'Left Leg', 'Right Leg', 'Left Face', 'Chest', 'Left Arm', 'Right Leg', 'Left Leg', 'Abdomen', 'Right Face', 'Left Face']",
3,"[0.2, 0.2]",1,0,8,8,8,,,,,,,1512.6567119000247,None,1512.6567119000247,1513.6567215999821,1513.6400479000295,1514.6400604000082,1,-0.15833333333333333,0.07592592592592592,"[0, 0, 0]",0,0,1512.6567119000247,None,,,,,,,,,,,,,,,,,,,,,,,,,,,,,,,,,1,M,21,r,CIB,2021_Aug_20_1402,distractmap,2020.2.10,59.993400703609076,"['Abdomen', 'Left Arm', 'Chest', 'Right Arm', 'Right Face', 'Right Arm', 'Left Leg', 'Right Leg', 'Left Face', 'Chest', 'Left Arm', 'Right Leg', 'Left Leg', 'Abdomen', 'Right Face', 'Left Face']",
8,"[0, -0.2]",0,0,9,9,9,,,,,,,1514.6567289000377,None,1514.6567289000377,1515.6567515999777,1515.640058799996,1516.6400764000136,1,-0.15833333333333333,0.07592592592592592,"[0, 0, 0]",0,0,1514.6567289000377,None,,,,,,,,,,,,,,,,,,,,,,,,,,,,,,,,,1,M,21,r,CIB,2021_Aug_20_1402,distractmap,2020.2.10,59.993400703609076,"['Abdomen', 'Left Arm', 'Chest', 'Right Arm', 'Right Face', 'Right Arm', 'Left Leg', 'Right Leg', 'Left Face', 'Chest', 'Left Arm', 'Right Leg', 'Left Leg', 'Abdomen', 'Right Face', 'Left Face']",
1,"[-0.2, 0.2]",0,0,10,10,10,,,,,,,1516.6567341000773,None,1516.6567341000773,1517.656755300006,1517.6400784000289,1518.6400818000548,1,-0.15833333333333333,0.07592592592592592,"[0, 0, 0]",0,0,1516.6567341000773,None,,,,,,,,,,,,,,,,,,,,,,,,,,,,,,,,,1,M,21,r,CIB,2021_Aug_20_1402,distractmap,2020.2.10,59.993400703609076,"['Abdomen', 'Left Arm', 'Chest', 'Right Arm', 'Right Face', 'Right Arm', 'Left Leg', 'Right Leg', 'Left Face', 'Chest', 'Left Arm', 'Right Leg', 'Left Leg', 'Abdomen', 'Right Face', 'Left Face']",
2,"[0, 0.2]",0,0,11,11,11,,,,,,,1518.6568153999979,None,1518.6568153999979,1519.656753999996,1519.6401070000138,1520.6401050999993,1,-0.15833333333333333,0.07592592592592592,"[0, 0, 0]",0,0,1518.6568153999979,None,,,,,,,,,,,,,,,,,,,,,,,,,,,,,,,,,1,M,21,r,CIB,2021_Aug_20_1402,distractmap,2020.2.10,59.993400703609076,"['Abdomen', 'Left Arm', 'Chest', 'Right Arm', 'Right Face', 'Right Arm', 'Left Leg', 'Right Leg', 'Left Face', 'Chest', 'Left Arm', 'Right Leg', 'Left Leg', 'Abdomen', 'Right Face', 'Left Face']",
4,"[-0.2, 0]",0,0,12,12,12,,,,,,,1520.656777300057,None,1520.656777300057,1521.6567074999912,1521.6401033999864,1522.6401075000176,1,-0.15833333333333333,0.07592592592592592,"[0, 0, 0]",0,0,1520.656777300057,None,,,,,,,,,,,,,,,,,,,,,,,,,,,,,,,,,1,M,21,r,CIB,2021_Aug_20_1402,distractmap,2020.2.10,59.993400703609076,"['Abdomen', 'Left Arm', 'Chest', 'Right Arm', 'Right Face', 'Right Arm', 'Left Leg', 'Right Leg', 'Left Face', 'Chest', 'Left Arm', 'Right Leg', 'Left Leg', 'Abdomen', 'Right Face', 'Left Face']",
4,"[-0.2, 0]",1,0,13,13,13,,,,,,,1522.6567824999802,None,1522.6567824999802,1523.6568036000244,1523.6401232000208,1524.6401314000832,1,-0.15833333333333333,0.07592592592592592,"[0, 0, 0]",0,0,1522.6567824999802,None,,,,,,,,,,,,,,,,,,,,,,,,,,,,,,,,,1,M,21,r,CIB,2021_Aug_20_1402,distractmap,2020.2.10,59.993400703609076,"['Abdomen', 'Left Arm', 'Chest', 'Right Arm', 'Right Face', 'Right Arm', 'Left Leg', 'Right Leg', 'Left Face', 'Chest', 'Left Arm', 'Right Leg', 'Left Leg', 'Abdomen', 'Right Face', 'Left Face']",
8,"[0, -0.2]",0,0,14,14,14,,,,,,,1524.6567703000037,None,1524.6567703000037,1525.656810500077,1525.6401314999675,1526.6401403000345,1,-0.15833333333333333,0.07592592592592592,"[0, 0, 0]",0,0,1524.6567703000037,None,,,,,,,,,,,,,,,,,,,,,,,,,,,,,,,,,1,M,21,r,CIB,2021_Aug_20_1402,distractmap,2020.2.10,59.993400703609076,"['Abdomen', 'Left Arm', 'Chest', 'Right Arm', 'Right Face', 'Right Arm', 'Left Leg', 'Right Leg', 'Left Face', 'Chest', 'Left Arm', 'Right Leg', 'Left Leg', 'Abdomen', 'Right Face', 'Left Face']",
5,"[0, 0]",0,0,15,15,15,,,,,,,1526.6567123000277,None,1526.6567123000277,1527.6568169000093,1527.6401544000255,1528.6401675000088,1,-0.15833333333333333,0.07592592592592592,"[0, 0, 0]",0,0,1526.6567123000277,None,,,,,,,,,,,,,,,,,,,,,,,,,,,,,,,,,1,M,21,r,CIB,2021_Aug_20_1402,distractmap,2020.2.10,59.993400703609076,"['Abdomen', 'Left Arm', 'Chest', 'Right Arm', 'Right Face', 'Right Arm', 'Left Leg', 'Right Leg', 'Left Face', 'Chest', 'Left Arm', 'Right Leg', 'Left Leg', 'Abdomen', 'Right Face', 'Left Face']",
5,"[0, 0]",1,0,16,16,16,,,,,,,1528.656829399988,None,1528.656829399988,1529.65685020003,1529.6401516000042,1530.6401747000637,0,-0.15833333333333333,0.07592592592592592,"[0, 0, 0]",0,0,1528.656829399988,None,,,,,,,,,,,,,,,,,,,,,,,,,,,,,,,,,1,M,21,r,CIB,2021_Aug_20_1402,distractmap,2020.2.10,59.993400703609076,"['Abdomen', 'Left Arm', 'Chest', 'Right Arm', 'Right Face', 'Right Arm', 'Left Leg', 'Right Leg', 'Left Face', 'Chest', 'Left Arm', 'Right Leg', 'Left Leg', 'Abdomen', 'Right Face', 'Left Face']",
1,"[-0.2, 0.2]",0,0,17,17,17,,,,,,,1530.656840300071,None,1530.656840300071,1531.6568479000125,1531.640188600053,1532.6401834000135,1,-0.15833333333333333,0.07592592592592592,"[0, 0, 0]",0,0,1530.656840300071,None,,,,,,,,,,,,,,,,,,,,,,,,,,,,,,,,,1,M,21,r,CIB,2021_Aug_20_1402,distractmap,2020.2.10,59.993400703609076,"['Abdomen', 'Left Arm', 'Chest', 'Right Arm', 'Right Face', 'Right Arm', 'Left Leg', 'Right Leg', 'Left Face', 'Chest', 'Left Arm', 'Right Leg', 'Left Leg', 'Abdomen', 'Right Face', 'Left Face']",
3,"[0.2, 0.2]",0,0,18,18,18,,,,,,,1532.656857999973,None,1532.656857999973,1533.6568634000141,1533.6401817000005,1534.6402110999916,1,-0.15833333333333333,0.07592592592592592,"[0, 0, 0]",0,0,1532.656857999973,None,,,,,,,,,,,,,,,,,,,,,,,,,,,,,,,,,1,M,21,r,CIB,2021_Aug_20_1402,distractmap,2020.2.10,59.993400703609076,"['Abdomen', 'Left Arm', 'Chest', 'Right Arm', 'Right Face', 'Right Arm', 'Left Leg', 'Right Leg', 'Left Face', 'Chest', 'Left Arm', 'Right Leg', 'Left Leg', 'Abdomen', 'Right Face', 'Left Face']",
6,"[0.2, 0]",0,0,19,19,19,,,,,,,1534.6568750999868,None,1534.6568750999868,1535.6568984000478,1535.6397067999933,1536.6402231999673,1,-0.15833333333333333,0.07592592592592592,"[0, 0, 0]",0,0,1534.6568750999868,None,,,,,,,,,,,,,,,,,,,,,,,,,,,,,,,,,1,M,21,r,CIB,2021_Aug_20_1402,distractmap,2020.2.10,59.993400703609076,"['Abdomen', 'Left Arm', 'Chest', 'Right Arm', 'Right Face', 'Right Arm', 'Left Leg', 'Right Leg', 'Left Face', 'Chest', 'Left Arm', 'Right Leg', 'Left Leg', 'Abdomen', 'Right Face', 'Left Face']",
1,"[-0.2, 0.2]",0,0,20,20,20,,,,,,,1536.6568828000454,None,1536.6568828000454,1537.656924400013,1537.6402396999765,1538.6402307000244,1,-0.15833333333333333,0.07592592592592592,"[0, 0, 0]",0,0,1536.6568828000454,None,,,,,,,,,,,,,,,,,,,,,,,,,,,,,,,,,1,M,21,r,CIB,2021_Aug_20_1402,distractmap,2020.2.10,59.993400703609076,"['Abdomen', 'Left Arm', 'Chest', 'Right Arm', 'Right Face', 'Right Arm', 'Left Leg', 'Right Leg', 'Left Face', 'Chest', 'Left Arm', 'Right Leg', 'Left Leg', 'Abdomen', 'Right Face', 'Left Face']",
1,"[-0.2, 0.2]",1,0,21,21,21,,,,,,,1538.6569756000536,None,1538.6569756000536,1539.6568981000455,1539.6402301000198,1540.6402527000755,1,-0.15833333333333333,0.07592592592592592,"[0, 0, 0]",0,0,1538.6569756000536,None,,,,,,,,,,,,,,,,,,,,,,,,,,,,,,,,,1,M,21,r,CIB,2021_Aug_20_1402,distractmap,2020.2.10,59.993400703609076,"['Abdomen', 'Left Arm', 'Chest', 'Right Arm', 'Right Face', 'Right Arm', 'Left Leg', 'Right Leg', 'Left Face', 'Chest', 'Left Arm', 'Right Leg', 'Left Leg', 'Abdomen', 'Right Face', 'Left Face']",
1,"[-0.2, 0.2]",1,0,22,22,22,,,,,,,1540.6569091000129,None,1540.6569091000129,1541.6569465000648,1541.6402408999857,1542.6402664000634,1,-0.15833333333333333,0.07592592592592592,"[0, 0, 0]",0,0,1540.6569091000129,None,,,,,,,,,,,,,,,,,,,,,,,,,,,,,,,,,1,M,21,r,CIB,2021_Aug_20_1402,distractmap,2020.2.10,59.993400703609076,"['Abdomen', 'Left Arm', 'Chest', 'Right Arm', 'Right Face', 'Right Arm', 'Left Leg', 'Right Leg', 'Left Face', 'Chest', 'Left Arm', 'Right Leg', 'Left Leg', 'Abdomen', 'Right Face', 'Left Face']",
3,"[0.2, 0.2]",0,0,23,23,23,,,,,,,1542.6569142000517,None,1542.6569142000517,1543.6569404000184,1543.6402785000391,1544.6402627000352,1,-0.15833333333333333,0.07592592592592592,"[0, 0, 0]",0,0,1542.6569142000517,None,,,,,,,,,,,,,,,,,,,,,,,,,,,,,,,,,1,M,21,r,CIB,2021_Aug_20_1402,distractmap,2020.2.10,59.993400703609076,"['Abdomen', 'Left Arm', 'Chest', 'Right Arm', 'Right Face', 'Right Arm', 'Left Leg', 'Right Leg', 'Left Face', 'Chest', 'Left Arm', 'Right Leg', 'Left Leg', 'Abdomen', 'Right Face', 'Left Face']",
2,"[0, 0.2]",0,0,24,24,24,,,,,,,1544.656946000061,None,1544.656946000061,1545.6569486000808,1545.6402740000049,1546.640311300056,1,-0.15833333333333333,0.07592592592592592,"[0, 0, 0]",0,0,1544.656946000061,None,,,,,,,,,,,,,,,,,,,,,,,,,,,,,,,,,1,M,21,r,CIB,2021_Aug_20_1402,distractmap,2020.2.10,59.993400703609076,"['Abdomen', 'Left Arm', 'Chest', 'Right Arm', 'Right Face', 'Right Arm', 'Left Leg', 'Right Leg', 'Left Face', 'Chest', 'Left Arm', 'Right Leg', 'Left Leg', 'Abdomen', 'Right Face', 'Left Face']",
1,"[-0.2, 0.2]",0,0,25,25,25,,,,,,,1546.6569637000794,None,1546.6569637000794,1547.6569641000824,1547.6403004999738,1548.6403098000446,1,-0.15833333333333333,0.07592592592592592,"[0, 0, 0]",0,0,1546.6569637000794,None,,,,,,,,,,,,,,,,,,,,,,,,,,,,,,,,,1,M,21,r,CIB,2021_Aug_20_1402,distractmap,2020.2.10,59.993400703609076,"['Abdomen', 'Left Arm', 'Chest', 'Right Arm', 'Right Face', 'Right Arm', 'Left Leg', 'Right Leg', 'Left Face', 'Chest', 'Left Arm', 'Right Leg', 'Left Leg', 'Abdomen', 'Right Face', 'Left Face']",
7,"[-0.2, -0.2]",0,0,26,26,26,,,,,,,1548.6569706000155,None,1548.6569706000155,1549.656989500043,1549.640323300031,1550.6403091000393,1,-0.15833333333333333,0.07592592592592592,"[0, 0, 0]",0,0,1548.6569706000155,None,,,,,,,,,,,,,,,,,,,,,,,,,,,,,,,,,1,M,21,r,CIB,2021_Aug_20_1402,distractmap,2020.2.10,59.993400703609076,"['Abdomen', 'Left Arm', 'Chest', 'Right Arm', 'Right Face', 'Right Arm', 'Left Leg', 'Right Leg', 'Left Face', 'Chest', 'Left Arm', 'Right Leg', 'Left Leg', 'Abdomen', 'Right Face', 'Left Face']",
7,"[-0.2, -0.2]",1,0,27,27,27,,,,,,,1550.6569789000787,None,1550.6569789000787,1551.6569858000148,1551.6402444000123,1552.640342800063,1,-0.15833333333333333,0.07592592592592592,"[0, 0, 0]",0,0,1550.6569789000787,None,,,,,,,,,,,,,,,,,,,,,,,,,,,,,,,,,1,M,21,r,CIB,2021_Aug_20_1402,distractmap,2020.2.10,59.993400703609076,"['Abdomen', 'Left Arm', 'Chest', 'Right Arm', 'Right Face', 'Right Arm', 'Left Leg', 'Right Leg', 'Left Face', 'Chest', 'Left Arm', 'Right Leg', 'Left Leg', 'Abdomen', 'Right Face', 'Left Face']",
2,"[0, 0.2]",0,0,28,28,28,,,,,,,1552.657001900021,None,1552.657001900021,1553.657000600011,1553.6403406000463,1554.6403464999748,1,-0.15833333333333333,0.07592592592592592,"[0, 0, 0]",0,0,1552.657001900021,None,,,,,,,,,,,,,,,,,,,,,,,,,,,,,,,,,1,M,21,r,CIB,2021_Aug_20_1402,distractmap,2020.2.10,59.993400703609076,"['Abdomen', 'Left Arm', 'Chest', 'Right Arm', 'Right Face', 'Right Arm', 'Left Leg', 'Right Leg', 'Left Face', 'Chest', 'Left Arm', 'Right Leg', 'Left Leg', 'Abdomen', 'Right Face', 'Left Face']",
6,"[0.2, 0]",0,0,29,29,29,,,,,,,1554.6570211000508,None,1554.6570211000508,1555.6570217000553,1555.6403490999946,1556.6403686000267,1,-0.15833333333333333,0.07592592592592592,"[0, 0, 0]",0,0,1554.6570211000508,None,,,,,,,,,,,,,,,,,,,,,,,,,,,,,,,,,1,M,21,r,CIB,2021_Aug_20_1402,distractmap,2020.2.10,59.993400703609076,"['Abdomen', 'Left Arm', 'Chest', 'Right Arm', 'Right Face', 'Right Arm', 'Left Leg', 'Right Leg', 'Left Face', 'Chest', 'Left Arm', 'Right Leg', 'Left Leg', 'Abdomen', 'Right Face', 'Left Face']",
,,,,,,,,,,,,,,,,,,,,,,,,,,,1556.6737020000583,None,space,1556.6737020000583,None,,,,,,,,,,,,,,,,,,,,,,,,,,,,1,M,21,r,CIB,2021_Aug_20_1402,distractmap,2020.2.10,59.993400703609076,"['Abdomen', 'Left Arm', 'Chest', 'Right Arm', 'Right Face', 'Right Arm', 'Left Leg', 'Right Leg', 'Left Face', 'Chest', 'Left Arm', 'Right Leg', 'Left Leg', 'Abdomen', 'Right Face', 'Left Face']",
6,"[0.2, 0]",None,,,,,0,0,0,0,1621.9741772999987,None,,,,,,,,,,,,,,,,,,,,None,None,"[0, 0, 0]",1622.9908263999969,None,1622.9908263999969,1623.9908503000624,1623.974207399995,1624.9742035000818,"[0, 0, 0]",1,1622.9908263999969,None,,,,,,,,,,,,,,,1,M,21,r,CIB,2021_Aug_20_1402,distractmap,2020.2.10,59.993400703609076,"['Abdomen', 'Left Arm', 'Chest', 'Right Arm', 'Right Face', 'Right Arm', 'Left Leg', 'Right Leg', 'Left Face', 'Chest', 'Left Arm', 'Right Leg', 'Left Leg', 'Abdomen', 'Right Face', 'Left Face']",
7,"[-0.2, -0.2]",None,,,,,0,1,1,1,,,,,,,,,,,,,,,,,,,,,,None,None,"[0, 0, 0]",1624.9907736000605,1626.99087400001,1624.9907736000605,1625.9908747000154,1625.9741890999721,1626.9742145000491,"[0, 0, 0]",1,1624.9907736000605,1626.99087400001,,,,,,,,,,,,,,,1,M,21,r,CIB,2021_Aug_20_1402,distractmap,2020.2.10,59.993400703609076,"['Abdomen', 'Left Arm', 'Chest', 'Right Arm', 'Right Face', 'Right Arm', 'Left Leg', 'Right Leg', 'Left Face', 'Chest', 'Left Arm', 'Right Leg', 'Left Leg', 'Abdomen', 'Right Face', 'Left Face']",
6,"[0.2, 0]",1,,,,,0,2,2,2,,,,,,,,,,,,,,,,,,,,,,None,None,"[0, 0, 0]",1627.007428699988,1629.007554300013,1627.007428699988,1628.0075474000769,1627.990884799976,1628.9908768000314,"[0, 0, 0]",1,1627.007428699988,1629.007554300013,,,,,,,,,,,,,,,1,M,21,r,CIB,2021_Aug_20_1402,distractmap,2020.2.10,59.993400703609076,"['Abdomen', 'Left Arm', 'Chest', 'Right Arm', 'Right Face', 'Right Arm', 'Left Leg', 'Right Leg', 'Left Face', 'Chest', 'Left Arm', 'Right Leg', 'Left Leg', 'Abdomen', 'Right Face', 'Left Face']",
2,"[0, 0.2]",0,,,,,0,3,3,3,,,,,,,,,,,,,,,,,,,,,,None,None,"[0, 0, 0]",1629.0241934000514,1631.0242175000021,1629.0241934000514,1630.0242151999846,1630.007565399981,1631.007568000001,"[0, 0, 0]",1,1629.0241934000514,1631.0242175000021,,,,,,,,,,,,,,,1,M,21,r,CIB,2021_Aug_20_1402,distractmap,2020.2.10,59.993400703609076,"['Abdomen', 'Left Arm', 'Chest', 'Right Arm', 'Right Face', 'Right Arm', 'Left Leg', 'Right Leg', 'Left Face', 'Chest', 'Left Arm', 'Right Leg', 'Left Leg', 'Abdomen', 'Right Face', 'Left Face']",
5,"[0, 0]",0,,,,,0,4,4,4,,,,,,,,,,,,,,,,,,,,,,None,None,"[0, 0, 0]",1631.0408990000142,1633.04092509998,1631.0408990000142,1632.0409130000044,1632.0242496000137,1633.0242509000236,"[0, 0, 0]",1,1631.0408990000142,1633.04092509998,,,,,,,,,,,,,,,1,M,21,r,CIB,2021_Aug_20_1402,distractmap,2020.2.10,59.993400703609076,"['Abdomen', 'Left Arm', 'Chest', 'Right Arm', 'Right Face', 'Right Arm', 'Left Leg', 'Right Leg', 'Left Face', 'Chest', 'Left Arm', 'Right Leg', 'Left Leg', 'Abdomen', 'Right Face', 'Left Face']",
4,"[-0.2, 0]",0,,,,,0,5,5,5,,,,,,,,,,,,,,,,,,,,,,None,None,"[0, 0, 0]",1633.0575878000818,1635.0575981000438,1633.0575878000818,1634.0575975000393,1634.0409226000775,1635.0409333000425,"[0, 0, 0]",1,1633.0575878000818,1635.0575981000438,,,,,,,,,,,,,,,1,M,21,r,CIB,2021_Aug_20_1402,distractmap,2020.2.10,59.993400703609076,"['Abdomen', 'Left Arm', 'Chest', 'Right Arm', 'Right Face', 'Right Arm', 'Left Leg', 'Right Leg', 'Left Face', 'Chest', 'Left Arm', 'Right Leg', 'Left Leg', 'Abdomen', 'Right Face', 'Left Face']",
4,"[-0.2, 0]",0,,,,,0,6,6,6,,,,,,,,,,,,,,,,,,,,,,None,None,"[0, 0, 0]",1635.0742513000732,1637.0743498000083,1635.0742513000732,1636.074280800065,1636.0576108000241,1637.0576067999937,"[0, 0, 0]",1,1635.0742513000732,1637.0743498000083,,,,,,,,,,,,,,,1,M,21,r,CIB,2021_Aug_20_1402,distractmap,2020.2.10,59.993400703609076,"['Abdomen', 'Left Arm', 'Chest', 'Right Arm', 'Right Face', 'Right Arm', 'Left Leg', 'Right Leg', 'Left Face', 'Chest', 'Left Arm', 'Right Leg', 'Left Leg', 'Abdomen', 'Right Face', 'Left Face']",
7,"[-0.2, -0.2]",0,,,,,0,7,7,7,,,,,,,,,,,,,,,,,,,,,,None,None,"[0, 0, 0]",1637.0909528000047,1639.090856899973,1637.0909528000047,1638.090957300039,1638.0743076000363,1639.074300999986,"[0, 0, 0]",1,1637.0909528000047,1639.090856899973,,,,,,,,,,,,,,,1,M,21,r,CIB,2021_Aug_20_1402,distractmap,2020.2.10,59.993400703609076,"['Abdomen', 'Left Arm', 'Chest', 'Right Arm', 'Right Face', 'Right Arm', 'Left Leg', 'Right Leg', 'Left Face', 'Chest', 'Left Arm', 'Right Leg', 'Left Leg', 'Abdomen', 'Right Face', 'Left Face']",
4,"[-0.2, 0]",1,,,,,0,8,8,8,,,,,,,,,,,,,,,,,,,,,,None,None,"[0, 0, 0]",1639.1076329000061,1641.107651200029,1639.1076329000061,1640.1076333000092,1640.0909730000421,1641.0909794999752,"[0, 0, 0]",1,1639.1076329000061,1641.107651200029,,,,,,,,,,,,,,,1,M,21,r,CIB,2021_Aug_20_1402,distractmap,2020.2.10,59.993400703609076,"['Abdomen', 'Left Arm', 'Chest', 'Right Arm', 'Right Face', 'Right Arm', 'Left Leg', 'Right Leg', 'Left Face', 'Chest', 'Left Arm', 'Right Leg', 'Left Leg', 'Abdomen', 'Right Face', 'Left Face']",
3,"[0.2, 0.2]",0,,,,,0,9,9,9,,,,,,,,,,,,,,,,,,,,,,None,None,"[0, 0, 0]",1641.124313600012,1643.1243129000068,1641.124313600012,1642.1243159000296,1642.1076452999841,1643.1076518000336,"[0, 0, 0]",1,1641.124313600012,1643.1243129000068,,,,,,,,,,,,,,,1,M,21,r,CIB,2021_Aug_20_1402,distractmap,2020.2.10,59.993400703609076,"['Abdomen', 'Left Arm', 'Chest', 'Right Arm', 'Right Face', 'Right Arm', 'Left Leg', 'Right Leg', 'Left Face', 'Chest', 'Left Arm', 'Right Leg', 'Left Leg', 'Abdomen', 'Right Face', 'Left Face']",
5,"[0, 0]",0,,,,,0,10,10,10,,,,,,,,,,,,,,,,,,,,,,None,None,"[0, 0, 0]",1643.1409859000705,1645.1410059999907,1643.1409859000705,1644.1410040999763,1644.1243322000373,1645.12432599999,"[0, 0, 0]",1,1643.1409859000705,1645.1410059999907,,,,,,,,,,,,,,,1,M,21,r,CIB,2021_Aug_20_1402,distractmap,2020.2.10,59.993400703609076,"['Abdomen', 'Left Arm', 'Chest', 'Right Arm', 'Right Face', 'Right Arm', 'Left Leg', 'Right Leg', 'Left Face', 'Chest', 'Left Arm', 'Right Leg', 'Left Leg', 'Abdomen', 'Right Face', 'Left Face']",
3,"[0.2, 0.2]",1,,,,,0,11,11,11,,,,,,,,,,,,,,,,,,,,,,None,None,"[0, 0, 0]",1645.1576640000567,1647.157680000062,1645.1576640000567,1646.157666800078,1646.1410150000593,1647.1410222999984,"[0, 0, 0]",1,1645.1576640000567,1647.157680000062,,,,,,,,,,,,,,,1,M,21,r,CIB,2021_Aug_20_1402,distractmap,2020.2.10,59.993400703609076,"['Abdomen', 'Left Arm', 'Chest', 'Right Arm', 'Right Face', 'Right Arm', 'Left Leg', 'Right Leg', 'Left Face', 'Chest', 'Left Arm', 'Right Leg', 'Left Leg', 'Abdomen', 'Right Face', 'Left Face']",
1,"[-0.2, 0.2]",0,,,,,0,12,12,12,,,,,,,,,,,,,,,,,,,,,,None,None,"[0, 0, 0]",1647.1743539000163,1649.1743426000467,1647.1743539000163,1648.1743658999912,1648.1576870999997,1649.1576963000698,"[0, 0, 0]",1,1647.1743539000163,1649.1743426000467,,,,,,,,,,,,,,,1,M,21,r,CIB,2021_Aug_20_1402,distractmap,2020.2.10,59.993400703609076,"['Abdomen', 'Left Arm', 'Chest', 'Right Arm', 'Right Face', 'Right Arm', 'Left Leg', 'Right Leg', 'Left Face', 'Chest', 'Left Arm', 'Right Leg', 'Left Leg', 'Abdomen', 'Right Face', 'Left Face']",
9,"[0.2, -0.2]",0,,,,,0,13,13,13,,,,,,,,,,,,,,,,,,,,,,None,None,"[0, 0, 0]",1649.191030899994,1651.1910567000741,1649.191030899994,1650.1910391000565,1650.1743879000423,1651.1743197999895,"[0, 0, 0]",1,1649.191030899994,1651.1910567000741,,,,,,,,,,,,,,,1,M,21,r,CIB,2021_Aug_20_1402,distractmap,2020.2.10,59.993400703609076,"['Abdomen', 'Left Arm', 'Chest', 'Right Arm', 'Right Face', 'Right Arm', 'Left Leg', 'Right Leg', 'Left Face', 'Chest', 'Left Arm', 'Right Leg', 'Left Leg', 'Abdomen', 'Right Face', 'Left Face']",
9,"[0.2, -0.2]",0,,,,,0,14,14,14,,,,,,,,,,,,,,,,,,,,,,None,None,"[0, 0, 0]",1651.207717500045,1653.2077207000693,1651.207717500045,1652.2077169000404,1652.1910436999751,1653.191047500004,"[0, 0, 0]",1,1651.207717500045,1653.2077207000693,,,,,,,,,,,,,,,1,M,21,r,CIB,2021_Aug_20_1402,distractmap,2020.2.10,59.993400703609076,"['Abdomen', 'Left Arm', 'Chest', 'Right Arm', 'Right Face', 'Right Arm', 'Left Leg', 'Right Leg', 'Left Face', 'Chest', 'Left Arm', 'Right Leg', 'Left Leg', 'Abdomen', 'Right Face', 'Left Face']",
8,"[0, -0.2]",0,,,,,0,15,15,15,,,,,,,,,,,,,,,,,,,,,,None,None,"[0, 0, 0]",1653.2243218000513,1655.2244057999924,1653.2243218000513,1654.22439019999,1654.2077379999682,1655.2077459000284,"[0, 0, 0]",1,1653.2243218000513,1655.2244057999924,,,,,,,,,,,,,,,1,M,21,r,CIB,2021_Aug_20_1402,distractmap,2020.2.10,59.993400703609076,"['Abdomen', 'Left Arm', 'Chest', 'Right Arm', 'Right Face', 'Right Arm', 'Left Leg', 'Right Leg', 'Left Face', 'Chest', 'Left Arm', 'Right Leg', 'Left Leg', 'Abdomen', 'Right Face', 'Left Face']",
6,"[0.2, 0]",0,,,,,0,16,16,16,,,,,,,,,,,,,,,,,,,,,,None,None,"[0, 0, 0]",1655.2410909000318,1657.2411057000281,1655.2410909000318,1656.2410952000646,1656.224444200052,1657.224427200039,"[0, 0, 0]",1,1655.2410909000318,1657.2411057000281,,,,,,,,,,,,,,,1,M,21,r,CIB,2021_Aug_20_1402,distractmap,2020.2.10,59.993400703609076,"['Abdomen', 'Left Arm', 'Chest', 'Right Arm', 'Right Face', 'Right Arm', 'Left Leg', 'Right Leg', 'Left Face', 'Chest', 'Left Arm', 'Right Leg', 'Left Leg', 'Abdomen', 'Right Face', 'Left Face']",
3,"[0.2, 0.2]",0,,,,,0,17,17,17,,,,,,,,,,,,,,,,,,,,,,None,None,"[0, 0, 0]",1657.257748199976,1659.2576672000578,1657.257748199976,1658.2577622000827,1658.2411185000092,1659.2410894000204,"[0, 0, 0]",1,1657.257748199976,1659.2576672000578,,,,,,,,,,,,,,,1,M,21,r,CIB,2021_Aug_20_1402,distractmap,2020.2.10,59.993400703609076,"['Abdomen', 'Left Arm', 'Chest', 'Right Arm', 'Right Face', 'Right Arm', 'Left Leg', 'Right Leg', 'Left Face', 'Chest', 'Left Arm', 'Right Leg', 'Left Leg', 'Abdomen', 'Right Face', 'Left Face']",
6,"[0.2, 0]",1,,,,,0,18,18,18,,,,,,,,,,,,,,,,,,,,,,None,None,"[0, 0, 0]",1659.2744384000544,1661.2744463999989,1659.2744384000544,1660.2744627000066,1660.2577706000302,1661.2577759000706,"[0, 0, 0]",0,1659.2744384000544,1661.2744463999989,,,,,,,,,,,,,,,1,M,21,r,CIB,2021_Aug_20_1402,distractmap,2020.2.10,59.993400703609076,"['Abdomen', 'Left Arm', 'Chest', 'Right Arm', 'Right Face', 'Right Arm', 'Left Leg', 'Right Leg', 'Left Face', 'Chest', 'Left Arm', 'Right Leg', 'Left Leg', 'Abdomen', 'Right Face', 'Left Face']",
5,"[0, 0]",0,,,,,0,19,19,19,,,,,,,,,,,,,,,,,,,,,,None,None,"[0, 0, 0]",1661.2911068999674,1663.291136700078,1661.2911068999674,1662.291135800071,1662.2744915999938,1663.2744861000683,"[0, 0, 0]",1,1661.2911068999674,1663.291136700078,,,,,,,,,,,,,,,1,M,21,r,CIB,2021_Aug_20_1402,distractmap,2020.2.10,59.993400703609076,"['Abdomen', 'Left Arm', 'Chest', 'Right Arm', 'Right Face', 'Right Arm', 'Left Leg', 'Right Leg', 'Left Face', 'Chest', 'Left Arm', 'Right Leg', 'Left Leg', 'Abdomen', 'Right Face', 'Left Face']",
7,"[-0.2, -0.2]",0,,,,,0,20,20,20,,,,,,,,,,,,,,,,,,,,,,None,None,"[0, 0, 0]",1663.307669300004,1665.307700800011,1663.307669300004,1664.3077990000602,1664.2911336000543,1665.291041700053,"[0, 0, 0]",1,1663.307669300004,1665.307700800011,,,,,,,,,,,,,,,1,M,21,r,CIB,2021_Aug_20_1402,distractmap,2020.2.10,59.993400703609076,"['Abdomen', 'Left Arm', 'Chest', 'Right Arm', 'Right Face', 'Right Arm', 'Left Leg', 'Right Leg', 'Left Face', 'Chest', 'Left Arm', 'Right Leg', 'Left Leg', 'Abdomen', 'Right Face', 'Left Face']",
5,"[0, 0]",1,,,,,0,21,21,21,,,,,,,,,,,,,,,,,,,,,,None,None,"[0, 0, 0]",1665.3245132999728,1667.3244883000152,1665.3245132999728,1666.3245021000039,1666.3078346999828,1667.3078387000132,"[0, 0, 0]",0,1665.3245132999728,1667.3244883000152,,,,,,,,,,,,,,,1,M,21,r,CIB,2021_Aug_20_1402,distractmap,2020.2.10,59.993400703609076,"['Abdomen', 'Left Arm', 'Chest', 'Right Arm', 'Right Face', 'Right Arm', 'Left Leg', 'Right Leg', 'Left Face', 'Chest', 'Left Arm', 'Right Leg', 'Left Leg', 'Abdomen', 'Right Face', 'Left Face']",
1,"[-0.2, 0.2]",0,,,,,0,22,22,22,,,,,,,,,,,,,,,,,,,,,,None,None,"[0, 0, 0]",1667.3411683000159,1669.3411764000775,1667.3411683000159,1668.341167400009,1668.3245165999979,1669.3245189000154,"[0, 0, 0]",1,1667.3411683000159,1669.3411764000775,,,,,,,,,,,,,,,1,M,21,r,CIB,2021_Aug_20_1402,distractmap,2020.2.10,59.993400703609076,"['Abdomen', 'Left Arm', 'Chest', 'Right Arm', 'Right Face', 'Right Arm', 'Left Leg', 'Right Leg', 'Left Face', 'Chest', 'Left Arm', 'Right Leg', 'Left Leg', 'Abdomen', 'Right Face', 'Left Face']",
7,"[-0.2, -0.2]",0,,,,,0,23,23,23,,,,,,,,,,,,,,,,,,,,,,None,None,"[0, 0, 0]",1669.357849300024,1671.3573460000334,1669.357849300024,1670.3578822000418,1670.3411922000814,1671.341182300006,"[0, 0, 0]",1,1669.357849300024,1671.3573460000334,,,,,,,,,,,,,,,1,M,21,r,CIB,2021_Aug_20_1402,distractmap,2020.2.10,59.993400703609076,"['Abdomen', 'Left Arm', 'Chest', 'Right Arm', 'Right Face', 'Right Arm', 'Left Leg', 'Right Leg', 'Left Face', 'Chest', 'Left Arm', 'Right Leg', 'Left Leg', 'Abdomen', 'Right Face', 'Left Face']",
9,"[0.2, -0.2]",0,,,,,0,24,24,24,,,,,,,,,,,,,,,,,,,,,,None,None,"[0, 0, 0]",1671.3745294000255,1673.3744910000823,1671.3745294000255,1672.3745302000316,1672.3578738999786,1673.3578899999848,"[0, 0, 0]",1,1671.3745294000255,1673.3744910000823,,,,,,,,,,,,,,,1,M,21,r,CIB,2021_Aug_20_1402,distractmap,2020.2.10,59.993400703609076,"['Abdomen', 'Left Arm', 'Chest', 'Right Arm', 'Right Face', 'Right Arm', 'Left Leg', 'Right Leg', 'Left Face', 'Chest', 'Left Arm', 'Right Leg', 'Left Leg', 'Abdomen', 'Right Face', 'Left Face']",
3,"[0.2, 0.2]",0,,,,,0,25,25,25,,,,,,,,,,,,,,,,,,,,,,None,None,"[0, 0, 0]",1673.391218099976,1675.3912143000634,1673.391218099976,1674.3912190999836,1674.3745587000158,1675.3745581000112,"[0, 0, 0]",1,1673.391218099976,1675.3912143000634,,,,,,,,,,,,,,,1,M,21,r,CIB,2021_Aug_20_1402,distractmap,2020.2.10,59.993400703609076,"['Abdomen', 'Left Arm', 'Chest', 'Right Arm', 'Right Face', 'Right Arm', 'Left Leg', 'Right Leg', 'Left Face', 'Chest', 'Left Arm', 'Right Leg', 'Left Leg', 'Abdomen', 'Right Face', 'Left Face']",
9,"[0.2, -0.2]",1,,,,,0,26,26,26,,,,,,,,,,,,,,,,,,,,,,None,None,"[0, 0, 0]",1675.4078945000656,1677.4079100000672,1675.4078945000656,1676.4078902000329,1676.3912221000064,1677.3911236000713,"[0, 0, 0]",0,1675.4078945000656,1677.4079100000672,,,,,,,,,,,,,,,1,M,21,r,CIB,2021_Aug_20_1402,distractmap,2020.2.10,59.993400703609076,"['Abdomen', 'Left Arm', 'Chest', 'Right Arm', 'Right Face', 'Right Arm', 'Left Leg', 'Right Leg', 'Left Face', 'Chest', 'Left Arm', 'Right Leg', 'Left Leg', 'Abdomen', 'Right Face', 'Left Face']",
6,"[0.2, 0]",0,,,,,0,27,27,27,,,,,,,,,,,,,,,,,,,,,,None,None,"[0, 0, 0]",1677.424564999994,1679.4245786999818,1677.424564999994,1678.4245834000176,1678.4079203000292,1679.4079156999942,"[0, 0, 0]",1,1677.424564999994,1679.4245786999818,,,,,,,,,,,,,,,1,M,21,r,CIB,2021_Aug_20_1402,distractmap,2020.2.10,59.993400703609076,"['Abdomen', 'Left Arm', 'Chest', 'Right Arm', 'Right Face', 'Right Arm', 'Left Leg', 'Right Leg', 'Left Face', 'Chest', 'Left Arm', 'Right Leg', 'Left Leg', 'Abdomen', 'Right Face', 'Left Face']",
2,"[0, 0.2]",0,,,,,0,28,28,28,,,,,,,,,,,,,,,,,,,,,,None,None,"[0, 0, 0]",1679.4412545000669,1681.441276700003,1679.4412545000669,1680.44125969999,1680.4245326999808,1681.4246208000695,"[0, 0, 0]",1,1679.4412545000669,1681.441276700003,,,,,,,,,,,,,,,1,M,21,r,CIB,2021_Aug_20_1402,distractmap,2020.2.10,59.993400703609076,"['Abdomen', 'Left Arm', 'Chest', 'Right Arm', 'Right Face', 'Right Arm', 'Left Leg', 'Right Leg', 'Left Face', 'Chest', 'Left Arm', 'Right Leg', 'Left Leg', 'Abdomen', 'Right Face', 'Left Face']",
5,"[0, 0]",0,,,,,0,29,29,29,,,,,,,,,,,,,,,,,,,,,,None,None,"[0, 0, 0]",1681.4579515000805,1683.4579329000553,1681.4579515000805,1682.457950500073,1682.4412746999878,1683.441272099968,"[0, 0, 0]",1,1681.4579515000805,1683.4579329000553,,,,,,,,,,,,,,,1,M,21,r,CIB,2021_Aug_20_1402,distractmap,2020.2.10,59.993400703609076,"['Abdomen', 'Left Arm', 'Chest', 'Right Arm', 'Right Face', 'Right Arm', 'Left Leg', 'Right Leg', 'Left Face', 'Chest', 'Left Arm', 'Right Leg', 'Left Leg', 'Abdomen', 'Right Face', 'Left Face']",
,,,,,,,,,,,,,,,,,,,,,,,,,,,1683.4746131000575,None,space,1683.4746131000575,None,,,,,,,,,,,,,,,,,,,,,,,,,,,,1,M,21,r,CIB,2021_Aug_20_1402,distractmap,2020.2.10,59.993400703609076,"['Abdomen', 'Left Arm', 'Chest', 'Right Arm', 'Right Face', 'Right Arm', 'Left Leg', 'Right Leg', 'Left Face', 'Chest', 'Left Arm', 'Right Leg', 'Left Leg', 'Abdomen', 'Right Face', 'Left Face']",
5,"[0, 0]",None,0,0,0,0,,,,,1899.8762084000045,None,1906.9929449000629,None,1906.9929449000629,1907.9929401000263,1907.9762826000806,1908.9763015999924,1,None,None,"[0, 0, 0]",,,1906.9929449000629,None,,,,,,,,,,,,,,,,,,,1734.7252759999828,1734.7252759999828,None,space,132.2578354999423,1734.7252759999828,None,"[0, 0, 0]",,,,,,,1,M,21,r,CIB,2021_Aug_20_1402,distractmap,2020.2.10,59.993400703609076,"['Abdomen', 'Left Arm', 'Chest', 'Right Arm', 'Right Face', 'Right Arm', 'Left Leg', 'Right Leg', 'Left Face', 'Chest', 'Left Arm', 'Right Leg', 'Left Leg', 'Abdomen', 'Right Face', 'Left Face']",
5,"[0, 0]",1,0,1,1,1,,,,,,,1908.9929813999915,None,1908.9929813999915,1909.992970900028,1909.9763041000115,1910.9763103000587,1,None,None,"[0, 0, 0]",,,1908.9929813999915,None,,,,,,,,,,,,,,,,,,,,,,,,,,"[0, 0, 0]",,,,,,,1,M,21,r,CIB,2021_Aug_20_1402,distractmap,2020.2.10,59.993400703609076,"['Abdomen', 'Left Arm', 'Chest', 'Right Arm', 'Right Face', 'Right Arm', 'Left Leg', 'Right Leg', 'Left Face', 'Chest', 'Left Arm', 'Right Leg', 'Left Leg', 'Abdomen', 'Right Face', 'Left Face']",
4,"[-0.2, 0]",0,0,2,2,2,,,,,,,1910.9929640999762,1910.9929640999762,1910.9929640999762,1911.9929758000653,1911.9763232000405,1912.9763249000534,1,None,None,"[0, 0, 0]",,,1910.9929640999762,1910.9929640999762,,,,,,,,,,,,,,,,,,,,,,,,,,"[0, 0, 0]",,,,,,,1,M,21,r,CIB,2021_Aug_20_1402,distractmap,2020.2.10,59.993400703609076,"['Abdomen', 'Left Arm', 'Chest', 'Right Arm', 'Right Face', 'Right Arm', 'Left Leg', 'Right Leg', 'Left Face', 'Chest', 'Left Arm', 'Right Leg', 'Left Leg', 'Abdomen', 'Right Face', 'Left Face']",
2,"[0, 0.2]",0,0,3,3,3,,,,,,,1912.9929853000212,1912.9929853000212,1912.9929853000212,1913.992987500038,1913.9763258000603,1914.9763293999713,1,None,None,"[0, 0, 0]",,,1912.9929853000212,1912.9929853000212,,,,,,,,,,,,,,,,,,,,,,,,,,"[0, 0, 0]",,,,,,,1,M,21,r,CIB,2021_Aug_20_1402,distractmap,2020.2.10,59.993400703609076,"['Abdomen', 'Left Arm', 'Chest', 'Right Arm', 'Right Face', 'Right Arm', 'Left Leg', 'Right Leg', 'Left Face', 'Chest', 'Left Arm', 'Right Leg', 'Left Leg', 'Abdomen', 'Right Face', 'Left Face']",
6,"[0.2, 0]",0,0,4,4,4,,,,,,,1915.0933403000236,1915.0933403000236,1915.0933403000236,1916.0930194000248,1916.076331700082,None,1,None,None,"[0, 0, 0]",,,1915.0933403000236,1915.0933403000236,,,,,,,,,,,,,,,,,,,,,,,,,,"[0, 0, 0]",,,,,,,1,M,21,r,CIB,2021_Aug_20_1402,distractmap,2020.2.10,59.993400703609076,"['Abdomen', 'Left Arm', 'Chest', 'Right Arm', 'Right Face', 'Right Arm', 'Left Leg', 'Right Leg', 'Left Face', 'Chest', 'Left Arm', 'Right Leg', 'Left Leg', 'Abdomen', 'Right Face', 'Left Face']",
8,"[0, -0.2]",0,0,5,5,5,,,,,,,1917.009684400051,None,1917.009684400051,1918.0096939000068,1917.993004900054,1918.9930349000497,1,None,None,"[0, 0, 0]",,,1917.009684400051,None,,,,,,,,,,,,,,,,,,,,,,,,,,"[0, 0, 0]",,,,,,,1,M,21,r,CIB,2021_Aug_20_1402,distractmap,2020.2.10,59.993400703609076,"['Abdomen', 'Left Arm', 'Chest', 'Right Arm', 'Right Face', 'Right Arm', 'Left Leg', 'Right Leg', 'Left Face', 'Chest', 'Left Arm', 'Right Leg', 'Left Leg', 'Abdomen', 'Right Face', 'Left Face']",
1,"[-0.2, 0.2]",0,0,6,6,6,,,,,,,1919.0095797000686,1919.0095797000686,1919.0095797000686,1920.0097111000214,1919.9929207999958,1920.9930349000497,1,None,None,"[0, 0, 0]",,,1919.0095797000686,1919.0095797000686,,,,,,,,,,,,,,,,,,,,,,,,,,"[0, 0, 0]",,,,,,,1,M,21,r,CIB,2021_Aug_20_1402,distractmap,2020.2.10,59.993400703609076,"['Abdomen', 'Left Arm', 'Chest', 'Right Arm', 'Right Face', 'Right Arm', 'Left Leg', 'Right Leg', 'Left Face', 'Chest', 'Left Arm', 'Right Leg', 'Left Leg', 'Abdomen', 'Right Face', 'Left Face']",
4,"[-0.2, 0]",0,0,7,7,7,,,,,,,1921.0096967000281,1921.0096967000281,1921.0096967000281,1922.0097115000244,1921.993057899992,1922.9930599000072,1,None,None,"[0, 0, 0]",,,1921.0096967000281,1921.0096967000281,,,,,,,,,,,,,,,,,,,,,,,,,,"[0, 0, 0]",,,,,,,1,M,21,r,CIB,2021_Aug_20_1402,distractmap,2020.2.10,59.993400703609076,"['Abdomen', 'Left Arm', 'Chest', 'Right Arm', 'Right Face', 'Right Arm', 'Left Leg', 'Right Leg', 'Left Face', 'Chest', 'Left Arm', 'Right Leg', 'Left Leg', 'Abdomen', 'Right Face', 'Left Face']",
8,"[0, -0.2]",0,0,8,8,8,,,,,,,1923.009735199972,1923.009735199972,1923.009735199972,1924.0097305000527,1923.993072399986,1924.993074099999,1,None,None,"[0, 0, 0]",,,1923.009735199972,1923.009735199972,,,,,,,,,,,,,,,,,,,,,,,,,,"[0, 0, 0]",,,,,,,1,M,21,r,CIB,2021_Aug_20_1402,distractmap,2020.2.10,59.993400703609076,"['Abdomen', 'Left Arm', 'Chest', 'Right Arm', 'Right Face', 'Right Arm', 'Left Leg', 'Right Leg', 'Left Face', 'Chest', 'Left Arm', 'Right Leg', 'Left Leg', 'Abdomen', 'Right Face', 'Left Face']",
8,"[0, -0.2]",1,0,9,9,9,,,,,,,1925.009747400065,1925.009747400065,1925.009747400065,1926.0097536999965,1925.9930806000484,1926.9930924000219,1,None,None,"[0, 0, 0]",,,1925.009747400065,1925.009747400065,,,,,,,,,,,,,,,,,,,,,,,,,,"[0, 0, 0]",,,,,,,1,M,21,r,CIB,2021_Aug_20_1402,distractmap,2020.2.10,59.993400703609076,"['Abdomen', 'Left Arm', 'Chest', 'Right Arm', 'Right Face', 'Right Arm', 'Left Leg', 'Right Leg', 'Left Face', 'Chest', 'Left Arm', 'Right Leg', 'Left Leg', 'Abdomen', 'Right Face', 'Left Face']",
,,,,,,,,,,,1927.0097584000323,None,,,,,,,,,,,,,,,,,,,,,,,,,,,,,,,,,,,,,,,,,22.77777777777778,766.9084426899208,,,,,1,M,21,r,CIB,2021_Aug_20_1402,distractmap,2020.2.10,59.993400703609076,"['Abdomen', 'Left Arm', 'Chest', 'Right Arm', 'Right Face', 'Right Arm', 'Left Leg', 'Right Leg', 'Left Face', 'Chest', 'Left Arm', 'Right Leg', 'Left Leg', 'Abdomen', 'Right Face', 'Left Face']",
3,"[0.2, 0.2]",None,0,0,0,0,,,,,1937.8098040000768,None,1947.0432489999803,None,1947.0432489999803,1948.043272000039,1948.0265863999957,1949.026585899992,1,None,None,"[0, 0, 0]",,,1947.0432489999803,None,,,,,,,,,,,,,,,,,,,,,,,,,,"[0, 0, 0]",,,0.015237010084092617,5.012643810128793,,,1,M,21,r,CIB,2021_Aug_20_1402,distractmap,2020.2.10,59.993400703609076,"['Abdomen', 'Left Arm', 'Chest', 'Right Arm', 'Right Face', 'Right Arm', 'Left Leg', 'Right Leg', 'Left Face', 'Chest', 'Left Arm', 'Right Leg', 'Left Leg', 'Abdomen', 'Right Face', 'Left Face']",
4,"[-0.2, 0]",0,0,1,1,1,,,,,,,1949.0432587000541,None,1949.0432587000541,1950.0432574000442,1950.026601999998,1951.0265317000449,1,None,None,"[0, 0, 0]",,,1949.0432587000541,None,,,,,,,,,,,,,,,,,,,,,,,,,,"[0, 0, 0]",,,,,,,1,M,21,r,CIB,2021_Aug_20_1402,distractmap,2020.2.10,59.993400703609076,"['Abdomen', 'Left Arm', 'Chest', 'Right Arm', 'Right Face', 'Right Arm', 'Left Leg', 'Right Leg', 'Left Face', 'Chest', 'Left Arm', 'Right Leg', 'Left Leg', 'Abdomen', 'Right Face', 'Left Face']",
1,"[-0.2, 0.2]",0,0,2,2,2,,,,,,,1951.0432757000672,1951.0432757000672,1951.0432757000672,1952.0432833000086,1952.026605000021,1953.0266298999777,1,None,None,"[0, 0, 0]",,,1951.0432757000672,1951.0432757000672,,,,,,,,,,,,,,,,,,,,,,,,,,"[0, 0, 0]",,,,,,,1,M,21,r,CIB,2021_Aug_20_1402,distractmap,2020.2.10,59.993400703609076,"['Abdomen', 'Left Arm', 'Chest', 'Right Arm', 'Right Face', 'Right Arm', 'Left Leg', 'Right Leg', 'Left Face', 'Chest', 'Left Arm', 'Right Leg', 'Left Leg', 'Abdomen', 'Right Face', 'Left Face']",
2,"[0, 0.2]",0,0,3,3,3,,,,,,,1953.0432774000801,1953.0432774000801,1953.0432774000801,1954.0432931000832,1954.026620300021,1955.026630599983,1,None,None,"[0, 0, 0]",,,1953.0432774000801,1953.0432774000801,,,,,,,,,,,,,,,,,,,,,,,,,,"[0, 0, 0]",,,,,,,1,M,21,r,CIB,2021_Aug_20_1402,distractmap,2020.2.10,59.993400703609076,"['Abdomen', 'Left Arm', 'Chest', 'Right Arm', 'Right Face', 'Right Arm', 'Left Leg', 'Right Leg', 'Left Face', 'Chest', 'Left Arm', 'Right Leg', 'Left Leg', 'Abdomen', 'Right Face', 'Left Face']",
2,"[0, 0.2]",1,0,4,4,4,,,,,,,1955.076782500022,1955.076782500022,1955.076782500022,1956.0766555999871,1956.059459400014,None,1,None,None,"[0, 0, 0]",,,1955.076782500022,1955.076782500022,,,,,,,,,,,,,,,,,,,,,,,,,,"[0, 0, 0]",,,,,,,1,M,21,r,CIB,2021_Aug_20_1402,distractmap,2020.2.10,59.993400703609076,"['Abdomen', 'Left Arm', 'Chest', 'Right Arm', 'Right Face', 'Right Arm', 'Left Leg', 'Right Leg', 'Left Face', 'Chest', 'Left Arm', 'Right Leg', 'Left Leg', 'Abdomen', 'Right Face', 'Left Face']",
5,"[0, 0]",0,0,5,5,5,,,,,,,1957.0600112000247,None,1957.0600112000247,1958.0599091000622,1958.0433054000605,1959.04332409997,1,None,None,"[0, 0, 0]",,,1957.0600112000247,None,,,,,,,,,,,,,,,,,,,,,,,,,,"[0, 0, 0]",,,,,,,1,M,21,r,CIB,2021_Aug_20_1402,distractmap,2020.2.10,59.993400703609076,"['Abdomen', 'Left Arm', 'Chest', 'Right Arm', 'Right Face', 'Right Arm', 'Left Leg', 'Right Leg', 'Left Face', 'Chest', 'Left Arm', 'Right Leg', 'Left Leg', 'Abdomen', 'Right Face', 'Left Face']",
1,"[-0.2, 0.2]",0,0,6,6,6,,,,,,,1959.059995800024,1959.059995800024,1959.059995800024,1960.0599955000216,1960.04334199999,1961.0433434000006,1,None,None,"[0, 0, 0]",,,1959.059995800024,1959.059995800024,,,,,,,,,,,,,,,,,,,,,,,,,,"[0, 0, 0]",,,,,,,1,M,21,r,CIB,2021_Aug_20_1402,distractmap,2020.2.10,59.993400703609076,"['Abdomen', 'Left Arm', 'Chest', 'Right Arm', 'Right Face', 'Right Arm', 'Left Leg', 'Right Leg', 'Left Face', 'Chest', 'Left Arm', 'Right Leg', 'Left Leg', 'Abdomen', 'Right Face', 'Left Face']",
1,"[-0.2, 0.2]",1,0,7,7,7,,,,,,,1961.060009800014,1961.060009800014,1961.060009800014,1962.060009400011,1962.0433656000532,1963.04339970008,1,None,None,"[0, 0, 0]",,,1961.060009800014,1961.060009800014,,,,,,,,,,,,,,,,,,,,,,,,,,"[0, 0, 0]",,,,,,,1,M,21,r,CIB,2021_Aug_20_1402,distractmap,2020.2.10,59.993400703609076,"['Abdomen', 'Left Arm', 'Chest', 'Right Arm', 'Right Face', 'Right Arm', 'Left Leg', 'Right Leg', 'Left Face', 'Chest', 'Left Arm', 'Right Leg', 'Left Leg', 'Abdomen', 'Right Face', 'Left Face']",
8,"[0, -0.2]",0,0,8,8,8,,,,,,,1963.0598804000765,1963.0598804000765,1963.0598804000765,1964.0600463000592,1964.043375600013,1965.0433672000654,1,None,None,"[0, 0, 0]",,,1963.0598804000765,1963.0598804000765,,,,,,,,,,,,,,,,,,,,,,,,,,"[0, 0, 0]",,,,,,,1,M,21,r,CIB,2021_Aug_20_1402,distractmap,2020.2.10,59.993400703609076,"['Abdomen', 'Left Arm', 'Chest', 'Right Arm', 'Right Face', 'Right Arm', 'Left Leg', 'Right Leg', 'Left Face', 'Chest', 'Left Arm', 'Right Leg', 'Left Leg', 'Abdomen', 'Right Face', 'Left Face']",
7,"[-0.2, -0.2]",0,0,9,9,9,,,,,,,1965.0600370999891,1965.0600370999891,1965.0600370999891,1966.0600440000417,1966.0433931000298,1967.0433954000473,1,None,None,"[0, 0, 0]",,,1965.0600370999891,1965.0600370999891,,,,,,,,,,,,,,,,,,,,,,,,,,"[0, 0, 0]",,,,,,,1,M,21,r,CIB,2021_Aug_20_1402,distractmap,2020.2.10,59.993400703609076,"['Abdomen', 'Left Arm', 'Chest', 'Right Arm', 'Right Face', 'Right Arm', 'Left Leg', 'Right Leg', 'Left Face', 'Chest', 'Left Arm', 'Right Leg', 'Left Leg', 'Abdomen', 'Right Face', 'Left Face']",
,,,,,,,,,,,1967.0600654999726,None,,,,,,,,,,,,,,,,,,,,,,,,,,,,,,,,,,,,,,,,,14.444444444444446,807.3927553901449,,,,,1,M,21,r,CIB,2021_Aug_20_1402,distractmap,2020.2.10,59.993400703609076,"['Abdomen', 'Left Arm', 'Chest', 'Right Arm', 'Right Face', 'Right Arm', 'Left Leg', 'Right Leg', 'Left Face', 'Chest', 'Left Arm', 'Right Leg', 'Left Leg', 'Abdomen', 'Right Face', 'Left Face']",
6,"[0.2, 0]",None,0,0,0,0,,,,,1977.2604766000295,None,1987.0935397000285,None,1987.0935397000285,1988.0935782999732,1988.0768851999892,1989.0768987999763,1,None,None,"[0, 0, 0]",,,1987.0935397000285,None,,,,,,,,,,,,,,,,,,,,,,,,,,"[0, 0, 0]",,,0.014583509881049395,5.011768709868193,,,1,M,21,r,CIB,2021_Aug_20_1402,distractmap,2020.2.10,59.993400703609076,"['Abdomen', 'Left Arm', 'Chest', 'Right Arm', 'Right Face', 'Right Arm', 'Left Leg', 'Right Leg', 'Left Face', 'Chest', 'Left Arm', 'Right Leg', 'Left Leg', 'Abdomen', 'Right Face', 'Left Face']",
6,"[0.2, 0]",1,0,1,1,1,,,,,,,1989.0935477999737,None,1989.0935477999737,1990.0934547000797,1990.076904400019,1991.0769029000076,1,None,None,"[0, 0, 0]",,,1989.0935477999737,None,,,,,,,,,,,,,,,,,,,,,,,,,,"[0, 0, 0]",,,,,,,1,M,21,r,CIB,2021_Aug_20_1402,distractmap,2020.2.10,59.993400703609076,"['Abdomen', 'Left Arm', 'Chest', 'Right Arm', 'Right Face', 'Right Arm', 'Left Leg', 'Right Leg', 'Left Face', 'Chest', 'Left Arm', 'Right Leg', 'Left Leg', 'Abdomen', 'Right Face', 'Left Face']",
1,"[-0.2, 0.2]",0,0,2,2,2,,,,,,,1991.093481900054,1991.093481900054,1991.093481900054,1992.0935450000688,1992.0769038000144,1993.0769241000526,1,None,None,"[0, 0, 0]",,,1991.093481900054,1991.093481900054,,,,,,,,,,,,,,,,,,,,,,,,,,"[0, 0, 0]",,,,,,,1,M,21,r,CIB,2021_Aug_20_1402,distractmap,2020.2.10,59.993400703609076,"['Abdomen', 'Left Arm', 'Chest', 'Right Arm', 'Right Face', 'Right Arm', 'Left Leg', 'Right Leg', 'Left Face', 'Chest', 'Left Arm', 'Right Leg', 'Left Leg', 'Abdomen', 'Right Face', 'Left Face']",
8,"[0, -0.2]",0,0,3,3,3,,,,,,,1993.0935798999853,1993.0935798999853,1993.0935798999853,1994.0935853000265,1994.0769181000069,1995.0769350000191,1,None,None,"[0, 0, 0]",,,1993.0935798999853,1993.0935798999853,,,,,,,,,,,,,,,,,,,,,,,,,,"[0, 0, 0]",,,,,,,1,M,21,r,CIB,2021_Aug_20_1402,distractmap,2020.2.10,59.993400703609076,"['Abdomen', 'Left Arm', 'Chest', 'Right Arm', 'Right Face', 'Right Arm', 'Left Leg', 'Right Leg', 'Left Face', 'Chest', 'Left Arm', 'Right Leg', 'Left Leg', 'Abdomen', 'Right Face', 'Left Face']",
1,"[-0.2, 0.2]",0,0,4,4,4,,,,,,,1995.1439543999732,1995.1439543999732,1995.1439543999732,1996.1436184999766,1996.1269445000216,None,1,None,None,"[0, 0, 0]",,,1995.1439543999732,1995.1439543999732,,,,,,,,,,,,,,,,,,,,,,,,,,"[0, 0, 0]",,,,,,,1,M,21,r,CIB,2021_Aug_20_1402,distractmap,2020.2.10,59.993400703609076,"['Abdomen', 'Left Arm', 'Chest', 'Right Arm', 'Right Face', 'Right Arm', 'Left Leg', 'Right Leg', 'Left Face', 'Chest', 'Left Arm', 'Right Leg', 'Left Leg', 'Abdomen', 'Right Face', 'Left Face']",
4,"[-0.2, 0]",0,0,5,5,5,,,,,,,1997.1102841000538,None,1997.1102841000538,1998.1101748000365,1998.0936250999803,1999.0936274999985,1,None,None,"[0, 0, 0]",,,1997.1102841000538,None,,,,,,,,,,,,,,,,,,,,,,,,,,"[0, 0, 0]",,,,,,,1,M,21,r,CIB,2021_Aug_20_1402,distractmap,2020.2.10,59.993400703609076,"['Abdomen', 'Left Arm', 'Chest', 'Right Arm', 'Right Face', 'Right Arm', 'Left Leg', 'Right Leg', 'Left Face', 'Chest', 'Left Arm', 'Right Leg', 'Left Leg', 'Abdomen', 'Right Face', 'Left Face']",
5,"[0, 0]",0,0,6,6,6,,,,,,,1999.1102886999724,1999.1102886999724,1999.1102886999724,2000.1103184000822,2000.0936465000268,2001.0936455000192,1,None,None,"[0, 0, 0]",,,1999.1102886999724,1999.1102886999724,,,,,,,,,,,,,,,,,,,,,,,,,,"[0, 0, 0]",,,,,,,1,M,21,r,CIB,2021_Aug_20_1402,distractmap,2020.2.10,59.993400703609076,"['Abdomen', 'Left Arm', 'Chest', 'Right Arm', 'Right Face', 'Right Arm', 'Left Leg', 'Right Leg', 'Left Face', 'Chest', 'Left Arm', 'Right Leg', 'Left Leg', 'Abdomen', 'Right Face', 'Left Face']",
7,"[-0.2, -0.2]",0,0,7,7,7,,,,,,,2001.1103226999985,2001.1103226999985,2001.1103226999985,2002.1103189999703,2002.0936475000344,2003.0936658000574,1,None,None,"[0, 0, 0]",,,2001.1103226999985,2001.1103226999985,,,,,,,,,,,,,,,,,,,,,,,,,,"[0, 0, 0]",,,,,,,1,M,21,r,CIB,2021_Aug_20_1402,distractmap,2020.2.10,59.993400703609076,"['Abdomen', 'Left Arm', 'Chest', 'Right Arm', 'Right Face', 'Right Arm', 'Left Leg', 'Right Leg', 'Left Face', 'Chest', 'Left Arm', 'Right Leg', 'Left Leg', 'Abdomen', 'Right Face', 'Left Face']",
7,"[-0.2, -0.2]",1,0,8,8,8,,,,,,,2003.110333800083,2003.110333800083,2003.110333800083,2004.1103564000223,2004.0936567999888,2005.0936805000529,1,None,None,"[0, 0, 0]",,,2003.110333800083,2003.110333800083,,,,,,,,,,,,,,,,,,,,,,,,,,"[0, 0, 0]",,,,,,,1,M,21,r,CIB,2021_Aug_20_1402,distractmap,2020.2.10,59.993400703609076,"['Abdomen', 'Left Arm', 'Chest', 'Right Arm', 'Right Face', 'Right Arm', 'Left Leg', 'Right Leg', 'Left Face', 'Chest', 'Left Arm', 'Right Leg', 'Left Leg', 'Abdomen', 'Right Face', 'Left Face']",
7,"[-0.2, -0.2]",1,0,9,9,9,,,,,,,2005.110341600026,2005.110341600026,2005.110341600026,2006.110376000055,2006.0936906000134,2007.0936725999927,1,None,None,"[0, 0, 0]",,,2005.110341600026,2005.110341600026,,,,,,,,,,,,,,,,,,,,,,,,,,"[0, 0, 0]",,,,,,,1,M,21,r,CIB,2021_Aug_20_1402,distractmap,2020.2.10,59.993400703609076,"['Abdomen', 'Left Arm', 'Chest', 'Right Arm', 'Right Face', 'Right Arm', 'Left Leg', 'Right Leg', 'Left Face', 'Chest', 'Left Arm', 'Right Leg', 'Left Leg', 'Abdomen', 'Right Face', 'Left Face']",
,,,,,,,,,,,2007.1103810999775,None,,,,,,,,,,,,,,,,,,,,,,,,,,,,,,,,,,,,,,,,,17.77777777777778,852.1261479899986,,,,,1,M,21,r,CIB,2021_Aug_20_1402,distractmap,2020.2.10,59.993400703609076,"['Abdomen', 'Left Arm', 'Chest', 'Right Arm', 'Right Face', 'Right Arm', 'Left Leg', 'Right Leg', 'Left Face', 'Chest', 'Left Arm', 'Right Leg', 'Left Leg', 'Abdomen', 'Right Face', 'Left Face']",
8,"[0, -0.2]",None,0,0,0,0,,,,,2022.344120200025,None,2027.143858000054,None,2027.143858000054,2028.1438612000784,2028.1271800000686,2029.1272026000079,1,None,None,"[0, 0, 0]",,,2027.143858000054,None,,,,,,,,,,,,,,,,,,,,,,,,,,"[0, 0, 0]",,,0.014853009954094887,5.012109410017729,,,1,M,21,r,CIB,2021_Aug_20_1402,distractmap,2020.2.10,59.993400703609076,"['Abdomen', 'Left Arm', 'Chest', 'Right Arm', 'Right Face', 'Right Arm', 'Left Leg', 'Right Leg', 'Left Face', 'Chest', 'Left Arm', 'Right Leg', 'Left Leg', 'Abdomen', 'Right Face', 'Left Face']",
6,"[0.2, 0]",0,0,1,1,1,,,,,,,2029.1438540000236,None,2029.1438540000236,2030.14387540007,2030.1272057000315,2031.127198799979,1,None,None,"[0, 0, 0]",,,2029.1438540000236,None,,,,,,,,,,,,,,,,,,,,,,,,,,"[0, 0, 0]",,,,,,,1,M,21,r,CIB,2021_Aug_20_1402,distractmap,2020.2.10,59.993400703609076,"['Abdomen', 'Left Arm', 'Chest', 'Right Arm', 'Right Face', 'Right Arm', 'Left Leg', 'Right Leg', 'Left Face', 'Chest', 'Left Arm', 'Right Leg', 'Left Leg', 'Abdomen', 'Right Face', 'Left Face']",
6,"[0.2, 0]",1,0,2,2,2,,,,,,,2031.1438681000145,2031.1438681000145,2031.1438681000145,2032.1438688000198,2032.1272258000681,2033.1272125999676,1,None,None,"[0, 0, 0]",,,2031.1438681000145,2031.1438681000145,,,,,,,,,,,,,,,,,,,,,,,,,,"[0, 0, 0]",,,,,,,1,M,21,r,CIB,2021_Aug_20_1402,distractmap,2020.2.10,59.993400703609076,"['Abdomen', 'Left Arm', 'Chest', 'Right Arm', 'Right Face', 'Right Arm', 'Left Leg', 'Right Leg', 'Left Face', 'Chest', 'Left Arm', 'Right Leg', 'Left Leg', 'Abdomen', 'Right Face', 'Left Face']",
2,"[0, 0.2]",0,0,3,3,3,,,,,,,2033.1438662,2033.1438662,2033.1438662,2034.143910099985,2034.1272220000392,2035.1272457999876,1,None,None,"[0, 0, 0]",,,2033.1438662,2033.1438662,,,,,,,,,,,,,,,,,,,,,,,,,,"[0, 0, 0]",,,,,,,1,M,21,r,CIB,2021_Aug_20_1402,distractmap,2020.2.10,59.993400703609076,"['Abdomen', 'Left Arm', 'Chest', 'Right Arm', 'Right Face', 'Right Arm', 'Left Leg', 'Right Leg', 'Left Face', 'Chest', 'Left Arm', 'Right Leg', 'Left Leg', 'Abdomen', 'Right Face', 'Left Face']",
1,"[-0.2, 0.2]",0,0,4,4,4,,,,,,,2035.177249600063,2035.177249600063,2035.177249600063,2036.1772367000813,2036.1605775000062,None,1,None,None,"[0, 0, 0]",,,2035.177249600063,2035.177249600063,,,,,,,,,,,,,,,,,,,,,,,,,,"[0, 0, 0]",,,,,,,1,M,21,r,CIB,2021_Aug_20_1402,distractmap,2020.2.10,59.993400703609076,"['Abdomen', 'Left Arm', 'Chest', 'Right Arm', 'Right Face', 'Right Arm', 'Left Leg', 'Right Leg', 'Left Face', 'Chest', 'Left Arm', 'Right Leg', 'Left Leg', 'Abdomen', 'Right Face', 'Left Face']",
6,"[0.2, 0]",0,0,5,5,5,,,,,,,2037.160580100026,None,2037.160580100026,2038.1605955000268,2038.143946300028,2039.1439575999975,1,None,None,"[0, 0, 0]",,,2037.160580100026,None,,,,,,,,,,,,,,,,,,,,,,,,,,"[0, 0, 0]",,,,,,,1,M,21,r,CIB,2021_Aug_20_1402,distractmap,2020.2.10,59.993400703609076,"['Abdomen', 'Left Arm', 'Chest', 'Right Arm', 'Right Face', 'Right Arm', 'Left Leg', 'Right Leg', 'Left Face', 'Chest', 'Left Arm', 'Right Leg', 'Left Leg', 'Abdomen', 'Right Face', 'Left Face']",
9,"[0.2, -0.2]",0,0,6,6,6,,,,,,,2039.1606082000071,2039.1606082000071,2039.1606082000071,2040.160614100052,2040.1439404999837,2041.1439341000514,1,None,None,"[0, 0, 0]",,,2039.1606082000071,2039.1606082000071,,,,,,,,,,,,,,,,,,,,,,,,,,"[0, 0, 0]",,,,,,,1,M,21,r,CIB,2021_Aug_20_1402,distractmap,2020.2.10,59.993400703609076,"['Abdomen', 'Left Arm', 'Chest', 'Right Arm', 'Right Face', 'Right Arm', 'Left Leg', 'Right Leg', 'Left Face', 'Chest', 'Left Arm', 'Right Leg', 'Left Leg', 'Abdomen', 'Right Face', 'Left Face']",
1,"[-0.2, 0.2]",0,0,7,7,7,,,,,,,2041.1606204999844,2041.1606204999844,2041.1606204999844,2042.1605044000316,2042.143961200025,2043.1439743000083,1,None,None,"[0, 0, 0]",,,2041.1606204999844,2041.1606204999844,,,,,,,,,,,,,,,,,,,,,,,,,,"[0, 0, 0]",,,,,,,1,M,21,r,CIB,2021_Aug_20_1402,distractmap,2020.2.10,59.993400703609076,"['Abdomen', 'Left Arm', 'Chest', 'Right Arm', 'Right Face', 'Right Arm', 'Left Leg', 'Right Leg', 'Left Face', 'Chest', 'Left Arm', 'Right Leg', 'Left Leg', 'Abdomen', 'Right Face', 'Left Face']",
6,"[0.2, 0]",0,0,8,8,8,,,,,,,2043.1606276000384,2043.1606276000384,2043.1606276000384,2044.1606476000743,2044.1439738000045,2045.1439835000783,1,None,None,"[0, 0, 0]",,,2043.1606276000384,2043.1606276000384,,,,,,,,,,,,,,,,,,,,,,,,,,"[0, 0, 0]",,,,,,,1,M,21,r,CIB,2021_Aug_20_1402,distractmap,2020.2.10,59.993400703609076,"['Abdomen', 'Left Arm', 'Chest', 'Right Arm', 'Right Face', 'Right Arm', 'Left Leg', 'Right Leg', 'Left Face', 'Chest', 'Left Arm', 'Right Leg', 'Left Leg', 'Abdomen', 'Right Face', 'Left Face']",
6,"[0.2, 0]",1,0,9,9,9,,,,,,,2045.1606233000057,2045.1606233000057,2045.1606233000057,2046.1606487000827,2046.1439930000342,2047.143984100083,1,None,None,"[0, 0, 0]",,,2045.1606233000057,2045.1606233000057,,,,,,,,,,,,,,,,,,,,,,,,,,"[0, 0, 0]",,,,,,,1,M,21,r,CIB,2021_Aug_20_1402,distractmap,2020.2.10,59.993400703609076,"['Abdomen', 'Left Arm', 'Chest', 'Right Arm', 'Right Face', 'Right Arm', 'Left Leg', 'Right Leg', 'Left Face', 'Chest', 'Left Arm', 'Right Leg', 'Left Leg', 'Abdomen', 'Right Face', 'Left Face']",
,,,,,,,,,,,2047.1606493999716,None,,,,,,,,,,,,,,,,,,,,,,,,,,,,,,,,,,,,,,,,,14.814814814814813,887.4928305898793,,,,,1,M,21,r,CIB,2021_Aug_20_1402,distractmap,2020.2.10,59.993400703609076,"['Abdomen', 'Left Arm', 'Chest', 'Right Arm', 'Right Face', 'Right Arm', 'Left Leg', 'Right Leg', 'Left Face', 'Chest', 'Left Arm', 'Right Leg', 'Left Leg', 'Abdomen', 'Right Face', 'Left Face']",
3,"[0.2, 0.2]",None,,,,,0,0,0,0,2067.4276325000683,None,,,,,,,,,,,,,,,,,,,,None,None,"[0, 0, 0]",2072.227527800016,None,2072.227527800016,2073.2275502000703,2073.2108470000094,2074.2108712000772,"[0, 0, 0]",1,2072.227527800016,None,,,,,,,,,,,0.015080410055816174,5.012777810101397,,,1,M,21,r,CIB,2021_Aug_20_1402,distractmap,2020.2.10,59.993400703609076,"['Abdomen', 'Left Arm', 'Chest', 'Right Arm', 'Right Face', 'Right Arm', 'Left Leg', 'Right Leg', 'Left Face', 'Chest', 'Left Arm', 'Right Leg', 'Left Leg', 'Abdomen', 'Right Face', 'Left Face']",
3,"[0.2, 0.2]",None,,,,,0,1,1,1,,,,,,,,,,,,,,,,,,,,,,None,None,"[0, 0, 1]",2074.2275379999774,2076.2275383999804,2074.2275379999774,2075.227527400013,2075.210868000053,2076.210870500072,"[0, 0, 1]",0,2074.2275379999774,2076.2275383999804,,,,,,,,,,,,,0.0,1.7670243999455124,1,M,21,r,CIB,2021_Aug_20_1402,distractmap,2020.2.10,59.993400703609076,"['Abdomen', 'Left Arm', 'Chest', 'Right Arm', 'Right Face', 'Right Arm', 'Left Leg', 'Right Leg', 'Left Face', 'Chest', 'Left Arm', 'Right Leg', 'Left Leg', 'Abdomen', 'Right Face', 'Left Face']",
5,"[0, 0]",0,,,,,0,2,2,2,,,,,,,,,,,,,,,,,,,,,,None,None,"[0, 0, 0]",2076.244209400029,2078.2442469000816,2076.244209400029,2077.244229400065,2077.227560600033,2078.22755229997,"[0, 0, 0]",1,2076.244209400029,2078.2442469000816,,,,,,,,,,,,,,,1,M,21,r,CIB,2021_Aug_20_1402,distractmap,2020.2.10,59.993400703609076,"['Abdomen', 'Left Arm', 'Chest', 'Right Arm', 'Right Face', 'Right Arm', 'Left Leg', 'Right Leg', 'Left Face', 'Chest', 'Left Arm', 'Right Leg', 'Left Leg', 'Abdomen', 'Right Face', 'Left Face']",
1,"[-0.2, 0.2]",0,,,,,0,3,3,3,,,,,,,,,,,,,,,,,,,,,,None,None,"[0, 0, 0]",2078.260902800015,2080.260899999994,2078.260902800015,2079.260903300019,2079.2442431000527,2080.2442572000436,"[0, 0, 0]",1,2078.260902800015,2080.260899999994,,,,,,,,,,,,,,,1,M,21,r,CIB,2021_Aug_20_1402,distractmap,2020.2.10,59.993400703609076,"['Abdomen', 'Left Arm', 'Chest', 'Right Arm', 'Right Face', 'Right Arm', 'Left Leg', 'Right Leg', 'Left Face', 'Chest', 'Left Arm', 'Right Leg', 'Left Leg', 'Abdomen', 'Right Face', 'Left Face']",
5,"[0, 0]",1,,,,,0,4,4,4,,,,,,,,,,,,,,,,,,,,,,None,None,"[0, 0, 0]",2080.327894199989,None,2080.327894199989,2081.3275969000533,2081.310908399988,None,"[0, 0, 0]",0,2080.327894199989,None,,,,,,,,,,,,,,,1,M,21,r,CIB,2021_Aug_20_1402,distractmap,2020.2.10,59.993400703609076,"['Abdomen', 'Left Arm', 'Chest', 'Right Arm', 'Right Face', 'Right Arm', 'Left Leg', 'Right Leg', 'Left Face', 'Chest', 'Left Arm', 'Right Leg', 'Left Leg', 'Abdomen', 'Right Face', 'Left Face']",
8,"[0, -0.2]",0,,,,,0,5,5,5,,,,,,,,,,,,,,,,,,,,,,None,None,"[0, 0, 0]",2082.2942678000545,2084.2942742999876,2082.2942678000545,2083.2942742999876,2083.2775949999923,2084.2776882000035,"[0, 0, 0]",1,2082.2942678000545,2084.2942742999876,,,,,,,,,,,,,,,1,M,21,r,CIB,2021_Aug_20_1402,distractmap,2020.2.10,59.993400703609076,"['Abdomen', 'Left Arm', 'Chest', 'Right Arm', 'Right Face', 'Right Arm', 'Left Leg', 'Right Leg', 'Left Face', 'Chest', 'Left Arm', 'Right Leg', 'Left Leg', 'Abdomen', 'Right Face', 'Left Face']",
5,"[0, 0]",1,,,,,0,6,6,6,,,,,,,,,,,,,,,,,,,,,,None,None,"[0, 0, 0]",2084.3109335000627,2086.3109712000005,2084.3109335000627,2085.310953999986,2085.2942888999823,2086.294297400047,"[0, 0, 0]",1,2084.3109335000627,2086.3109712000005,,,,,,,,,,,,,,,1,M,21,r,CIB,2021_Aug_20_1402,distractmap,2020.2.10,59.993400703609076,"['Abdomen', 'Left Arm', 'Chest', 'Right Arm', 'Right Face', 'Right Arm', 'Left Leg', 'Right Leg', 'Left Face', 'Chest', 'Left Arm', 'Right Leg', 'Left Leg', 'Abdomen', 'Right Face', 'Left Face']",
7,"[-0.2, -0.2]",0,,,,,0,7,7,7,,,,,,,,,,,,,,,,,,,,,,None,None,"[0, 0, 0]",2086.3276288000634,2088.3276387000224,2086.3276288000634,2087.327625100035,2087.3109557999996,2088.3109733000165,"[0, 0, 0]",1,2086.3276288000634,2088.3276387000224,,,,,,,,,,,,,,,1,M,21,r,CIB,2021_Aug_20_1402,distractmap,2020.2.10,59.993400703609076,"['Abdomen', 'Left Arm', 'Chest', 'Right Arm', 'Right Face', 'Right Arm', 'Left Leg', 'Right Leg', 'Left Face', 'Chest', 'Left Arm', 'Right Leg', 'Left Leg', 'Abdomen', 'Right Face', 'Left Face']",
5,"[0, 0]",1,,,,,0,8,8,8,,,,,,,,,,,,,,,,,,,,,,None,None,"[0, 0, 0]",2088.3442989999894,2090.3443157,2088.3442989999894,2089.3443926000036,2089.327635099995,2090.327667400008,"[0, 0, 0]",1,2088.3442989999894,2090.3443157,,,,,,,,,,,,,,,1,M,21,r,CIB,2021_Aug_20_1402,distractmap,2020.2.10,59.993400703609076,"['Abdomen', 'Left Arm', 'Chest', 'Right Arm', 'Right Face', 'Right Arm', 'Left Leg', 'Right Leg', 'Left Face', 'Chest', 'Left Arm', 'Right Leg', 'Left Leg', 'Abdomen', 'Right Face', 'Left Face']",
7,"[-0.2, -0.2]",1,,,,,0,9,9,9,,,,,,,,,,,,,,,,,,,,,,None,None,"[0, 0, 0]",2090.3609954999993,2092.360999800032,2090.3609954999993,2091.3610247999895,2091.344344799989,2092.344347200007,"[0, 0, 0]",1,2090.3609954999993,2092.360999800032,,,,,,,,,,,,,,,1,M,21,r,CIB,2021_Aug_20_1402,distractmap,2020.2.10,59.993400703609076,"['Abdomen', 'Left Arm', 'Chest', 'Right Arm', 'Right Face', 'Right Arm', 'Left Leg', 'Right Leg', 'Left Face', 'Chest', 'Left Arm', 'Right Leg', 'Left Leg', 'Abdomen', 'Right Face', 'Left Face']",
,,,,,,,,,,,2092.377658499987,None,,,,,,,,,,,,,,,,,,,,,,,,,,,,,,,,,,,,,,,,,14.629629629629628,934.6265724899713,,,,,1,M,21,r,CIB,2021_Aug_20_1402,distractmap,2020.2.10,59.993400703609076,"['Abdomen', 'Left Arm', 'Chest', 'Right Arm', 'Right Face', 'Right Arm', 'Left Leg', 'Right Leg', 'Left Face', 'Chest', 'Left Arm', 'Right Leg', 'Left Leg', 'Abdomen', 'Right Face', 'Left Face']",
6,"[0.2, 0]",None,,,,,0,0,0,0,2105.061436200049,None,,,,,,,,,,,,,,,,,,,,None,None,"[0, 0, 0]",2112.4111362000694,None,2112.4111362000694,2113.4111358000664,2113.394503400079,2114.394524400006,"[0, 0, 0]",1,2112.4111362000694,None,,,,,,,,,,,0.015064210048876703,5.012522510020062,,,1,M,21,r,CIB,2021_Aug_20_1402,distractmap,2020.2.10,59.993400703609076,"['Abdomen', 'Left Arm', 'Chest', 'Right Arm', 'Right Face', 'Right Arm', 'Left Leg', 'Right Leg', 'Left Face', 'Chest', 'Left Arm', 'Right Leg', 'Left Leg', 'Abdomen', 'Right Face', 'Left Face']",
1,"[-0.2, 0.2]",None,,,,,0,1,1,1,,,,,,,,,,,,,,,,,,,,,,None,None,"[0, 0, 0]",2114.411166700069,2116.411191900028,2114.411166700069,2115.4111852999777,2115.394509000005,2116.394492399995,"[0, 0, 0]",1,2114.411166700069,2116.411191900028,,,,,,,,,,,,,,,1,M,21,r,CIB,2021_Aug_20_1402,distractmap,2020.2.10,59.993400703609076,"['Abdomen', 'Left Arm', 'Chest', 'Right Arm', 'Right Face', 'Right Arm', 'Left Leg', 'Right Leg', 'Left Face', 'Chest', 'Left Arm', 'Right Leg', 'Left Leg', 'Abdomen', 'Right Face', 'Left Face']",
6,"[0.2, 0]",1,,,,,0,2,2,2,,,,,,,,,,,,,,,,,,,,,,None,None,"[0, 0, 0]",2116.427884100005,2118.4278693000088,2116.427884100005,2117.427876400063,2117.4111992000835,2118.4112104000524,"[0, 0, 0]",1,2116.427884100005,2118.4278693000088,,,,,,,,,,,,,,,1,M,21,r,CIB,2021_Aug_20_1402,distractmap,2020.2.10,59.993400703609076,"['Abdomen', 'Left Arm', 'Chest', 'Right Arm', 'Right Face', 'Right Arm', 'Left Leg', 'Right Leg', 'Left Face', 'Chest', 'Left Arm', 'Right Leg', 'Left Leg', 'Abdomen', 'Right Face', 'Left Face']",
4,"[-0.2, 0]",0,,,,,0,3,3,3,,,,,,,,,,,,,,,,,,,,,,None,None,"[0, 0, 0]",2118.444525100058,2120.444537400035,2118.444525100058,2119.4445481000002,2119.4278865000233,2120.427897699992,"[0, 0, 0]",1,2118.444525100058,2120.444537400035,,,,,,,,,,,,,,,1,M,21,r,CIB,2021_Aug_20_1402,distractmap,2020.2.10,59.993400703609076,"['Abdomen', 'Left Arm', 'Chest', 'Right Arm', 'Right Face', 'Right Arm', 'Left Leg', 'Right Leg', 'Left Face', 'Chest', 'Left Arm', 'Right Leg', 'Left Leg', 'Abdomen', 'Right Face', 'Left Face']",
1,"[-0.2, 0.2]",0,,,,,0,4,4,4,,,,,,,,,,,,,,,,,,,,,,None,None,"[0, 0, 0]",2120.5282142000506,None,2120.5282142000506,2121.5278858999955,2121.511229100055,None,"[0, 0, 0]",1,2120.5282142000506,None,,,,,,,,,,,,,,,1,M,21,r,CIB,2021_Aug_20_1402,distractmap,2020.2.10,59.993400703609076,"['Abdomen', 'Left Arm', 'Chest', 'Right Arm', 'Right Face', 'Right Arm', 'Left Leg', 'Right Leg', 'Left Face', 'Chest', 'Left Arm', 'Right Leg', 'Left Leg', 'Abdomen', 'Right Face', 'Left Face']",
8,"[0, -0.2]",0,,,,,0,5,5,5,,,,,,,,,,,,,,,,,,,,,,None,None,"[0, 0, 0]",2122.4779004000593,2124.4779220999917,2122.4779004000593,2123.4779054999817,2123.461239699973,2124.461247600033,"[0, 0, 0]",1,2122.4779004000593,2124.4779220999917,,,,,,,,,,,,,,,1,M,21,r,CIB,2021_Aug_20_1402,distractmap,2020.2.10,59.993400703609076,"['Abdomen', 'Left Arm', 'Chest', 'Right Arm', 'Right Face', 'Right Arm', 'Left Leg', 'Right Leg', 'Left Face', 'Chest', 'Left Arm', 'Right Leg', 'Left Leg', 'Abdomen', 'Right Face', 'Left Face']",
1,"[-0.2, 0.2]",1,,,,,0,6,6,6,,,,,,,,,,,,,,,,,,,,,,None,None,"[0, 0, 0]",2124.4945746000158,2126.4945831000805,2124.4945746000158,2125.494481200003,2125.477925400017,2126.4779293000465,"[0, 0, 0]",1,2124.4945746000158,2126.4945831000805,,,,,,,,,,,,,,,1,M,21,r,CIB,2021_Aug_20_1402,distractmap,2020.2.10,59.993400703609076,"['Abdomen', 'Left Arm', 'Chest', 'Right Arm', 'Right Face', 'Right Arm', 'Left Leg', 'Right Leg', 'Left Face', 'Chest', 'Left Arm', 'Right Leg', 'Left Leg', 'Abdomen', 'Right Face', 'Left Face']",
8,"[0, -0.2]",1,,,,,0,7,7,7,,,,,,,,,,,,,,,,,,,,,,None,None,"[0, 0, 0]",2126.51127300004,2128.5112870000303,2126.51127300004,2127.511264699977,2127.4945998999756,2128.494611400063,"[0, 0, 0]",1,2126.51127300004,2128.5112870000303,,,,,,,,,,,,,,,1,M,21,r,CIB,2021_Aug_20_1402,distractmap,2020.2.10,59.993400703609076,"['Abdomen', 'Left Arm', 'Chest', 'Right Arm', 'Right Face', 'Right Arm', 'Left Leg', 'Right Leg', 'Left Face', 'Chest', 'Left Arm', 'Right Leg', 'Left Leg', 'Abdomen', 'Right Face', 'Left Face']",
1,"[-0.2, 0.2]",1,,,,,0,8,8,8,,,,,,,,,,,,,,,,,,,,,,None,None,"[0, 0, 0]",2128.5279442999745,2130.5279727000743,2128.5279442999745,2129.527949500014,2129.5112967999885,2130.5112958999816,"[0, 0, 0]",1,2128.5279442999745,2130.5279727000743,,,,,,,,,,,,,,,1,M,21,r,CIB,2021_Aug_20_1402,distractmap,2020.2.10,59.993400703609076,"['Abdomen', 'Left Arm', 'Chest', 'Right Arm', 'Right Face', 'Right Arm', 'Left Leg', 'Right Leg', 'Left Face', 'Chest', 'Left Arm', 'Right Leg', 'Left Leg', 'Abdomen', 'Right Face', 'Left Face']",
6,"[0.2, 0]",0,,,,,0,9,9,9,,,,,,,,,,,,,,,,,,,,,,None,None,"[0, 0, 0]",2130.5446244999766,2132.544635600061,2130.5446244999766,2131.5446244999766,2131.5279826000333,2132.527971500065,"[0, 0, 0]",1,2130.5446244999766,2132.544635600061,,,,,,,,,,,,,,,1,M,21,r,CIB,2021_Aug_20_1402,distractmap,2020.2.10,59.993400703609076,"['Abdomen', 'Left Arm', 'Chest', 'Right Arm', 'Right Face', 'Right Arm', 'Left Leg', 'Right Leg', 'Left Face', 'Chest', 'Left Arm', 'Right Leg', 'Left Leg', 'Abdomen', 'Right Face', 'Left Face']",
,,,,,,,,,,,2132.561301800073,None,,,,,,,,,,,,,,,,,,,,,,,,,,,,,,,,,,,,,,,,,14.691358024691356,976.6271616899176,,,,,1,M,21,r,CIB,2021_Aug_20_1402,distractmap,2020.2.10,59.993400703609076,"['Abdomen', 'Left Arm', 'Chest', 'Right Arm', 'Right Face', 'Right Arm', 'Left Leg', 'Right Leg', 'Left Face', 'Chest', 'Left Arm', 'Right Leg', 'Left Leg', 'Abdomen', 'Right Face', 'Left Face']",
7,"[-0.2, -0.2]",None,,,,,0,0,0,0,2147.761785199982,None,,,,,,,,,,,,,,,,,,,,None,None,"[0, 0, 0]",2152.594799500075,None,2152.594799500075,2153.594812300056,2153.578048700001,2154.578218700015,"[0, 0, 0]",1,2152.594799500075,None,,,,,,,,,,,0.014775210060179234,5.011847810004838,,,1,M,21,r,CIB,2021_Aug_20_1402,distractmap,2020.2.10,59.993400703609076,"['Abdomen', 'Left Arm', 'Chest', 'Right Arm', 'Right Face', 'Right Arm', 'Left Leg', 'Right Leg', 'Left Face', 'Chest', 'Left Arm', 'Right Leg', 'Left Leg', 'Abdomen', 'Right Face', 'Left Face']",
7,"[-0.2, -0.2]",None,,,,,0,1,1,1,,,,,,,,,,,,,,,,,,,,,,None,None,"[0, 0, 0]",2154.594815300079,2156.594829000067,2154.594815300079,2155.5948204000015,2155.5781498000724,2156.578169299988,"[0, 0, 0]",1,2154.594815300079,2156.594829000067,,,,,,,,,,,,,,,1,M,21,r,CIB,2021_Aug_20_1402,distractmap,2020.2.10,59.993400703609076,"['Abdomen', 'Left Arm', 'Chest', 'Right Arm', 'Right Face', 'Right Arm', 'Left Leg', 'Right Leg', 'Left Face', 'Chest', 'Left Arm', 'Right Leg', 'Left Leg', 'Abdomen', 'Right Face', 'Left Face']",
7,"[-0.2, -0.2]",1,,,,,0,2,2,2,,,,,,,,,,,,,,,,,,,,,,None,None,"[0, 0, 0]",2156.6115168000106,2158.611521600047,2156.6115168000106,2157.6115020000143,2157.5948783999775,2158.594855500036,"[0, 0, 0]",1,2156.6115168000106,2158.611521600047,,,,,,,,,,,,,,,1,M,21,r,CIB,2021_Aug_20_1402,distractmap,2020.2.10,59.993400703609076,"['Abdomen', 'Left Arm', 'Chest', 'Right Arm', 'Right Face', 'Right Arm', 'Left Leg', 'Right Leg', 'Left Face', 'Chest', 'Left Arm', 'Right Leg', 'Left Leg', 'Abdomen', 'Right Face', 'Left Face']",
5,"[0, 0]",0,,,,,0,3,3,3,,,,,,,,,,,,,,,,,,,,,,None,None,"[0, 0, 0]",2158.6281756000826,2160.62819139997,2158.6281756000826,2159.6281910000835,2159.611511199968,2160.611526300083,"[0, 0, 0]",1,2158.6281756000826,2160.62819139997,,,,,,,,,,,,,,,1,M,21,r,CIB,2021_Aug_20_1402,distractmap,2020.2.10,59.993400703609076,"['Abdomen', 'Left Arm', 'Chest', 'Right Arm', 'Right Face', 'Right Arm', 'Left Leg', 'Right Leg', 'Left Face', 'Chest', 'Left Arm', 'Right Leg', 'Left Leg', 'Abdomen', 'Right Face', 'Left Face']",
1,"[-0.2, 0.2]",0,,,,,0,4,4,4,,,,,,,,,,,,,,,,,,,,,,None,None,"[0, 0, 0]",2160.6783615000313,None,2160.6783615000313,2161.6781981000677,2161.6615240999963,None,"[0, 0, 0]",1,2160.6783615000313,None,,,,,,,,,,,,,,,1,M,21,r,CIB,2021_Aug_20_1402,distractmap,2020.2.10,59.993400703609076,"['Abdomen', 'Left Arm', 'Chest', 'Right Arm', 'Right Face', 'Right Arm', 'Left Leg', 'Right Leg', 'Left Face', 'Chest', 'Left Arm', 'Right Leg', 'Left Leg', 'Abdomen', 'Right Face', 'Left Face']",
6,"[0.2, 0]",0,,,,,0,5,5,5,,,,,,,,,,,,,,,,,,,,,,None,None,"[0, 0, 0]",2162.6615431000246,2164.6615567000117,2162.6615431000246,2163.6616381000495,2163.6448714999715,2164.6448823000537,"[0, 0, 0]",1,2162.6615431000246,2164.6615567000117,,,,,,,,,,,,,,,1,M,21,r,CIB,2021_Aug_20_1402,distractmap,2020.2.10,59.993400703609076,"['Abdomen', 'Left Arm', 'Chest', 'Right Arm', 'Right Face', 'Right Arm', 'Left Leg', 'Right Leg', 'Left Face', 'Chest', 'Left Arm', 'Right Leg', 'Left Leg', 'Abdomen', 'Right Face', 'Left Face']",
1,"[-0.2, 0.2]",1,,,,,0,6,6,6,,,,,,,,,,,,,,,,,,,,,,None,None,"[0, 0, 0]",2164.678219900001,2166.6782473999774,2164.678219900001,2165.678223100025,2165.6615547999972,2166.661563800066,"[0, 0, 0]",1,2164.678219900001,2166.6782473999774,,,,,,,,,,,,,,,1,M,21,r,CIB,2021_Aug_20_1402,distractmap,2020.2.10,59.993400703609076,"['Abdomen', 'Left Arm', 'Chest', 'Right Arm', 'Right Face', 'Right Arm', 'Left Leg', 'Right Leg', 'Left Face', 'Chest', 'Left Arm', 'Right Leg', 'Left Leg', 'Abdomen', 'Right Face', 'Left Face']",
7,"[-0.2, -0.2]",0,,,,,0,7,7,7,,,,,,,,,,,,,,,,,,,,,,None,None,"[0, 0, 0]",2166.6948863000143,2168.6949266999727,2166.6948863000143,2167.6949256000808,2167.678256300045,2168.6782647999935,"[0, 0, 0]",1,2166.6948863000143,2168.6949266999727,,,,,,,,,,,,,,,1,M,21,r,CIB,2021_Aug_20_1402,distractmap,2020.2.10,59.993400703609076,"['Abdomen', 'Left Arm', 'Chest', 'Right Arm', 'Right Face', 'Right Arm', 'Left Leg', 'Right Leg', 'Left Face', 'Chest', 'Left Arm', 'Right Leg', 'Left Leg', 'Abdomen', 'Right Face', 'Left Face']",
6,"[0.2, 0]",0,,,,,0,8,8,8,,,,,,,,,,,,,,,,,,,,,,None,None,"[0, 0, 0]",2168.711577499984,2170.7116046000738,2168.711577499984,2169.7115869000554,2169.694923000061,2170.6949315000093,"[0, 0, 0]",0,2168.711577499984,2170.7116046000738,,,,,,,,,,,,,,,1,M,21,r,CIB,2021_Aug_20_1402,distractmap,2020.2.10,59.993400703609076,"['Abdomen', 'Left Arm', 'Chest', 'Right Arm', 'Right Face', 'Right Arm', 'Left Leg', 'Right Leg', 'Left Face', 'Chest', 'Left Arm', 'Right Leg', 'Left Leg', 'Abdomen', 'Right Face', 'Left Face']",
7,"[-0.2, -0.2]",1,,,,,0,9,9,9,,,,,,,,,,,,,,,,,,,,,,None,None,"[0, 0, 0]",2170.7282600000035,2172.7282837000675,2170.7282600000035,2171.7281666999916,2171.7115971000167,2172.7116460000398,"[0, 0, 0]",1,2170.7282600000035,2172.7282837000675,,,,,,,,,,,,,,,1,M,21,r,CIB,2021_Aug_20_1402,distractmap,2020.2.10,59.993400703609076,"['Abdomen', 'Left Arm', 'Chest', 'Right Arm', 'Right Face', 'Right Arm', 'Left Leg', 'Right Leg', 'Left Face', 'Chest', 'Left Arm', 'Right Leg', 'Left Leg', 'Abdomen', 'Right Face', 'Left Face']",
,,,,,,,,,,,2172.744958300027,None,,,,,,,,,,,,,,,,,,,,,,,,,,,,,,,,,,,,,,,,,13.82716049382716,1015.5779376898427,,,,,1,M,21,r,CIB,2021_Aug_20_1402,distractmap,2020.2.10,59.993400703609076,"['Abdomen', 'Left Arm', 'Chest', 'Right Arm', 'Right Face', 'Right Arm', 'Left Leg', 'Right Leg', 'Left Face', 'Chest', 'Left Arm', 'Right Leg', 'Left Leg', 'Abdomen', 'Right Face', 'Left Face']",
4,"[-0.2, 0]",None,,,,,0,0,0,0,2185.444965700037,None,,,,,,,,,,,,,,,,,,,,None,None,"[0, 0, 0]",2192.778463899973,None,2192.778463899973,2193.7784721000353,2193.7617471000412,2194.761777100037,"[0, 0, 0]",1,2192.778463899973,None,,,,,,,,,,,0.014277610112912953,5.011158410110511,,,1,M,21,r,CIB,2021_Aug_20_1402,distractmap,2020.2.10,59.993400703609076,"['Abdomen', 'Left Arm', 'Chest', 'Right Arm', 'Right Face', 'Right Arm', 'Left Leg', 'Right Leg', 'Left Face', 'Chest', 'Left Arm', 'Right Leg', 'Left Leg', 'Abdomen', 'Right Face', 'Left Face']",
5,"[0, 0]",None,,,,,0,1,1,1,,,,,,,,,,,,,,,,,,,,,,None,None,"[0, 0, 0]",2194.778480799985,2196.778494599974,2194.778480799985,2195.7784826999996,2195.7618498000083,2196.7618032000028,"[0, 0, 0]",1,2194.778480799985,2196.778494599974,,,,,,,,,,,,,,,1,M,21,r,CIB,2021_Aug_20_1402,distractmap,2020.2.10,59.993400703609076,"['Abdomen', 'Left Arm', 'Chest', 'Right Arm', 'Right Face', 'Right Arm', 'Left Leg', 'Right Leg', 'Left Face', 'Chest', 'Left Arm', 'Right Leg', 'Left Leg', 'Abdomen', 'Right Face', 'Left Face']",
6,"[0.2, 0]",0,,,,,0,2,2,2,,,,,,,,,,,,,,,,,,,,,,None,None,"[0, 0, 0]",2196.795135500026,2198.795134300017,2196.795135500026,2197.795156700071,2197.778474700055,2198.778496099985,"[0, 0, 0]",1,2196.795135500026,2198.795134300017,,,,,,,,,,,,,,,1,M,21,r,CIB,2021_Aug_20_1402,distractmap,2020.2.10,59.993400703609076,"['Abdomen', 'Left Arm', 'Chest', 'Right Arm', 'Right Face', 'Right Arm', 'Left Leg', 'Right Leg', 'Left Face', 'Chest', 'Left Arm', 'Right Leg', 'Left Leg', 'Abdomen', 'Right Face', 'Left Face']",
1,"[-0.2, 0.2]",0,,,,,0,3,3,3,,,,,,,,,,,,,,,,,,,,,,None,None,"[0, 0, 0]",2198.811812300002,2200.8118271999992,2198.811812300002,2199.8118293000152,2199.7951646000147,2200.7951734000817,"[0, 0, 0]",1,2198.811812300002,2200.8118271999992,,,,,,,,,,,,,,,1,M,21,r,CIB,2021_Aug_20_1402,distractmap,2020.2.10,59.993400703609076,"['Abdomen', 'Left Arm', 'Chest', 'Right Arm', 'Right Face', 'Right Arm', 'Left Leg', 'Right Leg', 'Left Face', 'Chest', 'Left Arm', 'Right Leg', 'Left Leg', 'Abdomen', 'Right Face', 'Left Face']",
6,"[0.2, 0]",1,,,,,0,4,4,4,,,,,,,,,,,,,,,,,,,,,,None,None,"[0, 0, 0]",2200.912205800065,None,2200.912205800065,2201.911842099973,2201.895176100079,None,"[0, 0, 0]",1,2200.912205800065,None,,,,,,,,,,,,,,,1,M,21,r,CIB,2021_Aug_20_1402,distractmap,2020.2.10,59.993400703609076,"['Abdomen', 'Left Arm', 'Chest', 'Right Arm', 'Right Face', 'Right Arm', 'Left Leg', 'Right Leg', 'Left Face', 'Chest', 'Left Arm', 'Right Leg', 'Left Leg', 'Abdomen', 'Right Face', 'Left Face']",
1,"[-0.2, 0.2]",1,,,,,0,5,5,5,,,,,,,,,,,,,,,,,,,,,,None,None,"[0, 0, 0]",2202.845161300036,2204.845204900019,2202.845161300036,2203.845190300024,2203.8284242000664,2204.8285244000144,"[0, 0, 0]",0,2202.845161300036,2204.845204900019,,,,,,,,,,,,,,,1,M,21,r,CIB,2021_Aug_20_1402,distractmap,2020.2.10,59.993400703609076,"['Abdomen', 'Left Arm', 'Chest', 'Right Arm', 'Right Face', 'Right Arm', 'Left Leg', 'Right Leg', 'Left Face', 'Chest', 'Left Arm', 'Right Leg', 'Left Leg', 'Abdomen', 'Right Face', 'Left Face']",
2,"[0, 0.2]",0,,,,,0,6,6,6,,,,,,,,,,,,,,,,,,,,,,None,None,"[0, 0, 0]",2204.8618597000604,2206.8618720000377,2204.8618597000604,2205.8618815999944,2205.845201499993,2206.8452015999937,"[0, 0, 0]",1,2204.8618597000604,2206.8618720000377,,,,,,,,,,,,,,,1,M,21,r,CIB,2021_Aug_20_1402,distractmap,2020.2.10,59.993400703609076,"['Abdomen', 'Left Arm', 'Chest', 'Right Arm', 'Right Face', 'Right Arm', 'Left Leg', 'Right Leg', 'Left Face', 'Chest', 'Left Arm', 'Right Leg', 'Left Leg', 'Abdomen', 'Right Face', 'Left Face']",
3,"[0.2, 0.2]",0,,,,,0,7,7,7,,,,,,,,,,,,,,,,,,,,,,None,None,"[0, 0, 0]",2206.8785293999827,2208.878563700011,2206.8785293999827,2207.878540600068,2207.861895899987,2208.861896599992,"[0, 0, 0]",1,2206.8785293999827,2208.878563700011,,,,,,,,,,,,,,,1,M,21,r,CIB,2021_Aug_20_1402,distractmap,2020.2.10,59.993400703609076,"['Abdomen', 'Left Arm', 'Chest', 'Right Arm', 'Right Face', 'Right Arm', 'Left Leg', 'Right Leg', 'Left Face', 'Chest', 'Left Arm', 'Right Leg', 'Left Leg', 'Abdomen', 'Right Face', 'Left Face']",
6,"[0.2, 0]",0,,,,,0,8,8,8,,,,,,,,,,,,,,,,,,,,,,None,None,"[0, 0, 0]",2208.8952363000717,2210.895230700029,2208.8952363000717,2209.8952210000716,2209.8785821000347,2210.87858150003,"[0, 0, 0]",1,2208.8952363000717,2210.895230700029,,,,,,,,,,,,,,,1,M,21,r,CIB,2021_Aug_20_1402,distractmap,2020.2.10,59.993400703609076,"['Abdomen', 'Left Arm', 'Chest', 'Right Arm', 'Right Face', 'Right Arm', 'Left Leg', 'Right Leg', 'Left Face', 'Chest', 'Left Arm', 'Right Leg', 'Left Leg', 'Abdomen', 'Right Face', 'Left Face']",
3,"[0.2, 0.2]",1,,,,,0,9,9,9,,,,,,,,,,,,,,,,,,,,,,None,None,"[0, 0, 0]",2210.9119071000023,2212.9119321000762,2210.9119071000023,2211.91191470006,2211.89526270004,2212.8952595000155,"[0, 0, 0]",1,2210.9119071000023,2212.9119321000762,,,,,,,,,,,,,,,1,M,21,r,CIB,2021_Aug_20_1402,distractmap,2020.2.10,59.993400703609076,"['Abdomen', 'Left Arm', 'Chest', 'Right Arm', 'Right Face', 'Right Arm', 'Left Leg', 'Right Leg', 'Left Face', 'Chest', 'Left Arm', 'Right Leg', 'Left Leg', 'Abdomen', 'Right Face', 'Left Face']",
,,,,,,,,,,,2212.9285829999717,None,,,,,,,,,,,,,,,,,,,,,,,,,,,,,,,,,,,,,,,,,12.839506172839501,1058.2610051899683,,,,,1,M,21,r,CIB,2021_Aug_20_1402,distractmap,2020.2.10,59.993400703609076,"['Abdomen', 'Left Arm', 'Chest', 'Right Arm', 'Right Face', 'Right Arm', 'Left Leg', 'Right Leg', 'Left Face', 'Chest', 'Left Arm', 'Right Leg', 'Left Leg', 'Abdomen', 'Right Face', 'Left Face']",
2,"[0, 0.2]",None,,,,,0,0,0,0,2228.8454428999685,None,,,,,,,,,,,,,,,,,,,,None,None,"[0, 0, 0]",2232.961956800078,None,2232.961956800078,2233.962094900082,2233.945434299996,2234.945443900069,"[0, 0, 0]",1,2232.961956800078,None,,,,,,,,,,,0.014877510024234653,5.012363509973511,,,1,M,21,r,CIB,2021_Aug_20_1402,distractmap,2020.2.10,59.993400703609076,"['Abdomen', 'Left Arm', 'Chest', 'Right Arm', 'Right Face', 'Right Arm', 'Left Leg', 'Right Leg', 'Left Face', 'Chest', 'Left Arm', 'Right Leg', 'Left Leg', 'Abdomen', 'Right Face', 'Left Face']",
5,"[0, 0]",None,,,,,0,1,1,1,,,,,,,,,,,,,,,,,,,,,,None,None,"[0, 0, 0]",2234.9621008000104,2236.962108500069,2234.9621008000104,2235.9620883000316,2235.945432299981,2236.9454792999895,"[0, 0, 0]",1,2234.9621008000104,2236.962108500069,,,,,,,,,,,,,,,1,M,21,r,CIB,2021_Aug_20_1402,distractmap,2020.2.10,59.993400703609076,"['Abdomen', 'Left Arm', 'Chest', 'Right Arm', 'Right Face', 'Right Arm', 'Left Leg', 'Right Leg', 'Left Face', 'Chest', 'Left Arm', 'Right Leg', 'Left Leg', 'Abdomen', 'Right Face', 'Left Face']",
6,"[0.2, 0]",0,,,,,0,2,2,2,,,,,,,,,,,,,,,,,,,,,,None,None,"[0, 0, 0]",2236.9786881000036,2238.9788062999723,2236.9786881000036,2237.978748399997,2237.962124600075,2238.962148300023,"[0, 0, 0]",1,2236.9786881000036,2238.9788062999723,,,,,,,,,,,,,,,1,M,21,r,CIB,2021_Aug_20_1402,distractmap,2020.2.10,59.993400703609076,"['Abdomen', 'Left Arm', 'Chest', 'Right Arm', 'Right Face', 'Right Arm', 'Left Leg', 'Right Leg', 'Left Face', 'Chest', 'Left Arm', 'Right Leg', 'Left Leg', 'Abdomen', 'Right Face', 'Left Face']",
1,"[-0.2, 0.2]",0,,,,,0,3,3,3,,,,,,,,,,,,,,,,,,,,,,None,None,"[0, 0, 0]",2238.9954604000086,2240.995511300047,2238.9954604000086,2239.9954701000825,2239.97869290004,2240.978795800009,"[0, 0, 0]",1,2238.9954604000086,2240.995511300047,,,,,,,,,,,,,,,1,M,21,r,CIB,2021_Aug_20_1402,distractmap,2020.2.10,59.993400703609076,"['Abdomen', 'Left Arm', 'Chest', 'Right Arm', 'Right Face', 'Right Arm', 'Left Leg', 'Right Leg', 'Left Face', 'Chest', 'Left Arm', 'Right Leg', 'Left Leg', 'Abdomen', 'Right Face', 'Left Face']",
6,"[0.2, 0]",1,,,,,0,4,4,4,,,,,,,,,,,,,,,,,,,,,,None,None,"[0, 0, 0]",2241.079142200062,None,2241.079142200062,2242.0788306000177,2242.0621478999965,None,"[0, 0, 0]",1,2241.079142200062,None,,,,,,,,,,,,,,,1,M,21,r,CIB,2021_Aug_20_1402,distractmap,2020.2.10,59.993400703609076,"['Abdomen', 'Left Arm', 'Chest', 'Right Arm', 'Right Face', 'Right Arm', 'Left Leg', 'Right Leg', 'Left Face', 'Chest', 'Left Arm', 'Right Leg', 'Left Leg', 'Abdomen', 'Right Face', 'Left Face']",
6,"[0.2, 0]",0,,,,,0,5,5,5,,,,,,,,,,,,,,,,,,,,,,None,None,"[0, 0, 0]",2243.0288303999696,2245.0288393000374,2243.0288303999696,2244.0289100999944,2244.012161200051,2245.012172500021,"[0, 0, 0]",1,2243.0288303999696,2245.0288393000374,,,,,,,,,,,,,,,1,M,21,r,CIB,2021_Aug_20_1402,distractmap,2020.2.10,59.993400703609076,"['Abdomen', 'Left Arm', 'Chest', 'Right Arm', 'Right Face', 'Right Arm', 'Left Leg', 'Right Leg', 'Left Face', 'Chest', 'Left Arm', 'Right Leg', 'Left Leg', 'Abdomen', 'Right Face', 'Left Face']",
9,"[0.2, -0.2]",0,,,,,0,6,6,6,,,,,,,,,,,,,,,,,,,,,,None,None,"[0, 0, 0]",2245.0453977000434,2247.045550000039,2245.0453977000434,2246.0455055000493,2246.028869300033,2247.0287675000727,"[0, 0, 0]",1,2245.0453977000434,2247.045550000039,,,,,,,,,,,,,,,1,M,21,r,CIB,2021_Aug_20_1402,distractmap,2020.2.10,59.993400703609076,"['Abdomen', 'Left Arm', 'Chest', 'Right Arm', 'Right Face', 'Right Arm', 'Left Leg', 'Right Leg', 'Left Face', 'Chest', 'Left Arm', 'Right Leg', 'Left Leg', 'Abdomen', 'Right Face', 'Left Face']",
6,"[0.2, 0]",1,,,,,0,7,7,7,,,,,,,,,,,,,,,,,,,,,,None,None,"[0, 0, 0]",2247.062197000021,2249.062210300006,2247.062197000021,2248.062200000044,2248.04503030004,2249.045524700079,"[0, 0, 0]",1,2247.062197000021,2249.062210300006,,,,,,,,,,,,,,,1,M,21,r,CIB,2021_Aug_20_1402,distractmap,2020.2.10,59.993400703609076,"['Abdomen', 'Left Arm', 'Chest', 'Right Arm', 'Right Face', 'Right Arm', 'Left Leg', 'Right Leg', 'Left Face', 'Chest', 'Left Arm', 'Right Leg', 'Left Leg', 'Abdomen', 'Right Face', 'Left Face']",
3,"[0.2, 0.2]",0,,,,,0,8,8,8,,,,,,,,,,,,,,,,,,,,,,None,None,"[0, 0, 0]",2249.0788609000156,2251.0789163999725,2249.0788609000156,2250.0788704999723,2250.0621211000253,2251.062219900079,"[0, 0, 0]",1,2249.0788609000156,2251.0789163999725,,,,,,,,,,,,,,,1,M,21,r,CIB,2021_Aug_20_1402,distractmap,2020.2.10,59.993400703609076,"['Abdomen', 'Left Arm', 'Chest', 'Right Arm', 'Right Face', 'Right Arm', 'Left Leg', 'Right Leg', 'Left Face', 'Chest', 'Left Arm', 'Right Leg', 'Left Leg', 'Abdomen', 'Right Face', 'Left Face']",
9,"[0.2, -0.2]",0,,,,,0,9,9,9,,,,,,,,,,,,,,,,,,,,,,None,None,"[0, 0, 0]",2251.095549999969,2253.095569199999,2251.095549999969,2252.095566999982,2252.0788872999838,2253.0788950000424,"[0, 0, 0]",0,2251.095549999969,2253.095569199999,,,,,,,,,,,,,,,1,M,21,r,CIB,2021_Aug_20_1402,distractmap,2020.2.10,59.993400703609076,"['Abdomen', 'Left Arm', 'Chest', 'Right Arm', 'Right Face', 'Right Arm', 'Left Leg', 'Right Leg', 'Left Face', 'Chest', 'Left Arm', 'Right Leg', 'Left Leg', 'Abdomen', 'Right Face', 'Left Face']",
,,,,,,,,,,,2253.112225500052,None,,,,,,,,,,,,,,,,,,,,,,,,,,,,,,,,,,,,,,,,,12.592592592592592,1098.44501958997,,,,,1,M,21,r,CIB,2021_Aug_20_1402,distractmap,2020.2.10,59.993400703609076,"['Abdomen', 'Left Arm', 'Chest', 'Right Arm', 'Right Face', 'Right Arm', 'Left Leg', 'Right Leg', 'Left Face', 'Chest', 'Left Arm', 'Right Leg', 'Left Leg', 'Abdomen', 'Right Face', 'Left Face']",
3,"[0.2, 0.2]",None,,,,,0,0,0,0,2268.9127007999923,None,,,,,,,,,,,,,,,,,,,,None,None,"[0, 0, 0]",2273.145710300072,None,2273.145710300072,2274.145736900042,2274.129063899978,2275.129079299979,"[0, 0, 0]",1,2273.145710300072,None,,,,,,,,,,,0.014513810048811138,5.011645710095763,,,1,M,21,r,CIB,2021_Aug_20_1402,distractmap,2020.2.10,59.993400703609076,"['Abdomen', 'Left Arm', 'Chest', 'Right Arm', 'Right Face', 'Right Arm', 'Left Leg', 'Right Leg', 'Left Face', 'Chest', 'Left Arm', 'Right Leg', 'Left Leg', 'Abdomen', 'Right Face', 'Left Face']",
9,"[0.2, -0.2]",None,,,,,0,1,1,1,,,,,,,,,,,,,,,,,,,,,,None,None,"[0, 0, 0]",2275.1457341000205,2277.1457508000312,2275.1457341000205,2276.145748400013,2276.1290776000824,2277.1290743000573,"[0, 0, 0]",1,2275.1457341000205,2277.1457508000312,,,,,,,,,,,,,,,1,M,21,r,CIB,2021_Aug_20_1402,distractmap,2020.2.10,59.993400703609076,"['Abdomen', 'Left Arm', 'Chest', 'Right Arm', 'Right Face', 'Right Arm', 'Left Leg', 'Right Leg', 'Left Face', 'Chest', 'Left Arm', 'Right Leg', 'Left Leg', 'Abdomen', 'Right Face', 'Left Face']",
3,"[0.2, 0.2]",1,,,,,0,2,2,2,,,,,,,,,,,,,,,,,,,,,,None,None,"[0, 0, 0]",2277.162415800034,2279.1624395999825,2277.162415800034,2278.16243710008,2278.145757899969,2279.1457777000032,"[0, 0, 0]",1,2277.162415800034,2279.1624395999825,,,,,,,,,,,,,,,1,M,21,r,CIB,2021_Aug_20_1402,distractmap,2020.2.10,59.993400703609076,"['Abdomen', 'Left Arm', 'Chest', 'Right Arm', 'Right Face', 'Right Arm', 'Left Leg', 'Right Leg', 'Left Face', 'Chest', 'Left Arm', 'Right Leg', 'Left Leg', 'Abdomen', 'Right Face', 'Left Face']",
7,"[-0.2, -0.2]",0,,,,,0,3,3,3,,,,,,,,,,,,,,,,,,,,,,None,None,"[0, 0, 0]",2279.1791158000706,2281.179103799979,2279.1791158000706,2280.1791117000394,2280.162448100047,2281.162478100043,"[0, 0, 0]",1,2279.1791158000706,2281.179103799979,,,,,,,,,,,,,,,1,M,21,r,CIB,2021_Aug_20_1402,distractmap,2020.2.10,59.993400703609076,"['Abdomen', 'Left Arm', 'Chest', 'Right Arm', 'Right Face', 'Right Arm', 'Left Leg', 'Right Leg', 'Left Face', 'Chest', 'Left Arm', 'Right Leg', 'Left Leg', 'Abdomen', 'Right Face', 'Left Face']",
8,"[0, -0.2]",0,,,,,0,4,4,4,,,,,,,,,,,,,,,,,,,,,,None,None,"[0, 0, 0]",2281.2616210000124,None,2281.2616210000124,2282.2624761000043,2282.2624761000043,None,"[0, 0, 0]",1,2281.2616210000124,None,,,,,,,,,,,,,,,1,M,21,r,CIB,2021_Aug_20_1402,distractmap,2020.2.10,59.993400703609076,"['Abdomen', 'Left Arm', 'Chest', 'Right Arm', 'Right Face', 'Right Arm', 'Left Leg', 'Right Leg', 'Left Face', 'Chest', 'Left Arm', 'Right Leg', 'Left Leg', 'Abdomen', 'Right Face', 'Left Face']",
4,"[-0.2, 0]",0,,,,,0,5,5,5,,,,,,,,,,,,,,,,,,,,,,None,None,"[0, 0, 0]",2283.2124777999707,2285.212496399996,2283.2124777999707,2284.2124718000414,2284.195802800008,2285.1958541000495,"[0, 0, 0]",1,2283.2124777999707,2285.212496399996,,,,,,,,,,,,,,,1,M,21,r,CIB,2021_Aug_20_1402,distractmap,2020.2.10,59.993400703609076,"['Abdomen', 'Left Arm', 'Chest', 'Right Arm', 'Right Face', 'Right Arm', 'Left Leg', 'Right Leg', 'Left Face', 'Chest', 'Left Arm', 'Right Leg', 'Left Leg', 'Abdomen', 'Right Face', 'Left Face']",
4,"[-0.2, 0]",0,,,,,0,6,6,6,,,,,,,,,,,,,,,,,,,,,,None,None,"[0, 0, 0]",2285.2291345000267,2287.2291698000627,2285.2291345000267,2286.2291619000025,2286.2125070000766,2287.2124926000834,"[0, 0, 0]",1,2285.2291345000267,2287.2291698000627,,,,,,,,,,,,,,,1,M,21,r,CIB,2021_Aug_20_1402,distractmap,2020.2.10,59.993400703609076,"['Abdomen', 'Left Arm', 'Chest', 'Right Arm', 'Right Face', 'Right Arm', 'Left Leg', 'Right Leg', 'Left Face', 'Chest', 'Left Arm', 'Right Leg', 'Left Leg', 'Abdomen', 'Right Face', 'Left Face']",
1,"[-0.2, 0.2]",0,,,,,0,7,7,7,,,,,,,,,,,,,,,,,,,,,,None,None,"[0, 0, 0]",2287.24583670008,2289.245846500038,2287.24583670008,2288.2458568,2288.2291681000497,2289.2291832000483,"[0, 0, 0]",1,2287.24583670008,2289.245846500038,,,,,,,,,,,,,,,1,M,21,r,CIB,2021_Aug_20_1402,distractmap,2020.2.10,59.993400703609076,"['Abdomen', 'Left Arm', 'Chest', 'Right Arm', 'Right Face', 'Right Arm', 'Left Leg', 'Right Leg', 'Left Face', 'Chest', 'Left Arm', 'Right Leg', 'Left Leg', 'Abdomen', 'Right Face', 'Left Face']",
4,"[-0.2, 0]",1,,,,,0,8,8,8,,,,,,,,,,,,,,,,,,,,,,None,None,"[0, 0, 0]",2289.2625167000806,2291.2625253000297,2289.2625167000806,2290.2625245000236,2290.245856099995,2291.2458618000383,"[0, 0, 0]",1,2289.2625167000806,2291.2625253000297,,,,,,,,,,,,,,,1,M,21,r,CIB,2021_Aug_20_1402,distractmap,2020.2.10,59.993400703609076,"['Abdomen', 'Left Arm', 'Chest', 'Right Arm', 'Right Face', 'Right Arm', 'Left Leg', 'Right Leg', 'Left Face', 'Chest', 'Left Arm', 'Right Leg', 'Left Leg', 'Abdomen', 'Right Face', 'Left Face']",
8,"[0, -0.2]",0,,,,,0,9,9,9,,,,,,,,,,,,,,,,,,,,,,None,None,"[0, 0, 0]",2291.279199899989,2293.2791975999717,2291.279199899989,2292.2791989999823,2292.262527600047,2293.2625493999803,"[0, 0, 0]",1,2291.279199899989,2293.2791975999717,,,,,,,,,,,,,,,1,M,21,r,CIB,2021_Aug_20_1402,distractmap,2020.2.10,59.993400703609076,"['Abdomen', 'Left Arm', 'Chest', 'Right Arm', 'Right Face', 'Right Arm', 'Left Leg', 'Right Leg', 'Left Face', 'Chest', 'Left Arm', 'Right Leg', 'Left Leg', 'Abdomen', 'Right Face', 'Left Face']",
,,,,,,,,,,,2293.2958660000004,None,,,,,,,,,,,,,,,,,,,,,,,,,,,,,,,,,,,,,,,,,15.185185185185182,1136.0447076899,,,,,1,M,21,r,CIB,2021_Aug_20_1402,distractmap,2020.2.10,59.993400703609076,"['Abdomen', 'Left Arm', 'Chest', 'Right Arm', 'Right Face', 'Right Arm', 'Left Leg', 'Right Leg', 'Left Face', 'Chest', 'Left Arm', 'Right Leg', 'Left Leg', 'Abdomen', 'Right Face', 'Left Face']",
2,"[0, 0.2]",None,,,,,0,0,0,0,2305.996048800065,None,,,,,,,,,,,,,,,,,,,,None,None,"[0, 0, 0]",2313.3293886000756,None,2313.3293886000756,2314.3292900000233,2314.3127020000247,2315.3127012000186,"[0, 0, 0]",1,2313.3293886000756,None,,,,,,,,,,,0.015095610055141151,5.012589909951203,,,1,M,21,r,CIB,2021_Aug_20_1402,distractmap,2020.2.10,59.993400703609076,"['Abdomen', 'Left Arm', 'Chest', 'Right Arm', 'Right Face', 'Right Arm', 'Left Leg', 'Right Leg', 'Left Face', 'Chest', 'Left Arm', 'Right Leg', 'Left Leg', 'Abdomen', 'Right Face', 'Left Face']",
5,"[0, 0]",None,,,,,0,1,1,1,,,,,,,,,,,,,,,,,,,,,,None,None,"[0, 0, 0]",2315.3293724000687,2317.3293976000277,2315.3293724000687,2316.329390399973,2316.3127323000226,2317.312721000053,"[0, 0, 0]",1,2315.3293724000687,2317.3293976000277,,,,,,,,,,,,,,,1,M,21,r,CIB,2021_Aug_20_1402,distractmap,2020.2.10,59.993400703609076,"['Abdomen', 'Left Arm', 'Chest', 'Right Arm', 'Right Face', 'Right Arm', 'Left Leg', 'Right Leg', 'Left Face', 'Chest', 'Left Arm', 'Right Leg', 'Left Leg', 'Abdomen', 'Right Face', 'Left Face']",
3,"[0.2, 0.2]",0,,,,,0,2,2,2,,,,,,,,,,,,,,,,,,,,,,None,None,"[0, 0, 0]",2317.346133299987,2319.3460787000367,2317.346133299987,2318.346054499969,2318.3289942999836,2319.329430300044,"[0, 0, 0]",1,2317.346133299987,2319.3460787000367,,,,,,,,,,,,,,,1,M,21,r,CIB,2021_Aug_20_1402,distractmap,2020.2.10,59.993400703609076,"['Abdomen', 'Left Arm', 'Chest', 'Right Arm', 'Right Face', 'Right Arm', 'Left Leg', 'Right Leg', 'Left Face', 'Chest', 'Left Arm', 'Right Leg', 'Left Leg', 'Abdomen', 'Right Face', 'Left Face']",
5,"[0, 0]",1,,,,,0,3,3,3,,,,,,,,,,,,,,,,,,,,,,None,None,"[0, 0, 0]",2319.362744700047,2321.3627562000183,2319.362744700047,2320.3627578000305,2320.34609440004,2321.3460783000337,"[0, 0, 0]",0,2319.362744700047,2321.3627562000183,,,,,,,,,,,,,,,1,M,21,r,CIB,2021_Aug_20_1402,distractmap,2020.2.10,59.993400703609076,"['Abdomen', 'Left Arm', 'Chest', 'Right Arm', 'Right Face', 'Right Arm', 'Left Leg', 'Right Leg', 'Left Face', 'Chest', 'Left Arm', 'Right Leg', 'Left Leg', 'Abdomen', 'Right Face', 'Left Face']",
2,"[0, 0.2]",0,,,,,0,4,4,4,,,,,,,,,,,,,,,,,,,,,,None,None,"[0, 0, 0]",2321.4291061999975,None,2321.4291061999975,2322.4294371000724,2322.412771900068,None,"[0, 0, 0]",1,2321.4291061999975,None,,,,,,,,,,,,,,,1,M,21,r,CIB,2021_Aug_20_1402,distractmap,2020.2.10,59.993400703609076,"['Abdomen', 'Left Arm', 'Chest', 'Right Arm', 'Right Face', 'Right Arm', 'Left Leg', 'Right Leg', 'Left Face', 'Chest', 'Left Arm', 'Right Leg', 'Left Leg', 'Abdomen', 'Right Face', 'Left Face']",
8,"[0, -0.2]",0,,,,,0,5,5,5,,,,,,,,,,,,,,,,,,,,,,None,None,"[0, 0, 0]",2323.396117700031,2325.3961115999846,2323.396117700031,2324.3961132999975,2324.3795087999897,2325.3794760999735,"[0, 0, 0]",1,2323.396117700031,2325.3961115999846,,,,,,,,,,,,,,,1,M,21,r,CIB,2021_Aug_20_1402,distractmap,2020.2.10,59.993400703609076,"['Abdomen', 'Left Arm', 'Chest', 'Right Arm', 'Right Face', 'Right Arm', 'Left Leg', 'Right Leg', 'Left Face', 'Chest', 'Left Arm', 'Right Leg', 'Left Leg', 'Abdomen', 'Right Face', 'Left Face']",
4,"[-0.2, 0]",0,,,,,0,6,6,6,,,,,,,,,,,,,,,,,,,,,,None,None,"[0, 0, 0]",2325.412795900018,2327.4127815000247,2325.412795900018,2326.412810400012,2326.3961354000494,2327.396134400042,"[0, 0, 0]",1,2325.412795900018,2327.4127815000247,,,,,,,,,,,,,,,1,M,21,r,CIB,2021_Aug_20_1402,distractmap,2020.2.10,59.993400703609076,"['Abdomen', 'Left Arm', 'Chest', 'Right Arm', 'Right Face', 'Right Arm', 'Left Leg', 'Right Leg', 'Left Face', 'Chest', 'Left Arm', 'Right Leg', 'Left Leg', 'Abdomen', 'Right Face', 'Left Face']",
8,"[0, -0.2]",1,,,,,0,7,7,7,,,,,,,,,,,,,,,,,,,,,,None,None,"[0, 0, 0]",2327.4294878999935,2329.429509000038,2327.4294878999935,2328.429477800033,2328.4128255000105,2329.4128255000105,"[0, 0, 0]",1,2327.4294878999935,2329.429509000038,,,,,,,,,,,,,,,1,M,21,r,CIB,2021_Aug_20_1402,distractmap,2020.2.10,59.993400703609076,"['Abdomen', 'Left Arm', 'Chest', 'Right Arm', 'Right Face', 'Right Arm', 'Left Leg', 'Right Leg', 'Left Face', 'Chest', 'Left Arm', 'Right Leg', 'Left Leg', 'Abdomen', 'Right Face', 'Left Face']",
7,"[-0.2, -0.2]",0,,,,,0,8,8,8,,,,,,,,,,,,,,,,,,,,,,None,None,"[0, 0, 0]",2329.446155900019,2331.446165399975,2329.446155900019,2330.446178400074,2330.4295088000363,2331.429528400069,"[0, 0, 0]",1,2329.446155900019,2331.446165399975,,,,,,,,,,,,,,,1,M,21,r,CIB,2021_Aug_20_1402,distractmap,2020.2.10,59.993400703609076,"['Abdomen', 'Left Arm', 'Chest', 'Right Arm', 'Right Face', 'Right Arm', 'Left Leg', 'Right Leg', 'Left Face', 'Chest', 'Left Arm', 'Right Leg', 'Left Leg', 'Abdomen', 'Right Face', 'Left Face']",
8,"[0, -0.2]",1,,,,,0,9,9,9,,,,,,,,,,,,,,,,,,,,,,None,None,"[0, 0, 0]",2331.4628325999947,2333.4628431000747,2331.4628325999947,2332.4628462999826,2332.446159700048,2333.446192500065,"[0, 0, 0]",1,2331.4628325999947,2333.4628431000747,,,,,,,,,,,,,,,1,M,21,r,CIB,2021_Aug_20_1402,distractmap,2020.2.10,59.993400703609076,"['Abdomen', 'Left Arm', 'Chest', 'Right Arm', 'Right Face', 'Right Arm', 'Left Leg', 'Right Leg', 'Left Face', 'Chest', 'Left Arm', 'Right Leg', 'Left Leg', 'Abdomen', 'Right Face', 'Left Face']",
,,,,,,,,,,,2333.479531400022,None,,,,,,,,,,,,,,,,,,,,,,,,,,,,,,,,,,,,,,,,,12.407407407407407,1178.8121259900508,,,,,1,M,21,r,CIB,2021_Aug_20_1402,distractmap,2020.2.10,59.993400703609076,"['Abdomen', 'Left Arm', 'Chest', 'Right Arm', 'Right Face', 'Right Arm', 'Left Leg', 'Right Leg', 'Left Face', 'Chest', 'Left Arm', 'Right Leg', 'Left Leg', 'Abdomen', 'Right Face', 'Left Face']",
2,"[0, 0.2]",None,,,,,0,0,0,0,2348.68005970004,None,,,,,,,,,,,,,,,,,,,,None,None,"[0, 0, 0]",2353.513010800001,None,2353.513010800001,2354.5130068999715,2354.4963546000654,2355.4963632000145,"[0, 0, 0]",1,2353.513010800001,None,,,,,,,,,,,0.014697509934194386,5.012004109914415,,,1,M,21,r,CIB,2021_Aug_20_1402,distractmap,2020.2.10,59.993400703609076,"['Abdomen', 'Left Arm', 'Chest', 'Right Arm', 'Right Face', 'Right Arm', 'Left Leg', 'Right Leg', 'Left Face', 'Chest', 'Left Arm', 'Right Leg', 'Left Leg', 'Abdomen', 'Right Face', 'Left Face']",
2,"[0, 0.2]",None,,,,,0,1,1,1,,,,,,,,,,,,,,,,,,,,,,None,None,"[0, 0, 0]",2355.513023199979,2357.513038199977,2355.513023199979,2356.5129091000417,2356.496383700054,2357.496382100042,"[0, 0, 0]",1,2355.513023199979,2357.513038199977,,,,,,,,,,,,,,,1,M,21,r,CIB,2021_Aug_20_1402,distractmap,2020.2.10,59.993400703609076,"['Abdomen', 'Left Arm', 'Chest', 'Right Arm', 'Right Face', 'Right Arm', 'Left Leg', 'Right Leg', 'Left Face', 'Chest', 'Left Arm', 'Right Leg', 'Left Leg', 'Abdomen', 'Right Face', 'Left Face']",
2,"[0, 0.2]",1,,,,,0,2,2,2,,,,,,,,,,,,,,,,,,,,,,None,None,"[0, 0, 0]",2357.5296867999714,2359.529610299971,2357.5296867999714,2358.5297326999716,2358.513053499977,2359.5130544999847,"[0, 0, 0]",1,2357.5296867999714,2359.529610299971,,,,,,,,,,,,,,,1,M,21,r,CIB,2021_Aug_20_1402,distractmap,2020.2.10,59.993400703609076,"['Abdomen', 'Left Arm', 'Chest', 'Right Arm', 'Right Face', 'Right Arm', 'Left Leg', 'Right Leg', 'Left Face', 'Chest', 'Left Arm', 'Right Leg', 'Left Leg', 'Abdomen', 'Right Face', 'Left Face']",
8,"[0, -0.2]",0,,,,,0,3,3,3,,,,,,,,,,,,,,,,,,,,,,None,None,"[0, 0, 0]",2359.546422800049,2361.5464138999814,2359.546422800049,2360.5464091000613,2360.5297612000722,2361.5297356999945,"[0, 0, 0]",1,2359.546422800049,2361.5464138999814,,,,,,,,,,,,,,,1,M,21,r,CIB,2021_Aug_20_1402,distractmap,2020.2.10,59.993400703609076,"['Abdomen', 'Left Arm', 'Chest', 'Right Arm', 'Right Face', 'Right Arm', 'Left Leg', 'Right Leg', 'Left Face', 'Chest', 'Left Arm', 'Right Leg', 'Left Leg', 'Abdomen', 'Right Face', 'Left Face']",
2,"[0, 0.2]",1,,,,,0,4,4,4,,,,,,,,,,,,,,,,,,,,,,None,None,"[0, 0, 0]",2361.6131587000564,None,2361.6131587000564,2362.6130747999996,2362.5964191000676,None,"[0, 0, 0]",1,2361.6131587000564,None,,,,,,,,,,,,,,,1,M,21,r,CIB,2021_Aug_20_1402,distractmap,2020.2.10,59.993400703609076,"['Abdomen', 'Left Arm', 'Chest', 'Right Arm', 'Right Face', 'Right Arm', 'Left Leg', 'Right Leg', 'Left Face', 'Chest', 'Left Arm', 'Right Leg', 'Left Leg', 'Abdomen', 'Right Face', 'Left Face']",
5,"[0, 0]",0,,,,,0,5,5,5,,,,,,,,,,,,,,,,,,,,,,None,None,"[0, 0, 0]",2363.579762700014,2365.579757499974,2363.579762700014,2364.5797559000785,2364.5630953999935,2365.5631067000795,"[0, 0, 0]",1,2363.579762700014,2365.579757499974,,,,,,,,,,,,,,,1,M,21,r,CIB,2021_Aug_20_1402,distractmap,2020.2.10,59.993400703609076,"['Abdomen', 'Left Arm', 'Chest', 'Right Arm', 'Right Face', 'Right Arm', 'Left Leg', 'Right Leg', 'Left Face', 'Chest', 'Left Arm', 'Right Leg', 'Left Leg', 'Abdomen', 'Right Face', 'Left Face']",
1,"[-0.2, 0.2]",0,,,,,0,6,6,6,,,,,,,,,,,,,,,,,,,,,,None,None,"[0, 0, 0]",2365.596323600039,2367.5964724000078,2365.596323600039,2366.5964404999977,2366.5797910999972,2367.5797794000246,"[0, 0, 0]",1,2365.596323600039,2367.5964724000078,,,,,,,,,,,,,,,1,M,21,r,CIB,2021_Aug_20_1402,distractmap,2020.2.10,59.993400703609076,"['Abdomen', 'Left Arm', 'Chest', 'Right Arm', 'Right Face', 'Right Arm', 'Left Leg', 'Right Leg', 'Left Face', 'Chest', 'Left Arm', 'Right Leg', 'Left Leg', 'Abdomen', 'Right Face', 'Left Face']",
1,"[-0.2, 0.2]",0,,,,,0,7,7,7,,,,,,,,,,,,,,,,,,,,,,None,None,"[0, 0, 0]",2367.6131276000524,2369.613139300025,2367.6131276000524,2368.6131159000797,2368.5963432000717,2369.596479400061,"[0, 0, 0]",1,2367.6131276000524,2369.613139300025,,,,,,,,,,,,,,,1,M,21,r,CIB,2021_Aug_20_1402,distractmap,2020.2.10,59.993400703609076,"['Abdomen', 'Left Arm', 'Chest', 'Right Arm', 'Right Face', 'Right Arm', 'Left Leg', 'Right Leg', 'Left Face', 'Chest', 'Left Arm', 'Right Leg', 'Left Leg', 'Abdomen', 'Right Face', 'Left Face']",
6,"[0.2, 0]",0,,,,,0,8,8,8,,,,,,,,,,,,,,,,,,,,,,None,None,"[0, 0, 0]",2369.629800900002,2371.6292946999893,2369.629800900002,2370.62981199997,2370.613149299985,2371.6131510999985,"[0, 0, 0]",1,2369.629800900002,2371.6292946999893,,,,,,,,,,,,,,,1,M,21,r,CIB,2021_Aug_20_1402,distractmap,2020.2.10,59.993400703609076,"['Abdomen', 'Left Arm', 'Chest', 'Right Arm', 'Right Face', 'Right Arm', 'Left Leg', 'Right Leg', 'Left Face', 'Chest', 'Left Arm', 'Right Leg', 'Left Leg', 'Abdomen', 'Right Face', 'Left Face']",
1,"[-0.2, 0.2]",1,,,,,0,9,9,9,,,,,,,,,,,,,,,,,,,,,,None,None,"[0, 0, 0]",2371.6464983000187,2373.6465311000356,2371.6464983000187,2372.6464907000773,2372.6297345000785,2373.629836600041,"[0, 0, 0]",1,2371.6464983000187,2373.6465311000356,,,,,,,,,,,,,,,1,M,21,r,CIB,2021_Aug_20_1402,distractmap,2020.2.10,59.993400703609076,"['Abdomen', 'Left Arm', 'Chest', 'Right Arm', 'Right Face', 'Right Arm', 'Left Leg', 'Right Leg', 'Left Face', 'Chest', 'Left Arm', 'Right Leg', 'Left Leg', 'Abdomen', 'Right Face', 'Left Face']",
,,,,,,,,,,,2373.6631666000467,None,,,,,,,,,,,,,,,,,,,,,,,,,,,,,,,,,,,,,,,,,15.370370370370367,1216.4960958899464,,,,,1,M,21,r,CIB,2021_Aug_20_1402,distractmap,2020.2.10,59.993400703609076,"['Abdomen', 'Left Arm', 'Chest', 'Right Arm', 'Right Face', 'Right Arm', 'Left Leg', 'Right Leg', 'Left Face', 'Chest', 'Left Arm', 'Right Leg', 'Left Leg', 'Abdomen', 'Right Face', 'Left Face']",
