	SID	date	sex	session	handedness	scanner	onset	duration	repetition	rating	body_site	keys	temperature	conditionrt	mouseclick	biopac_channel	condition	rt	value
0	2599	2023_Feb_18_1621	m	1	r	MS MH	2.774348899984034	4.99916109725018								19	Instructions		
1	2599	2023_Feb_18_1621	m	1	r	MS MH	8.5359626999998	2.0095076499274								6	Cue		
2	2599	2023_Feb_18_1621	m	1	r	MS MH	10.547446899989154	8.003255849995185								7	Pre-Jitter		
3	2599	2023_Feb_18_1621	m	1	r	MS MH	18.613000099983765	15.005746900016675			Left Face		48.0			11	Heat-Stimulation		
4	2599	2023_Feb_18_1621	m	1	r	MS MH	33.7036483999982	7.0079643999633845								8	Mid-Jitter		
5	2599	2023_Feb_18_1621	m	1	r	MS MH	40.72905219998211	5.007301000034204								20	PainBinary	2.4524279999895953	1.0
6	2599	2023_Feb_18_1621	m	1	r	MS MH	45.760922999994364	5.010364299989305								21	IntensityRating	4.0863974999811035	22.160493827160497
7	2599	2023_Feb_18_1621	m	1	r	MS MH	50.79168070000014	4.998883200023556								22	ToleranceRating	2.6003741000022274	1.0
8	2599	2023_Feb_18_1621	m	1	r	MS MH	55.795734799990896	7.007552650000434								9	Post-Q-Jitter		
9	2599	2023_Feb_18_1621	m	1	r	MS MH	64.34017280000262	2.0021435498492792								6	Cue		
10	2599	2023_Feb_18_1621	m	1	r	MS MH	66.34280499999295	7.997065849980572								7	Pre-Jitter		
11	2599	2023_Feb_18_1621	m	1	r	MS MH	74.41276790000848	15.007381850009551			Left Face		48.5			11	Heat-Stimulation		
12	2599	2023_Feb_18_1621	m	1	r	MS MH	89.5020741999906	9.012265600002138								8	Mid-Jitter		
13	2599	2023_Feb_18_1621	m	1	r	MS MH	98.5278192999831	5.010927100025583								20	PainBinary	2.2027524999866728	-1.0
14	2599	2023_Feb_18_1621	m	1	r	MS MH	113.55153870000504	9.013764599221759								9	Post-Q-Jitter		
15	2599	2023_Feb_18_1621	m	1	r	MS MH	123.21384229999967	2.0060097999230493								6	Cue		
16	2599	2023_Feb_18_1621	m	1	r	MS MH	125.22675159998471	5.996967649989529								7	Pre-Jitter		
17	2599	2023_Feb_18_1621	m	1	r	MS MH	131.26417390001006	15.0056407499942			Left Face		48.5			11	Heat-Stimulation		
18	2599	2023_Feb_18_1621	m	1	r	MS MH	146.35081539998646	7.015922099963063								8	Mid-Jitter		
19	2599	2023_Feb_18_1621	m	1	r	MS MH	153.37937770001008	5.0089300999825355								20	PainBinary	1.6833128999860492	1.0
20	2599	2023_Feb_18_1621	m	1	r	MS MH	158.41187199999695	5.010671600000933								21	IntensityRating	3.699983999977121	36.66666666666667
21	2599	2023_Feb_18_1621	m	1	r	MS MH	163.4426765999815	4.999113800004125								22	ToleranceRating	3.867077899980359	1.0
22	2599	2023_Feb_18_1621	m	1	r	MS MH	168.4474174999923	7.006426849984564								9	Post-Q-Jitter		
23	2599	2023_Feb_18_1621	m	1	r	MS MH	176.1592912999913	2.0161904499400407								6	Cue		
24	2599	2023_Feb_18_1621	m	1	r	MS MH	178.17760480000288	7.996293149946723								7	Pre-Jitter		
25	2599	2023_Feb_18_1621	m	1	r	MS MH	186.23372910000035	15.00092809999478			Left Face		48.5			11	Heat-Stimulation		
26	2599	2023_Feb_18_1621	m	1	r	MS MH	201.32374610000988	9.004473299981328								8	Mid-Jitter		
27	2599	2023_Feb_18_1621	m	1	r	MS MH	210.34601330000442	5.010113299969817								20	PainBinary	2.185747599985916	1.0
28	2599	2023_Feb_18_1621	m	1	r	MS MH	215.37847409999813	5.011957000009716								21	IntensityRating	4.516666500014253	36.97530864197531
29	2599	2023_Feb_18_1621	m	1	r	MS MH	220.40901000000304	5.001011900021695								22	ToleranceRating	1.7336740999890026	1.0
30	2599	2023_Feb_18_1621	m	1	r	MS MH	225.41550040000584	9.004766950005433								9	Post-Q-Jitter		
31	2599	2023_Feb_18_1621	m	1	r	MS MH	235.99739139998564	2.0078062498942018								6	Cue		
32	2599	2023_Feb_18_1621	m	1	r	MS MH	238.01157159998547	7.996200549998321								7	Pre-Jitter		
33	2599	2023_Feb_18_1621	m	1	r	MS MH	246.0507757999876	15.001291949971346			Left Face		48.5			11	Heat-Stimulation		
34	2599	2023_Feb_18_1621	m	1	r	MS MH	261.13955120000173	5.00730499997735								8	Mid-Jitter		
35	2599	2023_Feb_18_1621	m	1	r	MS MH	266.16334470000584	5.009984800009988								20	PainBinary	1.849974500015378	1.0
36	2599	2023_Feb_18_1621	m	1	r	MS MH	271.1959426999965	5.0115110999613535								21	IntensityRating	3.5333412000036333	37.592592592592595
37	2599	2023_Feb_18_1621	m	1	r	MS MH	276.22603739998885	5.001361000031466								22	ToleranceRating	1.6503302000055555	1.0
38	2599	2023_Feb_18_1621	m	1	r	MS MH	281.23157030000584	5.007059549971018								9	Post-Q-Jitter		
39	2599	2023_Feb_18_1621	m	1	r	MS MH	287.8119336999953	2.0130871498549823								6	Cue		
40	2599	2023_Feb_18_1621	m	1	r	MS MH	289.8283591000072	7.996904849977								7	Pre-Jitter		
41	2599	2023_Feb_18_1621	m	1	r	MS MH	297.8872774000047	15.01261874998454			Left Face		48.5			11	Heat-Stimulation		
42	2599	2023_Feb_18_1621	m	1	r	MS MH	312.97326589998556	9.007645499979844								8	Mid-Jitter		
43	2599	2023_Feb_18_1621	m	1	r	MS MH	321.9970466000086	5.010242099990137								20	PainBinary	2.066554899996845	1.0
44	2599	2023_Feb_18_1621	m	1	r	MS MH	327.0301834999991	5.010866499971598								21	IntensityRating		46.60493827160494
45	2599	2023_Feb_18_1621	m	1	r	MS MH	332.0603329000005	5.000597199978074								22	ToleranceRating	1.9336554000037722	1.0
46	2599	2023_Feb_18_1621	m	1	r	MS MH	337.06624359998386	9.00556645001052								9	Post-Q-Jitter		
47	2599	2023_Feb_18_1621	m	1	r	MS MH	346.70620549999876	2.009021349978866								6	Cue		
48	2599	2023_Feb_18_1621	m	1	r	MS MH	348.7125429000007	3.996373549976852								7	Pre-Jitter		
49	2599	2023_Feb_18_1621	m	1	r	MS MH	352.75176829998964	15.00145884999074			Left Face		48.5			11	Heat-Stimulation		
50	2599	2023_Feb_18_1621	m	1	r	MS MH	367.8357995999977	5.000303449982312								8	Mid-Jitter		
51	2599	2023_Feb_18_1621	m	1	r	MS MH	372.86419210000895	5.010303899995051								20	PainBinary	1.5500211000035051	1.0
52	2599	2023_Feb_18_1621	m	1	r	MS MH	377.89701260000584	5.01147649998893								21	IntensityRating	3.566693299973849	40.4320987654321
53	2599	2023_Feb_18_1621	m	1	r	MS MH	382.92764159999206	5.000289699994028								22	ToleranceRating	2.216977699979907	1.0
54	2599	2023_Feb_18_1621	m	1	r	MS MH	387.93251959999907	5.007259249978233								9	Post-Q-Jitter		
55	2599	2023_Feb_18_1621	m	1	r	MS MH	392.972529199993	7.460851549985819								26	ComfortRating	7.433709799981443	-21.234567901234556
56	2599	2023_Feb_18_1621	m	1	r	MS MH	400.45267959998455	7.567322300019441								24	ValenceRating	7.550276100024348	52.59259259259259
57	2599	2023_Feb_18_1621	m	1	r	MS MH	408.04511420000927	4.815963200002443								26	IntensityRating	4.8003165000118315	55.24691358024691
58	2599	2023_Feb_18_1621	m	1	r	MS MH	412.8816317000019	5.543003900005715								27	AvoidanceRating	5.516711899981601	-8.518518518518519
59	2599	2023_Feb_18_1621	m	1	r	MS MH	418.4434649999894	3.5860840000095777								28	RelaxationRating	3.5529121999861673	41.04938271604938
60	2599	2023_Feb_18_1621	m	1	r	MS MH	422.0467651000072	5.612934999953723								29	AttentionRating	5.600834499986377	41.66666666666667
61	2599	2023_Feb_18_1621	m	1	r	MS MH	427.6777800999989	6.25104200001806								30	BoredomRating	6.233721600001445	39.81481481481482
62	2599	2023_Feb_18_1621	m	1	r	MS MH	433.94570360000944	3.9986042999953497								31	AlertnessRating	3.983814800012624	-12.098765432098773
63	2599	2023_Feb_18_1621	m	1	r	MS MH	437.96209049999015	6.799252800032264								32	PosThxRating	6.783760699996492	6.41975308641976
64	2599	2023_Feb_18_1621	m	1	r	MS MH	444.77882509998744	3.3325564000115264								33	NegThxRating	3.3170998000132386	-1.6049382716049365
65	2599	2023_Feb_18_1621	m	1	r	MS MH	448.12847100000363	4.433343299984699								34	SelfRating	4.417017600004328	20.0
66	2599	2023_Feb_18_1621	m	1	r	MS MH	452.57850239999243	4.3666801000072155								35	OtherRating	4.350346999999601	9.135802469135811
67	2599	2023_Feb_18_1621	m	1	r	MS MH	456.96387239999603	6.346060700016096								32	ImageryRating	6.316786500014132	41.234567901234584
68	2599	2023_Feb_18_1621	m	1	r	MS MH	463.3319308999926	5.376725800015265								37	PresentRating	5.350010599999223	35.18518518518519
