RestT1,TaskT1,square,location,corrAns,counterbalancer.thisRepN,counterbalancer.thisTrialN,counterbalancer.thisN,counterbalancer.thisIndex,RestT1Loop.thisRepN,RestT1Loop.thisTrialN,RestT1Loop.thisN,RestT1Loop.thisIndex,TaskT1Loop.thisRepN,TaskT1Loop.thisTrialN,TaskT1Loop.thisN,TaskT1Loop.thisIndex,trials_2.thisRepN,trials_2.thisTrialN,trials_2.thisN,trials_2.thisIndex,fixation_1.started,fixation_1.stopped,NbackInstructions.started,NbackInstructions.stopped,NbackStart.keys,NbackStart.rt,NbackStart.started,NbackStart.stopped,fixation_2.started,fixation_2.stopped,response_2.x,response_2.y,response_2.leftButton,grid_lines_2.started,grid_lines_2.stopped,target_square_2.started,target_square_2.stopped,fixation_3.started,fixation_3.stopped,response_2.click,response_2.corr,response_2.started,response_2.stopped,response_2.rt,subject number,gender,session,handedness,scanner,date,expName,psychopyVersion,frameRate,
1,0,,,,0,0,0,0,0,0,0,0,,,,,,,,,80.84931429999415,None,,,,,,,,,,,,,,,,,,,,,,,7,F,5,r,CIB,2021_Oct_19_1506,WASABI Nback,2020.2.10,59.97839577095102,
0,1,,,,0,1,1,1,,,,,0,0,0,0,,,,,,,354.8349175999756,None,space,57.68509579997044,354.8349175999756,None,,,,,,,,,,,,,,,,,7,F,5,r,CIB,2021_Oct_19_1506,WASABI Nback,2020.2.10,59.97839577095102,
0,1,5,"[0, 0]",None,0,1,1,1,,,,,0,0,0,0,0,0,0,0,,,,,,,,,None,None,None,None,0,414.7687141999486,None,414.7687141999486,None,None,None,0,1,414.7687141999486,None,,7,F,5,r,CIB,2021_Oct_19_1506,WASABI Nback,2020.2.10,59.97839577095102,
0,1,2,"[0, 0.2]",None,0,1,1,1,,,,,0,0,0,0,0,1,1,1,,,,,,,,,,,None,None,0,415.56872919999296,None,415.56872919999296,416.5687417999725,416.55205969995586,417.5520805999986,0,1,415.56872919999296,None,,7,F,5,r,CIB,2021_Oct_19_1506,WASABI Nback,2020.2.10,59.97839577095102,
0,1,6,"[0.2, 0]",None,0,1,1,1,,,,,0,0,0,0,0,2,2,2,,,,,,,,,,,None,None,0,417.56874499999685,None,417.56874499999685,418.5688097999664,418.55209549999563,419.55209289997583,0,1,417.56874499999685,None,,7,F,5,r,CIB,2021_Oct_19_1506,WASABI Nback,2020.2.10,59.97839577095102,
0,1,9,"[0.2, -0.2]",None,0,1,1,1,,,,,0,0,0,0,0,3,3,3,,,,,,,,,,,None,None,0,419.5687499999767,None,419.5687499999767,420.5687676999951,420.55210400000215,421.55210679996526,0,1,419.5687499999767,None,,7,F,5,r,CIB,2021_Oct_19_1506,WASABI Nback,2020.2.10,59.97839577095102,
0,1,3,"[0.2, 0.2]",None,0,1,1,1,,,,,0,0,0,0,0,4,4,4,,,,,,,,,,,None,None,0,421.56879079999635,None,421.56879079999635,422.5688009999576,422.5521108999965,423.55212879995815,0,1,421.56879079999635,None,,7,F,5,r,CIB,2021_Oct_19_1506,WASABI Nback,2020.2.10,59.97839577095102,
0,1,9,"[0.2, -0.2]",1,0,1,1,1,,,,,0,0,0,0,0,5,5,5,,,,,,,,,,,None,None,0,423.56877989997156,None,423.56877989997156,424.56879910000134,424.55212129995925,425.55214249994606,0,1,423.56877989997156,None,,7,F,5,r,CIB,2021_Oct_19_1506,WASABI Nback,2020.2.10,59.97839577095102,
0,1,7,"[-0.2, -0.2]",None,0,1,1,1,,,,,0,0,0,0,0,6,6,6,,,,,,,,,,,None,None,0,425.5687600999954,None,425.5687600999954,426.56881899997825,426.5521511999541,427.5521552999853,0,1,425.5687600999954,None,,7,F,5,r,CIB,2021_Oct_19_1506,WASABI Nback,2020.2.10,59.97839577095102,
0,1,1,"[-0.2, 0.2]",None,0,1,1,1,,,,,0,0,0,0,0,7,7,7,,,,,,,,,,,None,None,0,427.5688121999847,None,427.5688121999847,428.5688250999665,428.55215909995604,429.5521772999782,0,1,427.5688121999847,None,,7,F,5,r,CIB,2021_Oct_19_1506,WASABI Nback,2020.2.10,59.97839577095102,
0,1,5,"[0, 0]",None,0,1,1,1,,,,,0,0,0,0,0,8,8,8,,,,,,,,,,,None,None,0,429.5688534999499,None,429.5688534999499,430.5688372000004,430.55217129999073,431.5522008999833,0,1,429.5688534999499,None,,7,F,5,r,CIB,2021_Oct_19_1506,WASABI Nback,2020.2.10,59.97839577095102,
0,1,7,"[-0.2, -0.2]",None,0,1,1,1,,,,,0,0,0,0,0,9,9,9,,,,,,,,,,,None,None,0,431.56885059998604,None,431.56885059998604,432.568858899991,432.5522018999909,433.55220079998253,0,1,431.56885059998604,None,,7,F,5,r,CIB,2021_Oct_19_1506,WASABI Nback,2020.2.10,59.97839577095102,
0,1,5,"[0, 0]",1,0,1,1,1,,,,,0,0,0,0,0,10,10,10,,,,,,,,,,,None,None,0,433.5688602000009,None,433.5688602000009,434.5688902999973,434.5522148999735,435.5522240999853,0,1,433.5688602000009,None,,7,F,5,r,CIB,2021_Oct_19_1506,WASABI Nback,2020.2.10,59.97839577095102,
0,1,6,"[0.2, 0]",None,0,1,1,1,,,,,0,0,0,0,0,11,11,11,,,,,,,,,,,None,None,0,435.56888989999425,None,435.56888989999425,436.56888759997673,436.55222949996823,437.5522412999999,0,1,435.56888989999425,None,,7,F,5,r,CIB,2021_Oct_19_1506,WASABI Nback,2020.2.10,59.97839577095102,
0,1,3,"[0.2, 0.2]",None,0,1,1,1,,,,,0,0,0,0,0,12,12,12,,,,,,,,,,,None,None,0,437.5689021999715,None,437.5689021999715,438.5689067999483,438.55225089995656,439.55226639995817,0,1,437.5689021999715,None,,7,F,5,r,CIB,2021_Oct_19_1506,WASABI Nback,2020.2.10,59.97839577095102,
0,1,6,"[0.2, 0]",1,0,1,1,1,,,,,0,0,0,0,0,13,13,13,,,,,,,,,,,None,None,0,439.5689706999692,None,439.5689706999692,440.56893519998994,440.5522843999788,441.5522815999575,0,1,439.5689706999692,None,,7,F,5,r,CIB,2021_Oct_19_1506,WASABI Nback,2020.2.10,59.97839577095102,
0,1,8,"[0, -0.2]",None,0,1,1,1,,,,,0,0,0,0,0,14,14,14,,,,,,,,,,,None,None,0,441.5689362999983,None,441.5689362999983,442.56895459996304,442.5522729999502,443.55228509998415,0,1,441.5689362999983,None,,7,F,5,r,CIB,2021_Oct_19_1506,WASABI Nback,2020.2.10,59.97839577095102,
0,1,9,"[0.2, -0.2]",None,0,1,1,1,,,,,0,0,0,0,0,15,15,15,,,,,,,,,,,None,None,0,443.568968699954,None,443.568968699954,444.5689593999996,444.55231800000183,445.5522980999667,0,1,443.568968699954,None,,7,F,5,r,CIB,2021_Oct_19_1506,WASABI Nback,2020.2.10,59.97839577095102,
0,1,9,"[0.2, -0.2]",None,0,1,1,1,,,,,0,0,0,0,0,16,16,16,,,,,,,,,,,None,None,0,445.56896179995965,None,445.56896179995965,446.568964999984,446.55232570000226,447.5523296999745,0,1,445.56896179995965,None,,7,F,5,r,CIB,2021_Oct_19_1506,WASABI Nback,2020.2.10,59.97839577095102,
0,1,1,"[-0.2, 0.2]",None,0,1,1,1,,,,,0,0,0,0,0,17,17,17,,,,,,,,,,,None,None,0,447.56898479996016,None,447.56898479996016,448.56899549998343,448.55232719995547,449.5523511999636,0,1,447.56898479996016,None,,7,F,5,r,CIB,2021_Oct_19_1506,WASABI Nback,2020.2.10,59.97839577095102,
0,1,3,"[0.2, 0.2]",None,0,1,1,1,,,,,0,0,0,0,0,18,18,18,,,,,,,,,,,None,None,0,449.5689861999708,None,449.5689861999708,450.56901069998275,450.55234439997,451.552365099953,0,1,449.5689861999708,None,,7,F,5,r,CIB,2021_Oct_19_1506,WASABI Nback,2020.2.10,59.97839577095102,
0,1,5,"[0, 0]",None,0,1,1,1,,,,,0,0,0,0,0,19,19,19,,,,,,,,,,,None,None,0,451.5690069999546,None,451.5690069999546,452.5690317999688,452.55242609995184,453.5523669999675,0,1,451.5690069999546,None,,7,F,5,r,CIB,2021_Oct_19_1506,WASABI Nback,2020.2.10,59.97839577095102,
0,1,3,"[0.2, 0.2]",1,0,1,1,1,,,,,0,0,0,0,0,20,20,20,,,,,,,,,,,None,None,0,453.56903119996423,None,453.56903119996423,454.56903809995856,454.5523756999755,455.55239739996614,0,1,453.56903119996423,None,,7,F,5,r,CIB,2021_Oct_19_1506,WASABI Nback,2020.2.10,59.97839577095102,
0,1,4,"[-0.2, 0]",None,0,1,1,1,,,,,0,0,0,0,0,21,21,21,,,,,,,,,,,None,None,0,455.56905959994765,None,455.56905959994765,456.56905339995865,456.5524031999521,457.5524126999662,0,1,455.56905959994765,None,,7,F,5,r,CIB,2021_Oct_19_1506,WASABI Nback,2020.2.10,59.97839577095102,
0,1,7,"[-0.2, -0.2]",None,0,1,1,1,,,,,0,0,0,0,0,22,22,22,,,,,,,,,,,None,None,0,457.5690762999584,None,457.5690762999584,458.569081499998,458.552423599991,459.5524114999571,0,1,457.5690762999584,None,,7,F,5,r,CIB,2021_Oct_19_1506,WASABI Nback,2020.2.10,59.97839577095102,
0,1,4,"[-0.2, 0]",1,0,1,1,1,,,,,0,0,0,0,0,23,23,23,,,,,,,,,,,None,None,0,459.5690720999846,None,459.5690720999846,460.56910539994715,460.5524267999572,461.5524303999846,0,1,459.5690720999846,None,,7,F,5,r,CIB,2021_Oct_19_1506,WASABI Nback,2020.2.10,59.97839577095102,
0,1,4,"[-0.2, 0]",None,0,1,1,1,,,,,0,0,0,0,0,24,24,24,,,,,,,,,,,None,None,0,461.56909740000265,None,461.56909740000265,462.5691026999848,462.5524405000033,463.55247529997723,0,1,461.56909740000265,None,,7,F,5,r,CIB,2021_Oct_19_1506,WASABI Nback,2020.2.10,59.97839577095102,
0,1,5,"[0, 0]",None,0,1,1,1,,,,,0,0,0,0,0,25,25,25,,,,,,,,,,,None,None,0,463.56910699995933,None,463.56910699995933,464.5691328999819,464.5524555000011,465.55247209995287,0,1,463.56910699995933,None,,7,F,5,r,CIB,2021_Oct_19_1506,WASABI Nback,2020.2.10,59.97839577095102,
0,1,2,"[0, 0.2]",None,0,1,1,1,,,,,0,0,0,0,0,26,26,26,,,,,,,,,,,None,None,0,465.56912869994994,None,465.56912869994994,466.56912609998835,466.55250469996827,467.5525013000006,0,1,465.56912869994994,None,,7,F,5,r,CIB,2021_Oct_19_1506,WASABI Nback,2020.2.10,59.97839577095102,
0,1,6,"[0.2, 0]",None,0,1,1,1,,,,,0,0,0,0,0,27,27,27,,,,,,,,,,,None,None,0,467.56913129996974,None,467.56913129996974,468.5691431000014,468.5525037999614,469.5525029999553,0,1,467.56913129996974,None,,7,F,5,r,CIB,2021_Oct_19_1506,WASABI Nback,2020.2.10,59.97839577095102,
0,1,7,"[-0.2, -0.2]",None,0,1,1,1,,,,,0,0,0,0,0,28,28,28,,,,,,,,,,,None,None,0,469.5691729999962,None,469.5691729999962,470.56915739999386,470.5525048999698,471.5525203999714,0,1,469.5691729999962,None,,7,F,5,r,CIB,2021_Oct_19_1506,WASABI Nback,2020.2.10,59.97839577095102,
0,1,6,"[0.2, 0]",1,0,1,1,1,,,,,0,0,0,0,0,29,29,29,,,,,,,,,,,None,None,0,471.56917219999013,None,471.56917219999013,472.569187999994,472.55253629997605,473.5525263999589,0,1,471.56917219999013,None,,7,F,5,r,CIB,2021_Oct_19_1506,WASABI Nback,2020.2.10,59.97839577095102,
0,1,6,"[0.2, 0]",None,0,1,1,1,,,,,0,0,0,0,0,30,30,30,,,,,,,,,,,None,None,0,473.5691807999974,None,473.5691807999974,474.56919489998836,474.55253659997834,475.5525459999917,0,1,473.5691807999974,None,,7,F,5,r,CIB,2021_Oct_19_1506,WASABI Nback,2020.2.10,59.97839577095102,
0,1,7,"[-0.2, -0.2]",None,0,1,1,1,,,,,0,0,0,0,0,31,31,31,,,,,,,,,,,None,None,0,475.56922779994784,None,475.56922779994784,476.56921069999225,476.55255419999594,477.5525695999968,0,1,475.56922779994784,None,,7,F,5,r,CIB,2021_Oct_19_1506,WASABI Nback,2020.2.10,59.97839577095102,
0,1,6,"[0.2, 0]",1,0,1,1,1,,,,,0,0,0,0,0,32,32,32,,,,,,,,,,,None,None,0,477.56922619999386,None,477.56922619999386,478.56924719997915,478.55258109996794,479.55253939999966,0,1,477.56922619999386,None,,7,F,5,r,CIB,2021_Oct_19_1506,WASABI Nback,2020.2.10,59.97839577095102,
0,1,2,"[0, 0.2]",None,0,1,1,1,,,,,0,0,0,0,0,33,33,33,,,,,,,,,,,None,None,0,479.5692374999635,None,479.5692374999635,480.56925049994607,480.5525852999999,481.5525940999505,0,1,479.5692374999635,None,,7,F,5,r,CIB,2021_Oct_19_1506,WASABI Nback,2020.2.10,59.97839577095102,
0,1,5,"[0, 0]",None,0,1,1,1,,,,,0,0,0,0,0,34,34,34,,,,,,,,,,,None,None,0,481.56927149998955,None,481.56927149998955,482.56926239997847,482.5525998999947,483.55261159996735,0,1,481.56927149998955,None,,7,F,5,r,CIB,2021_Oct_19_1506,WASABI Nback,2020.2.10,59.97839577095102,
0,1,4,"[-0.2, 0]",None,0,1,1,1,,,,,0,0,0,0,0,35,35,35,,,,,,,,,,,None,None,0,483.56927149998955,None,483.56927149998955,484.56929479999235,484.5526171999518,485.55262119998224,0,1,483.56927149998955,None,,7,F,5,r,CIB,2021_Oct_19_1506,WASABI Nback,2020.2.10,59.97839577095102,
0,1,4,"[-0.2, 0]",None,0,1,1,1,,,,,0,0,0,0,0,36,36,36,,,,,,,,,,,None,None,0,485.5692416999955,None,485.5692416999955,486.5693262999994,486.55262969998876,487.55255439999746,0,1,485.5692416999955,None,,7,F,5,r,CIB,2021_Oct_19_1506,WASABI Nback,2020.2.10,59.97839577095102,
0,1,7,"[-0.2, -0.2]",None,0,1,1,1,,,,,0,0,0,0,0,37,37,37,,,,,,,,,,,None,None,0,487.56932039995445,None,487.56932039995445,488.5693262999994,488.55265509994933,489.55265430000145,0,1,487.56932039995445,None,,7,F,5,r,CIB,2021_Oct_19_1506,WASABI Nback,2020.2.10,59.97839577095102,
0,1,4,"[-0.2, 0]",1,0,1,1,1,,,,,0,0,0,0,0,38,38,38,,,,,,,,,,,None,None,0,489.5693420000025,None,489.5693420000025,490.569333499996,490.5526753999875,491.5526662999764,0,0,489.5693420000025,None,,7,F,5,r,CIB,2021_Oct_19_1506,WASABI Nback,2020.2.10,59.97839577095102,
0,1,3,"[0.2, 0.2]",None,0,1,1,1,,,,,0,0,0,0,0,39,39,39,,,,,,,,,,,None,None,0,491.5693518999615,None,491.5693518999615,492.5693466999801,492.5526735999738,493.55267309997,0,1,491.5693518999615,None,,7,F,5,r,CIB,2021_Oct_19_1506,WASABI Nback,2020.2.10,59.97839577095102,
0,1,5,"[0, 0]",None,0,1,1,1,,,,,0,0,0,0,0,40,40,40,,,,,,,,,,,None,None,0,493.5693546999828,None,493.5693546999828,494.56936569995014,494.55268949997844,495.55270499998005,0,1,493.5693546999828,None,,7,F,5,r,CIB,2021_Oct_19_1506,WASABI Nback,2020.2.10,59.97839577095102,
0,1,3,"[0.2, 0.2]",1,0,1,1,1,,,,,0,0,0,0,0,41,41,41,,,,,,,,,,,None,None,1,495.5693723000004,None,495.5693723000004,496.5693991999724,496.5526965999743,497.55272389994934,1,1,495.5693723000004,None,1.7335737000103109,7,F,5,r,CIB,2021_Oct_19_1506,WASABI Nback,2020.2.10,59.97839577095102,
0,1,1,"[-0.2, 0.2]",None,0,1,1,1,,,,,0,0,0,0,0,42,42,42,,,,,,,,,,,None,None,0,497.5693761999719,None,497.5693761999719,498.5693937999895,498.55273239995586,499.55272489995696,0,1,497.5693761999719,None,,7,F,5,r,CIB,2021_Oct_19_1506,WASABI Nback,2020.2.10,59.97839577095102,
0,1,9,"[0.2, -0.2]",None,0,1,1,1,,,,,0,0,0,0,0,43,43,43,,,,,,,,,,,None,None,0,499.56940019998,None,499.56940019998,500.56942289997824,500.5527452999959,501.5527452999959,0,1,499.56940019998,None,,7,F,5,r,CIB,2021_Oct_19_1506,WASABI Nback,2020.2.10,59.97839577095102,
0,1,9,"[0.2, -0.2]",None,0,1,1,1,,,,,0,0,0,0,0,44,44,44,,,,,,,,,,,None,None,0,501.56930539995665,None,501.56930539995665,502.569431299984,502.5527638999629,503.5527676999918,0,1,501.56930539995665,None,,7,F,5,r,CIB,2021_Oct_19_1506,WASABI Nback,2020.2.10,59.97839577095102,
0,1,8,"[0, -0.2]",None,0,1,1,1,,,,,0,0,0,0,0,45,45,45,,,,,,,,,,,None,None,0,503.56945680000354,None,503.56945680000354,504.56946869997773,504.55277169996407,505.5527896999847,0,1,503.56945680000354,None,,7,F,5,r,CIB,2021_Oct_19_1506,WASABI Nback,2020.2.10,59.97839577095102,
0,1,6,"[0.2, 0]",None,0,1,1,1,,,,,0,0,0,0,0,46,46,46,,,,,,,,,,,None,None,0,505.5694749999675,None,505.5694749999675,506.5694402999943,506.5527884999756,507.5527914999984,0,1,505.5694749999675,None,,7,F,5,r,CIB,2021_Oct_19_1506,WASABI Nback,2020.2.10,59.97839577095102,
0,1,3,"[0.2, 0.2]",None,0,1,1,1,,,,,0,0,0,0,0,47,47,47,,,,,,,,,,,None,None,0,507.56947180000134,None,507.56947180000134,508.5694949000026,508.55281069997,509.5528157999506,0,1,507.56947180000134,None,,7,F,5,r,CIB,2021_Oct_19_1506,WASABI Nback,2020.2.10,59.97839577095102,
0,1,6,"[0.2, 0]",1,0,1,1,1,,,,,0,0,0,0,0,48,48,48,,,,,,,,,,,None,None,0,509.56948079995345,None,509.56948079995345,510.56950129999314,510.5528132999898,511.5527580999769,0,1,509.56948079995345,None,,7,F,5,r,CIB,2021_Oct_19_1506,WASABI Nback,2020.2.10,59.97839577095102,
0,1,5,"[0, 0]",None,0,1,1,1,,,,,0,0,0,0,0,49,49,49,,,,,,,,,,,None,None,0,511.5695184999495,None,511.5695184999495,512.5695172999986,512.5528319999576,513.5528336999705,0,1,511.5695184999495,None,,7,F,5,r,CIB,2021_Oct_19_1506,WASABI Nback,2020.2.10,59.97839577095102,
0,1,7,"[-0.2, -0.2]",None,0,1,1,1,,,,,0,0,0,0,0,50,50,50,,,,,,,,,,,None,None,0,513.5695180000039,None,513.5695180000039,514.5695392999914,514.5528565999703,515.5528622999554,0,1,513.5695180000039,None,,7,F,5,r,CIB,2021_Oct_19_1506,WASABI Nback,2020.2.10,59.97839577095102,
0,1,5,"[0, 0]",1,0,1,1,1,,,,,0,0,0,0,0,51,51,51,,,,,,,,,,,None,None,0,515.5695507999626,None,515.5695507999626,516.5694292999688,516.5528806999791,517.55289609998,0,1,515.5695507999626,None,,7,F,5,r,CIB,2021_Oct_19_1506,WASABI Nback,2020.2.10,59.97839577095102,
0,1,1,"[-0.2, 0.2]",None,0,1,1,1,,,,,0,0,0,0,0,52,52,52,,,,,,,,,,,None,None,0,517.569569299987,None,517.569569299987,518.5695730999578,518.5528100999654,519.5528901999933,0,1,517.569569299987,None,,7,F,5,r,CIB,2021_Oct_19_1506,WASABI Nback,2020.2.10,59.97839577095102,
0,1,7,"[-0.2, -0.2]",None,0,1,1,1,,,,,0,0,0,0,0,53,53,53,,,,,,,,,,,None,None,0,519.5695842999849,None,519.5695842999849,520.569587499951,520.5529004999553,521.5529062999994,0,1,519.5695842999849,None,,7,F,5,r,CIB,2021_Oct_19_1506,WASABI Nback,2020.2.10,59.97839577095102,
0,1,9,"[0.2, -0.2]",None,0,1,1,1,,,,,0,0,0,0,0,54,54,54,,,,,,,,,,,None,None,0,521.5695136999711,None,521.5695136999711,522.5695779999951,522.5529121999862,523.5529148999485,0,1,521.5695136999711,None,,7,F,5,r,CIB,2021_Oct_19_1506,WASABI Nback,2020.2.10,59.97839577095102,
0,1,3,"[0.2, 0.2]",None,0,1,1,1,,,,,0,0,0,0,0,55,55,55,,,,,,,,,,,None,None,0,523.5696101999492,None,523.5696101999492,524.5695936999982,524.5529280999908,525.5529365999973,0,1,523.5696101999492,None,,7,F,5,r,CIB,2021_Oct_19_1506,WASABI Nback,2020.2.10,59.97839577095102,
0,1,9,"[0.2, -0.2]",1,0,1,1,1,,,,,0,0,0,0,0,56,56,56,,,,,,,,,,,None,None,0,525.5696055999724,None,525.5696055999724,526.5696213999763,526.5528600999969,527.5529592999956,0,1,525.5696055999724,None,,7,F,5,r,CIB,2021_Oct_19_1506,WASABI Nback,2020.2.10,59.97839577095102,
0,1,6,"[0.2, 0]",None,0,1,1,1,,,,,0,0,0,0,0,57,57,57,,,,,,,,,,,None,None,0,527.5696243999992,None,527.5696243999992,528.5696322000003,528.552978999971,529.5529854999622,0,1,527.5696243999992,None,,7,F,5,r,CIB,2021_Oct_19_1506,WASABI Nback,2020.2.10,59.97839577095102,
0,1,2,"[0, 0.2]",None,0,1,1,1,,,,,0,0,0,0,0,58,58,58,,,,,,,,,,,None,None,0,529.5696487999521,None,529.5696487999521,530.5696642999537,530.5529800999793,531.5530123999924,0,1,529.5696487999521,None,,7,F,5,r,CIB,2021_Oct_19_1506,WASABI Nback,2020.2.10,59.97839577095102,
0,1,5,"[0, 0]",None,0,1,1,1,,,,,0,0,0,0,0,59,59,59,,,,,,,,,,,None,None,0,531.5696742999717,None,531.5696742999717,532.569662199996,532.5530026999768,533.5530250999727,0,1,531.5696742999717,None,,7,F,5,r,CIB,2021_Oct_19_1506,WASABI Nback,2020.2.10,59.97839577095102,
0,1,5,"[0, 0]",None,0,1,1,1,,,,,0,0,0,0,0,60,60,60,,,,,,,,,,,None,None,0,533.5696778999991,None,533.5696778999991,534.5696766999899,534.5530323999701,535.5530200999929,0,1,533.5696778999991,None,,7,F,5,r,CIB,2021_Oct_19_1506,WASABI Nback,2020.2.10,59.97839577095102,
0,1,2,"[0, 0.2]",None,0,1,1,1,,,,,0,0,0,0,0,61,61,61,,,,,,,,,,,None,None,0,535.5696961999638,None,535.5696961999638,536.5696965999668,536.5530202999944,537.5530606999528,0,1,535.5696961999638,None,,7,F,5,r,CIB,2021_Oct_19_1506,WASABI Nback,2020.2.10,59.97839577095102,
0,1,6,"[0.2, 0]",None,0,1,1,1,,,,,0,0,0,0,0,62,62,62,,,,,,,,,,,None,None,0,537.5697109999601,None,537.5697109999601,538.5697172999498,538.5530550999683,539.5530661999946,0,1,537.5697109999601,None,,7,F,5,r,CIB,2021_Oct_19_1506,WASABI Nback,2020.2.10,59.97839577095102,
0,1,9,"[0.2, -0.2]",None,0,1,1,1,,,,,0,0,0,0,0,63,63,63,,,,,,,,,,,None,None,0,539.5697207999765,None,539.5697207999765,540.5697320999461,540.5530844999594,541.553083799954,0,1,539.5697207999765,None,,7,F,5,r,CIB,2021_Oct_19_1506,WASABI Nback,2020.2.10,59.97839577095102,
0,1,3,"[0.2, 0.2]",None,0,1,1,1,,,,,0,0,0,0,0,64,64,64,,,,,,,,,,,None,None,0,541.5697298999876,None,541.5697298999876,542.569752099982,542.5530784999719,543.5531785999774,0,1,541.5697298999876,None,,7,F,5,r,CIB,2021_Oct_19_1506,WASABI Nback,2020.2.10,59.97839577095102,
0,1,9,"[0.2, -0.2]",1,0,1,1,1,,,,,0,0,0,0,0,65,65,65,,,,,,,,,,,None,None,0,543.569773199968,None,543.569773199968,544.5697617999977,544.5530880999868,545.5531119999941,0,1,543.569773199968,None,,7,F,5,r,CIB,2021_Oct_19_1506,WASABI Nback,2020.2.10,59.97839577095102,
0,1,7,"[-0.2, -0.2]",None,0,1,1,1,,,,,0,0,0,0,0,66,66,66,,,,,,,,,,,None,None,0,545.5697668999783,None,545.5697668999783,546.569764099957,546.5531077999622,547.5531325999764,0,1,545.5697668999783,None,,7,F,5,r,CIB,2021_Oct_19_1506,WASABI Nback,2020.2.10,59.97839577095102,
0,1,1,"[-0.2, 0.2]",None,0,1,1,1,,,,,0,0,0,0,0,67,67,67,,,,,,,,,,,None,None,0,547.5697937999503,None,547.5697937999503,548.5697828999837,548.5531322999741,549.5531341999886,0,1,547.5697937999503,None,,7,F,5,r,CIB,2021_Oct_19_1506,WASABI Nback,2020.2.10,59.97839577095102,
0,1,5,"[0, 0]",None,0,1,1,1,,,,,0,0,0,0,0,68,68,68,,,,,,,,,,,None,None,0,549.5698223999934,None,549.5698223999934,550.5698102999595,550.5531295999535,551.5531514000031,0,1,549.5698223999934,None,,7,F,5,r,CIB,2021_Oct_19_1506,WASABI Nback,2020.2.10,59.97839577095102,
0,1,7,"[-0.2, -0.2]",None,0,1,1,1,,,,,0,0,0,0,0,69,69,69,,,,,,,,,,,None,None,0,551.5698319999501,None,551.5698319999501,552.5698315999471,552.553156799986,553.5531747999485,0,1,551.5698319999501,None,,7,F,5,r,CIB,2021_Oct_19_1506,WASABI Nback,2020.2.10,59.97839577095102,
0,1,5,"[0, 0]",1,0,1,1,1,,,,,0,0,0,0,0,70,70,70,,,,,,,,,,,None,None,0,553.5698281999794,None,553.5698281999794,554.5698562999605,554.553181299998,555.5531802999903,0,1,553.5698281999794,None,,7,F,5,r,CIB,2021_Oct_19_1506,WASABI Nback,2020.2.10,59.97839577095102,
0,1,6,"[0.2, 0]",None,0,1,1,1,,,,,0,0,0,0,0,71,71,71,,,,,,,,,,,None,None,0,555.5698503999738,None,555.5698503999738,556.569858199975,556.5531851999694,557.5532031999901,0,1,555.5698503999738,None,,7,F,5,r,CIB,2021_Oct_19_1506,WASABI Nback,2020.2.10,59.97839577095102,
0,1,3,"[0.2, 0.2]",None,0,1,1,1,,,,,0,0,0,0,0,72,72,72,,,,,,,,,,,None,None,0,557.5698822999839,None,557.5698822999839,558.5698712999583,558.5532038999954,559.5532111999928,0,1,557.5698822999839,None,,7,F,5,r,CIB,2021_Oct_19_1506,WASABI Nback,2020.2.10,59.97839577095102,
0,1,6,"[0.2, 0]",1,0,1,1,1,,,,,0,0,0,0,0,73,73,73,,,,,,,,,,,None,None,0,559.569908299949,None,559.569908299949,560.5698791999603,560.5532287999522,561.5532372999587,0,1,559.569908299949,None,,7,F,5,r,CIB,2021_Oct_19_1506,WASABI Nback,2020.2.10,59.97839577095102,
0,1,8,"[0, -0.2]",None,0,1,1,1,,,,,0,0,0,0,0,74,74,74,,,,,,,,,,,None,None,0,561.5699247999582,None,561.5699247999582,562.5699173999601,562.5532549999771,563.5532530999626,0,1,561.5699247999582,None,,7,F,5,r,CIB,2021_Oct_19_1506,WASABI Nback,2020.2.10,59.97839577095102,
0,1,9,"[0.2, -0.2]",None,0,1,1,1,,,,,0,0,0,0,0,75,75,75,,,,,,,,,,,None,None,0,563.5699239999522,None,563.5699239999522,564.5699307000032,564.5532523999573,565.5532699999749,0,1,563.5699239999522,None,,7,F,5,r,CIB,2021_Oct_19_1506,WASABI Nback,2020.2.10,59.97839577095102,
0,1,9,"[0.2, -0.2]",None,0,1,1,1,,,,,0,0,0,0,0,76,76,76,,,,,,,,,,,None,None,0,565.5699513999862,None,565.5699513999862,566.5699615999474,566.5532924999716,567.5532772999723,0,1,565.5699513999862,None,,7,F,5,r,CIB,2021_Oct_19_1506,WASABI Nback,2020.2.10,59.97839577095102,
0,1,1,"[-0.2, 0.2]",None,0,1,1,1,,,,,0,0,0,0,0,77,77,77,,,,,,,,,,,None,None,0,567.5698997,None,567.5698997,568.5699561999645,568.5532867999864,569.5532904999563,0,1,567.5698997,None,,7,F,5,r,CIB,2021_Oct_19_1506,WASABI Nback,2020.2.10,59.97839577095102,
0,1,3,"[0.2, 0.2]",None,0,1,1,1,,,,,0,0,0,0,0,78,78,78,,,,,,,,,,,None,None,0,569.5699786999612,None,569.5699786999612,570.5699856999563,570.5533049999503,571.5533120999462,0,1,569.5699786999612,None,,7,F,5,r,CIB,2021_Oct_19_1506,WASABI Nback,2020.2.10,59.97839577095102,
0,1,5,"[0, 0]",None,0,1,1,1,,,,,0,0,0,0,0,79,79,79,,,,,,,,,,,None,None,0,571.5699757999973,None,571.5699757999973,572.5700031999731,572.5533235999756,573.5533503999468,0,1,571.5699757999973,None,,7,F,5,r,CIB,2021_Oct_19_1506,WASABI Nback,2020.2.10,59.97839577095102,
0,1,3,"[0.2, 0.2]",1,0,1,1,1,,,,,0,0,0,0,0,80,80,80,,,,,,,,,,,None,None,0,573.5699883999769,None,573.5699883999769,574.5700071000028,574.5533475999837,575.5533532999689,0,1,573.5699883999769,None,,7,F,5,r,CIB,2021_Oct_19_1506,WASABI Nback,2020.2.10,59.97839577095102,
0,1,4,"[-0.2, 0]",None,0,1,1,1,,,,,0,0,0,0,0,81,81,81,,,,,,,,,,,None,None,0,575.5700283999904,None,575.5700283999904,576.5700203999877,576.5533754999633,577.553376899974,0,1,575.5700283999904,None,,7,F,5,r,CIB,2021_Oct_19_1506,WASABI Nback,2020.2.10,59.97839577095102,
0,1,7,"[-0.2, -0.2]",None,0,1,1,1,,,,,0,0,0,0,0,82,82,82,,,,,,,,,,,None,None,0,577.5700242999592,None,577.5700242999592,578.5700498999795,578.5533753999625,579.5533966999501,0,1,577.5700242999592,None,,7,F,5,r,CIB,2021_Oct_19_1506,WASABI Nback,2020.2.10,59.97839577095102,
0,1,4,"[-0.2, 0]",1,0,1,1,1,,,,,0,0,0,0,0,83,83,83,,,,,,,,,,,None,None,0,579.5700464999536,None,579.5700464999536,580.57007289998,580.5533958000015,581.5534154999768,0,1,579.5700464999536,None,,7,F,5,r,CIB,2021_Oct_19_1506,WASABI Nback,2020.2.10,59.97839577095102,
0,1,4,"[-0.2, 0]",None,0,1,1,1,,,,,0,0,0,0,0,84,84,84,,,,,,,,,,,None,None,0,581.5700844999519,None,581.5700844999519,582.5700783999637,582.5534088999848,583.553412099951,0,1,581.5700844999519,None,,7,F,5,r,CIB,2021_Oct_19_1506,WASABI Nback,2020.2.10,59.97839577095102,
0,1,5,"[0, 0]",None,0,1,1,1,,,,,0,0,0,0,0,85,85,85,,,,,,,,,,,None,None,0,583.5700747999945,None,583.5700747999945,584.5700820999919,584.5534265000024,585.553434100002,0,1,583.5700747999945,None,,7,F,5,r,CIB,2021_Oct_19_1506,WASABI Nback,2020.2.10,59.97839577095102,
0,1,2,"[0, 0.2]",None,0,1,1,1,,,,,0,0,0,0,0,86,86,86,,,,,,,,,,,None,None,0,585.5700912000029,None,585.5700912000029,586.5701112999814,586.5534568000003,587.5534504999523,0,1,585.5700912000029,None,,7,F,5,r,CIB,2021_Oct_19_1506,WASABI Nback,2020.2.10,59.97839577095102,
0,1,6,"[0.2, 0]",None,0,1,1,1,,,,,0,0,0,0,0,87,87,87,,,,,,,,,,,None,None,0,587.5701051999931,None,587.5701051999931,588.5701402999694,588.5534714999958,589.5534809999517,0,1,587.5701051999931,None,,7,F,5,r,CIB,2021_Oct_19_1506,WASABI Nback,2020.2.10,59.97839577095102,
0,1,7,"[-0.2, -0.2]",None,0,1,1,1,,,,,0,0,0,0,0,88,88,88,,,,,,,,,,,None,None,0,589.5701435999945,None,589.5701435999945,590.5701439999975,590.5534778999863,591.5534839999746,0,1,589.5701435999945,None,,7,F,5,r,CIB,2021_Oct_19_1506,WASABI Nback,2020.2.10,59.97839577095102,
0,1,6,"[0.2, 0]",1,0,1,1,1,,,,,0,0,0,0,0,89,89,89,,,,,,,,,,,None,None,0,591.5701398999663,None,591.5701398999663,592.5701719999779,592.5534966999548,593.5535120999557,0,1,591.5701398999663,None,,7,F,5,r,CIB,2021_Oct_19_1506,WASABI Nback,2020.2.10,59.97839577095102,
0,1,6,"[0.2, 0]",None,0,1,1,1,,,,,0,0,0,0,0,90,90,90,,,,,,,,,,,None,None,0,593.570156599977,None,593.570156599977,594.570164499979,594.5535223999759,595.5535251999972,0,1,593.570156599977,None,,7,F,5,r,CIB,2021_Oct_19_1506,WASABI Nback,2020.2.10,59.97839577095102,
0,1,7,"[-0.2, -0.2]",None,0,1,1,1,,,,,0,0,0,0,0,91,91,91,,,,,,,,,,,None,None,0,595.5702019999735,None,595.5702019999735,596.5702005999628,596.553540199995,597.5535409000004,0,1,595.5702019999735,None,,7,F,5,r,CIB,2021_Oct_19_1506,WASABI Nback,2020.2.10,59.97839577095102,
0,1,6,"[0.2, 0]",1,0,1,1,1,,,,,0,0,0,0,0,92,92,92,,,,,,,,,,,None,None,0,597.5701081999578,None,597.5701081999578,598.5702076999587,598.5535415999475,599.5535485,0,1,597.5701081999578,None,,7,F,5,r,CIB,2021_Oct_19_1506,WASABI Nback,2020.2.10,59.97839577095102,
0,1,2,"[0, 0.2]",None,0,1,1,1,,,,,0,0,0,0,0,93,93,93,,,,,,,,,,,None,None,0,599.5701083999593,None,599.5701083999593,600.5702102999785,600.5535719999461,601.5535711999983,0,1,599.5701083999593,None,,7,F,5,r,CIB,2021_Oct_19_1506,WASABI Nback,2020.2.10,59.97839577095102,
0,1,5,"[0, 0]",None,0,1,1,1,,,,,0,0,0,0,0,94,94,94,,,,,,,,,,,None,None,0,601.5702465999639,None,601.5702465999639,602.5702467999654,602.5535720999469,603.5535992999794,0,1,601.5702465999639,None,,7,F,5,r,CIB,2021_Oct_19_1506,WASABI Nback,2020.2.10,59.97839577095102,
0,1,4,"[-0.2, 0]",None,0,1,1,1,,,,,0,0,0,0,0,95,95,95,,,,,,,,,,,None,None,0,603.570245699957,None,603.570245699957,604.5702458999585,604.5535913999774,605.5536134999711,0,1,603.570245699957,None,,7,F,5,r,CIB,2021_Oct_19_1506,WASABI Nback,2020.2.10,59.97839577095102,
0,1,4,"[-0.2, 0]",None,0,1,1,1,,,,,0,0,0,0,0,96,96,96,,,,,,,,,,,None,None,0,605.5702550999704,None,605.5702550999704,606.5702673999476,606.5536170999985,607.5536152999848,0,1,605.5702550999704,None,,7,F,5,r,CIB,2021_Oct_19_1506,WASABI Nback,2020.2.10,59.97839577095102,
0,1,7,"[-0.2, -0.2]",None,0,1,1,1,,,,,0,0,0,0,0,97,97,97,,,,,,,,,,,None,None,0,607.5702911999542,None,607.5702911999542,608.5702762999572,608.55362099997,609.5536394999945,0,1,607.5702911999542,None,,7,F,5,r,CIB,2021_Oct_19_1506,WASABI Nback,2020.2.10,59.97839577095102,
0,1,4,"[-0.2, 0]",1,0,1,1,1,,,,,0,0,0,0,0,98,98,98,,,,,,,,,,,None,None,0,609.5702962999931,None,609.5702962999931,610.5703044999973,610.5536378999823,611.5536398999975,0,1,609.5702962999931,None,,7,F,5,r,CIB,2021_Oct_19_1506,WASABI Nback,2020.2.10,59.97839577095102,
0,1,3,"[0.2, 0.2]",None,0,1,1,1,,,,,0,0,0,0,0,99,99,99,,,,,,,,,,,None,None,0,611.5702874999843,None,611.5702874999843,612.5703282000031,612.5536660999642,613.553669099987,0,1,611.5702874999843,None,,7,F,5,r,CIB,2021_Oct_19_1506,WASABI Nback,2020.2.10,59.97839577095102,
0,1,5,"[0, 0]",None,0,1,1,1,,,,,0,0,0,0,0,100,100,100,,,,,,,,,,,None,None,0,613.5703170999768,None,613.5703170999768,614.5703695999691,614.5536642999505,615.5536670999718,0,1,613.5703170999768,None,,7,F,5,r,CIB,2021_Oct_19_1506,WASABI Nback,2020.2.10,59.97839577095102,
0,1,3,"[0.2, 0.2]",1,0,1,1,1,,,,,0,0,0,0,0,101,101,101,,,,,,,,,,,None,None,0,615.5703746999498,None,615.5703746999498,616.5703412999865,616.5536836999818,617.5536801999551,0,1,615.5703746999498,None,,7,F,5,r,CIB,2021_Oct_19_1506,WASABI Nback,2020.2.10,59.97839577095102,
0,1,1,"[-0.2, 0.2]",None,0,1,1,1,,,,,0,0,0,0,0,102,102,102,,,,,,,,,,,None,None,0,617.570347699977,None,617.570347699977,618.5703665999463,618.5537081999937,619.553704299964,0,1,617.570347699977,None,,7,F,5,r,CIB,2021_Oct_19_1506,WASABI Nback,2020.2.10,59.97839577095102,
0,1,9,"[0.2, -0.2]",None,0,1,1,1,,,,,0,0,0,0,0,103,103,103,,,,,,,,,,,None,None,0,619.5703898999491,None,619.5703898999491,620.5703971000039,620.5537192999618,621.553716800001,0,1,619.5703898999491,None,,7,F,5,r,CIB,2021_Oct_19_1506,WASABI Nback,2020.2.10,59.97839577095102,
0,1,9,"[0.2, -0.2]",None,0,1,1,1,,,,,0,0,0,0,0,104,104,104,,,,,,,,,,,None,None,0,621.5704228999675,None,621.5704228999675,622.570391199959,622.5537453999859,623.5537390999962,0,1,621.5704228999675,None,,7,F,5,r,CIB,2021_Oct_19_1506,WASABI Nback,2020.2.10,59.97839577095102,
0,1,8,"[0, -0.2]",None,0,1,1,1,,,,,0,0,0,0,0,105,105,105,,,,,,,,,,,None,None,0,623.5704209999531,None,623.5704209999531,624.5704144999618,624.5537570999586,625.5537476000027,0,1,623.5704209999531,None,,7,F,5,r,CIB,2021_Oct_19_1506,WASABI Nback,2020.2.10,59.97839577095102,
0,1,6,"[0.2, 0]",None,0,1,1,1,,,,,0,0,0,0,0,106,106,106,,,,,,,,,,,None,None,0,625.570433099987,None,625.570433099987,626.5704489999916,626.5537609999883,627.5537707999465,0,1,625.570433099987,None,,7,F,5,r,CIB,2021_Oct_19_1506,WASABI Nback,2020.2.10,59.97839577095102,
0,1,3,"[0.2, 0.2]",None,0,1,1,1,,,,,0,0,0,0,0,107,107,107,,,,,,,,,,,None,None,0,627.5704425000004,None,627.5704425000004,628.570458299946,628.5537845999934,629.5537855000002,0,1,627.5704425000004,None,,7,F,5,r,CIB,2021_Oct_19_1506,WASABI Nback,2020.2.10,59.97839577095102,
0,1,6,"[0.2, 0]",1,0,1,1,1,,,,,0,0,0,0,0,108,108,108,,,,,,,,,,,None,None,0,629.5703679999569,None,629.5703679999569,630.5704799999949,630.5538064999855,631.5538104999578,0,0,629.5703679999569,None,,7,F,5,r,CIB,2021_Oct_19_1506,WASABI Nback,2020.2.10,59.97839577095102,
0,1,5,"[0, 0]",None,0,1,1,1,,,,,0,0,0,0,0,109,109,109,,,,,,,,,,,None,None,0,631.5704922999721,None,631.5704922999721,632.570501899987,632.5538097999524,633.5538216999848,0,1,631.5704922999721,None,,7,F,5,r,CIB,2021_Oct_19_1506,WASABI Nback,2020.2.10,59.97839577095102,
0,1,7,"[-0.2, -0.2]",None,0,1,1,1,,,,,0,0,0,0,0,110,110,110,,,,,,,,,,,None,None,0,633.570499399968,None,633.570499399968,634.5705109999981,634.553837399988,635.5538367999834,0,1,633.570499399968,None,,7,F,5,r,CIB,2021_Oct_19_1506,WASABI Nback,2020.2.10,59.97839577095102,
0,1,5,"[0, 0]",1,0,1,1,1,,,,,0,0,0,0,0,111,111,111,,,,,,,,,,,None,None,0,635.570508499979,None,635.570508499979,636.5705179999932,636.5538651999668,637.5538593999809,0,1,635.570508499979,None,,7,F,5,r,CIB,2021_Oct_19_1506,WASABI Nback,2020.2.10,59.97839577095102,
0,1,1,"[-0.2, 0.2]",None,0,1,1,1,,,,,0,0,0,0,0,112,112,112,,,,,,,,,,,None,None,0,637.5705438999576,None,637.5705438999576,638.5705330999917,638.5538573999656,639.5538736999733,0,1,637.5705438999576,None,,7,F,5,r,CIB,2021_Oct_19_1506,WASABI Nback,2020.2.10,59.97839577095102,
0,1,7,"[-0.2, -0.2]",None,0,1,1,1,,,,,0,0,0,0,0,113,113,113,,,,,,,,,,,None,None,0,639.5705339999986,None,639.5705339999986,640.5705484999926,640.553883399989,641.5538872999605,0,1,639.5705339999986,None,,7,F,5,r,CIB,2021_Oct_19_1506,WASABI Nback,2020.2.10,59.97839577095102,
0,1,9,"[0.2, -0.2]",None,0,1,1,1,,,,,0,0,0,0,0,114,114,114,,,,,,,,,,,None,None,0,641.5705622999812,None,641.5705622999812,642.5705813999521,642.5539038999705,643.553906199988,0,1,641.5705622999812,None,,7,F,5,r,CIB,2021_Oct_19_1506,WASABI Nback,2020.2.10,59.97839577095102,
0,1,3,"[0.2, 0.2]",None,0,1,1,1,,,,,0,0,0,0,0,115,115,115,,,,,,,,,,,None,None,0,643.570593899989,None,643.570593899989,644.5705915999715,644.5539145999937,645.5539271999733,0,1,643.570593899989,None,,7,F,5,r,CIB,2021_Oct_19_1506,WASABI Nback,2020.2.10,59.97839577095102,
0,1,9,"[0.2, -0.2]",1,0,1,1,1,,,,,0,0,0,0,0,116,116,116,,,,,,,,,,,None,None,0,645.5706030000001,None,645.5706030000001,646.5706186000025,646.5539233000018,647.5539369999897,0,1,645.5706030000001,None,,7,F,5,r,CIB,2021_Oct_19_1506,WASABI Nback,2020.2.10,59.97839577095102,
0,1,6,"[0.2, 0]",None,0,1,1,1,,,,,0,0,0,0,0,117,117,117,,,,,,,,,,,None,None,0,647.5706036999472,None,647.5706036999472,648.5706315999851,648.5539335999638,649.5539633999579,0,1,647.5706036999472,None,,7,F,5,r,CIB,2021_Oct_19_1506,WASABI Nback,2020.2.10,59.97839577095102,
0,1,2,"[0, 0.2]",None,0,1,1,1,,,,,0,0,0,0,0,118,118,118,,,,,,,,,,,None,None,0,649.5706485999981,None,649.5706485999981,650.5706464999821,650.5539495999692,651.5539589999826,0,1,649.5706485999981,None,,7,F,5,r,CIB,2021_Oct_19_1506,WASABI Nback,2020.2.10,59.97839577095102,
0,1,5,"[0, 0]",None,0,1,1,1,,,,,0,0,0,0,0,119,119,119,,,,,,,,,,,None,None,0,651.5706530999742,None,651.5706530999742,652.5706458999775,652.5539798999671,653.5539784999564,0,1,651.5706530999742,None,,7,F,5,r,CIB,2021_Oct_19_1506,WASABI Nback,2020.2.10,59.97839577095102,
