	order	onset	duration	rt	correct
0	1	414.7687141999486	0.7956693301675841		1
1	1	415.56872919999296	1.9926397100207396		1
2	1	417.56874499999685	1.9942982100183144		1
3	1	419.5687499999767	1.9942691099713556		1
4	1	421.56879079999635	1.994214509963058		1
5	1	423.56877989997156	1.9942349100019783	1.0336087999748997	1
6	1	425.5687600999954	1.9942624099785462		1
7	1	427.5688121999847	1.9942971100099385		1
8	1	429.5688534999499	1.994332310045138		1
9	1	431.56885059998604	1.9942731100600213		1
10	1	433.5688602000009	1.9943315099808387	0.5673110000207089	1
11	1	435.56888989999425	1.9939052099944092		1
12	1	437.5689021999715	1.9940655099926516		1
13	1	439.5689706999692	1.9941668100073002	0.5835382000077516	1
14	1	441.5689362999983	1.994155709980987		1
15	1	443.568968699954	1.9942555100424215		1
16	1	445.56896179995965	1.9942971100099385		1
17	1	447.56898479996016	1.9942471100366674		1
18	1	449.5689861999708	1.9942928100354038		1
19	1	451.5690069999546	1.9942810100037605		1
20	1	453.56903119996423	1.9943230099743232	0.6336491999682039	1
21	1	455.56905959994765	1.9940557099762373		1
22	1	457.5690762999584	1.9943034099997021		1
23	1	459.5690720999846	1.9942141099600121	0.8335955000366084	1
24	1	461.56909740000265	1.9939621100202203		1
25	1	463.56910699995933	1.99407421000069		1
26	1	465.56912869994994	1.9939969099941663		1
27	1	467.56913129996974	1.9934623099979945		1
28	1	469.5691729999962	1.9942916100262664		1
29	1	471.56917219999013	1.9942951099947095	0.75026360002812	1
30	1	473.5691807999974	1.9941368099534884		1
31	1	475.56922779994784	1.9931175100500695		1
32	1	477.56922619999386	1.9941687100217678	1.0835606000036933	1
33	1	479.5692374999635	1.993462409998756		1
34	1	481.56927149998955	1.993621509987861		1
35	1	483.56927149998955	1.9941406100406311		1
36	1	485.5692416999955	1.9939281100523658		1
37	1	487.56932039995445	1.9937755099963397		1
38	1	489.5693420000025	1.994397710019257		0
39	1	491.5693518999615	1.994075310009066		1
40	1	493.5693546999828	1.9941426099976525		1
41	1	495.5693723000004	1.9939925100188702	1.7335737000103109	1
42	1	497.5693761999719	1.9938732100417838		1
43	1	499.56940019998	1.9941638099844567		1
44	1	501.56930539995665	1.993545709992759		1
45	1	503.56945680000354	1.9940772100235336		1
46	1	505.5694749999675	1.9939826100016944		1
47	1	507.56947180000134	1.9943044100655243		1
48	1	509.56948079995345	1.9938806099817157	0.5169499000185169	1
49	1	511.5695184999495	1.9943166099837981		1
50	1	513.5695180000039	1.9939152100123465		1
51	1	515.5695507999626	1.9941556099802256	0.9169126999913715	1
52	1	517.569569299987	1.9940046099945903		1
53	1	519.5695842999849	1.9940279100555927		1
54	1	521.5695136999711	1.9935767099959776		1
55	1	523.5696101999492	1.9941382100223564		1
56	1	525.5696055999724	1.9931529099703766	0.5502168000093661	1
57	1	527.5696243999992	1.9941898100078106		1
58	1	529.5696487999521	1.9941260099876672		1
59	1	531.5696742999717	1.9943962100078352		1
60	1	533.5696778999991	1.9942423100001179		1
61	1	535.5696961999638	1.994096009992063		1
62	1	537.5697109999601	1.9942484099883586		1
63	1	539.5697207999765	1.9942844100296497		1
64	1	541.5697298999876	1.994251309952233		1
65	1	543.569773199968	1.9941461100243032	0.5670378999784589	1
66	1	545.5697668999783	1.994079110038001		1
67	1	547.5697937999503	1.9941444100113586		1
68	1	549.5698223999934	1.9943710100487806		1
69	1	551.5698319999501	1.994226709997747		1
70	1	553.5698281999794	1.994338609976694	0.5336172999814153	1
71	1	555.5698503999738	1.9938132099923678		1
72	1	557.5698822999839	1.9940248100319877		1
73	1	559.569908299949	1.9942555100424215	0.7169095000135712	1
74	1	561.5699247999582	1.9942460099700838		1
75	1	563.5699239999522	1.9943075099727139		1
76	1	565.5699513999862	1.9940474100294523		1
77	1	567.5698997	1.994230409967713		1
78	1	569.5699786999612	1.9933409100049175		1
79	1	571.5699757999973	1.9941962099983357		1
80	1	573.5699883999769	1.9941842099651694	0.6168839999591	1
81	1	575.5700283999904	1.9939973099972121		1
82	1	577.5700242999592	1.9942538099712692		1
83	1	579.5700464999536	1.9942745099542663	1.3169115000055172	1
84	1	581.5700844999519	1.9939675100031309		1
85	1	583.5700747999945	1.9939898099401034		1
86	1	585.5700912000029	1.993883110000752		1
87	1	587.5701051999931	1.9942296100198291		1
88	1	589.5701435999945	1.9942008099751547		1
89	1	591.5701398999663	1.9942676100181416	0.7002618999686092	1
90	1	593.570156599977	1.9941726099932566		1
91	1	595.5702019999735	1.9938163100159727		1
92	1	597.5701081999578	1.994301210041158	0.800343899987638	1
93	1	599.5701083999593	1.9941926100291312		1
94	1	601.5702465999639	1.9942891100654379		1
95	1	603.570245699957	1.994179810048081		1
96	1	605.5702550999704	1.9940405099769123		1
97	1	607.5702911999542	1.9943668100167997		1
98	1	609.5702962999931	1.9943922100355849	1.0836100000306033	1
99	1	611.5702874999843	1.9940098100341856		1
100	1	613.5703170999768	1.994284910033457		1
101	1	615.5703746999498	1.9940684100147337	1.066877699980978	1
102	1	617.570347699977	1.9942089099786244		1
103	1	619.5703898999491	1.994146510027349		1
104	1	621.5704228999675	1.994216810038779		1
105	1	623.5704209999531	1.9940900100627914		1
106	1	625.570433099987	1.9940258100396022		1
107	1	627.5704425000004	1.9937078100047074		1
108	1	629.5703679999569	1.9941048100590706		0
109	1	631.5704922999721	1.99432831001468		1
110	1	633.570499399968	1.9942676100181416		1
111	1	635.570508499979	1.9938667100504972	0.5169169000000693	1
112	1	637.5705438999576	1.9937768100062385		1
113	1	639.5705339999986	1.9942380099673755		1
114	1	641.5705622999812	1.9942386099719442		1
115	1	643.570593899989	1.994315909978468		1
116	1	645.5706030000001	1.994050809997134	0.6169024999835528	1
117	1	647.5706036999472	1.9935342100216076		1
118	1	649.5706485999981	1.9942607099656016		1
119	1	651.5706530999742	1.9944295100285672		1
