RestT1,TaskT1,square,location,corrAns,counterbalancer.thisRepN,counterbalancer.thisTrialN,counterbalancer.thisN,counterbalancer.thisIndex,RestT1Loop.thisRepN,RestT1Loop.thisTrialN,RestT1Loop.thisN,RestT1Loop.thisIndex,TaskT1Loop.thisRepN,TaskT1Loop.thisTrialN,TaskT1Loop.thisN,TaskT1Loop.thisIndex,trials_2.thisRepN,trials_2.thisTrialN,trials_2.thisN,trials_2.thisIndex,NbackInstructions.started,NbackInstructions.stopped,NbackStart.keys,NbackStart.rt,NbackStart.started,NbackStart.stopped,fixation_2.started,fixation_2.stopped,response_2.x,response_2.y,response_2.leftButton,grid_lines_2.started,grid_lines_2.stopped,target_square_2.started,target_square_2.stopped,fixation_3.started,fixation_3.stopped,response_2.click,response_2.corr,response_2.started,response_2.stopped,response_2.rt,fixation_1.started,fixation_1.stopped,subject number,gender,session,handedness,scanner,date,expName,psychopyVersion,frameRate,
0,1,,,,0,0,0,0,,,,,0,0,0,0,,,,,16.753938799985917,None,space,21.58712189999642,16.753938799985917,None,,,,,,,,,,,,,,,,,,,6,m,10,r,mck,2021_Dec_17_1149,WASABI Nback,2020.2.10,59.983900320766296,
0,1,5,"[0, 0]",None,0,0,0,0,,,,,0,0,0,0,0,0,0,0,,,,,,,None,None,None,None,[],None,None,None,None,None,None,[],[],None,None,,,,6,m,10,r,mck,2021_Dec_17_1149,WASABI Nback,2020.2.10,59.983900320766296,
0,1,2,"[0, 0.2]",None,0,0,0,0,,,,,0,0,0,0,0,1,1,1,,,,,,,,,None,None,[],None,None,None,None,None,None,[],[],None,None,,,,6,m,10,r,mck,2021_Dec_17_1149,WASABI Nback,2020.2.10,59.983900320766296,
0,1,6,"[0.2, 0]",None,0,0,0,0,,,,,0,0,0,0,0,2,2,2,,,,,,,,,None,None,[],None,None,None,None,None,None,[],[],None,None,,,,6,m,10,r,mck,2021_Dec_17_1149,WASABI Nback,2020.2.10,59.983900320766296,
0,1,9,"[0.2, -0.2]",None,0,0,0,0,,,,,0,0,0,0,0,3,3,3,,,,,,,,,None,None,[],None,None,None,None,None,None,[],[],None,None,,,,6,m,10,r,mck,2021_Dec_17_1149,WASABI Nback,2020.2.10,59.983900320766296,
0,1,3,"[0.2, 0.2]",None,0,0,0,0,,,,,0,0,0,0,0,4,4,4,,,,,,,,,None,None,0,47.377642199979164,None,47.377642199979164,48.37777149997419,48.37777149997419,None,0,1,47.377642199979164,None,,,,6,m,10,r,mck,2021_Dec_17_1149,WASABI Nback,2020.2.10,59.983900320766296,
0,1,9,"[0.2, -0.2]",1,0,0,0,0,,,,,0,0,0,0,0,5,5,5,,,,,,,,,None,None,0,49.37778949999483,None,49.37778949999483,50.37779020000016,50.36111979998532,51.36111429997254,0,0,49.37778949999483,None,,,,6,m,10,r,mck,2021_Dec_17_1149,WASABI Nback,2020.2.10,59.983900320766296,
0,1,7,"[-0.2, -0.2]",None,0,0,0,0,,,,,0,0,0,0,0,6,6,6,,,,,,,,,None,None,0,51.37779289999162,None,51.37779289999162,52.37779959998443,52.36114169997745,53.36113389997627,0,1,51.37779289999162,None,,,,6,m,10,r,mck,2021_Dec_17_1149,WASABI Nback,2020.2.10,59.983900320766296,
0,1,1,"[-0.2, 0.2]",None,0,0,0,0,,,,,0,0,0,0,0,7,7,7,,,,,,,,,None,None,0,53.377798799978336,None,53.377798799978336,54.377806199976476,54.361139599990565,55.361157499981346,0,1,53.377798799978336,None,,,,6,m,10,r,mck,2021_Dec_17_1149,WASABI Nback,2020.2.10,59.983900320766296,
0,1,5,"[0, 0]",None,0,0,0,0,,,,,0,0,0,0,0,8,8,8,,,,,,,,,None,None,0,55.377829899982316,None,55.377829899982316,56.37782419999712,56.361167199997,57.361181799991755,0,1,55.377829899982316,None,,,,6,m,10,r,mck,2021_Dec_17_1149,WASABI Nback,2020.2.10,59.983900320766296,
0,1,7,"[-0.2, -0.2]",None,0,0,0,0,,,,,0,0,0,0,0,9,9,9,,,,,,,,,None,None,0,57.3778420999879,None,57.3778420999879,58.37785759998951,58.361185499990825,59.36119349999353,0,1,57.3778420999879,None,,,,6,m,10,r,mck,2021_Dec_17_1149,WASABI Nback,2020.2.10,59.983900320766296,
0,1,5,"[0, 0]",1,0,0,0,0,,,,,0,0,0,0,0,10,10,10,,,,,,,,,None,None,0,59.37786379997851,None,59.37786379997851,60.37787319999188,60.3611953999789,61.36120149999624,0,1,59.37786379997851,None,,,,6,m,10,r,mck,2021_Dec_17_1149,WASABI Nback,2020.2.10,59.983900320766296,
0,1,6,"[0.2, 0]",None,0,0,0,0,,,,,0,0,0,0,0,11,11,11,,,,,,,,,None,None,0,61.37788549999823,None,61.37788549999823,62.377889899973525,62.36122379999142,63.36122069999692,0,1,61.37788549999823,None,,,,6,m,10,r,mck,2021_Dec_17_1149,WASABI Nback,2020.2.10,59.983900320766296,
0,1,3,"[0.2, 0.2]",None,0,0,0,0,,,,,0,0,0,0,0,12,12,12,,,,,,,,,None,None,0,63.377888299990445,None,63.377888299990445,64.37790349998977,64.36122609997983,65.36123359997873,0,1,63.377888299990445,None,,,,6,m,10,r,mck,2021_Dec_17_1149,WASABI Nback,2020.2.10,59.983900320766296,
0,1,6,"[0.2, 0]",1,0,0,0,0,,,,,0,0,0,0,0,13,13,13,,,,,,,,,None,None,0,65.37791329997708,None,65.37791329997708,66.37791219999781,66.36125249997713,67.36126899998635,0,1,65.37791329997708,None,,,,6,m,10,r,mck,2021_Dec_17_1149,WASABI Nback,2020.2.10,59.983900320766296,
0,1,8,"[0, -0.2]",None,0,0,0,0,,,,,0,0,0,0,0,14,14,14,,,,,,,,,None,None,0,67.37791059998563,None,67.37791059998563,68.37792259998969,68.36127419999684,69.36127649998525,0,1,67.37791059998563,None,,,,6,m,10,r,mck,2021_Dec_17_1149,WASABI Nback,2020.2.10,59.983900320766296,
0,1,9,"[0.2, -0.2]",None,0,0,0,0,,,,,0,0,0,0,0,15,15,15,,,,,,,,,None,None,0,69.3779398999759,None,69.3779398999759,70.37793149999925,70.36127959997975,71.36129639999126,0,1,69.3779398999759,None,,,,6,m,10,r,mck,2021_Dec_17_1149,WASABI Nback,2020.2.10,59.983900320766296,
0,1,9,"[0.2, -0.2]",None,0,0,0,0,,,,,0,0,0,0,0,16,16,16,,,,,,,,,None,None,0,71.37796279997565,None,71.37796279997565,72.37796829998842,72.361305599974,73.36130269998102,0,1,71.37796279997565,None,,,,6,m,10,r,mck,2021_Dec_17_1149,WASABI Nback,2020.2.10,59.983900320766296,
0,1,1,"[-0.2, 0.2]",None,0,0,0,0,,,,,0,0,0,0,0,17,17,17,,,,,,,,,None,None,0,73.37797279999359,None,73.37797279999359,74.37788639997598,74.36131619999651,75.36132769999676,0,1,73.37797279999359,None,,,,6,m,10,r,mck,2021_Dec_17_1149,WASABI Nback,2020.2.10,59.983900320766296,
0,1,3,"[0.2, 0.2]",None,0,0,0,0,,,,,0,0,0,0,0,18,18,18,,,,,,,,,None,None,0,75.3779813000001,None,75.3779813000001,76.37799029998132,76.36133279997739,77.36133499999414,0,1,75.3779813000001,None,,,,6,m,10,r,mck,2021_Dec_17_1149,WASABI Nback,2020.2.10,59.983900320766296,
0,1,5,"[0, 0]",None,0,0,0,0,,,,,0,0,0,0,0,19,19,19,,,,,,,,,None,None,0,77.37800709999283,None,77.37800709999283,78.37799529999029,78.36134709999897,79.36135799999465,0,1,77.37800709999283,None,,,,6,m,10,r,mck,2021_Dec_17_1149,WASABI Nback,2020.2.10,59.983900320766296,
0,1,3,"[0.2, 0.2]",1,0,0,0,0,,,,,0,0,0,0,0,20,20,20,,,,,,,,,None,None,0,79.37802349997219,None,79.37802349997219,80.37802879998344,80.36135729998932,81.3613728999917,0,1,79.37802349997219,None,,,,6,m,10,r,mck,2021_Dec_17_1149,WASABI Nback,2020.2.10,59.983900320766296,
0,1,4,"[-0.2, 0]",None,0,0,0,0,,,,,0,0,0,0,0,21,21,21,,,,,,,,,None,None,0,81.37804949999554,None,81.37804949999554,82.37803249998251,82.36137939998298,83.361384799995,0,1,81.37804949999554,None,,,,6,m,10,r,mck,2021_Dec_17_1149,WASABI Nback,2020.2.10,59.983900320766296,
0,1,7,"[-0.2, -0.2]",None,0,0,0,0,,,,,0,0,0,0,0,22,22,22,,,,,,,,,None,None,0,83.37804479998886,None,83.37804479998886,84.37804869998945,84.36139789997833,85.36140549997799,0,1,83.37804479998886,None,,,,6,m,10,r,mck,2021_Dec_17_1149,WASABI Nback,2020.2.10,59.983900320766296,
0,1,4,"[-0.2, 0]",1,0,0,0,0,,,,,0,0,0,0,0,23,23,23,,,,,,,,,None,None,0,85.37807359997532,None,85.37807359997532,86.37805989998742,86.36140799999703,87.36142319999635,0,1,85.37807359997532,None,,,,6,m,10,r,mck,2021_Dec_17_1149,WASABI Nback,2020.2.10,59.983900320766296,
0,1,4,"[-0.2, 0]",None,0,0,0,0,,,,,0,0,0,0,0,24,24,24,,,,,,,,,None,None,0,87.37808719999157,None,87.37808719999157,88.37809139999445,88.36143099999754,89.36143879999872,0,1,87.37808719999157,None,,,,6,m,10,r,mck,2021_Dec_17_1149,WASABI Nback,2020.2.10,59.983900320766296,
0,1,5,"[0, 0]",None,0,0,0,0,,,,,0,0,0,0,0,25,25,25,,,,,,,,,None,None,0,89.37810189998709,None,89.37810189998709,90.37809579999885,90.3614460999961,91.36145439997199,0,1,89.37810189998709,None,,,,6,m,10,r,mck,2021_Dec_17_1149,WASABI Nback,2020.2.10,59.983900320766296,
0,1,2,"[0, 0.2]",None,0,0,0,0,,,,,0,0,0,0,0,26,26,26,,,,,,,,,None,None,0,91.3781173999887,None,91.3781173999887,92.37810809997609,92.36146139999619,93.3614628999785,0,1,91.3781173999887,None,,,,6,m,10,r,mck,2021_Dec_17_1149,WASABI Nback,2020.2.10,59.983900320766296,
0,1,6,"[0.2, 0]",None,0,0,0,0,,,,,0,0,0,0,0,27,27,27,,,,,,,,,None,None,0,93.37813389999792,None,93.37813389999792,94.37807509998675,94.36147079998045,95.3614936999802,0,1,93.37813389999792,None,,,,6,m,10,r,mck,2021_Dec_17_1149,WASABI Nback,2020.2.10,59.983900320766296,
0,1,7,"[-0.2, -0.2]",None,0,0,0,0,,,,,0,0,0,0,0,28,28,28,,,,,,,,,None,None,0,95.3781315999804,None,95.3781315999804,96.37814979997347,96.36149869998917,97.3615006999753,0,1,95.3781315999804,None,,,,6,m,10,r,mck,2021_Dec_17_1149,WASABI Nback,2020.2.10,59.983900320766296,
0,1,6,"[0.2, 0]",1,0,0,0,0,,,,,0,0,0,0,0,29,29,29,,,,,,,,,None,None,0,97.3780702999793,None,97.3780702999793,98.37817669997457,98.36150659999112,99.3613839999889,0,1,97.3780702999793,None,,,,6,m,10,r,mck,2021_Dec_17_1149,WASABI Nback,2020.2.10,59.983900320766296,
0,1,6,"[0.2, 0]",None,0,0,0,0,,,,,0,0,0,0,0,30,30,30,,,,,,,,,None,None,0,99.37818559998414,None,99.37818559998414,100.37817809998523,100.36152249999577,101.36153239998384,0,1,99.37818559998414,None,,,,6,m,10,r,mck,2021_Dec_17_1149,WASABI Nback,2020.2.10,59.983900320766296,
0,1,7,"[-0.2, -0.2]",None,0,0,0,0,,,,,0,0,0,0,0,31,31,31,,,,,,,,,None,None,0,101.37818039997364,None,101.37818039997364,102.37819109999691,102.36154299997725,103.3615500999731,0,0,101.37818039997364,None,,,,6,m,10,r,mck,2021_Dec_17_1149,WASABI Nback,2020.2.10,59.983900320766296,
0,1,6,"[0.2, 0]",1,0,0,0,0,,,,,0,0,0,0,0,32,32,32,,,,,,,,,None,None,1,103.37819789999048,None,103.37819789999048,104.37822769998456,104.36154990000068,105.36181689999648,1,1,103.37819789999048,None,1.950228200003039,,,6,m,10,r,mck,2021_Dec_17_1149,WASABI Nback,2020.2.10,59.983900320766296,
0,1,2,"[0, 0.2]",None,0,0,0,0,,,,,0,0,0,0,0,33,33,33,,,,,,,,,None,None,0,105.37823559998651,None,105.37823559998651,106.37822819998837,106.36155750000034,107.3615733999759,0,1,105.37823559998651,None,,,,6,m,10,r,mck,2021_Dec_17_1149,WASABI Nback,2020.2.10,59.983900320766296,
0,1,5,"[0, 0]",None,0,0,0,0,,,,,0,0,0,0,0,34,34,34,,,,,,,,,None,None,0,107.3782376999734,None,107.3782376999734,108.37825329997577,108.36157919999096,109.36157189999358,0,1,107.3782376999734,None,,,,6,m,10,r,mck,2021_Dec_17_1149,WASABI Nback,2020.2.10,59.983900320766296,
0,1,4,"[-0.2, 0]",None,0,0,0,0,,,,,0,0,0,0,0,35,35,35,,,,,,,,,None,None,0,109.3782733999833,None,109.3782733999833,110.37827429999015,110.36160709999967,111.3616059999913,0,1,109.3782733999833,None,,,,6,m,10,r,mck,2021_Dec_17_1149,WASABI Nback,2020.2.10,59.983900320766296,
0,1,4,"[-0.2, 0]",None,0,0,0,0,,,,,0,0,0,0,0,36,36,36,,,,,,,,,None,None,0,111.37828289999743,None,111.37828289999743,112.3782883999811,112.36160219999147,113.36161179997725,0,1,111.37828289999743,None,,,,6,m,10,r,mck,2021_Dec_17_1149,WASABI Nback,2020.2.10,59.983900320766296,
0,1,7,"[-0.2, -0.2]",None,0,0,0,0,,,,,0,0,0,0,0,37,37,37,,,,,,,,,None,None,0,113.37829699998838,None,113.37829699998838,114.37831359999836,114.36161779999384,115.36163569998462,0,1,113.37829699998838,None,,,,6,m,10,r,mck,2021_Dec_17_1149,WASABI Nback,2020.2.10,59.983900320766296,
0,1,4,"[-0.2, 0]",1,0,0,0,0,,,,,0,0,0,0,0,38,38,38,,,,,,,,,None,None,0,115.37831879997975,None,115.37831879997975,116.37832599997637,116.36173179998877,117.36164029999054,0,1,115.37831879997975,None,,,,6,m,10,r,mck,2021_Dec_17_1149,WASABI Nback,2020.2.10,59.983900320766296,
0,1,3,"[0.2, 0.2]",None,0,0,0,0,,,,,0,0,0,0,0,39,39,39,,,,,,,,,None,None,0,117.37830939999549,None,117.37830939999549,118.37833099998534,118.36166759999469,119.3616905999952,0,1,117.37830939999549,None,,,,6,m,10,r,mck,2021_Dec_17_1149,WASABI Nback,2020.2.10,59.983900320766296,
0,1,5,"[0, 0]",None,0,0,0,0,,,,,0,0,0,0,0,40,40,40,,,,,,,,,None,None,0,119.37834509997629,None,119.37834509997629,120.37836929998593,120.36169459999655,121.36168319999706,0,1,119.37834509997629,None,,,,6,m,10,r,mck,2021_Dec_17_1149,WASABI Nback,2020.2.10,59.983900320766296,
0,1,3,"[0.2, 0.2]",1,0,0,0,0,,,,,0,0,0,0,0,41,41,41,,,,,,,,,None,None,0,121.37835499999346,None,121.37835499999346,122.37837279998348,122.36169510000036,123.36161369999172,0,1,121.37835499999346,None,,,,6,m,10,r,mck,2021_Dec_17_1149,WASABI Nback,2020.2.10,59.983900320766296,
0,1,1,"[-0.2, 0.2]",None,0,0,0,0,,,,,0,0,0,0,0,42,42,42,,,,,,,,,None,None,0,123.37837269998272,None,123.37837269998272,124.37839379999787,124.36171659998945,125.36170729997684,0,1,123.37837269998272,None,,,,6,m,10,r,mck,2021_Dec_17_1149,WASABI Nback,2020.2.10,59.983900320766296,
0,1,9,"[0.2, -0.2]",None,0,0,0,0,,,,,0,0,0,0,0,43,43,43,,,,,,,,,None,None,0,125.37840349998442,None,125.37840349998442,126.37839709999389,126.3617244999914,127.36173219999182,0,0,125.37840349998442,None,,,,6,m,10,r,mck,2021_Dec_17_1149,WASABI Nback,2020.2.10,59.983900320766296,
0,1,9,"[0.2, -0.2]",None,0,0,0,0,,,,,0,0,0,0,0,44,44,44,,,,,,,,,None,None,0,127.37841059998027,None,127.37841059998027,128.3784205999982,128.3617327999964,129.36174149997532,0,1,127.37841059998027,None,,,,6,m,10,r,mck,2021_Dec_17_1149,WASABI Nback,2020.2.10,59.983900320766296,
0,1,8,"[0, -0.2]",None,0,0,0,0,,,,,0,0,0,0,0,45,45,45,,,,,,,,,None,None,0,129.37842979998095,None,129.37842979998095,130.37842509997427,130.36176489997888,131.36175489999005,0,1,129.37842979998095,None,,,,6,m,10,r,mck,2021_Dec_17_1149,WASABI Nback,2020.2.10,59.983900320766296,
0,1,6,"[0.2, 0]",None,0,0,0,0,,,,,0,0,0,0,0,46,46,46,,,,,,,,,None,None,0,131.3784513999999,None,131.3784513999999,132.3784565999813,132.36176479997812,133.3617901999969,0,1,131.3784513999999,None,,,,6,m,10,r,mck,2021_Dec_17_1149,WASABI Nback,2020.2.10,59.983900320766296,
0,1,3,"[0.2, 0.2]",None,0,0,0,0,,,,,0,0,0,0,0,47,47,47,,,,,,,,,None,None,0,133.378458399995,None,133.378458399995,134.3784632999741,134.3617870999733,135.3618010999926,0,1,133.378458399995,None,,,,6,m,10,r,mck,2021_Dec_17_1149,WASABI Nback,2020.2.10,59.983900320766296,
0,1,6,"[0.2, 0]",1,0,0,0,0,,,,,0,0,0,0,0,48,48,48,,,,,,,,,None,None,0,135.3784764999873,None,135.3784764999873,136.3784909999813,136.36181129998295,137.36181189998752,0,1,135.3784764999873,None,,,,6,m,10,r,mck,2021_Dec_17_1149,WASABI Nback,2020.2.10,59.983900320766296,
0,1,5,"[0, 0]",None,0,0,0,0,,,,,0,0,0,0,0,49,49,49,,,,,,,,,None,None,0,137.3784883999906,None,137.3784883999906,138.37849579998874,138.36181409997516,139.36181769997347,0,1,137.3784883999906,None,,,,6,m,10,r,mck,2021_Dec_17_1149,WASABI Nback,2020.2.10,59.983900320766296,
0,1,7,"[-0.2, -0.2]",None,0,0,0,0,,,,,0,0,0,0,0,50,50,50,,,,,,,,,None,None,0,139.37851569999475,None,139.37851569999475,140.37850969997817,140.36184329999378,141.36184629998752,0,1,139.37851569999475,None,,,,6,m,10,r,mck,2021_Dec_17_1149,WASABI Nback,2020.2.10,59.983900320766296,
0,1,5,"[0, 0]",1,0,0,0,0,,,,,0,0,0,0,0,51,51,51,,,,,,,,,None,None,0,141.37853129999712,None,141.37853129999712,142.3785372999846,142.36185029998887,143.3618395999947,0,1,141.37853129999712,None,,,,6,m,10,r,mck,2021_Dec_17_1149,WASABI Nback,2020.2.10,59.983900320766296,
0,1,1,"[-0.2, 0.2]",None,0,0,0,0,,,,,0,0,0,0,0,52,52,52,,,,,,,,,None,None,0,143.3785292999819,None,143.3785292999819,144.37855159997707,144.36188079998828,145.36188199999742,0,1,143.3785292999819,None,,,,6,m,10,r,mck,2021_Dec_17_1149,WASABI Nback,2020.2.10,59.983900320766296,
0,1,7,"[-0.2, -0.2]",None,0,0,0,0,,,,,0,0,0,0,0,53,53,53,,,,,,,,,None,None,0,145.37853949997225,None,145.37853949997225,146.37855909997597,146.36189529998228,147.36188269997365,0,1,145.37853949997225,None,,,,6,m,10,r,mck,2021_Dec_17_1149,WASABI Nback,2020.2.10,59.983900320766296,
0,1,9,"[0.2, -0.2]",None,0,0,0,0,,,,,0,0,0,0,0,54,54,54,,,,,,,,,None,None,0,147.37858869999764,None,147.37858869999764,148.37858589997631,148.36190859999624,149.36190779999015,0,1,147.37858869999764,None,,,,6,m,10,r,mck,2021_Dec_17_1149,WASABI Nback,2020.2.10,59.983900320766296,
0,1,3,"[0.2, 0.2]",None,0,0,0,0,,,,,0,0,0,0,0,55,55,55,,,,,,,,,None,None,0,149.37858779999078,None,149.37858779999078,150.3785900999792,150.36193109999294,151.3619329999783,0,1,149.37858779999078,None,,,,6,m,10,r,mck,2021_Dec_17_1149,WASABI Nback,2020.2.10,59.983900320766296,
0,1,9,"[0.2, -0.2]",1,0,0,0,0,,,,,0,0,0,0,0,56,56,56,,,,,,,,,None,None,0,151.37859959999332,None,151.37859959999332,152.37860679998994,152.3619386999926,153.36192979998305,0,1,151.37859959999332,None,,,,6,m,10,r,mck,2021_Dec_17_1149,WASABI Nback,2020.2.10,59.983900320766296,
0,1,6,"[0.2, 0]",None,0,0,0,0,,,,,0,0,0,0,0,57,57,57,,,,,,,,,None,None,0,153.37862079998013,None,153.37862079998013,154.37860959998216,154.3619451999839,155.3619609999878,0,1,153.37862079998013,None,,,,6,m,10,r,mck,2021_Dec_17_1149,WASABI Nback,2020.2.10,59.983900320766296,
0,1,2,"[0, 0.2]",None,0,0,0,0,,,,,0,0,0,0,0,58,58,58,,,,,,,,,None,None,0,155.37863449999713,None,155.37863449999713,156.37863779999316,156.36197679999168,157.3619808999938,0,1,155.37863449999713,None,,,,6,m,10,r,mck,2021_Dec_17_1149,WASABI Nback,2020.2.10,59.983900320766296,
0,1,5,"[0, 0]",None,0,0,0,0,,,,,0,0,0,0,0,59,59,59,,,,,,,,,None,None,0,157.37863259998267,None,157.37863259998267,158.37866239997675,158.36196839998593,159.3619955999893,0,1,157.37863259998267,None,,,,6,m,10,r,mck,2021_Dec_17_1149,WASABI Nback,2020.2.10,59.983900320766296,
0,1,5,"[0, 0]",None,0,0,0,0,,,,,0,0,0,0,0,60,60,60,,,,,,,,,None,None,0,159.37864739997895,None,159.37864739997895,160.37866179997218,160.36201329997857,161.36199429997941,0,1,159.37864739997895,None,,,,6,m,10,r,mck,2021_Dec_17_1149,WASABI Nback,2020.2.10,59.983900320766296,
0,1,2,"[0, 0.2]",None,0,0,0,0,,,,,0,0,0,0,0,61,61,61,,,,,,,,,None,None,0,161.37868769999477,None,161.37868769999477,162.37869569999748,162.36200799999642,163.36202529998263,0,0,161.37868769999477,None,,,,6,m,10,r,mck,2021_Dec_17_1149,WASABI Nback,2020.2.10,59.983900320766296,
0,1,6,"[0.2, 0]",None,0,0,0,0,,,,,0,0,0,0,0,62,62,62,,,,,,,,,None,None,0,163.3787010999804,None,163.3787010999804,164.37868859997252,164.36204069998348,165.36204949999228,0,1,163.3787010999804,None,,,,6,m,10,r,mck,2021_Dec_17_1149,WASABI Nback,2020.2.10,59.983900320766296,
0,1,9,"[0.2, -0.2]",None,0,0,0,0,,,,,0,0,0,0,0,63,63,63,,,,,,,,,None,None,0,165.37870169998496,None,165.37870169998496,166.378721999994,166.36206279997714,167.3620566999889,0,1,165.37870169998496,None,,,,6,m,10,r,mck,2021_Dec_17_1149,WASABI Nback,2020.2.10,59.983900320766296,
0,1,3,"[0.2, 0.2]",None,0,0,0,0,,,,,0,0,0,0,0,64,64,64,,,,,,,,,None,None,0,167.3787336999958,None,167.3787336999958,168.37869109999156,168.36208449999685,169.36208119997173,0,1,167.3787336999958,None,,,,6,m,10,r,mck,2021_Dec_17_1149,WASABI Nback,2020.2.10,59.983900320766296,
0,1,9,"[0.2, -0.2]",1,0,0,0,0,,,,,0,0,0,0,0,65,65,65,,,,,,,,,None,None,0,169.37880859998404,None,169.37880859998404,170.37882739998167,170.362075299985,171.36209479998797,0,1,169.37880859998404,None,,,,6,m,10,r,mck,2021_Dec_17_1149,WASABI Nback,2020.2.10,59.983900320766296,
0,1,7,"[-0.2, -0.2]",None,0,0,0,0,,,,,0,0,0,0,0,66,66,66,,,,,,,,,None,None,0,171.37874979997287,None,171.37874979997287,172.37877419998404,172.36211579997325,173.36201359998086,0,1,171.37874979997287,None,,,,6,m,10,r,mck,2021_Dec_17_1149,WASABI Nback,2020.2.10,59.983900320766296,
0,1,1,"[-0.2, 0.2]",None,0,0,0,0,,,,,0,0,0,0,0,67,67,67,,,,,,,,,None,None,0,173.3787848999782,None,173.3787848999782,174.37879329998395,174.36210519997985,175.36214529999415,0,1,173.3787848999782,None,,,,6,m,10,r,mck,2021_Dec_17_1149,WASABI Nback,2020.2.10,59.983900320766296,
0,1,5,"[0, 0]",None,0,0,0,0,,,,,0,0,0,0,0,68,68,68,,,,,,,,,None,None,0,175.37880629999563,None,175.37880629999563,176.37880569999106,176.36213059999864,177.36213929997757,0,1,175.37880629999563,None,,,,6,m,10,r,mck,2021_Dec_17_1149,WASABI Nback,2020.2.10,59.983900320766296,
0,1,7,"[-0.2, -0.2]",None,0,0,0,0,,,,,0,0,0,0,0,69,69,69,,,,,,,,,None,None,0,177.37880629999563,None,177.37880629999563,178.378822699975,178.36205449997215,179.36215289999382,0,0,177.37880629999563,None,,,,6,m,10,r,mck,2021_Dec_17_1149,WASABI Nback,2020.2.10,59.983900320766296,
0,1,5,"[0, 0]",1,0,0,0,0,,,,,0,0,0,0,0,70,70,70,,,,,,,,,None,None,0,179.37881249998463,None,179.37881249998463,180.37885609999648,180.36217419998138,181.36217769997893,0,1,179.37881249998463,None,,,,6,m,10,r,mck,2021_Dec_17_1149,WASABI Nback,2020.2.10,59.983900320766296,
0,1,6,"[0.2, 0]",None,0,0,0,0,,,,,0,0,0,0,0,71,71,71,,,,,,,,,None,None,0,181.37882879999233,None,181.37882879999233,182.3788360999897,182.36217169999145,183.36219609997352,0,1,181.37882879999233,None,,,,6,m,10,r,mck,2021_Dec_17_1149,WASABI Nback,2020.2.10,59.983900320766296,
0,1,3,"[0.2, 0.2]",None,0,0,0,0,,,,,0,0,0,0,0,72,72,72,,,,,,,,,None,None,0,183.3788606999733,None,183.3788606999733,184.37887359998422,184.36220459998003,185.36219499999424,0,1,183.3788606999733,None,,,,6,m,10,r,mck,2021_Dec_17_1149,WASABI Nback,2020.2.10,59.983900320766296,
0,1,6,"[0.2, 0]",1,0,0,0,0,,,,,0,0,0,0,0,73,73,73,,,,,,,,,None,None,0,185.37887979997322,None,185.37887979997322,186.3788831999991,186.36222029998316,187.36222299997462,0,1,185.37887979997322,None,,,,6,m,10,r,mck,2021_Dec_17_1149,WASABI Nback,2020.2.10,59.983900320766296,
0,1,8,"[0, -0.2]",None,0,0,0,0,,,,,0,0,0,0,0,74,74,74,,,,,,,,,None,None,0,187.37889139997424,None,187.37889139997424,188.3788896999904,188.3622341999726,189.3622442999913,0,1,187.37889139997424,None,,,,6,m,10,r,mck,2021_Dec_17_1149,WASABI Nback,2020.2.10,59.983900320766296,
0,1,9,"[0.2, -0.2]",None,0,0,0,0,,,,,0,0,0,0,0,75,75,75,,,,,,,,,None,None,0,189.37890349997906,None,189.37890349997906,190.37892059999285,190.36222969999653,191.36226129997522,0,1,189.37890349997906,None,,,,6,m,10,r,mck,2021_Dec_17_1149,WASABI Nback,2020.2.10,59.983900320766296,
0,1,9,"[0.2, -0.2]",None,0,0,0,0,,,,,0,0,0,0,0,76,76,76,,,,,,,,,None,None,0,191.37893249999615,None,191.37893249999615,192.37891189998481,192.36227759998292,193.36226019999594,0,1,191.37893249999615,None,,,,6,m,10,r,mck,2021_Dec_17_1149,WASABI Nback,2020.2.10,59.983900320766296,
0,1,1,"[-0.2, 0.2]",None,0,0,0,0,,,,,0,0,0,0,0,77,77,77,,,,,,,,,None,None,0,193.3789276999887,None,193.3789276999887,194.37894679998863,194.36228629999096,195.3622944999952,0,1,193.3789276999887,None,,,,6,m,10,r,mck,2021_Dec_17_1149,WASABI Nback,2020.2.10,59.983900320766296,
0,1,3,"[0.2, 0.2]",None,0,0,0,0,,,,,0,0,0,0,0,78,78,78,,,,,,,,,None,None,0,195.3789429999888,None,195.3789429999888,196.37894909997704,196.36229819999426,197.362286699994,0,1,195.3789429999888,None,,,,6,m,10,r,mck,2021_Dec_17_1149,WASABI Nback,2020.2.10,59.983900320766296,
0,1,5,"[0, 0]",None,0,0,0,0,,,,,0,0,0,0,0,79,79,79,,,,,,,,,None,None,0,197.37895289997687,None,197.37895289997687,198.3789641999756,198.36231969998335,199.36232249997556,0,1,197.37895289997687,None,,,,6,m,10,r,mck,2021_Dec_17_1149,WASABI Nback,2020.2.10,59.983900320766296,
0,1,3,"[0.2, 0.2]",1,0,0,0,0,,,,,0,0,0,0,0,80,80,80,,,,,,,,,None,None,0,199.37900099999388,None,199.37900099999388,200.3789887999883,200.36232509999536,201.36234279998462,0,1,199.37900099999388,None,,,,6,m,10,r,mck,2021_Dec_17_1149,WASABI Nback,2020.2.10,59.983900320766296,
0,1,4,"[-0.2, 0]",None,0,0,0,0,,,,,0,0,0,0,0,81,81,81,,,,,,,,,None,None,0,201.37901219999185,None,201.37901219999185,202.3790699999954,202.36235349997878,203.36234529997455,0,1,201.37901219999185,None,,,,6,m,10,r,mck,2021_Dec_17_1149,WASABI Nback,2020.2.10,59.983900320766296,
0,1,7,"[-0.2, -0.2]",None,0,0,0,0,,,,,0,0,0,0,0,82,82,82,,,,,,,,,None,None,0,203.3790099999751,None,203.3790099999751,204.3790244999982,204.36236400000053,205.36237089999486,0,1,203.3790099999751,None,,,,6,m,10,r,mck,2021_Dec_17_1149,WASABI Nback,2020.2.10,59.983900320766296,
0,1,4,"[-0.2, 0]",1,0,0,0,0,,,,,0,0,0,0,0,83,83,83,,,,,,,,,None,None,0,205.37904449997586,None,205.37904449997586,206.37904499997967,206.3623836999759,207.362392799987,0,1,205.37904449997586,None,,,,6,m,10,r,mck,2021_Dec_17_1149,WASABI Nback,2020.2.10,59.983900320766296,
0,1,4,"[-0.2, 0]",None,0,0,0,0,,,,,0,0,0,0,0,84,84,84,,,,,,,,,None,None,0,207.37905159997172,None,207.37905159997172,208.37906359997578,208.36239469997236,209.36241249999148,0,1,207.37905159997172,None,,,,6,m,10,r,mck,2021_Dec_17_1149,WASABI Nback,2020.2.10,59.983900320766296,
0,1,5,"[0, 0]",None,0,0,0,0,,,,,0,0,0,0,0,85,85,85,,,,,,,,,None,None,0,209.37905349998618,None,209.37905349998618,210.37908309997874,210.3624245999963,211.362420999998,0,1,209.37905349998618,None,,,,6,m,10,r,mck,2021_Dec_17_1149,WASABI Nback,2020.2.10,59.983900320766296,
0,1,2,"[0, 0.2]",None,0,0,0,0,,,,,0,0,0,0,0,86,86,86,,,,,,,,,None,None,0,211.37908019998576,None,211.37908019998576,212.3790968999965,212.36243269999977,213.3624431999924,0,1,211.37908019998576,None,,,,6,m,10,r,mck,2021_Dec_17_1149,WASABI Nback,2020.2.10,59.983900320766296,
0,1,6,"[0.2, 0]",None,0,0,0,0,,,,,0,0,0,0,0,87,87,87,,,,,,,,,None,None,0,213.37911499998881,None,213.37911499998881,214.37910039999406,214.36244059997262,215.36246319999918,0,1,213.37911499998881,None,,,,6,m,10,r,mck,2021_Dec_17_1149,WASABI Nback,2020.2.10,59.983900320766296,
0,1,7,"[-0.2, -0.2]",None,0,0,0,0,,,,,0,0,0,0,0,88,88,88,,,,,,,,,None,None,0,215.37910169997485,None,215.37910169997485,216.37912469997536,216.36246769997524,217.36246709999978,0,1,215.37910169997485,None,,,,6,m,10,r,mck,2021_Dec_17_1149,WASABI Nback,2020.2.10,59.983900320766296,
0,1,6,"[0.2, 0]",1,0,0,0,0,,,,,0,0,0,0,0,89,89,89,,,,,,,,,None,None,0,217.3791222999862,None,217.3791222999862,218.37913979997393,218.36248909999267,219.36249119997956,0,1,217.3791222999862,None,,,,6,m,10,r,mck,2021_Dec_17_1149,WASABI Nback,2020.2.10,59.983900320766296,
0,1,6,"[0.2, 0]",None,0,0,0,0,,,,,0,0,0,0,0,90,90,90,,,,,,,,,None,None,0,219.37915989998146,None,219.37915989998146,220.37915999998222,220.36249329999555,221.3625140999793,0,1,219.37915989998146,None,,,,6,m,10,r,mck,2021_Dec_17_1149,WASABI Nback,2020.2.10,59.983900320766296,
0,1,7,"[-0.2, -0.2]",None,0,0,0,0,,,,,0,0,0,0,0,91,91,91,,,,,,,,,None,None,0,221.37917649999144,None,221.37917649999144,222.37917729999754,222.36251690000063,223.36252169997897,0,0,221.37917649999144,None,,,,6,m,10,r,mck,2021_Dec_17_1149,WASABI Nback,2020.2.10,59.983900320766296,
0,1,6,"[0.2, 0]",1,0,0,0,0,,,,,0,0,0,0,0,92,92,92,,,,,,,,,None,None,0,223.37911539999186,None,223.37911539999186,224.37919489998603,224.36252979998244,225.36252489997423,0,1,223.37911539999186,None,,,,6,m,10,r,mck,2021_Dec_17_1149,WASABI Nback,2020.2.10,59.983900320766296,
0,1,2,"[0, 0.2]",None,0,0,0,0,,,,,0,0,0,0,0,93,93,93,,,,,,,,,None,None,0,225.37920129997656,None,225.37920129997656,226.3791988999874,226.36254729999928,227.3625624999986,0,1,225.37920129997656,None,,,,6,m,10,r,mck,2021_Dec_17_1149,WASABI Nback,2020.2.10,59.983900320766296,
0,1,5,"[0, 0]",None,0,0,0,0,,,,,0,0,0,0,0,94,94,94,,,,,,,,,None,None,0,227.37920139997732,None,227.37920139997732,228.37923129997216,228.36256009998033,229.3625756999827,0,1,227.37920139997732,None,,,,6,m,10,r,mck,2021_Dec_17_1149,WASABI Nback,2020.2.10,59.983900320766296,
0,1,4,"[-0.2, 0]",None,0,0,0,0,,,,,0,0,0,0,0,95,95,95,,,,,,,,,None,None,0,229.37924039998325,None,229.37924039998325,230.37922649999382,230.36258719998295,231.36258879999514,0,1,229.37924039998325,None,,,,6,m,10,r,mck,2021_Dec_17_1149,WASABI Nback,2020.2.10,59.983900320766296,
0,1,4,"[-0.2, 0]",None,0,0,0,0,,,,,0,0,0,0,0,96,96,96,,,,,,,,,None,None,0,231.37923439999577,None,231.37923439999577,232.37926229997538,232.36258699998143,233.36260299998685,0,1,231.37923439999577,None,,,,6,m,10,r,mck,2021_Dec_17_1149,WASABI Nback,2020.2.10,59.983900320766296,
0,1,7,"[-0.2, -0.2]",None,0,0,0,0,,,,,0,0,0,0,0,97,97,97,,,,,,,,,None,None,0,233.37927349997335,None,233.37927349997335,234.37925769999856,234.36260559997754,235.36262089997763,0,1,233.37927349997335,None,,,,6,m,10,r,mck,2021_Dec_17_1149,WASABI Nback,2020.2.10,59.983900320766296,
0,1,4,"[-0.2, 0]",1,0,0,0,0,,,,,0,0,0,0,0,98,98,98,,,,,,,,,None,None,0,235.37927069998113,None,235.37927069998113,236.37929029998486,236.36262169998372,237.36263939997298,0,1,235.37927069998113,None,,,,6,m,10,r,mck,2021_Dec_17_1149,WASABI Nback,2020.2.10,59.983900320766296,
0,1,3,"[0.2, 0.2]",None,0,0,0,0,,,,,0,0,0,0,0,99,99,99,,,,,,,,,None,None,0,237.37928279998596,None,237.37928279998596,238.37930789997336,238.36264069998288,239.36265339999227,0,1,237.37928279998596,None,,,,6,m,10,r,mck,2021_Dec_17_1149,WASABI Nback,2020.2.10,59.983900320766296,
0,1,5,"[0, 0]",None,0,0,0,0,,,,,0,0,0,0,0,100,100,100,,,,,,,,,None,None,0,239.37932419998106,None,239.37932419998106,240.37931429999298,240.36265239998465,241.36266949999845,0,1,239.37932419998106,None,,,,6,m,10,r,mck,2021_Dec_17_1149,WASABI Nback,2020.2.10,59.983900320766296,
0,1,3,"[0.2, 0.2]",1,0,0,0,0,,,,,0,0,0,0,0,101,101,101,,,,,,,,,None,None,0,241.37932479998562,None,241.37932479998562,242.37932659999933,242.36266919999616,243.36267539998516,0,1,241.37932479998562,None,,,,6,m,10,r,mck,2021_Dec_17_1149,WASABI Nback,2020.2.10,59.983900320766296,
0,1,1,"[-0.2, 0.2]",None,0,0,0,0,,,,,0,0,0,0,0,102,102,102,,,,,,,,,None,None,0,243.379346599977,None,243.379346599977,244.37936119997175,244.36274889999186,245.36269219999667,0,1,243.379346599977,None,,,,6,m,10,r,mck,2021_Dec_17_1149,WASABI Nback,2020.2.10,59.983900320766296,
0,1,9,"[0.2, -0.2]",None,0,0,0,0,,,,,0,0,0,0,0,103,103,103,,,,,,,,,None,None,0,245.37935319999815,None,245.37935319999815,246.37935939998715,246.36271259997739,247.36271319998195,0,1,245.37935319999815,None,,,,6,m,10,r,mck,2021_Dec_17_1149,WASABI Nback,2020.2.10,59.983900320766296,
0,1,9,"[0.2, -0.2]",None,0,0,0,0,,,,,0,0,0,0,0,104,104,104,,,,,,,,,None,None,0,247.3794050999859,None,247.3794050999859,248.37937769998098,248.36273159997654,249.36273519997485,0,1,247.3794050999859,None,,,,6,m,10,r,mck,2021_Dec_17_1149,WASABI Nback,2020.2.10,59.983900320766296,
0,1,8,"[0, -0.2]",None,0,0,0,0,,,,,0,0,0,0,0,105,105,105,,,,,,,,,None,None,0,249.3794024999952,None,249.3794024999952,250.3794060999935,250.36272309999913,251.36274089998915,0,1,249.3794024999952,None,,,,6,m,10,r,mck,2021_Dec_17_1149,WASABI Nback,2020.2.10,59.983900320766296,
0,1,6,"[0.2, 0]",None,0,0,0,0,,,,,0,0,0,0,0,106,106,106,,,,,,,,,None,None,0,251.379402999999,None,251.379402999999,252.37940879998496,252.3627593999845,253.36275829997612,0,1,251.379402999999,None,,,,6,m,10,r,mck,2021_Dec_17_1149,WASABI Nback,2020.2.10,59.983900320766296,
0,1,3,"[0.2, 0.2]",None,0,0,0,0,,,,,0,0,0,0,0,107,107,107,,,,,,,,,None,None,0,253.37943409997388,None,253.37943409997388,254.37944009999046,254.36267389997374,255.36278619998484,0,1,253.37943409997388,None,,,,6,m,10,r,mck,2021_Dec_17_1149,WASABI Nback,2020.2.10,59.983900320766296,
0,1,6,"[0.2, 0]",1,0,0,0,0,,,,,0,0,0,0,0,108,108,108,,,,,,,,,None,None,0,255.37946050000028,None,255.37946050000028,256.3794629999902,256.36277189999237,257.36278639998636,0,1,255.37946050000028,None,,,,6,m,10,r,mck,2021_Dec_17_1149,WASABI Nback,2020.2.10,59.983900320766296,
0,1,5,"[0, 0]",None,0,0,0,0,,,,,0,0,0,0,0,109,109,109,,,,,,,,,None,None,0,257.379460199998,None,257.379460199998,258.379477999988,258.36278359999415,259.3627937999845,0,1,257.379460199998,None,,,,6,m,10,r,mck,2021_Dec_17_1149,WASABI Nback,2020.2.10,59.983900320766296,
0,1,7,"[-0.2, -0.2]",None,0,0,0,0,,,,,0,0,0,0,0,110,110,110,,,,,,,,,None,None,0,259.3794828999962,None,259.3794828999962,260.37948819997837,260.36281259998213,261.36282189999474,0,1,259.3794828999962,None,,,,6,m,10,r,mck,2021_Dec_17_1149,WASABI Nback,2020.2.10,59.983900320766296,
0,1,5,"[0, 0]",1,0,0,0,0,,,,,0,0,0,0,0,111,111,111,,,,,,,,,None,None,0,261.37949759999174,None,261.37949759999174,262.37950999999885,262.36281719998806,263.3628369999933,0,1,261.37949759999174,None,,,,6,m,10,r,mck,2021_Dec_17_1149,WASABI Nback,2020.2.10,59.983900320766296,
0,1,1,"[-0.2, 0.2]",None,0,0,0,0,,,,,0,0,0,0,0,112,112,112,,,,,,,,,None,None,0,263.3795140000002,None,263.3795140000002,264.3795385999838,264.3628359999857,265.36284699998214,0,1,263.3795140000002,None,,,,6,m,10,r,mck,2021_Dec_17_1149,WASABI Nback,2020.2.10,59.983900320766296,
0,1,7,"[-0.2, -0.2]",None,0,0,0,0,,,,,0,0,0,0,0,113,113,113,,,,,,,,,None,None,0,265.3795271999843,None,265.3795271999843,266.37953069998184,266.36287439998705,267.3628613999754,0,1,265.3795271999843,None,,,,6,m,10,r,mck,2021_Dec_17_1149,WASABI Nback,2020.2.10,59.983900320766296,
0,1,9,"[0.2, -0.2]",None,0,0,0,0,,,,,0,0,0,0,0,114,114,114,,,,,,,,,None,None,0,267.3795476999949,None,267.3795476999949,268.3795524999732,268.3628728999756,269.3628928999824,0,1,267.3795476999949,None,,,,6,m,10,r,mck,2021_Dec_17_1149,WASABI Nback,2020.2.10,59.983900320766296,
0,1,3,"[0.2, 0.2]",None,0,0,0,0,,,,,0,0,0,0,0,115,115,115,,,,,,,,,None,None,0,269.37956949998625,None,269.37956949998625,270.3795855999924,270.36290439998265,271.36290670000017,0,1,269.37956949998625,None,,,,6,m,10,r,mck,2021_Dec_17_1149,WASABI Nback,2020.2.10,59.983900320766296,
0,1,9,"[0.2, -0.2]",1,0,0,0,0,,,,,0,0,0,0,0,116,116,116,,,,,,,,,None,None,0,271.37959039999987,None,271.37959039999987,272.3795877999801,272.36290259999805,273.36291239998536,0,1,271.37959039999987,None,,,,6,m,10,r,mck,2021_Dec_17_1149,WASABI Nback,2020.2.10,59.983900320766296,
0,1,6,"[0.2, 0]",None,0,0,0,0,,,,,0,0,0,0,0,117,117,117,,,,,,,,,None,None,0,273.37965489999624,None,273.37965489999624,274.3796031999809,274.3629380999773,275.36294789999374,0,1,273.37965489999624,None,,,,6,m,10,r,mck,2021_Dec_17_1149,WASABI Nback,2020.2.10,59.983900320766296,
0,1,2,"[0, 0.2]",None,0,0,0,0,,,,,0,0,0,0,0,118,118,118,,,,,,,,,None,None,0,275.379608999996,None,275.379608999996,276.3796195999894,276.36293239999213,277.3629424999817,0,1,275.379608999996,None,,,,6,m,10,r,mck,2021_Dec_17_1149,WASABI Nback,2020.2.10,59.983900320766296,
0,1,5,"[0, 0]",None,0,0,0,0,,,,,0,0,0,0,0,119,119,119,,,,,,,,,None,None,0,277.37963879999006,None,277.37963879999006,278.3796325000003,278.36295799998334,279.362982199993,0,1,277.37963879999006,None,,,,6,m,10,r,mck,2021_Dec_17_1149,WASABI Nback,2020.2.10,59.983900320766296,
1,0,,,,0,1,1,1,0,0,0,0,,,,,,,,,,,,,,,,,,,,,,,,,,,,,,,340.6301488999743,None,6,m,10,r,mck,2021_Dec_17_1149,WASABI Nback,2020.2.10,59.983900320766296,
