	SID	biopac_channel	body_site	condition	correct	date	duration	handedness	mouseclick	onset	rt	scanner	score	session	sex	skin_site	temperature	value
0	3101	43	Left Leg	2-back Instruction		2025_Jan_29_1626	5.00978062255308	r		2.780193000100553		ss mrs		2	f	3		
1	3101	7	Left Leg	Pre-trial Jitter		2025_Jan_29_1626	7.00610735011287	r		7.789463399909437		ss mrs		2	f	3		
2	3101	44.0	Left Leg	pretrialfixation		2025_Jan_29_1626	1.0160462004132569	r		15.042834399966523		ss mrs		2	f	3		
3	3101		Left Leg	2-back	1.0	2025_Jan_29_1626	1.9879243501927704	r		16.056977200089023		ss mrs	12.5	2	f	3	32.0	
4	3101		Left Leg	2-back	1.0	2025_Jan_29_1626	1.9857652499340475	r		18.066408300073817		ss mrs	25.0	2	f	3	32.0	
5	3101		Left Leg	2-back	1.0	2025_Jan_29_1626	1.9877226499374956	r	2	20.065459900069982	0.696631700033322	ss mrs	37.5	2	f	3	32.0	
6	3101		Left Leg	2-back	1.0	2025_Jan_29_1626	1.987519150134176	r	0	22.065583599964157	0.7132300999946892	ss mrs	50.0	2	f	3	32.0	
7	3101		Left Leg	2-back	1.0	2025_Jan_29_1626	1.9874305499251932	r	2	24.065647599985823	1.3632676000706851	ss mrs	62.5	2	f	3	32.0	
8	3101		Left Leg	2-back	1.0	2025_Jan_29_1626	1.9866453502327204	r	2	26.06606710003689	0.6631283999886364	ss mrs	75.0	2	f	3	32.0	
9	3101		Left Leg	2-back	1.0	2025_Jan_29_1626	1.9871909499634057	r	2	28.065815400099382	0.6627708000596613	ss mrs	87.5	2	f	3	32.0	
10	3101		Left Leg	2-back	1.0	2025_Jan_29_1626	1.9874825503211468	r	0	30.06570339994505	0.49661189992912114	ss mrs	100.0	2	f	3	32.0	
11	3101	48.0	Left Leg	ScoreReport		2025_Jan_29_1626	5.001939850160852	r		32.075182900065556		ss mrs		2	f	3		
12	3101	8	Left Leg	Post-trial Jitter		2025_Jan_29_1626	5.009400899987668	r		37.13816670002416		ss mrs		2	f	3		
13	3101	43	Left Leg	2-back Instruction		2025_Jan_29_1626	5.008426900021732	r		42.172068800078705		ss mrs		2	f	3		
14	3101	7	Left Leg	Pre-trial Jitter		2025_Jan_29_1626	9.002787050092593	r		47.191631299909204		ss mrs		2	f	3		
15	3101	44.0	Left Leg	pretrialfixation		2025_Jan_29_1626	1.0014748501125723	r		56.442244299920276		ss mrs		2	f	3		
16	3101		Left Leg	2-back	1.0	2025_Jan_29_1626	1.9894056499470025	r		57.4566820000764		ss mrs	12.5	2	f	3	32.0	
17	3101		Left Leg	2-back	1.0	2025_Jan_29_1626	1.986474750097841	r		59.466569300042465		ss mrs	25.0	2	f	3	32.0	
18	3101		Left Leg	2-back	1.0	2025_Jan_29_1626	1.986727150157094	r	0	61.466474999906495	0.8635925000999123	ss mrs	37.5	2	f	3	32.0	
19	3101		Left Leg	2-back	1.0	2025_Jan_29_1626	1.9875488497782499	r	2	63.46608850010671	0.7632480999454856	ss mrs	50.0	2	f	3	32.0	
20	3101		Left Leg	2-back	1.0	2025_Jan_29_1626	1.9862528499215841	r	2	65.46676249988377	1.5134492998477072	ss mrs	62.5	2	f	3	32.0	
21	3101		Left Leg	2-back	1.0	2025_Jan_29_1626	1.987668450223282	r	2	67.46606440003961	0.9302582000382245	ss mrs	75.0	2	f	3	32.0	
22	3101		Left Leg	2-back	0.0	2025_Jan_29_1626	1.9876214500982314	r	2	69.46611319994554	0.9461523999925703	ss mrs	75.0	2	f	3	32.0	
23	3101		Left Leg	2-back	1.0	2025_Jan_29_1626	1.9874242499936372	r	0	71.4662506999448	0.846637099981308	ss mrs	87.5	2	f	3	32.0	
24	3101	48.0	Left Leg	ScoreReport		2025_Jan_29_1626	5.011696000117809	r		73.47913839993998		ss mrs		2	f	3		
25	3101	8	Left Leg	Post-trial Jitter		2025_Jan_29_1626	6.999520900193602	r		78.5353097000625		ss mrs		2	f	3		
26	3101	51	Left Leg	Expectancy		2025_Jan_29_1626	5.005239950027317	r		85.79918650002219		ss mrs		2	f	3		47.71604938271605
27	3101	44	Left Leg	0-back Instruction		2025_Jan_29_1626	5.01592620019801	r		91.17716359999031		ss mrs		2	f	3		
28	3101	7	Left Leg	Pre-Trial Jitter		2025_Jan_29_1626	7.002396950032562	r		96.19243819988333		ss mrs		2	f	3		
29	3101	44.0	Left Leg	pretrialfixation		2025_Jan_29_1626	1.0120649002492428	r		103.51257340004668		ss mrs		2	f	3		
30	3101		Left Leg	0-back	1.0	2025_Jan_29_1626	1.989511749939993	r	0.0	104.52397170010954	1.5632831000257283	ss mrs	12.5	2	f	3	48.5	
31	3101		Left Leg	0-back	1.0	2025_Jan_29_1626	1.9861589500214905	r	0.0	106.53396839997731	0.7634701000060886	ss mrs	25.0	2	f	3	48.5	
32	3101		Left Leg	0-back	1.0	2025_Jan_29_1626	1.9887356502003968	r	0.0	108.5327602000907	0.8635048000141978	ss mrs	37.5	2	f	3	48.5	
33	3101		Left Leg	0-back	1.0	2025_Jan_29_1626	1.9889417497906834	r	0.0	110.53264339989983	0.39646409987472	ss mrs	50.0	2	f	3	48.5	
34	3101		Left Leg	0-back	1.0	2025_Jan_29_1626	1.9886742501985282	r	0.0	112.53279859991744	0.3632593001239002	ss mrs	62.5	2	f	3	48.5	
35	3101		Left Leg	0-back	1.0	2025_Jan_29_1626	1.9890942499041557	r	0.0	114.53261310001835	0.34668350010178983	ss mrs	75.0	2	f	3	48.5	
36	3101		Left Leg	0-back	1.0	2025_Jan_29_1626	1.9886543499305844	r	0.0	116.53285160008818	0.29692200012505054	ss mrs	87.5	2	f	3	48.5	
37	3101		Left Leg	0-back	1.0	2025_Jan_29_1626	1.9885625501628965	r	0.0	118.53293229988776	0.4298757000360638	ss mrs	100.0	2	f	3	48.5	
38	3101	48.0	Left Leg	ScoreReport		2025_Jan_29_1626	5.003507850226015	r		120.54218330001459		ss mrs		2	f	3		
39	3101	8	Left Leg	Post-Trial Jitter		2025_Jan_29_1626	5.0006660998333246	r		125.60197580000386		ss mrs		2	f	3		
40	3101	20	Left Leg	PainBinary		2025_Jan_29_1626	5.006186899961904	r		130.6159504998941	1.5503171999007463	ss mrs		2	f	3		1.0
41	3101	21	Left Leg	IntensityRating		2025_Jan_29_1626	4.999988899799064	r		135.63578650006093	1.62035149987787	ss mrs		2	f	3		46.23456790123457
42	3101	23	Left Leg	DistractBinary		2025_Jan_29_1626	5.002827800111845	r		140.6511041999329	1.3003163000103086	ss mrs		2	f	3		1.0
43	3101	9	Left Leg	Post-Q-Jitter		2025_Jan_29_1626	5.010815150104463	r		145.65549980010837		ss mrs		2	f	3		
44	3101	51	Left Leg	Expectancy		2025_Jan_29_1626	5.005466800183058	r		150.92483319994062	2.917008599964902	ss mrs		2	f	3		47.654320987654316
45	3101	44	Left Leg	0-back Instruction		2025_Jan_29_1626	5.0156708501745015	r		156.30310730007477		ss mrs		2	f	3		
46	3101	7	Left Leg	Pre-Trial Jitter		2025_Jan_29_1626	9.003125249873847	r		161.3262320999056		ss mrs		2	f	3		
47	3101	44.0	Left Leg	pretrialfixation		2025_Jan_29_1626	1.0004281003493816	r		170.6275661000982		ss mrs		2	f	3		
48	3101		Left Leg	0-back	1.0	2025_Jan_29_1626	1.99119645007886	r	0.0	171.6406028000638	1.3132256001699716	ss mrs	12.5	2	f	3	48.5	
49	3101		Left Leg	0-back	1.0	2025_Jan_29_1626	1.987737650051713	r	0.0	173.6507055000402	0.446130899945274	ss mrs	25.0	2	f	3	48.5	
50	3101		Left Leg	0-back	1.0	2025_Jan_29_1626	1.9881596500054002	r	0.0	175.65051779989153	0.43355109984986484	ss mrs	37.5	2	f	3	48.5	
51	3101		Left Leg	0-back	1.0	2025_Jan_29_1626	1.9891155501827598	r	0.0	177.6500474999193	0.3462173999287188	ss mrs	50.0	2	f	3	48.5	
52	3101		Left Leg	0-back	1.0	2025_Jan_29_1626	1.9890447498764843	r	0.0	179.65012270002626	0.37958370009437203	ss mrs	62.5	2	f	3	48.5	
53	3101		Left Leg	0-back	1.0	2025_Jan_29_1626	1.988952049985528	r	0.0	181.6501764000859	0.333533100085333	ss mrs	75.0	2	f	3	48.5	
54	3101		Left Leg	0-back	1.0	2025_Jan_29_1626	1.9887950499542058	r	0.0	183.6502906999085	0.37964909989386797	ss mrs	87.5	2	f	3	48.5	
55	3101		Left Leg	0-back	1.0	2025_Jan_29_1626	1.9886886500753462	r	0.0	185.65038349991664	0.6635404000990093	ss mrs	100.0	2	f	3	48.5	
56	3101	48.0	Left Leg	ScoreReport		2025_Jan_29_1626	5.004757549846545	r		187.65905030001886		ss mrs		2	f	3		
57	3101	8	Left Leg	Post-Trial Jitter		2025_Jan_29_1626	4.999474099837244	r		192.72005959996022		ss mrs		2	f	3		
58	3101	20	Left Leg	PainBinary		2025_Jan_29_1626	5.00704270019196	r		197.73301890003495	1.1503157999832183	ss mrs		2	f	3		1.0
59	3101	21	Left Leg	IntensityRating		2025_Jan_29_1626	4.99900499987416	r		202.75379789993167	2.7348267000634223	ss mrs		2	f	3		45.18518518518519
60	3101	23	Left Leg	DistractBinary		2025_Jan_29_1626	5.007266700267792	r		207.76638929988258	1.2336160999257118	ss mrs		2	f	3		1.0
61	3101	9	Left Leg	Post-Q-Jitter		2025_Jan_29_1626	4.995257149916142	r		212.77246450004168		ss mrs		2	f	3		
62	3101	51	Left Leg	Expectancy		2025_Jan_29_1626	5.000640350393951	r		218.03644019993953	3.1360279000364244	ss mrs		2	f	3		46.85185185185185
63	3101	45	Left Leg	2-back Instruction		2025_Jan_29_1626	5.011292000301182	r		223.41448049992323		ss mrs		2	f	3		
64	3101	7	Left Leg	Pre-trial Jitter		2025_Jan_29_1626	9.002510550199077	r		228.42739579989575		ss mrs		2	f	3		
65	3101	44.0	Left Leg	pretrialfixation		2025_Jan_29_1626	1.0152828502468765	r		237.69599650008604		ss mrs		2	f	3		
66	3101		Left Leg	2-back	1.0	2025_Jan_29_1626	1.9900451500434428	r		238.70868979999796		ss mrs	12.5	2	f	3	48.5	
67	3101		Left Leg	2-back	1.0	2025_Jan_29_1626	1.9870427497662604	r		240.71855659992434		ss mrs	25.0	2	f	3	48.5	
68	3101		Left Leg	2-back	1.0	2025_Jan_29_1626	1.9875680499244481	r	0	242.71831470006146	0.7467400999739766	ss mrs	37.5	2	f	3	48.5	
69	3101		Left Leg	2-back	1.0	2025_Jan_29_1626	1.986507249996066	r	2	244.71886790008284	0.796755800023675	ss mrs	50.0	2	f	3	48.5	
70	3101		Left Leg	2-back	1.0	2025_Jan_29_1626	1.986993850208819	r	2	246.7186706000939	0.713149799965322	ss mrs	62.5	2	f	3	48.5	
71	3101		Left Leg	2-back	1.0	2025_Jan_29_1626	1.9869304501917213	r	2	248.71872349991463	0.5468283998779953	ss mrs	75.0	2	f	3	48.5	
72	3101		Left Leg	2-back	1.0	2025_Jan_29_1626	1.9869551500305533	r	2	250.71873169997707	0.8123895998578519	ss mrs	87.5	2	f	3	48.5	
73	3101		Left Leg	2-back	1.0	2025_Jan_29_1626	1.9876072499901056	r	2	252.71847319998778	0.6801911999937147	ss mrs	100.0	2	f	3	48.5	
74	3101	48.0	Left Leg	ScoreReport		2025_Jan_29_1626	5.001401749905199	r		254.72823129990138		ss mrs		2	f	3		
75	3101	8	Left Leg	Post-trial Jitter		2025_Jan_29_1626	6.995779100107029	r		259.7894482999109		ss mrs		2	f	3		
76	3101	20	Left Leg	PainBinary		2025_Jan_29_1626	5.003921600058675	r		266.8021386999171	2.1670169001445174	ss mrs		2	f	3		1.0
77	3101	21	Left Leg	IntensityRating		2025_Jan_29_1626	4.999862699769437	r		271.8209373001009		ss mrs		2	f	3		45.55555555555556
78	3101	23	Left Leg	DistractBinary		2025_Jan_29_1626	5.0065493998117745	r		276.83425509999506	1.0003529998939484	ss mrs		2	f	3		1.0
79	3101	9	Left Leg	Post-Q-Jitter		2025_Jan_29_1626	7.0098807502072304	r		281.84100869996473		ss mrs		2	f	3		
80	3101	51	Left Leg	Expectancy		2025_Jan_29_1626	5.007896000286564	r		289.1087497000117		ss mrs		2	f	3		45.67901234567901
81	3101	45	Left Leg	2-back Instruction		2025_Jan_29_1626	5.015416050096974	r		294.4883000999689		ss mrs		2	f	3		
82	3101	7	Left Leg	Pre-trial Jitter		2025_Jan_29_1626	7.003185250097886	r		299.51118739997037		ss mrs		2	f	3		
83	3101	44.0	Left Leg	pretrialfixation		2025_Jan_29_1626	1.0035218002740294	r		306.8110211000312		ss mrs		2	f	3		
84	3101		Left Leg	2-back	1.0	2025_Jan_29_1626	1.9900746499188244	r		307.8262320999056		ss mrs	12.5	2	f	3	48.5	
85	3101		Left Leg	2-back	1.0	2025_Jan_29_1626	1.9864003497641534	r		309.8364194999449		ss mrs	25.0	2	f	3	48.5	
86	3101		Left Leg	2-back	1.0	2025_Jan_29_1626	1.9872580501250923	r	0	311.8360077999532	0.7296088000293821	ss mrs	37.5	2	f	3	48.5	
87	3101		Left Leg	2-back	1.0	2025_Jan_29_1626	1.9875715500675142	r	2	313.8358760001138	0.5674501999747008	ss mrs	50.0	2	f	3	48.5	
88	3101		Left Leg	2-back	1.0	2025_Jan_29_1626	1.9866371501702815	r	0	315.8363689999096	0.7801617998629808	ss mrs	62.5	2	f	3	48.5	
89	3101		Left Leg	2-back	1.0	2025_Jan_29_1626	1.9877738498616964	r	2	317.83583960006945	0.6170190998818725	ss mrs	75.0	2	f	3	48.5	
90	3101		Left Leg	2-back	1.0	2025_Jan_29_1626	1.9870362500660121	r	2	319.83621439989656	0.7468718998134136	ss mrs	87.5	2	f	3	48.5	
91	3101		Left Leg	2-back	1.0	2025_Jan_29_1626	1.9877001501154155	r	2	321.8359213001095	0.7635053000412881	ss mrs	100.0	2	f	3	48.5	
92	3101	48.0	Left Leg	ScoreReport		2025_Jan_29_1626	5.001867250073701	r		323.8455443000421		ss mrs		2	f	3		
93	3101	8	Left Leg	Post-trial Jitter		2025_Jan_29_1626	4.999801599886268	r		328.90496170008555		ss mrs		2	f	3		
94	3101	20	Left Leg	PainBinary		2025_Jan_29_1626	5.006603700108826	r		333.91830600006506	1.4503328001592308	ss mrs		2	f	3		1.0
95	3101	21	Left Leg	IntensityRating		2025_Jan_29_1626	5.009933599969372	r		338.94170060008764	2.5527056998107582	ss mrs		2	f	3		46.17283950617284
96	3101	23	Left Leg	DistractBinary		2025_Jan_29_1626	5.0065644001588225	r		343.9684468000196	2.167020299937576	ss mrs		2	f	3		1.0
97	3101	9	Left Leg	Post-Q-Jitter		2025_Jan_29_1626	4.994243949884549	r		348.9746660999954		ss mrs		2	f	3		
98	3101	42	Left Leg	0-back Instruction		2025_Jan_29_1626	5.0088908998295665	r		353.9923837999813		ss mrs		2	f	3		
99	3101	7	Left Leg	Pre-Trial Jitter		2025_Jan_29_1626	9.003960650181398	r		359.0116151000839		ss mrs		2	f	3		
100	3101	44.0	Left Leg	pretrialfixation		2025_Jan_29_1626	1.0035367500968277	r		368.2618426999543		ss mrs		2	f	3		
101	3101		Left Leg	0-back	1.0	2025_Jan_29_1626	1.9913736500311643	r	0.0	369.2763402001001	0.6301279000472277	ss mrs	12.5	2	f	3	32.0	
102	3101		Left Leg	0-back	1.0	2025_Jan_29_1626	1.9874475500546396	r	0.0	371.28665799996816	0.7504563999827951	ss mrs	25.0	2	f	3	32.0	
103	3101		Left Leg	0-back	1.0	2025_Jan_29_1626	1.9888228501658887	r	0.0	373.285994600039	0.3300914999563247	ss mrs	37.5	2	f	3	32.0	
104	3101		Left Leg	0-back	1.0	2025_Jan_29_1626	1.988331450149417	r	0.0	375.28625979996286	0.3633360001258552	ss mrs	50.0	2	f	3	32.0	
105	3101		Left Leg	0-back	1.0	2025_Jan_29_1626	1.9877698498312384	r	0.0	377.2865661000833	0.5130177000537515	ss mrs	62.5	2	f	3	32.0	
106	3101		Left Leg	0-back	1.0	2025_Jan_29_1626	1.9883253499865532	r	0.0	379.28632119996473	0.466764000011608	ss mrs	75.0	2	f	3	32.0	
107	3101		Left Leg	0-back	1.0	2025_Jan_29_1626	1.988819149788469	r	0.0	381.2860989999026	0.3965785999316722	ss mrs	87.5	2	f	3	32.0	
108	3101		Left Leg	0-back	1.0	2025_Jan_29_1626	1.9878297501709312	r	0.0	383.2866259999573	0.44685159996151924	ss mrs	100.0	2	f	3	32.0	
109	3101	48.0	Left Leg	ScoreReport		2025_Jan_29_1626	5.0053189501632005	r		385.2945830998942		ss mrs		2	f	3		
110	3101	8	Left Leg	Post-Trial Jitter		2025_Jan_29_1626	8.996711800107732	r		390.3572962998878		ss mrs		2	f	3		
111	3101	42	Left Leg	0-back Instruction		2025_Jan_29_1626	5.007840700214729	r		399.37683889991604		ss mrs		2	f	3		
112	3101	7	Left Leg	Pre-Trial Jitter		2025_Jan_29_1626	5.00338354986161	r		404.3957809000276		ss mrs		2	f	3		
113	3101	44.0	Left Leg	pretrialfixation		2025_Jan_29_1626	1.001473150216043	r		409.64671969995834		ss mrs		2	f	3		
114	3101		Left Leg	0-back	1.0	2025_Jan_29_1626	1.9915616502985358	r	0.0	410.6600953999441	0.7133760000579059	ss mrs	12.5	2	f	3	32.0	
115	3101		Left Leg	0-back	1.0	2025_Jan_29_1626	1.987503949785605	r	0.0	412.67048650002107	0.46234349999576807	ss mrs	25.0	2	f	3	32.0	
116	3101		Left Leg	0-back	1.0	2025_Jan_29_1626	1.9888764501083642	r	0.0	414.66982159996405	0.4167931000702083	ss mrs	37.5	2	f	3	32.0	
117	3101		Left Leg	0-back	1.0	2025_Jan_29_1626	1.9882690499071032	r	0.0	416.67014640010893	0.31349360011518	ss mrs	50.0	2	f	3	32.0	
118	3101		Left Leg	0-back	1.0	2025_Jan_29_1626	1.9890497499145567	r	0.0	418.6698006999213	0.4302028000820428	ss mrs	62.5	2	f	3	32.0	
119	3101		Left Leg	0-back	1.0	2025_Jan_29_1626	1.9885874500032514	r	0.0	420.6700371999759	0.33000499987974763	ss mrs	75.0	2	f	3	32.0	
120	3101		Left Leg	0-back	1.0	2025_Jan_29_1626	1.9889813500922173	r	0.0	422.6698390999809	0.2968745999969542	ss mrs	87.5	2	f	3	32.0	
121	3101		Left Leg	0-back	1.0	2025_Jan_29_1626	1.9882511501200497	r	0.0	424.6702570000198	0.3466088999994099	ss mrs	100.0	2	f	3	32.0	
122	3101	48.0	Left Leg	ScoreReport		2025_Jan_29_1626	5.005314749898389	r		426.6784343998879		ss mrs		2	f	3		
123	3101	8	Left Leg	Post-Trial Jitter		2025_Jan_29_1626	7.000039300182834	r		431.739477599971		ss mrs		2	f	3		
124	3101	51	Left Leg	Expectancy		2025_Jan_29_1626	5.013868600130081	r		439.0159169000108	4.400386200053617	ss mrs		2	f	3		46.543209876543216
125	3101	44	Left Leg	0-back Instruction		2025_Jan_29_1626	5.0165610504336655	r		444.3896164998878		ss mrs		2	f	3		
126	3101	7	Left Leg	Pre-Trial Jitter		2025_Jan_29_1626	7.002778750145808	r		449.41335380007513		ss mrs		2	f	3		
127	3101	44.0	Left Leg	pretrialfixation		2025_Jan_29_1626	0.9967884002253413	r		456.7079767999239		ss mrs		2	f	3		
128	3101		Left Leg	0-back	1.0	2025_Jan_29_1626	1.9899214499164373	r	0.0	457.71150500001386	1.0958696000743657	ss mrs	12.5	2	f	3	48.5	
129	3101		Left Leg	0-back	1.0	2025_Jan_29_1626	1.9879543499555439	r	0.0	459.72085150005296	0.5299092000350356	ss mrs	25.0	2	f	3	48.5	
130	3101		Left Leg	0-back	1.0	2025_Jan_29_1626	1.9885515498463064	r	0.0	461.7205715999007	0.41351719992235303	ss mrs	37.5	2	f	3	48.5	
131	3101		Left Leg	0-back	1.0	2025_Jan_29_1626	1.989052650053054	r	0.0	463.72034849994816	0.3965298000257462	ss mrs	50.0	2	f	3	48.5	
132	3101		Left Leg	0-back	1.0	2025_Jan_29_1626	1.9885247501078993	r	0.0	465.72063830005936	0.6298939001280814	ss mrs	62.5	2	f	3	48.5	
133	3101		Left Leg	0-back	1.0	2025_Jan_29_1626	1.988790350034833	r	0.0	467.72054099990055	0.41602219990454614	ss mrs	75.0	2	f	3	48.5	
134	3101		Left Leg	0-back	1.0	2025_Jan_29_1626	1.9882876500487328	r	0.0	469.7208072000649	0.41356310015544295	ss mrs	87.5	2	f	3	48.5	
135	3101		Left Leg	0-back	1.0	2025_Jan_29_1626	1.9887767496984452	r	0.0	471.72058740002103	0.4633239998947829	ss mrs	100.0	2	f	3	48.5	
136	3101	48.0	Left Leg	ScoreReport		2025_Jan_29_1626	5.004721250152215	r		473.72932559996843		ss mrs		2	f	3		
137	3101	8	Left Leg	Post-Trial Jitter		2025_Jan_29_1626	8.998891199938953	r		478.7906523998827		ss mrs		2	f	3		
138	3101	20	Left Leg	PainBinary		2025_Jan_29_1626	5.006221000105143	r		487.80375279998407	1.900316399987787	ss mrs		2	f	3		1.0
139	3101	21	Left Leg	IntensityRating		2025_Jan_29_1626	5.014831599779427	r		492.8245133999735	4.900338800158352	ss mrs		2	f	3		45.98765432098765
140	3101	23	Left Leg	DistractBinary		2025_Jan_29_1626	5.00522069982253	r		497.85436180001125	1.216972100082785	ss mrs		2	f	3		1.0
141	3101	9	Left Leg	Post-Q-Jitter		2025_Jan_29_1626	9.010467750020325	r		502.86016710009426		ss mrs		2	f	3		
142	3101	51	Left Leg	Expectancy		2025_Jan_29_1626	5.014221300138161	r		512.1499868000392	3.4836911000311375	ss mrs		2	f	3		47.28395061728395
143	3101	44	Left Leg	0-back Instruction		2025_Jan_29_1626	5.011255850084126	r		517.5265039999504		ss mrs		2	f	3		
144	3101	7	Left Leg	Pre-Trial Jitter		2025_Jan_29_1626	5.002876450074837	r		522.5475135000888		ss mrs		2	f	3		
145	3101	44.0	Left Leg	pretrialfixation		2025_Jan_29_1626	0.9979794002138078	r		527.8416154000442		ss mrs		2	f	3		
146	3101		Left Leg	0-back	1.0	2025_Jan_29_1626	1.9892162499018013	r	0.0	528.8460713000968	0.9966843000147492	ss mrs	12.5	2	f	3	48.5	
147	3101		Left Leg	0-back	1.0	2025_Jan_29_1626	1.988237349782139	r	0.0	530.8549502000678	0.5131798000074923	ss mrs	25.0	2	f	3	48.5	
148	3101		Left Leg	0-back	1.0	2025_Jan_29_1626	1.9890595499891788	r	0.0	532.8545468999073	0.41349489986896515	ss mrs	37.5	2	f	3	48.5	
149	3101		Left Leg	0-back	1.0	2025_Jan_29_1626	1.98873275029473	r	0.0	534.8546792999841	0.3464669000823051	ss mrs	50.0	2	f	3	48.5	
150	3101		Left Leg	0-back	1.0	2025_Jan_29_1626	1.9890132499858737	r	0.0	536.8546237000264	0.3799548998940736	ss mrs	62.5	2	f	3	48.5	
151	3101		Left Leg	0-back	1.0	2025_Jan_29_1626	1.9886809499002993	r	0.0	538.8548067000229	0.4005824001505971	ss mrs	75.0	2	f	3	48.5	
152	3101		Left Leg	0-back	1.0	2025_Jan_29_1626	1.9886059500277042	r	0.0	540.8548824000172	0.41325949993915856	ss mrs	87.5	2	f	3	48.5	
153	3101		Left Leg	0-back	1.0	2025_Jan_29_1626	1.9891650499776006	r	0.0	542.854600599967	0.4634686999488622	ss mrs	100.0	2	f	3	48.5	
154	3101	48.0	Left Leg	ScoreReport		2025_Jan_29_1626	5.004233550047502	r		544.86372569995		ss mrs		2	f	3		
155	3101	8	Left Leg	Post-Trial Jitter		2025_Jan_29_1626	6.998242200119421	r		549.9251898999792		ss mrs		2	f	3		
156	3101	20	Left Leg	PainBinary		2025_Jan_29_1626	5.004660799866542	r		556.9387240000069	1.8169601000845432	ss mrs		2	f	3		1.0
157	3101	21	Left Leg	IntensityRating		2025_Jan_29_1626	5.0103810001164675	r		561.9609228000045	4.0503106999676675	ss mrs		2	f	3		45.18518518518519
158	3101	23	Left Leg	DistractBinary		2025_Jan_29_1626	5.006984400097281	r		566.9876842999365	1.1172247000504285	ss mrs		2	f	3		1.0
159	3101	9	Left Leg	Post-Q-Jitter		2025_Jan_29_1626	6.993717949837446	r		571.9943802000489		ss mrs		2	f	3		
160	3101	51	Left Leg	Expectancy		2025_Jan_29_1626	5.0107968002557755	r		579.2442097000312	3.150328200077638	ss mrs		2	f	3		46.48148148148148
161	3101	45	Left Leg	2-back Instruction		2025_Jan_29_1626	5.007898250129074	r		584.6290472999681		ss mrs		2	f	3		
162	3101	7	Left Leg	Pre-trial Jitter		2025_Jan_29_1626	7.000377849908546	r		589.649628299987		ss mrs		2	f	3		
163	3101	44.0	Left Leg	pretrialfixation		2025_Jan_29_1626	1.0135907004587352	r		596.9346791999415		ss mrs		2	f	3		
164	3101		Left Leg	2-back	1.0	2025_Jan_29_1626	1.9894425498787314	r		597.9468415998854		ss mrs	12.5	2	f	3	48.5	
165	3101		Left Leg	2-back	1.0	2025_Jan_29_1626	1.9867641497403383	r		599.9565294999629		ss mrs	25.0	2	f	3	48.5	
166	3101		Left Leg	2-back	0.0	2025_Jan_29_1626	1.9876787499524653	r	2	601.9560936999042	1.0135554999578744	ss mrs	25.0	2	f	3	48.5	
167	3101		Left Leg	2-back	1.0	2025_Jan_29_1626	1.9868414502125233	r	2	603.9565342999995	0.9965570999775082	ss mrs	37.5	2	f	3	48.5	
168	3101		Left Leg	2-back	1.0	2025_Jan_29_1626	1.9875708501785994	r	2	605.9562045000494	1.0633016000501812	ss mrs	50.0	2	f	3	48.5	
169	3101		Left Leg	2-back	1.0	2025_Jan_29_1626	1.9873279500752687	r	2	607.956355500035	0.6632095000240952	ss mrs	62.5	2	f	3	48.5	
170	3101		Left Leg	2-back	1.0	2025_Jan_29_1626	1.9875462502241135	r	0	609.956268500071	0.796513200039044	ss mrs	75.0	2	f	3	48.5	
171	3101		Left Leg	2-back	1.0	2025_Jan_29_1626	1.9876292501576245	r	0	611.956244800007	0.8800079999491572	ss mrs	87.5	2	f	3	48.5	
172	3101	48.0	Left Leg	ScoreReport		2025_Jan_29_1626	5.011799800209701	r		613.9692249000072		ss mrs		2	f	3		
173	3101	8	Left Leg	Post-trial Jitter		2025_Jan_29_1626	6.9976500000339	r		619.0263420999981		ss mrs		2	f	3		
174	3101	20	Left Leg	PainBinary		2025_Jan_29_1626	5.005595700116828	r		626.0391088000033	1.3504553001839668	ss mrs		2	f	3		1.0
175	3101	21	Left Leg	IntensityRating		2025_Jan_29_1626	4.999167699832469	r		631.0590445001144	3.6681603000033647	ss mrs		2	f	3		45.370370370370374
176	3101	23	Left Leg	DistractBinary		2025_Jan_29_1626	5.007111800136045	r		636.0718320000451	1.3003296998795122	ss mrs		2	f	3		1.0
177	3101	9	Left Leg	Post-Q-Jitter		2025_Jan_29_1626	7.009114549960941	r		641.079216199927		ss mrs		2	f	3		
178	3101	51	Left Leg	Expectancy		2025_Jan_29_1626	5.016535300062969	r		648.342251499882		ss mrs		2	f	3		47.28395061728395
179	3101	45	Left Leg	2-back Instruction		2025_Jan_29_1626	5.003222650382668	r		653.7322303000838		ss mrs		2	f	3		
180	3101	7	Left Leg	Pre-trial Jitter		2025_Jan_29_1626	7.002117050113156	r		658.7496066000313		ss mrs		2	f	3		
181	3101	44.0	Left Leg	pretrialfixation		2025_Jan_29_1626	1.0090969502925873	r		666.0544296000153		ss mrs		2	f	3		
182	3101		Left Leg	2-back	1.0	2025_Jan_29_1626	1.991743250284344	r		667.0632076999173		ss mrs	12.5	2	f	3	48.5	
183	3101		Left Leg	2-back	1.0	2025_Jan_29_1626	1.9873862501699477	r		669.0737491000909		ss mrs	25.0	2	f	3	48.5	
184	3101		Left Leg	2-back	1.0	2025_Jan_29_1626	1.9874134501442313	r	2	671.073784600012	0.862660099985078	ss mrs	37.5	2	f	3	48.5	
185	3101		Left Leg	2-back	1.0	2025_Jan_29_1626	1.9876771501731128	r	0	673.0736579999793	0.41345319990068674	ss mrs	50.0	2	f	3	48.5	
186	3101		Left Leg	2-back	1.0	2025_Jan_29_1626	1.9878279501572251	r	2	675.0735937999561	0.7800669998396188	ss mrs	62.5	2	f	3	48.5	
187	3101		Left Leg	2-back	1.0	2025_Jan_29_1626	1.9875262500718236	r	2	677.073798700003	0.6833671000786126	ss mrs	75.0	2	f	3	48.5	
188	3101		Left Leg	2-back	1.0	2025_Jan_29_1626	1.9874400501139462	r	2	679.0738597998861	0.6967033999972045	ss mrs	87.5	2	f	3	48.5	
189	3101		Left Leg	2-back	1.0	2025_Jan_29_1626	1.9876629498321563	r	0	681.073752899887	0.5464804999064654	ss mrs	100.0	2	f	3	48.5	
190	3101	48.0	Left Leg	ScoreReport		2025_Jan_29_1626	5.00183295016177	r		683.0833360000979		ss mrs		2	f	3		
191	3101	8	Left Leg	Post-trial Jitter		2025_Jan_29_1626	4.998506700154394	r		688.1433836999349		ss mrs		2	f	3		
192	3101	20	Left Leg	PainBinary		2025_Jan_29_1626	5.005983099807054	r		693.1564313000999	1.733615499921143	ss mrs		2	f	3		1.0
193	3101	21	Left Leg	IntensityRating		2025_Jan_29_1626	5.011718100169674	r		698.1786233000457	4.216963900020346	ss mrs		2	f	3		45.864197530864196
194	3101	23	Left Leg	DistractBinary		2025_Jan_29_1626	5.00637529999949	r		703.2063583999407	1.9169648999813944	ss mrs		2	f	3		1.0
195	3101	9	Left Leg	Post-Q-Jitter		2025_Jan_29_1626	4.993670050287619	r		708.2127380000893		ss mrs		2	f	3		
196	3101	26	Left Leg	ComfortRating		2025_Jan_29_1626	4.549002700019628	r		713.2268614000641	4.519602400017902	ss mrs		2	f	3		-5.308641975308646
197	3101	24	Left Leg	ValenceRating		2025_Jan_29_1626	7.175443100044504	r		717.7970739998855	7.1513922000303864	ss mrs		2	f	3		60.432098765432094
198	3101	26	Left Leg	IntensityRating		2025_Jan_29_1626	6.715141499880701	r		724.9939790000208	6.669799800030887	ss mrs		2	f	3		58.14814814814815
199	3101	27	Left Leg	AvoidanceRating		2025_Jan_29_1626	5.22919540014118	r		731.7286920000333	5.186295400140807	ss mrs		2	f	3		-2.4691358024691397
200	3101	28	Left Leg	RelaxationRating		2025_Jan_29_1626	3.122468699933961	r		736.9737851999234	3.100374599918723	ss mrs		2	f	3		37.71604938271605
201	3101	29	Left Leg	AttentionRating		2025_Jan_29_1626	6.979199200170115	r		740.1121537000872	6.950369300087914	ss mrs		2	f	3		54.629629629629626
202	3101	30	Left Leg	BoredomRating		2025_Jan_29_1626	3.220114499796182	r		747.1084064999595	3.2003161997999996	ss mrs		2	f	3		35.925925925925924
203	3101	31	Left Leg	AlertnessRating		2025_Jan_29_1626	6.219576000003144	r		750.3420704999007	6.200403100112453	ss mrs		2	f	3		41.72839506172838
204	3101	32	Left Leg	PosThxRating		2025_Jan_29_1626	2.747601999901235	r		756.578123900108	2.7169812000356615	ss mrs		2	f	3		-5.432098765432102
205	3101	33	Left Leg	NegThxRating		2025_Jan_29_1626	2.18057610001415	r		759.3450021999888	2.1503457000944763	ss mrs		2	f	3		3.209876543209873
206	3101	34	Left Leg	SelfRating		2025_Jan_29_1626	6.232729299692437	r		761.5439700998832	6.20407269988209	ss mrs		2	f	3		8.641975308641975
207	3101	35	Left Leg	OtherRating		2025_Jan_29_1626	1.7508191999513656	r		767.793297899887	1.733668299857527	ss mrs		2	f	3		-8.148148148148152
208	3101	32	Left Leg	ImageryRating		2025_Jan_29_1626	6.825785900233313	r		769.5642232999671	6.800371099961922	ss mrs		2	f	3		5.679012345679027
209	3101	37	Left Leg	PresentRating		2025_Jan_29_1626	10.675299399998039	r		776.4145744000562	10.650426799897105	ss mrs		2	f	3		19.75308641975309
