RestT1,TaskT1,square,location,corrAns,counterbalancer.thisRepN,counterbalancer.thisTrialN,counterbalancer.thisN,counterbalancer.thisIndex,RestT1Loop.thisRepN,RestT1Loop.thisTrialN,RestT1Loop.thisN,RestT1Loop.thisIndex,TaskT1Loop.thisRepN,TaskT1Loop.thisTrialN,TaskT1Loop.thisN,TaskT1Loop.thisIndex,trials_2.thisRepN,trials_2.thisTrialN,trials_2.thisN,trials_2.thisIndex,fixation_1.started,fixation_1.stopped,NbackInstructions.started,NbackInstructions.stopped,NbackStart.keys,NbackStart.rt,NbackStart.started,NbackStart.stopped,fixation_2.started,fixation_2.stopped,response_2.x,response_2.y,response_2.leftButton,grid_lines_2.started,grid_lines_2.stopped,target_square_2.started,target_square_2.stopped,fixation_3.started,fixation_3.stopped,response_2.click,response_2.corr,response_2.started,response_2.stopped,subject number,gender,session,handedness,scanner,date,expName,psychopyVersion,frameRate,
1,0,,,,0,0,0,0,0,0,0,0,,,,,,,,,57.12538539999514,None,,,,,,,,,,,,,,,,,,,,,,5,m,4,r,CIB,2021_Jun_10_1216,WASABI Nback,2020.2.10,60.00070800501433,
0,1,,,,0,1,1,1,,,,,0,0,0,0,,,,,,,350.8775489999971,None,space,33.81771529999969,350.8775489999971,None,,,,,,,,,,,,,,,,5,m,4,r,CIB,2021_Jun_10_1216,WASABI Nback,2020.2.10,60.00070800501433,
0,1,5,"[0, 0]",None,0,1,1,1,,,,,0,0,0,0,0,0,0,0,,,,,,,,,None,None,None,None,[],None,None,None,None,None,None,[],[],None,None,5,m,4,r,CIB,2021_Jun_10_1216,WASABI Nback,2020.2.10,60.00070800501433,
0,1,2,"[0, 0.2]",None,0,1,1,1,,,,,0,0,0,0,0,1,1,1,,,,,,,,,,,None,None,0,388.0778352999914,None,388.0778352999914,389.07782189999125,389.0611666999903,None,0,1,388.0778352999914,None,5,m,4,r,CIB,2021_Jun_10_1216,WASABI Nback,2020.2.10,60.00070800501433,
0,1,6,"[0.2, 0]",None,0,1,1,1,,,,,0,0,0,0,0,2,2,2,,,,,,,,,,,None,None,0,389.74448379999376,None,389.74448379999376,390.74451049999334,390.727853999997,391.72785319999093,0,1,389.74448379999376,None,5,m,4,r,CIB,2021_Jun_10_1216,WASABI Nback,2020.2.10,60.00070800501433,
0,1,9,"[0.2, -0.2]",None,0,1,1,1,,,,,0,0,0,0,0,3,3,3,,,,,,,,,,,None,None,0,391.7445311999909,None,391.7445311999909,392.7445172000007,392.7278487000003,393.72786499999347,0,1,391.7445311999909,None,5,m,4,r,CIB,2021_Jun_10_1216,WASABI Nback,2020.2.10,60.00070800501433,
0,1,3,"[0.2, 0.2]",None,0,1,1,1,,,,,0,0,0,0,0,4,4,4,,,,,,,,,,,None,None,0,393.7445344000007,None,393.7445344000007,394.74453260000155,394.7278743999923,395.7278865999979,0,1,393.7445344000007,None,5,m,4,r,CIB,2021_Jun_10_1216,WASABI Nback,2020.2.10,60.00070800501433,
0,1,9,"[0.2, -0.2]",1,0,1,1,1,,,,,0,0,0,0,0,5,5,5,,,,,,,,,,,None,None,0,395.7445574000012,None,395.7445574000012,396.7445557000028,396.72786970000016,397.7278774000006,0,1,395.7445574000012,None,5,m,4,r,CIB,2021_Jun_10_1216,WASABI Nback,2020.2.10,60.00070800501433,
0,1,7,"[-0.2, -0.2]",None,0,1,1,1,,,,,0,0,0,0,0,6,6,6,,,,,,,,,,,None,None,0,397.7445679999946,None,397.7445679999946,398.74445909999486,398.72789860000194,399.72792279999703,0,1,397.7445679999946,None,5,m,4,r,CIB,2021_Jun_10_1216,WASABI Nback,2020.2.10,60.00070800501433,
0,1,1,"[-0.2, 0.2]",None,0,1,1,1,,,,,0,0,0,0,0,7,7,7,,,,,,,,,,,None,None,0,399.7445910999959,None,399.7445910999959,400.744591900002,400.7279114999983,401.72792550000304,0,1,399.7445910999959,None,5,m,4,r,CIB,2021_Jun_10_1216,WASABI Nback,2020.2.10,60.00070800501433,
0,1,5,"[0, 0]",None,0,1,1,1,,,,,0,0,0,0,0,8,8,8,,,,,,,,,,,None,None,0,401.7445912999974,None,401.7445912999974,402.7446160999971,402.72794549999526,403.72792489999847,0,1,401.7445912999974,None,5,m,4,r,CIB,2021_Jun_10_1216,WASABI Nback,2020.2.10,60.00070800501433,
0,1,7,"[-0.2, -0.2]",None,0,1,1,1,,,,,0,0,0,0,0,9,9,9,,,,,,,,,,,None,None,0,403.7446198999969,None,403.7446198999969,404.74461009999504,404.7279475999967,405.72783969999,0,1,403.7446198999969,None,5,m,4,r,CIB,2021_Jun_10_1216,WASABI Nback,2020.2.10,60.00070800501433,
0,1,5,"[0, 0]",1,0,1,1,1,,,,,0,0,0,0,0,10,10,10,,,,,,,,,,,None,None,0,405.7446473000018,None,405.7446473000018,406.74465469999996,406.72795909999695,407.727965500002,0,1,405.7446473000018,None,5,m,4,r,CIB,2021_Jun_10_1216,WASABI Nback,2020.2.10,60.00070800501433,
0,1,6,"[0.2, 0]",None,0,1,1,1,,,,,0,0,0,0,0,11,11,11,,,,,,,,,,,None,None,0,407.74464859999716,None,407.74464859999716,408.7446685000032,408.72797019999416,409.72796579998976,0,1,407.74464859999716,None,5,m,4,r,CIB,2021_Jun_10_1216,WASABI Nback,2020.2.10,60.00070800501433,
0,1,3,"[0.2, 0.2]",None,0,1,1,1,,,,,0,0,0,0,0,12,12,12,,,,,,,,,,,None,None,0,409.7446681000001,None,409.7446681000001,410.7446561999968,410.7280165999982,411.7280200999958,0,1,409.7446681000001,None,5,m,4,r,CIB,2021_Jun_10_1216,WASABI Nback,2020.2.10,60.00070800501433,
0,1,6,"[0.2, 0]",1,0,1,1,1,,,,,0,0,0,0,0,13,13,13,,,,,,,,,,,None,None,0,411.74469829999725,None,411.74469829999725,412.74454980000155,412.72802159999264,413.72803659999045,0,1,411.74469829999725,None,5,m,4,r,CIB,2021_Jun_10_1216,WASABI Nback,2020.2.10,60.00070800501433,
0,1,8,"[0, -0.2]",None,0,1,1,1,,,,,0,0,0,0,0,14,14,14,,,,,,,,,,,None,None,0,413.74469809999573,None,413.74469809999573,414.7447373999894,414.7280383999896,415.7280342000013,0,1,413.74469809999573,None,5,m,4,r,CIB,2021_Jun_10_1216,WASABI Nback,2020.2.10,60.00070800501433,
0,1,9,"[0.2, -0.2]",None,0,1,1,1,,,,,0,0,0,0,0,15,15,15,,,,,,,,,,,None,None,0,415.7447262999922,None,415.7447262999922,416.7447328999988,416.72805569999036,417.7280747999903,0,1,415.7447262999922,None,5,m,4,r,CIB,2021_Jun_10_1216,WASABI Nback,2020.2.10,60.00070800501433,
0,1,9,"[0.2, -0.2]",None,0,1,1,1,,,,,0,0,0,0,0,16,16,16,,,,,,,,,,,None,None,0,417.7447213999985,None,417.7447213999985,418.74473559999024,418.7280585999979,419.7280596999917,0,1,417.7447213999985,None,5,m,4,r,CIB,2021_Jun_10_1216,WASABI Nback,2020.2.10,60.00070800501433,
0,1,1,"[-0.2, 0.2]",None,0,1,1,1,,,,,0,0,0,0,0,17,17,17,,,,,,,,,,,None,None,0,419.7447366999986,None,419.7447366999986,420.7447622999898,420.7280720999988,421.7280764999887,0,1,419.7447366999986,None,5,m,4,r,CIB,2021_Jun_10_1216,WASABI Nback,2020.2.10,60.00070800501433,
0,1,3,"[0.2, 0.2]",None,0,1,1,1,,,,,0,0,0,0,0,18,18,18,,,,,,,,,,,None,None,0,421.74473189999117,None,421.74473189999117,422.74476249999134,422.72809649999544,423.72808849999274,0,1,421.74473189999117,None,5,m,4,r,CIB,2021_Jun_10_1216,WASABI Nback,2020.2.10,60.00070800501433,
0,1,5,"[0, 0]",None,0,1,1,1,,,,,0,0,0,0,0,19,19,19,,,,,,,,,,,None,None,0,423.7447373000032,None,423.7447373000032,424.74476439999125,424.7280899999896,425.7281218999997,0,1,423.7447373000032,None,5,m,4,r,CIB,2021_Jun_10_1216,WASABI Nback,2020.2.10,60.00070800501433,
0,1,3,"[0.2, 0.2]",1,0,1,1,1,,,,,0,0,0,0,0,20,20,20,,,,,,,,,,,None,None,0,425.74477389999083,None,425.74477389999083,426.74474359999294,426.7281129999901,427.7281062999973,0,1,425.74477389999083,None,5,m,4,r,CIB,2021_Jun_10_1216,WASABI Nback,2020.2.10,60.00070800501433,
0,1,4,"[-0.2, 0]",None,0,1,1,1,,,,,0,0,0,0,0,21,21,21,,,,,,,,,,,None,None,0,427.74478629999794,None,427.74478629999794,428.744798300002,428.72814140000264,429.72813039999164,0,1,427.74478629999794,None,5,m,4,r,CIB,2021_Jun_10_1216,WASABI Nback,2020.2.10,60.00070800501433,
0,1,7,"[-0.2, -0.2]",None,0,1,1,1,,,,,0,0,0,0,0,22,22,22,,,,,,,,,,,None,None,0,429.7448948999954,None,429.7448948999954,430.7448129999975,430.72815199999604,431.72815059999994,0,1,429.7448948999954,None,5,m,4,r,CIB,2021_Jun_10_1216,WASABI Nback,2020.2.10,60.00070800501433,
0,1,4,"[-0.2, 0]",1,0,1,1,1,,,,,0,0,0,0,0,23,23,23,,,,,,,,,,,None,None,0,431.7448194999888,None,431.7448194999888,432.7448252999893,432.72816779999994,433.72815869998885,0,1,431.7448194999888,None,5,m,4,r,CIB,2021_Jun_10_1216,WASABI Nback,2020.2.10,60.00070800501433,
0,1,4,"[-0.2, 0]",None,0,1,1,1,,,,,0,0,0,0,0,24,24,24,,,,,,,,,,,None,None,0,433.7448422000016,None,433.7448422000016,434.744844300003,434.7281779999903,435.7282006000023,0,1,433.7448422000016,None,5,m,4,r,CIB,2021_Jun_10_1216,WASABI Nback,2020.2.10,60.00070800501433,
0,1,5,"[0, 0]",None,0,1,1,1,,,,,0,0,0,0,0,25,25,25,,,,,,,,,,,None,None,0,435.7448474999983,None,435.7448474999983,436.74486169999,436.7282007000031,437.72821999998996,0,1,435.7448474999983,None,5,m,4,r,CIB,2021_Jun_10_1216,WASABI Nback,2020.2.10,60.00070800501433,
0,1,2,"[0, 0.2]",None,0,1,1,1,,,,,0,0,0,0,0,26,26,26,,,,,,,,,,,None,None,0,437.7448505999928,None,437.7448505999928,438.74485899999854,438.72822589999123,439.72821639999165,0,1,437.7448505999928,None,5,m,4,r,CIB,2021_Jun_10_1216,WASABI Nback,2020.2.10,60.00070800501433,
0,1,6,"[0.2, 0]",None,0,1,1,1,,,,,0,0,0,0,0,27,27,27,,,,,,,,,,,None,None,0,439.74489309999626,None,439.74489309999626,440.7448749999894,440.72822029999224,441.72822160000214,0,1,439.74489309999626,None,5,m,4,r,CIB,2021_Jun_10_1216,WASABI Nback,2020.2.10,60.00070800501433,
0,1,7,"[-0.2, -0.2]",None,0,1,1,1,,,,,0,0,0,0,0,28,28,28,,,,,,,,,,,None,None,0,441.7448812999937,None,441.7448812999937,442.7449004999944,442.72823749999225,443.7282608999958,0,1,441.7448812999937,None,5,m,4,r,CIB,2021_Jun_10_1216,WASABI Nback,2020.2.10,60.00070800501433,
0,1,6,"[0.2, 0]",1,0,1,1,1,,,,,0,0,0,0,0,29,29,29,,,,,,,,,,,None,None,0,443.7448955,None,443.7448955,444.74492149999423,444.7282564999914,445.7282645999949,0,1,443.7448955,None,5,m,4,r,CIB,2021_Jun_10_1216,WASABI Nback,2020.2.10,60.00070800501433,
0,1,6,"[0.2, 0]",None,0,1,1,1,,,,,0,0,0,0,0,30,30,30,,,,,,,,,,,None,None,0,445.74493529999745,None,445.74493529999745,446.74493190000067,446.7283214999916,447.7282795999927,0,1,445.74493529999745,None,5,m,4,r,CIB,2021_Jun_10_1216,WASABI Nback,2020.2.10,60.00070800501433,
0,1,7,"[-0.2, -0.2]",None,0,1,1,1,,,,,0,0,0,0,0,31,31,31,,,,,,,,,,,None,None,0,447.7449431999994,None,447.7449431999994,448.7449603999994,448.7282688999985,449.72829179999826,0,1,447.7449431999994,None,5,m,4,r,CIB,2021_Jun_10_1216,WASABI Nback,2020.2.10,60.00070800501433,
0,1,6,"[0.2, 0]",1,0,1,1,1,,,,,0,0,0,0,0,32,32,32,,,,,,,,,,,None,None,0,449.7449389999965,None,449.7449389999965,450.74496579999686,450.72831409999344,451.72830960000283,0,1,449.7449389999965,None,5,m,4,r,CIB,2021_Jun_10_1216,WASABI Nback,2020.2.10,60.00070800501433,
0,1,2,"[0, 0.2]",None,0,1,1,1,,,,,0,0,0,0,0,33,33,33,,,,,,,,,,,None,None,0,451.7449867999967,None,451.7449867999967,452.74498079999466,452.72831150000275,453.7283394999977,0,1,451.7449867999967,None,5,m,4,r,CIB,2021_Jun_10_1216,WASABI Nback,2020.2.10,60.00070800501433,
0,1,5,"[0, 0]",None,0,1,1,1,,,,,0,0,0,0,0,34,34,34,,,,,,,,,,,None,None,0,453.7448623999953,None,453.7448623999953,454.74503629999526,454.7283316999965,455.7283357999986,0,1,453.7448623999953,None,5,m,4,r,CIB,2021_Jun_10_1216,WASABI Nback,2020.2.10,60.00070800501433,
0,1,4,"[-0.2, 0]",None,0,1,1,1,,,,,0,0,0,0,0,35,35,35,,,,,,,,,,,None,None,0,455.7450106999895,None,455.7450106999895,456.74502689999645,456.7283538999909,457.72833739999624,0,1,455.7450106999895,None,5,m,4,r,CIB,2021_Jun_10_1216,WASABI Nback,2020.2.10,60.00070800501433,
0,1,4,"[-0.2, 0]",None,0,1,1,1,,,,,0,0,0,0,0,36,36,36,,,,,,,,,,,None,None,0,457.7450333000015,None,457.7450333000015,458.74503150000237,458.72836429999734,459.72838749999937,0,1,457.7450333000015,None,5,m,4,r,CIB,2021_Jun_10_1216,WASABI Nback,2020.2.10,60.00070800501433,
0,1,7,"[-0.2, -0.2]",None,0,1,1,1,,,,,0,0,0,0,0,37,37,37,,,,,,,,,,,None,None,0,459.7450586999912,None,459.7450586999912,460.74503999999433,460.7283865999925,461.72841840000183,0,1,459.7450586999912,None,5,m,4,r,CIB,2021_Jun_10_1216,WASABI Nback,2020.2.10,60.00070800501433,
0,1,4,"[-0.2, 0]",1,0,1,1,1,,,,,0,0,0,0,0,38,38,38,,,,,,,,,,,None,None,0,461.74503689999983,None,461.74503689999983,462.7450785999972,462.7284013000026,463.72839309999836,0,1,461.74503689999983,None,5,m,4,r,CIB,2021_Jun_10_1216,WASABI Nback,2020.2.10,60.00070800501433,
0,1,3,"[0.2, 0.2]",None,0,1,1,1,,,,,0,0,0,0,0,39,39,39,,,,,,,,,,,None,None,0,463.7450710999983,None,463.7450710999983,464.7450557999982,464.7284043999971,465.72842509999464,0,1,463.7450710999983,None,5,m,4,r,CIB,2021_Jun_10_1216,WASABI Nback,2020.2.10,60.00070800501433,
0,1,5,"[0, 0]",None,0,1,1,1,,,,,0,0,0,0,0,40,40,40,,,,,,,,,,,None,None,0,465.7450883999991,None,465.7450883999991,466.7450897999952,466.72842289999244,467.72844839999743,0,1,465.7450883999991,None,5,m,4,r,CIB,2021_Jun_10_1216,WASABI Nback,2020.2.10,60.00070800501433,
0,1,3,"[0.2, 0.2]",1,0,1,1,1,,,,,0,0,0,0,0,41,41,41,,,,,,,,,,,None,None,0,467.74508269999933,None,467.74508269999933,468.7451180999924,468.7284573999932,469.7284456999914,0,1,467.74508269999933,None,5,m,4,r,CIB,2021_Jun_10_1216,WASABI Nback,2020.2.10,60.00070800501433,
0,1,1,"[-0.2, 0.2]",None,0,1,1,1,,,,,0,0,0,0,0,42,42,42,,,,,,,,,,,None,None,0,469.7451143999933,None,469.7451143999933,470.7451266999997,470.72844639999676,471.72847979998915,0,1,469.7451143999933,None,5,m,4,r,CIB,2021_Jun_10_1216,WASABI Nback,2020.2.10,60.00070800501433,
0,1,9,"[0.2, -0.2]",None,0,1,1,1,,,,,0,0,0,0,0,43,43,43,,,,,,,,,,,None,None,0,471.74512619999587,None,471.74512619999587,472.74513909999223,472.72845589999633,473.7284944999992,0,1,471.74512619999587,None,5,m,4,r,CIB,2021_Jun_10_1216,WASABI Nback,2020.2.10,60.00070800501433,
0,1,9,"[0.2, -0.2]",None,0,1,1,1,,,,,0,0,0,0,0,44,44,44,,,,,,,,,,,None,None,0,473.74514539999655,None,473.74514539999655,474.745167999994,474.7285055999964,475.7285205999942,0,1,473.74514539999655,None,5,m,4,r,CIB,2021_Jun_10_1216,WASABI Nback,2020.2.10,60.00070800501433,
0,1,8,"[0, -0.2]",None,0,1,1,1,,,,,0,0,0,0,0,45,45,45,,,,,,,,,,,None,None,0,475.7451626999973,None,475.7451626999973,476.74516500000027,476.7285189999966,477.7285116999992,0,1,475.7451626999973,None,5,m,4,r,CIB,2021_Jun_10_1216,WASABI Nback,2020.2.10,60.00070800501433,
0,1,6,"[0.2, 0]",None,0,1,1,1,,,,,0,0,0,0,0,46,46,46,,,,,,,,,,,None,None,0,477.74517979999655,None,477.74517979999655,478.7451857999986,478.72849829999905,479.72851859999355,0,1,477.74517979999655,None,5,m,4,r,CIB,2021_Jun_10_1216,WASABI Nback,2020.2.10,60.00070800501433,
0,1,3,"[0.2, 0.2]",None,0,1,1,1,,,,,0,0,0,0,0,47,47,47,,,,,,,,,,,None,None,0,479.745193499999,None,479.745193499999,480.74521059999825,480.7285302999953,481.7285203999927,0,1,479.745193499999,None,5,m,4,r,CIB,2021_Jun_10_1216,WASABI Nback,2020.2.10,60.00070800501433,
0,1,6,"[0.2, 0]",1,0,1,1,1,,,,,0,0,0,0,0,48,48,48,,,,,,,,,,,None,None,0,481.7452099999937,None,481.7452099999937,482.74520059999486,482.7285695000028,483.72854889999144,0,1,481.7452099999937,None,5,m,4,r,CIB,2021_Jun_10_1216,WASABI Nback,2020.2.10,60.00070800501433,
0,1,5,"[0, 0]",None,0,1,1,1,,,,,0,0,0,0,0,49,49,49,,,,,,,,,,,None,None,0,483.7452270999929,None,483.7452270999929,484.74523770000087,484.7285650999984,485.728586199999,0,1,483.7452270999929,None,5,m,4,r,CIB,2021_Jun_10_1216,WASABI Nback,2020.2.10,60.00070800501433,
0,1,7,"[-0.2, -0.2]",None,0,1,1,1,,,,,0,0,0,0,0,50,50,50,,,,,,,,,,,None,None,0,485.74523889999546,None,485.74523889999546,486.745250699998,486.7285963000031,487.72858879998967,0,1,485.74523889999546,None,5,m,4,r,CIB,2021_Jun_10_1216,WASABI Nback,2020.2.10,60.00070800501433,
0,1,5,"[0, 0]",1,0,1,1,1,,,,,0,0,0,0,0,51,51,51,,,,,,,,,,,None,None,0,487.745247999992,None,487.745247999992,488.74525779999385,488.72861599999305,489.72861259999627,0,1,487.745247999992,None,5,m,4,r,CIB,2021_Jun_10_1216,WASABI Nback,2020.2.10,60.00070800501433,
0,1,1,"[-0.2, 0.2]",None,0,1,1,1,,,,,0,0,0,0,0,52,52,52,,,,,,,,,,,None,None,0,489.7452828999958,None,489.7452828999958,490.74527689999377,490.728627199991,491.72864649999246,0,1,489.7452828999958,None,5,m,4,r,CIB,2021_Jun_10_1216,WASABI Nback,2020.2.10,60.00070800501433,
0,1,7,"[-0.2, -0.2]",None,0,1,1,1,,,,,0,0,0,0,0,53,53,53,,,,,,,,,,,None,None,0,491.74528589998954,None,491.74528589998954,492.74530460000096,492.72861359998933,493.72863279999,0,1,491.74528589998954,None,5,m,4,r,CIB,2021_Jun_10_1216,WASABI Nback,2020.2.10,60.00070800501433,
0,1,9,"[0.2, -0.2]",None,0,1,1,1,,,,,0,0,0,0,0,54,54,54,,,,,,,,,,,None,None,0,493.7453000999958,None,493.7453000999958,494.7452942999953,494.72866120000253,495.7286618999933,0,1,493.7453000999958,None,5,m,4,r,CIB,2021_Jun_10_1216,WASABI Nback,2020.2.10,60.00070800501433,
0,1,3,"[0.2, 0.2]",None,0,1,1,1,,,,,0,0,0,0,0,55,55,55,,,,,,,,,,,None,None,0,495.74531820000266,None,495.74531820000266,496.7453192999965,496.7286588999996,497.7286824999901,0,1,495.74531820000266,None,5,m,4,r,CIB,2021_Jun_10_1216,WASABI Nback,2020.2.10,60.00070800501433,
0,1,9,"[0.2, -0.2]",1,0,1,1,1,,,,,0,0,0,0,0,56,56,56,,,,,,,,,,,None,None,0,497.74533459999657,None,497.74533459999657,498.7453542000003,498.7286924999935,499.7281592999934,0,1,497.74533459999657,None,5,m,4,r,CIB,2021_Jun_10_1216,WASABI Nback,2020.2.10,60.00070800501433,
0,1,6,"[0.2, 0]",None,0,1,1,1,,,,,0,0,0,0,0,57,57,57,,,,,,,,,,,None,None,0,499.7453616999992,None,499.7453616999992,500.74534139999014,500.72872479999205,501.7287275999988,0,1,499.7453616999992,None,5,m,4,r,CIB,2021_Jun_10_1216,WASABI Nback,2020.2.10,60.00070800501433,
0,1,2,"[0, 0.2]",None,0,1,1,1,,,,,0,0,0,0,0,58,58,58,,,,,,,,,,,None,None,0,501.7453641000029,None,501.7453641000029,502.74524530000053,502.728721499996,503.72873809999146,0,1,501.7453641000029,None,5,m,4,r,CIB,2021_Jun_10_1216,WASABI Nback,2020.2.10,60.00070800501433,
0,1,5,"[0, 0]",None,0,1,1,1,,,,,0,0,0,0,0,59,59,59,,,,,,,,,,,None,None,0,503.7453736000025,None,503.7453736000025,504.74538159999065,504.7287412000005,505.72874639999645,0,1,503.7453736000025,None,5,m,4,r,CIB,2021_Jun_10_1216,WASABI Nback,2020.2.10,60.00070800501433,
0,1,5,"[0, 0]",None,0,1,1,1,,,,,0,0,0,0,0,60,60,60,,,,,,,,,,,None,None,0,505.7453852999897,None,505.7453852999897,506.7453955999954,506.7287534999923,507.72876339999493,0,1,505.7453852999897,None,5,m,4,r,CIB,2021_Jun_10_1216,WASABI Nback,2020.2.10,60.00070800501433,
0,1,2,"[0, 0.2]",None,0,1,1,1,,,,,0,0,0,0,0,61,61,61,,,,,,,,,,,None,None,0,507.7454093999986,None,507.7454093999986,508.74543209999683,508.7287534999923,509.72877580000204,0,1,507.7454093999986,None,5,m,4,r,CIB,2021_Jun_10_1216,WASABI Nback,2020.2.10,60.00070800501433,
0,1,6,"[0.2, 0]",None,0,1,1,1,,,,,0,0,0,0,0,62,62,62,,,,,,,,,,,None,None,0,509.7454307000007,None,509.7454307000007,510.7454299999954,510.72875080000085,511.7287570999906,0,1,509.7454307000007,None,5,m,4,r,CIB,2021_Jun_10_1216,WASABI Nback,2020.2.10,60.00070800501433,
0,1,9,"[0.2, -0.2]",None,0,1,1,1,,,,,0,0,0,0,0,63,63,63,,,,,,,,,,,None,None,0,511.7454415999964,None,511.7454415999964,512.7454502999899,512.7287625999888,513.7287849999993,0,1,511.7454415999964,None,5,m,4,r,CIB,2021_Jun_10_1216,WASABI Nback,2020.2.10,60.00070800501433,
0,1,3,"[0.2, 0.2]",None,0,1,1,1,,,,,0,0,0,0,0,64,64,64,,,,,,,,,,,None,None,0,513.745451499999,None,513.745451499999,514.7454731999896,514.7286880000029,515.728790299996,0,1,513.745451499999,None,5,m,4,r,CIB,2021_Jun_10_1216,WASABI Nback,2020.2.10,60.00070800501433,
0,1,9,"[0.2, -0.2]",1,0,1,1,1,,,,,0,0,0,0,0,65,65,65,,,,,,,,,,,None,None,0,515.7454733999912,None,515.7454733999912,516.7454768000025,516.7288243999938,517.7288139000011,0,1,515.7454733999912,None,5,m,4,r,CIB,2021_Jun_10_1216,WASABI Nback,2020.2.10,60.00070800501433,
0,1,7,"[-0.2, -0.2]",None,0,1,1,1,,,,,0,0,0,0,0,66,66,66,,,,,,,,,,,None,None,0,517.7454935999995,None,517.7454935999995,518.745496699994,518.7288259999914,519.7288305999973,0,1,517.7454935999995,None,5,m,4,r,CIB,2021_Jun_10_1216,WASABI Nback,2020.2.10,60.00070800501433,
0,1,1,"[-0.2, 0.2]",None,0,1,1,1,,,,,0,0,0,0,0,67,67,67,,,,,,,,,,,None,None,0,519.7454996000015,None,519.7454996000015,520.7455021999922,520.728833599991,521.7288583999907,0,1,519.7454996000015,None,5,m,4,r,CIB,2021_Jun_10_1216,WASABI Nback,2020.2.10,60.00070800501433,
0,1,5,"[0, 0]",None,0,1,1,1,,,,,0,0,0,0,0,68,68,68,,,,,,,,,,,None,None,0,521.7455135999917,None,521.7455135999917,522.7455371999968,522.7288721999939,523.7288734999893,0,1,521.7455135999917,None,5,m,4,r,CIB,2021_Jun_10_1216,WASABI Nback,2020.2.10,60.00070800501433,
0,1,7,"[-0.2, -0.2]",None,0,1,1,1,,,,,0,0,0,0,0,69,69,69,,,,,,,,,,,None,None,0,523.7454334999929,None,523.7454334999929,524.7455373999983,524.7288800999959,525.7288716999901,0,1,523.7454334999929,None,5,m,4,r,CIB,2021_Jun_10_1216,WASABI Nback,2020.2.10,60.00070800501433,
0,1,5,"[0, 0]",1,0,1,1,1,,,,,0,0,0,0,0,70,70,70,,,,,,,,,,,None,None,0,525.7455540999945,None,525.7455540999945,526.7455552000029,526.728884199998,527.7288838999957,0,1,525.7455540999945,None,5,m,4,r,CIB,2021_Jun_10_1216,WASABI Nback,2020.2.10,60.00070800501433,
0,1,6,"[0.2, 0]",None,0,1,1,1,,,,,0,0,0,0,0,71,71,71,,,,,,,,,,,None,None,0,527.7455693999946,None,527.7455693999946,528.7455754999974,528.7288948999922,529.7288966999913,0,1,527.7455693999946,None,5,m,4,r,CIB,2021_Jun_10_1216,WASABI Nback,2020.2.10,60.00070800501433,
0,1,3,"[0.2, 0.2]",None,0,1,1,1,,,,,0,0,0,0,0,72,72,72,,,,,,,,,,,None,None,0,529.7455935999897,None,529.7455935999897,530.7456132999941,530.7289099999907,531.7289173999889,0,1,529.7455935999897,None,5,m,4,r,CIB,2021_Jun_10_1216,WASABI Nback,2020.2.10,60.00070800501433,
0,1,6,"[0.2, 0]",1,0,1,1,1,,,,,0,0,0,0,0,73,73,73,,,,,,,,,,,None,None,0,531.7455993999902,None,531.7455993999902,532.7456338999909,532.7289639999944,533.7289644999983,0,1,531.7455993999902,None,5,m,4,r,CIB,2021_Jun_10_1216,WASABI Nback,2020.2.10,60.00070800501433,
0,1,8,"[0, -0.2]",None,0,1,1,1,,,,,0,0,0,0,0,74,74,74,,,,,,,,,,,None,None,0,533.7456424999982,None,533.7456424999982,534.745628299992,534.728949700002,535.7289552000002,0,1,533.7456424999982,None,5,m,4,r,CIB,2021_Jun_10_1216,WASABI Nback,2020.2.10,60.00070800501433,
0,1,9,"[0.2, -0.2]",None,0,1,1,1,,,,,0,0,0,0,0,75,75,75,,,,,,,,,,,None,None,0,535.7456515999947,None,535.7456515999947,536.7456321999925,536.7289593000023,537.7289808999922,0,1,535.7456515999947,None,5,m,4,r,CIB,2021_Jun_10_1216,WASABI Nback,2020.2.10,60.00070800501433,
0,1,9,"[0.2, -0.2]",None,0,1,1,1,,,,,0,0,0,0,0,76,76,76,,,,,,,,,,,None,None,0,537.7456567999907,None,537.7456567999907,538.7456544000015,538.7289642999967,539.7290199999989,0,1,537.7456567999907,None,5,m,4,r,CIB,2021_Jun_10_1216,WASABI Nback,2020.2.10,60.00070800501433,
0,1,1,"[-0.2, 0.2]",None,0,1,1,1,,,,,0,0,0,0,0,77,77,77,,,,,,,,,,,None,None,0,539.7456596999982,None,539.7456596999982,540.7455525999976,540.7289979999914,541.7290203000011,0,1,539.7456596999982,None,5,m,4,r,CIB,2021_Jun_10_1216,WASABI Nback,2020.2.10,60.00070800501433,
0,1,3,"[0.2, 0.2]",None,0,1,1,1,,,,,0,0,0,0,0,78,78,78,,,,,,,,,,,None,None,0,541.7456812000019,None,541.7456812000019,542.7456878999947,542.729030100003,543.7290390999988,0,1,541.7456812000019,None,5,m,4,r,CIB,2021_Jun_10_1216,WASABI Nback,2020.2.10,60.00070800501433,
0,1,5,"[0, 0]",None,0,1,1,1,,,,,0,0,0,0,0,79,79,79,,,,,,,,,,,None,None,0,543.7457301999966,None,543.7457301999966,544.7457237999915,544.7290284999908,545.7290579999972,0,1,543.7457301999966,None,5,m,4,r,CIB,2021_Jun_10_1216,WASABI Nback,2020.2.10,60.00070800501433,
0,1,3,"[0.2, 0.2]",1,0,1,1,1,,,,,0,0,0,0,0,80,80,80,,,,,,,,,,,None,None,0,545.7456972999935,None,545.7456972999935,546.7457383000001,546.7290623000008,547.729055799995,0,1,545.7456972999935,None,5,m,4,r,CIB,2021_Jun_10_1216,WASABI Nback,2020.2.10,60.00070800501433,
0,1,4,"[-0.2, 0]",None,0,1,1,1,,,,,0,0,0,0,0,81,81,81,,,,,,,,,,,None,None,0,547.7457348000025,None,547.7457348000025,548.7457394999947,548.7290225999895,549.7290656999976,0,1,547.7457348000025,None,5,m,4,r,CIB,2021_Jun_10_1216,WASABI Nback,2020.2.10,60.00070800501433,
0,1,7,"[-0.2, -0.2]",None,0,1,1,1,,,,,0,0,0,0,0,82,82,82,,,,,,,,,,,None,None,0,549.7457549999963,None,549.7457549999963,550.7457663999958,550.7290800999908,551.7290759999887,0,1,549.7457549999963,None,5,m,4,r,CIB,2021_Jun_10_1216,WASABI Nback,2020.2.10,60.00070800501433,
0,1,4,"[-0.2, 0]",1,0,1,1,1,,,,,0,0,0,0,0,83,83,83,,,,,,,,,,,None,None,0,551.7457571999985,None,551.7457571999985,552.7457800999982,552.7290913999896,553.7290999999968,0,1,551.7457571999985,None,5,m,4,r,CIB,2021_Jun_10_1216,WASABI Nback,2020.2.10,60.00070800501433,
0,1,4,"[-0.2, 0]",None,0,1,1,1,,,,,0,0,0,0,0,84,84,84,,,,,,,,,,,None,None,0,553.7457539000025,None,553.7457539000025,554.7457691000018,554.7291226999951,555.7291083000018,0,1,553.7457539000025,None,5,m,4,r,CIB,2021_Jun_10_1216,WASABI Nback,2020.2.10,60.00070800501433,
0,1,5,"[0, 0]",None,0,1,1,1,,,,,0,0,0,0,0,85,85,85,,,,,,,,,,,None,None,0,555.7457763999992,None,555.7457763999992,556.7457796999952,556.7291275999887,557.7291258999903,0,1,555.7457763999992,None,5,m,4,r,CIB,2021_Jun_10_1216,WASABI Nback,2020.2.10,60.00070800501433,
0,1,2,"[0, 0.2]",None,0,1,1,1,,,,,0,0,0,0,0,86,86,86,,,,,,,,,,,None,None,0,557.74588029999,None,557.74588029999,558.7458112000022,558.7291298999917,559.7291292000009,0,1,557.74588029999,None,5,m,4,r,CIB,2021_Jun_10_1216,WASABI Nback,2020.2.10,60.00070800501433,
0,1,6,"[0.2, 0]",None,0,1,1,1,,,,,0,0,0,0,0,87,87,87,,,,,,,,,,,None,None,0,559.745823099991,None,559.745823099991,560.7458156999928,560.7291718999913,561.7291712000006,0,1,559.745823099991,None,5,m,4,r,CIB,2021_Jun_10_1216,WASABI Nback,2020.2.10,60.00070800501433,
0,1,7,"[-0.2, -0.2]",None,0,1,1,1,,,,,0,0,0,0,0,88,88,88,,,,,,,,,,,None,None,0,561.7458274999954,None,561.7458274999954,562.7458456000022,562.7291680999915,563.729190099999,0,1,561.7458274999954,None,5,m,4,r,CIB,2021_Jun_10_1216,WASABI Nback,2020.2.10,60.00070800501433,
0,1,6,"[0.2, 0]",1,0,1,1,1,,,,,0,0,0,0,0,89,89,89,,,,,,,,,,,None,None,0,563.7458419000031,None,563.7458419000031,564.7458552999888,564.729191099992,565.7291932999942,0,1,563.7458419000031,None,5,m,4,r,CIB,2021_Jun_10_1216,WASABI Nback,2020.2.10,60.00070800501433,
0,1,6,"[0.2, 0]",None,0,1,1,1,,,,,0,0,0,0,0,90,90,90,,,,,,,,,,,None,None,0,565.7458710999927,None,565.7458710999927,566.7458464999945,566.7292103999935,567.7292201999953,0,1,565.7458710999927,None,5,m,4,r,CIB,2021_Jun_10_1216,WASABI Nback,2020.2.10,60.00070800501433,
0,1,7,"[-0.2, -0.2]",None,0,1,1,1,,,,,0,0,0,0,0,91,91,91,,,,,,,,,,,None,None,0,567.7458743999887,None,567.7458743999887,568.745874699991,568.7291982000024,569.7292182999954,0,1,567.7458743999887,None,5,m,4,r,CIB,2021_Jun_10_1216,WASABI Nback,2020.2.10,60.00070800501433,
0,1,6,"[0.2, 0]",1,0,1,1,1,,,,,0,0,0,0,0,92,92,92,,,,,,,,,,,None,None,0,569.7458891999995,None,569.7458891999995,570.7459406999988,570.7292256999935,571.7292376999976,0,1,569.7458891999995,None,5,m,4,r,CIB,2021_Jun_10_1216,WASABI Nback,2020.2.10,60.00070800501433,
0,1,2,"[0, 0.2]",None,0,1,1,1,,,,,0,0,0,0,0,93,93,93,,,,,,,,,,,None,None,0,571.7459056999942,None,571.7459056999942,572.745900599999,572.7292613000027,573.7292671999894,0,1,571.7459056999942,None,5,m,4,r,CIB,2021_Jun_10_1216,WASABI Nback,2020.2.10,60.00070800501433,
0,1,5,"[0, 0]",None,0,1,1,1,,,,,0,0,0,0,0,94,94,94,,,,,,,,,,,None,None,0,573.7459249999956,None,573.7459249999956,574.7459176999982,574.7292544999946,575.7292861000024,0,1,573.7459249999956,None,5,m,4,r,CIB,2021_Jun_10_1216,WASABI Nback,2020.2.10,60.00070800501433,
0,1,4,"[-0.2, 0]",None,0,1,1,1,,,,,0,0,0,0,0,95,95,95,,,,,,,,,,,None,None,0,575.7459334000014,None,575.7459334000014,576.7459435999917,576.7292852999963,577.7292799999996,0,1,575.7459334000014,None,5,m,4,r,CIB,2021_Jun_10_1216,WASABI Nback,2020.2.10,60.00070800501433,
0,1,4,"[-0.2, 0]",None,0,1,1,1,,,,,0,0,0,0,0,96,96,96,,,,,,,,,,,None,None,0,577.7459467000008,None,577.7459467000008,578.7459459999955,578.7293060999946,579.7293147000019,0,1,577.7459467000008,None,5,m,4,r,CIB,2021_Jun_10_1216,WASABI Nback,2020.2.10,60.00070800501433,
0,1,7,"[-0.2, -0.2]",None,0,1,1,1,,,,,0,0,0,0,0,97,97,97,,,,,,,,,,,None,None,0,579.7459644999908,None,579.7459644999908,580.745975400001,580.7293013000017,581.729331399998,0,1,579.7459644999908,None,5,m,4,r,CIB,2021_Jun_10_1216,WASABI Nback,2020.2.10,60.00070800501433,
0,1,4,"[-0.2, 0]",1,0,1,1,1,,,,,0,0,0,0,0,98,98,98,,,,,,,,,,,None,None,0,581.7459798999917,None,581.7459798999917,582.7459864999983,582.7292065999936,583.7293254999968,0,1,581.7459798999917,None,5,m,4,r,CIB,2021_Jun_10_1216,WASABI Nback,2020.2.10,60.00070800501433,
0,1,3,"[0.2, 0.2]",None,0,1,1,1,,,,,0,0,0,0,0,99,99,99,,,,,,,,,,,None,None,0,583.7460086999927,None,583.7460086999927,584.7460196999891,584.7293512999895,585.7294054999948,0,1,583.7460086999927,None,5,m,4,r,CIB,2021_Jun_10_1216,WASABI Nback,2020.2.10,60.00070800501433,
0,1,5,"[0, 0]",None,0,1,1,1,,,,,0,0,0,0,0,100,100,100,,,,,,,,,,,None,None,0,585.7460427999904,None,585.7460427999904,586.7460203999944,586.7293498999934,587.7293613999936,0,1,585.7460427999904,None,5,m,4,r,CIB,2021_Jun_10_1216,WASABI Nback,2020.2.10,60.00070800501433,
0,1,3,"[0.2, 0.2]",1,0,1,1,1,,,,,0,0,0,0,0,101,101,101,,,,,,,,,,,None,None,0,587.7460398999974,None,587.7460398999974,588.7460509999946,588.7293704999902,589.7293694999971,0,1,587.7460398999974,None,5,m,4,r,CIB,2021_Jun_10_1216,WASABI Nback,2020.2.10,60.00070800501433,
0,1,1,"[-0.2, 0.2]",None,0,1,1,1,,,,,0,0,0,0,0,102,102,102,,,,,,,,,,,None,None,0,589.746090399989,None,589.746090399989,590.7460561999906,590.7293857999903,591.7293938999937,0,1,589.746090399989,None,5,m,4,r,CIB,2021_Jun_10_1216,WASABI Nback,2020.2.10,60.00070800501433,
0,1,9,"[0.2, -0.2]",None,0,1,1,1,,,,,0,0,0,0,0,103,103,103,,,,,,,,,,,None,None,0,591.7460578000027,None,591.7460578000027,592.7460655999894,592.7294063000008,593.7294223999925,0,1,591.7460578000027,None,5,m,4,r,CIB,2021_Jun_10_1216,WASABI Nback,2020.2.10,60.00070800501433,
0,1,9,"[0.2, -0.2]",None,0,1,1,1,,,,,0,0,0,0,0,104,104,104,,,,,,,,,,,None,None,0,593.7461094000028,None,593.7461094000028,594.7460720999952,594.729416999995,595.7294315999898,0,1,593.7461094000028,None,5,m,4,r,CIB,2021_Jun_10_1216,WASABI Nback,2020.2.10,60.00070800501433,
0,1,8,"[0, -0.2]",None,0,1,1,1,,,,,0,0,0,0,0,105,105,105,,,,,,,,,,,None,None,0,595.7461036000022,None,595.7461036000022,596.7460964999918,596.7294241999916,597.7294387000002,0,1,595.7461036000022,None,5,m,4,r,CIB,2021_Jun_10_1216,WASABI Nback,2020.2.10,60.00070800501433,
0,1,6,"[0.2, 0]",None,0,1,1,1,,,,,0,0,0,0,0,106,106,106,,,,,,,,,,,None,None,0,597.7461049999984,None,597.7461049999984,598.7461074000021,598.7294487999898,599.7294753000024,0,1,597.7461049999984,None,5,m,4,r,CIB,2021_Jun_10_1216,WASABI Nback,2020.2.10,60.00070800501433,
0,1,3,"[0.2, 0.2]",None,0,1,1,1,,,,,0,0,0,0,0,107,107,107,,,,,,,,,,,None,None,0,599.7461030999984,None,599.7461030999984,600.7461211999907,600.7294805999991,601.7294796999922,0,1,599.7461030999984,None,5,m,4,r,CIB,2021_Jun_10_1216,WASABI Nback,2020.2.10,60.00070800501433,
0,1,6,"[0.2, 0]",1,0,1,1,1,,,,,0,0,0,0,0,108,108,108,,,,,,,,,,,None,None,0,601.7461457000027,None,601.7461457000027,602.7461481999926,602.729473799991,603.7294818999944,0,1,601.7461457000027,None,5,m,4,r,CIB,2021_Jun_10_1216,WASABI Nback,2020.2.10,60.00070800501433,
0,1,5,"[0, 0]",None,0,1,1,1,,,,,0,0,0,0,0,109,109,109,,,,,,,,,,,None,None,0,603.7461513000017,None,603.7461513000017,604.746172500003,604.7294950999931,605.7295149999991,0,1,603.7461513000017,None,5,m,4,r,CIB,2021_Jun_10_1216,WASABI Nback,2020.2.10,60.00070800501433,
0,1,7,"[-0.2, -0.2]",None,0,1,1,1,,,,,0,0,0,0,0,110,110,110,,,,,,,,,,,None,None,0,605.7461676999956,None,605.7461676999956,606.7461727999907,606.729523499991,607.7294991999952,0,1,605.7461676999956,None,5,m,4,r,CIB,2021_Jun_10_1216,WASABI Nback,2020.2.10,60.00070800501433,
0,1,5,"[0, 0]",1,0,1,1,1,,,,,0,0,0,0,0,111,111,111,,,,,,,,,,,None,None,0,607.7461924999952,None,607.7461924999952,608.7462011000025,608.7295412999956,609.7295235999918,0,1,607.7461924999952,None,5,m,4,r,CIB,2021_Jun_10_1216,WASABI Nback,2020.2.10,60.00070800501433,
0,1,1,"[-0.2, 0.2]",None,0,1,1,1,,,,,0,0,0,0,0,112,112,112,,,,,,,,,,,None,None,0,609.7462011999887,None,609.7462011999887,610.7462164000026,610.7295457,611.7295646999992,0,1,609.7462011999887,None,5,m,4,r,CIB,2021_Jun_10_1216,WASABI Nback,2020.2.10,60.00070800501433,
0,1,7,"[-0.2, -0.2]",None,0,1,1,1,,,,,0,0,0,0,0,113,113,113,,,,,,,,,,,None,None,0,611.7462148999912,None,611.7462148999912,612.7462208999932,612.7295646999992,613.7295465999923,0,1,611.7462148999912,None,5,m,4,r,CIB,2021_Jun_10_1216,WASABI Nback,2020.2.10,60.00070800501433,
0,1,9,"[0.2, -0.2]",None,0,1,1,1,,,,,0,0,0,0,0,114,114,114,,,,,,,,,,,None,None,0,613.7462405999977,None,613.7462405999977,614.7462319999904,614.7295929999964,615.72959979999,0,1,613.7462405999977,None,5,m,4,r,CIB,2021_Jun_10_1216,WASABI Nback,2020.2.10,60.00070800501433,
0,1,3,"[0.2, 0.2]",None,0,1,1,1,,,,,0,0,0,0,0,115,115,115,,,,,,,,,,,None,None,0,615.7462443999975,None,615.7462443999975,616.746255399994,616.7296053000027,617.7296172999922,0,1,615.7462443999975,None,5,m,4,r,CIB,2021_Jun_10_1216,WASABI Nback,2020.2.10,60.00070800501433,
0,1,9,"[0.2, -0.2]",1,0,1,1,1,,,,,0,0,0,0,0,116,116,116,,,,,,,,,,,None,None,0,617.7462628999929,None,617.7462628999929,618.7462720999902,618.7296244999889,619.7296099999949,0,1,617.7462628999929,None,5,m,4,r,CIB,2021_Jun_10_1216,WASABI Nback,2020.2.10,60.00070800501433,
0,1,6,"[0.2, 0]",None,0,1,1,1,,,,,0,0,0,0,0,117,117,117,,,,,,,,,,,None,None,0,619.7462892999902,None,619.7462892999902,620.7462686999934,620.7296371999983,621.7296375000005,0,1,619.7462892999902,None,5,m,4,r,CIB,2021_Jun_10_1216,WASABI Nback,2020.2.10,60.00070800501433,
0,1,2,"[0, 0.2]",None,0,1,1,1,,,,,0,0,0,0,0,118,118,118,,,,,,,,,,,None,None,0,621.7462955999945,None,621.7462955999945,622.7463029999926,622.7296429999988,623.729660500001,0,1,621.7462955999945,None,5,m,4,r,CIB,2021_Jun_10_1216,WASABI Nback,2020.2.10,60.00070800501433,
0,1,5,"[0, 0]",None,0,1,1,1,,,,,0,0,0,0,0,119,119,119,,,,,,,,,,,None,None,0,623.746307399997,None,623.746307399997,624.7463193000003,624.7297200999892,625.7296694999968,0,1,623.746307399997,None,5,m,4,r,CIB,2021_Jun_10_1216,WASABI Nback,2020.2.10,60.00070800501433,
