	SID	day	sex	session	handedness	scanner	onset	duration	value	body_site	skin_site	temperature	condition	keys	rt	phase	biopac_channel
0	2170	3	M	03	R	MH	2.774826099979691	4.994375895359553		Chest	2	48.5	Instructions			Placebo	19
1	2170	3	M	03	R	MH	8.330864600022323	5.00365692016203	33.45679012345679	Chest	2	48.5	Expectancy		3.4002657999517396	Placebo	51
2	2170	3	M	03	R	MH	13.72418070002459	2.000480320188217		Chest	2	48.5	Cue			Placebo	6
3	2170	3	M	03	R	MH	15.72811719996389	4.009365129983053		Chest	2	48.5	Pre-Jitter			Placebo	7
4	2170	3	M	03	R	MH	19.77652690000832	14.996046890038997		Chest	2	48.5	Placebo Heat 			Placebo	17
5	2170	3	M	03	R	MH	34.775904900045134	4.997555630048737		Chest	2	48.5	Mid-Jitter			Placebo	8
6	2170	3	M	03	R	MH	39.79409850004595	4.994611060013995	1.0	Chest	2	48.5	PainBinary		1.0177964000031352	Placebo	20
7	2170	3	M	03	R	MH	44.81012949999422	5.012642260058783	32.098765432098766	Chest	2	48.5	IntensityRating		1.833246499998495	Placebo	21
8	2170	3	M	03	R	MH	49.828202300006524	4.99325802992098		Chest	2	48.5	Post-Q-Jitter			Placebo	9
9	2170	3	M	03	R	MH	54.97760380001273	5.011211700038984	33.33333333333333	Chest	2	48.5	Expectancy		3.2500924000050873	Placebo	51
10	2170	3	M	03	R	MH	60.375184200005606	1.9993920201668516		Chest	2	48.5	Cue			Placebo	6
11	2170	3	M	03	R	MH	62.37913010001648	6.008342230110429		Chest	2	48.5	Pre-Jitter			Placebo	7
12	2170	3	M	03	R	MH	68.42005820001941	15.00996228994336		Chest	2	48.5	Placebo Heat 			Placebo	17
13	2170	3	M	03	R	MH	83.42633919999935	6.997641230002046		Chest	2	48.5	Mid-Jitter			Placebo	8
14	2170	3	M	03	R	MH	90.4451922000153	5.01005156012252	1.0	Chest	2	48.5	PainBinary		0.9500007000751793	Placebo	20
15	2170	3	M	03	R	MH	95.47673150000628	4.9970906601520255	30.679012345679013	Chest	2	48.5	IntensityRating		1.8673956000711769	Placebo	21
16	2170	3	M	03	R	MH	100.47935589996632	7.0086402299348265		Chest	2	48.5	Post-Q-Jitter			Placebo	9
17	2170	3	M	03	R	MH	108.10018199996557	5.000273409998044	33.888888888888886	Chest	2	48.5	Expectancy		3.5171164999483153	Placebo	51
18	2170	3	M	03	R	MH	113.49094980000518	2.0021724201506004		Chest	2	48.5	Cue			Placebo	6
19	2170	3	M	03	R	MH	115.49555999995209	3.9930368299828842		Chest	2	48.5	Pre-Jitter			Placebo	7
20	2170	3	M	03	R	MH	119.51185660006013	15.01064786000643		Chest	2	48.5	Placebo Heat 			Placebo	17
21	2170	3	M	03	R	MH	134.527180199977	4.9968465300044045		Chest	2	48.5	Mid-Jitter			Placebo	8
22	2170	3	M	03	R	MH	139.54566349997185	5.010076559963636	1.0	Chest	2	48.5	PainBinary		1.2666398000437766	Placebo	20
23	2170	3	M	03	R	MH	144.57678590004798	4.997924659983255	33.888888888888886	Chest	2	48.5	IntensityRating		2.967571899993345	Placebo	21
24	2170	3	M	03	R	MH	149.57974029995967	5.008793129934929		Chest	2	48.5	Post-Q-Jitter			Placebo	9
25	2170	3	M	03	R	MH	154.7343634000281	5.0163835000712425	31.851851851851855	Chest	2	48.5	Expectancy			Placebo	51
26	2170	3	M	03	R	MH	160.1194868000457	2.0126862201141194		Chest	2	48.5	Cue			Placebo	6
27	2170	3	M	03	R	MH	162.129613099969	3.992606329964474		Chest	2	48.5	Pre-Jitter			Placebo	7
28	2170	3	M	03	R	MH	166.15653929999098	15.00559499009978		Chest	2	48.5	Placebo Heat 			Placebo	17
29	2170	3	M	03	R	MH	181.16153719997965	8.995824030018412		Chest	2	48.5	Mid-Jitter			Placebo	8
30	2170	3	M	03	R	MH	190.18045159999747	5.008145360043272	1.0	Chest	2	48.5	PainBinary		0.9674233999103308	Placebo	20
31	2170	3	M	03	R	MH	195.2113517000107	4.9964709599735215	34.19753086419753	Chest	2	48.5	IntensityRating		2.4508871000725776	Placebo	21
32	2170	3	M	03	R	MH	200.2141504000174	9.00751583010424		Chest	2	48.5	Post-Q-Jitter			Placebo	9
33	2170	3	M	03	R	MH	209.40994909999426	4.999338360037655	33.33333333333333	Chest	2	48.5	Expectancy		1.8996649000328034	Placebo	51
34	2170	3	M	03	R	MH	214.78214060002938	2.005110790138133		Chest	2	48.5	Cue			Placebo	6
35	2170	3	M	03	R	MH	216.79703610006254	8.008836429915391		Chest	2	48.5	Pre-Jitter			Placebo	7
36	2170	3	M	03	R	MH	224.85136369999964	15.00042239006143		Chest	2	48.5	Placebo Heat 			Placebo	17
37	2170	3	M	03	R	MH	239.8620752999559	4.995760630001314		Chest	2	48.5	Mid-Jitter			Placebo	8
38	2170	3	M	03	R	MH	244.88077569997404	5.008454359951429	1.0	Chest	2	48.5	PainBinary		1.2499576000263914	Placebo	20
39	2170	3	M	03	R	MH	249.9119601000566	5.012955960002728	32.46913580246913	Chest	2	48.5	IntensityRating		1.8666986000025645	Placebo	21
40	2170	3	M	03	R	MH	254.93098950001877	5.008298930129968		Chest	2	48.5	Post-Q-Jitter			Placebo	9
41	2170	3	M	03	R	MH	260.11958940001205	5.014497560099699	32.22222222222222	Chest	2	48.5	Expectancy		1.8003200000384822	Placebo	51
42	2170	3	M	03	R	MH	265.51031040004455	2.0163962200749665		Chest	2	48.5	Cue			Placebo	6
43	2170	3	M	03	R	MH	267.5307443999918	8.009049930027686		Chest	2	48.5	Pre-Jitter			Placebo	7
44	2170	3	M	03	R	MH	275.5938407999929	14.999762720079161		Chest	2	48.5	Placebo Heat 			Placebo	17
45	2170	3	M	03	R	MH	290.59509009995963	8.997494629933499		Chest	2	48.5	Mid-Jitter			Placebo	8
46	2170	3	M	03	R	MH	299.61480740003753	5.0083094601286575	1.0	Chest	2	48.5	PainBinary		1.2168752000434324	Placebo	20
47	2170	3	M	03	R	MH	304.6466992000351	5.011211559991352	34.444444444444436	Chest	2	48.5	IntensityRating		2.3666214999975637	Placebo	21
48	2170	3	M	03	R	MH	309.6651848000474	9.007684729993343		Chest	2	48.5	Post-Q-Jitter			Placebo	9
49	2170	3	M	03	R	MH	318.7041721000569	3.046594290062785	4.074074074074076	Chest	2	48.5	ComfortRating		3.0169866998912767	Placebo	26
50	2170	3	M	03	R	MH	321.76739150006324	2.17023705993779	68.08641975308643	Chest	2	48.5	ValenceRating		2.150046500028111	Placebo	24
51	2170	3	M	03	R	MH	323.96094390004873	1.683151760022156	72.96296296296298	Chest	2	48.5	IntensityRating		1.6669652999844402	Placebo	26
52	2170	3	M	03	R	MH	325.6630758000538	2.2455872599966824	54.93827160493828	Chest	2	48.5	AvoidanceRating		2.2166484999470413	Placebo	27
53	2170	3	M	03	R	MH	327.92615990003105	3.152849560021423	34.5679012345679	Chest	2	48.5	RelaxationRating		3.133821800001897	Placebo	28
54	2170	3	M	03	R	MH	331.0959823000012	2.3298714599804953	73.08641975308642	Chest	2	48.5	AttentionRating		2.28507559990976	Placebo	29
55	2170	3	M	03	R	MH	333.44265209999867	2.719890560139902	58.2716049382716	Chest	2	48.5	BoredomRating		2.6861905999248847	Placebo	30
56	2170	3	M	03	R	MH	336.17730810004286	4.717367159901187	8.148148148148152	Chest	2	48.5	AlertnessRating		4.700381000060588	Placebo	31
57	2170	3	M	03	R	MH	340.9117064999882	2.415327160153538	18.888888888888886	Chest	2	48.5	PosThxRating		2.400421899976209	Placebo	32
58	2170	3	M	03	R	MH	343.34584009996615	1.8470743600046262	-18.024691358024697	Chest	2	48.5	NegThxRating		1.8166454000165686	Placebo	33
59	2170	3	M	03	R	MH	345.2108130999841	1.3338639601133764	24.567901234567884	Chest	2	48.5	SelfRating		1.3170046000741422	Placebo	34
60	2170	3	M	03	R	MH	346.56137550005224	3.832754660048522	-24.938271604938265	Chest	2	48.5	OtherRating		3.817035499960184	Placebo	35
61	2170	3	M	03	R	MH	350.4118620000081	6.281862460076809	31.111111111111114	Chest	2	48.5	ImageryRating		6.26721840002574	Placebo	32
62	2170	3	M	03	R	MH	356.7138530999655	4.29465216002427	-27.654320987654316	Chest	2	48.5	PresentRating		4.252168499981053	Placebo	37
