	SID	date	sex	session	handedness	scanner	onset	duration	repetition	rating	body_site	keys	temperature	conditionrt	mouseclick	biopac_channel	condition	rt	value
0	3235	2025_Nov_11_1311	f	1	r	ts ss	2.774519700091332	4.99927441123873								19	Instructions		
1	3235	2025_Nov_11_1311	f	1	r	ts ss	8.495796000119299	2.0076449001207948								6	Cue		
2	3235	2025_Nov_11_1311	f	1	r	ts ss	10.510822399985045	5.994448699988425								7	Pre-Jitter		
3	3235	2025_Nov_11_1311	f	1	r	ts ss	16.545556500088423	15.008632699493319			Left Leg		48.0			15	Heat-Stimulation		
4	3235	2025_Nov_11_1311	f	1	r	ts ss	31.643008300103247	6.997274899389595								8	Mid-Jitter		
5	3235	2025_Nov_11_1311	f	1	r	ts ss	38.65923719992861	4.998350900132209								20	PainBinary	1.3002914995886385	1.0
6	3235	2025_Nov_11_1311	f	1	r	ts ss	43.6774661000818	5.012025899719447								21	IntensityRating	2.433624600060284	55.80246913580247
7	3235	2025_Nov_11_1311	f	1	r	ts ss	48.706653399858624	5.00375230005011								22	ToleranceRating	1.4339245995506644	-1.0
8	3235	2025_Nov_11_1311	f	1	r	ts ss	53.712910200003535	7.008026200346649								9	Post-Q-Jitter		
9	3235	2025_Nov_11_1311	f	1	r	ts ss	61.40735259978101	2.0025821002200246								6	Cue		
10	3235	2025_Nov_11_1311	f	1	r	ts ss	63.40965300006792	7.998158399946988								7	Pre-Jitter		
11	3235	2025_Nov_11_1311	f	1	r	ts ss	71.44287220016122	14.998759499751031			Left Leg		47.5			15	Heat-Stimulation		
12	3235	2025_Nov_11_1311	f	1	r	ts ss	86.52221590001136	5.007023299578577								8	Mid-Jitter		
13	3235	2025_Nov_11_1311	f	1	r	ts ss	91.5438632001169	5.01376359956339								20	PainBinary	1.8002750999294221	1.0
14	3235	2025_Nov_11_1311	f	1	r	ts ss	96.57749000005424	5.013288100250065								21	IntensityRating	1.6336508002132177	55.30864197530864
15	3235	2025_Nov_11_1311	f	1	r	ts ss	101.60721449973062	5.003949600271881								22	ToleranceRating	1.750340299680829	-1.0
16	3235	2025_Nov_11_1311	f	1	r	ts ss	106.61331119993702	5.008557700086385								9	Post-Q-Jitter		
17	3235	2025_Nov_11_1311	f	1	r	ts ss	113.28421049984172	2.000132201705128								6	Cue		
18	3235	2025_Nov_11_1311	f	1	r	ts ss	115.29351940006018	3.9983209003694355								7	Pre-Jitter		
19	3235	2025_Nov_11_1311	f	1	r	ts ss	119.3535850001499	15.011775100138038			Left Leg		47.0			15	Heat-Stimulation		
20	3235	2025_Nov_11_1311	f	1	r	ts ss	134.44313699984923	4.999586199875921								8	Mid-Jitter		
21	3235	2025_Nov_11_1311	f	1	r	ts ss	139.46079499972984	4.997741899918765								20	PainBinary	1.4336387999355793	1.0
22	3235	2025_Nov_11_1311	f	1	r	ts ss	144.47795479977503	5.013518000021577								21	IntensityRating	2.002736599650234	54.012345679012356
23	3235	2025_Nov_11_1311	f	1	r	ts ss	149.50734659982845	5.004877700004727								22	ToleranceRating	1.7836389001458883	-1.0
24	3235	2025_Nov_11_1311	f	1	r	ts ss	154.5142703000456	5.007834799587727								9	Post-Q-Jitter		
25	3235	2025_Nov_11_1311	f	1	r	ts ss	161.4822359997779	2.005279701203108								6	Cue		
26	3235	2025_Nov_11_1311	f	1	r	ts ss	163.49465079978108	3.9973241998814046								7	Pre-Jitter		
27	3235	2025_Nov_11_1311	f	1	r	ts ss	167.55024589970708	15.003009400330484			Left Leg		46.5			15	Heat-Stimulation		
28	3235	2025_Nov_11_1311	f	1	r	ts ss	182.64633799996227	9.011108900420368								8	Mid-Jitter		
29	3235	2025_Nov_11_1311	f	1	r	ts ss	191.6778887999244	4.998193100094795								20	PainBinary	1.1667645000852644	1.0
30	3235	2025_Nov_11_1311	f	1	r	ts ss	196.69531420012936	5.01347570028156								21	IntensityRating	3.066964900121093	53.70370370370371
31	3235	2025_Nov_11_1311	f	1	r	ts ss	201.72434169985354	5.005542499944568								22	ToleranceRating	1.7336312998086214	-1.0
32	3235	2025_Nov_11_1311	f	1	r	ts ss	206.73134890012443	9.008348499890417								9	Post-Q-Jitter		
33	3235	2025_Nov_11_1311	f	1	r	ts ss	217.46214069984853	2.0135496011935174								6	Cue		
34	3235	2025_Nov_11_1311	f	1	r	ts ss	219.47916990006343	3.996305099222809								7	Pre-Jitter		
35	3235	2025_Nov_11_1311	f	1	r	ts ss	223.5344159998931	15.002743999939412			Left Leg		46.0			15	Heat-Stimulation		
36	3235	2025_Nov_11_1311	f	1	r	ts ss	238.62193899974227	9.01138349995017								8	Mid-Jitter		
37	3235	2025_Nov_11_1311	f	1	r	ts ss	247.64663169998676	5.0121289999224246								20	PainBinary	1.4002677001990378	1.0
38	3235	2025_Nov_11_1311	f	1	r	ts ss	252.67957159969956	5.013032299932092								21	IntensityRating	4.300305200275034	46.41975308641975
39	3235	2025_Nov_11_1311	f	1	r	ts ss	257.71108249993995	5.0001564999111								22	ToleranceRating	2.3003111998550594	1.0
40	3235	2025_Nov_11_1311	f	1	r	ts ss	262.7156870998442	9.007764699868858								9	Post-Q-Jitter		
41	3235	2025_Nov_11_1311	f	1	r	ts ss	273.53908200003207	2.0110965007916093								6	Cue		
42	3235	2025_Nov_11_1311	f	1	r	ts ss	275.54600790003315	7.997462399769574								7	Pre-Jitter		
43	3235	2025_Nov_11_1311	f	1	r	ts ss	283.57730539981276	15.00178480008617			Left Leg		46.0			15	Heat-Stimulation		
44	3235	2025_Nov_11_1311	f	1	r	ts ss	298.6561914999038	9.011005300562829								8	Mid-Jitter		
45	3235	2025_Nov_11_1311	f	1	r	ts ss	307.6809903001413	5.01157969981432								20	PainBinary	1.5192032000049949	1.0
46	3235	2025_Nov_11_1311	f	1	r	ts ss	312.7126012998633	4.99847299978137								21	IntensityRating	1.7337775002233684	47.53086419753087
47	3235	2025_Nov_11_1311	f	1	r	ts ss	317.7259005000815	5.00534369982779								22	ToleranceRating	2.1189449997618794	1.0
48	3235	2025_Nov_11_1311	f	1	r	ts ss	322.73316009994596	9.007669900078326								9	Post-Q-Jitter		
49	3235	2025_Nov_11_1311	f	1	r	ts ss	333.61929500009865	2.0021437015384436								6	Cue		
50	3235	2025_Nov_11_1311	f	1	r	ts ss	335.6299831001088	7.997651700396091								7	Pre-Jitter		
51	3235	2025_Nov_11_1311	f	1	r	ts ss	343.6605527000502	15.003421899862587			Left Leg		46.0			15	Heat-Stimulation		
52	3235	2025_Nov_11_1311	f	1	r	ts ss	358.74451919971034	5.002318500075489								8	Mid-Jitter		
53	3235	2025_Nov_11_1311	f	1	r	ts ss	363.7645713998936	4.995738199912012								20	PainBinary	1.568118500057608	1.0
54	3235	2025_Nov_11_1311	f	1	r	ts ss	368.78114590002224	5.012786299921572								21	IntensityRating	3.016922500450164	46.666666666666664
55	3235	2025_Nov_11_1311	f	1	r	ts ss	373.8103875000961	5.004429100081325								22	ToleranceRating	1.2003231002017856	-1.0
56	3235	2025_Nov_11_1311	f	1	r	ts ss	378.81747179990634	5.0070530995726585								9	Post-Q-Jitter		
57	3235	2025_Nov_11_1311	f	1	r	ts ss	383.85676269978285	6.462101699784398								26	ComfortRating	6.43379329983145	-17.77777777777777
58	3235	2025_Nov_11_1311	f	1	r	ts ss	390.3343678000383	4.340341599658132								24	ValenceRating	4.316976900212467	79.50617283950618
59	3235	2025_Nov_11_1311	f	1	r	ts ss	394.6951284999959	3.918907799758017								26	IntensityRating	3.9003138998523355	81.66666666666667
60	3235	2025_Nov_11_1311	f	1	r	ts ss	398.6287866998464	4.068338499870151								27	AvoidanceRating	4.050352499820292	-65.55555555555554
61	3235	2025_Nov_11_1311	f	1	r	ts ss	402.7105882000178	2.5714908996596932								28	RelaxationRating	2.5503525002859533	36.04938271604938
62	3235	2025_Nov_11_1311	f	1	r	ts ss	405.298325299751	6.796138200443238								29	AttentionRating	6.767019199673086	90.0
63	3235	2025_Nov_11_1311	f	1	r	ts ss	412.109712400008	5.256844699848443								30	BoredomRating	5.219610000029206	23.333333333333332
64	3235	2025_Nov_11_1311	f	1	r	ts ss	417.3777939998545	5.237483999691904								31	AlertnessRating	5.217158600222319	90.74074074074073
65	3235	2025_Nov_11_1311	f	1	r	ts ss	422.62861189991236	5.236034699250013								32	PosThxRating	5.217089400161058	87.90123456790121
66	3235	2025_Nov_11_1311	f	1	r	ts ss	427.8790007000789	3.4519966999068856								33	NegThxRating	3.4336951998993754	-34.44444444444444
67	3235	2025_Nov_11_1311	f	1	r	ts ss	431.343751499895	5.855944899842143								34	SelfRating	5.833714100066572	91.358024691358
68	3235	2025_Nov_11_1311	f	1	r	ts ss	437.2115215999074	3.2871799003332853								35	OtherRating	3.267015299759805	14.93827160493828
69	3235	2025_Nov_11_1311	f	1	r	ts ss	440.5120425000787	4.652899399865419								32	ImageryRating	4.619680600240827	54.69135802469137
70	3235	2025_Nov_11_1311	f	1	r	ts ss	445.1809724997729	3.931814400013536								37	PresentRating	3.900350600015372	89.01234567901238
